time,seconds_elapsed,z,y,x
1782846159152963800,0.0629638671875,-0.982574462890625,-0.022125244140625,0.0042266845703125
1782846159162968800,0.07296875,-0.985260009765625,-0.0228729248046875,0.00347900390625
1782846159172973800,0.082973876953125,-0.9990234375,-0.0200958251953125,0.000213623046875
1782846159182978800,0.092978759765625,-0.99395751953125,-0.0204010009765625,0.0017242431640625
1782846159192983800,0.10298388671875,-0.9854278564453125,-0.02130126953125,0.0038604736328125
1782846159202988800,0.11298876953125,-0.987701416015625,-0.0209197998046875,0.003173828125
1782846159212993800,0.122993896484375,-0.996124267578125,-0.0222930908203125,0.0010986328125
1782846159222998800,0.132998779296875,-0.9902801513671875,-0.021820068359375,0.002960205078125
1782846159233003800,0.143003662109375,-0.986724853515625,-0.0191192626953125,0.003662109375
1782846159243008800,0.1530087890625,-0.9902801513671875,-0.0202484130859375,0.001434326171875
1782846159253013800,0.163013671875,-0.994384765625,-0.0201416015625,0.0024261474609375
1782846159263018800,0.173018798828125,-0.9886627197265625,-0.022796630859375,0.0037994384765625
1782846159273023700,0.183023681640625,-0.988800048828125,-0.0201873779296875,0.0042266845703125
1782846159283028700,0.19302880859375,-0.9929351806640625,-0.0211181640625,0.0018157958984375
1782846159293033700,0.20303369140625,-0.991455078125,-0.021148681640625,0.0006866455078125
1782846159303038700,0.213038818359375,-0.98736572265625,-0.0220947265625,0.0041961669921875
1782846159313043700,0.223043701171875,-0.9888916015625,-0.02093505859375,0.0016937255859375
1782846159323048700,0.233048583984375,-0.9918365478515625,-0.02130126953125,0.002685546875
1782846159333054000,0.243053955078125,-0.99163818359375,-0.0218505859375,0.0055694580078125
1782846159343059000,0.253058837890625,-0.9906005859375,-0.0217437744140625,0.0029449462890625
1782846159353064000,0.26306396484375,-0.9923248291015625,-0.022247314453125,0.0015716552734375
1782846159363069200,0.273069091796875,-0.9916839599609375,-0.023681640625,0.001068115234375
1782846159373074200,0.28307421875,-0.9890594482421875,-0.021759033203125,0.0022430419921875
1782846159383079200,0.2930791015625,-0.9888458251953125,-0.02191162109375,0.0045928955078125
1782846159393084200,0.303084228515625,-0.9912109375,-0.021881103515625,0.002105712890625
1782846159403089200,0.313089111328125,-0.9910430908203125,-0.021209716796875,0.0029144287109375
1782846159413094100,0.32309423828125,-0.989959716796875,-0.021636962890625,0.003265380859375
1782846159423099100,0.33309912109375,-0.9884796142578125,-0.0213775634765625,0.0030517578125
1782846159433104100,0.343104248046875,-0.9913482666015625,-0.0204315185546875,0.002593994140625
1782846159443108900,0.35310888671875,-0.9924163818359375,-0.02130126953125,0.002777099609375
1782846159453113900,0.36311376953125,-0.9888153076171875,-0.02191162109375,0.0022125244140625
1782846159463118800,0.373118896484375,-0.989410400390625,-0.0221405029296875,0.002593994140625
1782846159473123800,0.383123779296875,-0.99041748046875,-0.0211181640625,0.0015716552734375
1782846159483128800,0.39312890625,-0.9905242919921875,-0.0210723876953125,0.002471923828125
1782846159493133800,0.4031337890625,-0.990264892578125,-0.0202789306640625,0.0023193359375
1782846159503138800,0.413138916015625,-0.989654541015625,-0.02105712890625,0.00177001953125
1782846159513143800,0.423143798828125,-0.98980712890625,-0.0211334228515625,0.00299072265625
1782846159523148800,0.433148681640625,-0.988983154296875,-0.02215576171875,0.0030059814453125
1782846159533153800,0.44315380859375,-0.9908294677734375,-0.0223236083984375,0.00341796875
1782846159543158800,0.45315869140625,-0.9914703369140625,-0.021575927734375,0.001495361328125
1782846159553163800,0.463163818359375,-0.9898834228515625,-0.0206756591796875,0.0014801025390625
1782846159563168800,0.473168701171875,-0.9903106689453125,-0.021728515625,0.002288818359375
1782846159573173800,0.483173828125,-0.99005126953125,-0.0220184326171875,0.0031585693359375
1782846159583178800,0.4931787109375,-0.9917755126953125,-0.0213775634765625,0.00250244140625
1782846159593183700,0.503183837890625,-0.99041748046875,-0.0206146240234375,0.004974365234375
1782846159603188700,0.513188720703125,-0.9891204833984375,-0.020904541015625,0.0046234130859375
1782846159613193700,0.52319384765625,-0.990386962890625,-0.0219879150390625,0.0025177001953125
1782846159623198700,0.53319873046875,-0.9886932373046875,-0.0199127197265625,0.00323486328125
1782846159633203700,0.54320361328125,-0.9907684326171875,-0.021484375,0.0015106201171875
1782846159643208700,0.553208740234375,-0.99151611328125,-0.0215606689453125,0.0023040771484375
1782846159653213700,0.563213623046875,-0.9901123046875,-0.0218505859375,0.003173828125
1782846159663218700,0.57321875,-0.989990234375,-0.021270751953125,0.0032806396484375
1782846159673223700,0.5832236328125,-0.9900054931640625,-0.02099609375,0.00335693359375
1782846159683228700,0.593228759765625,-0.9911041259765625,-0.0191802978515625,0.003570556640625
1782846159693233700,0.603233642578125,-0.991943359375,-0.0224151611328125,0.004150390625
1782846159703238700,0.61323876953125,-0.9893646240234375,-0.022186279296875,0.0035247802734375
1782846159713243600,0.62324365234375,-0.9896697998046875,-0.0211181640625,0.0012359619140625
1782846159723248600,0.63324853515625,-0.9903717041015625,-0.0216522216796875,0.0016632080078125
1782846159733253600,0.643253662109375,-0.9910430908203125,-0.0227508544921875,0.002655029296875
1782846159743258600,0.653258544921875,-0.9908599853515625,-0.0225677490234375,0.0024261474609375
1782846159753263600,0.663263671875,-0.990020751953125,-0.0215606689453125,0.00439453125
1782846159763268600,0.6732685546875,-0.9900970458984375,-0.021881103515625,0.002349853515625
1782846159773273600,0.683273681640625,-0.9920196533203125,-0.020904541015625,0.0006866455078125
1782846159783278600,0.693278564453125,-0.9924468994140625,-0.021240234375,0.0030059814453125
1782846159793283600,0.70328369140625,-0.99163818359375,-0.020599365234375,0.0020751953125
1782846159803288600,0.71328857421875,-0.9905548095703125,-0.0214996337890625,0.00213623046875
1782846159813293600,0.72329345703125,-0.9895477294921875,-0.0196075439453125,0.0020599365234375
1782846159823298800,0.733298828125,-0.9916534423828125,-0.020538330078125,0.002960205078125
1782846159833303800,0.7433037109375,-0.99029541015625,-0.021331787109375,0.0038909912109375
1782846159843308800,0.753308837890625,-0.988616943359375,-0.020233154296875,0.0024871826171875
1782846159853313800,0.763313720703125,-0.9904937744140625,-0.0216217041015625,0.00128173828125
1782846159863318800,0.77331884765625,-0.9910888671875,-0.0224151611328125,0.0023040771484375
1782846159873323800,0.78332373046875,-0.990692138671875,-0.0214385986328125,0.0030975341796875
1782846159883328800,0.793328857421875,-0.9912109375,-0.020965576171875,0.0029449462890625
1782846159893333800,0.803333740234375,-0.9918975830078125,-0.020751953125,0.002593994140625
1782846159903338800,0.8133388671875,-0.9893035888671875,-0.0222625732421875,0.0034027099609375
1782846159913343700,0.82334375,-0.988739013671875,-0.0211944580078125,0.0009307861328125
1782846159923348700,0.8333486328125,-0.991546630859375,-0.0214996337890625,0.001251220703125
1782846159933353700,0.843353759765625,-0.9909515380859375,-0.0216064453125,0.0023345947265625
1782846159943359000,0.85335888671875,-0.9904022216796875,-0.021942138671875,0.0036468505859375
1782846159953364000,0.863364013671875,-0.99005126953125,-0.0211944580078125,0.0034332275390625
1782846159963369000,0.873368896484375,-0.990570068359375,-0.02081298828125,0.0015716552734375
1782846159973374000,0.8833740234375,-0.991729736328125,-0.019866943359375,0.004180908203125
1782846159983379000,0.89337890625,-0.9898529052734375,-0.0212249755859375,0.0041046142578125
1782846159993384000,0.903384033203125,-0.99078369140625,-0.0223846435546875,0.0026397705078125
1782846160003389000,0.913388916015625,-0.9914093017578125,-0.0209197998046875,0.0021209716796875
1782846160013394000,0.923393798828125,-0.990753173828125,-0.021331787109375,0.0016937255859375
1782846160023399000,0.93339892578125,-0.99005126953125,-0.021759033203125,0.002716064453125
1782846160033404000,0.94340380859375,-0.9902801513671875,-0.0212249755859375,0.002166748046875
1782846160043409000,0.953408935546875,-0.99041748046875,-0.0206146240234375,0.002410888671875
1782846160053414000,0.963413818359375,-0.9900054931640625,-0.0200347900390625,0.0025482177734375
1782846160063419000,0.9734189453125,-0.9903106689453125,-0.0223541259765625,0.001708984375
1782846160073424000,0.983423828125,-0.989715576171875,-0.021697998046875,0.0028076171875
1782846160083428900,0.993428955078125,-0.9900970458984375,-0.022216796875,0.0015869140625
1782846160093433900,1.003433837890625,-0.9900360107421875,-0.02130126953125,0.0027313232421875
1782846160103438800,1.01343896484375,-0.9905853271484375,-0.02093505859375,0.0031890869140625
1782846160113443800,1.02344384765625,-0.9909820556640625,-0.0212249755859375,0.0030364990234375
1782846160123448800,1.03344873046875,-0.991485595703125,-0.020416259765625,0.003997802734375
1782846160133453800,1.043453857421875,-0.990325927734375,-0.0221710205078125,0.003387451171875
1782846160143458800,1.053458740234375,-0.98956298828125,-0.021728515625,0.003204345703125
1782846160153463800,1.0634638671875,-0.9902801513671875,-0.019989013671875,0.002288818359375
1782846160163468800,1.07346875,-0.9901275634765625,-0.0210113525390625,0.0037841796875
1782846160173473800,1.083473876953125,-0.9915008544921875,-0.0208740234375,0.0015411376953125
1782846160183478800,1.093478759765625,-0.9919891357421875,-0.0215911865234375,0.0035552978515625
1782846160193483800,1.10348388671875,-0.991546630859375,-0.021148681640625,0.003662109375
1782846160203488800,1.11348876953125,-0.99114990234375,-0.02178955078125,0.001373291015625
1782846160213493800,1.12349365234375,-0.991241455078125,-0.021270751953125,0.0010986328125
1782846160223498800,1.133498779296875,-0.9905242919921875,-0.021087646484375,0.0019683837890625
1782846160233503700,1.143503662109375,-0.989990234375,-0.0222625732421875,0.00347900390625
1782846160243508700,1.1535087890625,-0.9906158447265625,-0.02252197265625,0.00213623046875
1782846160253513700,1.163513671875,-0.992095947265625,-0.0204010009765625,0.0024261474609375
1782846160263518700,1.173518798828125,-0.990875244140625,-0.0218353271484375,0.0015716552734375
1782846160273523700,1.183523681640625,-0.9906005859375,-0.0212249755859375,0.0046844482421875
1782846160283528700,1.19352880859375,-0.99053955078125,-0.0212249755859375,0.0035247802734375
1782846160293533700,1.20353369140625,-0.989776611328125,-0.0212249755859375,0.0025177001953125
1782846160303538700,1.21353857421875,-0.99114990234375,-0.0215606689453125,0.0034332275390625
1782846160313543700,1.223543701171875,-0.9898834228515625,-0.0205535888671875,0.003082275390625
1782846160323548700,1.233548583984375,-0.9904937744140625,-0.0212554931640625,0.003173828125
1782846160333553700,1.2435537109375,-0.9895477294921875,-0.0202484130859375,0.002685546875
1782846160343559000,1.253558837890625,-0.99017333984375,-0.0206146240234375,0.0010986328125
1782846160353564000,1.26356396484375,-0.990386962890625,-0.0217132568359375,0.002288818359375
1782846160363569000,1.27356884765625,-0.9905548095703125,-0.020477294921875,0.003082275390625
1782846160373574000,1.283573974609375,-0.9900360107421875,-0.021331787109375,0.002899169921875
1782846160383579000,1.293578857421875,-0.99139404296875,-0.0220184326171875,0.001708984375
1782846160393583900,1.303583984375,-0.9904327392578125,-0.0208587646484375,0.00311279296875
1782846160403588900,1.3135888671875,-0.990325927734375,-0.0212554931640625,0.0016021728515625
1782846160413593900,1.32359375,-0.9900360107421875,-0.0222625732421875,0.0022125244140625
1782846160423598800,1.333598876953125,-0.9893951416015625,-0.021636962890625,0.00244140625
1782846160433604600,1.3436044921875,-0.9907073974609375,-0.020599365234375,0.0017547607421875
1782846160443609300,1.353609375,-0.9898529052734375,-0.020904541015625,0.0019683837890625
1782846160453615000,1.363614990234375,-0.989837646484375,-0.0220489501953125,0.0022735595703125
1782846160463620000,1.3736201171875,-0.99053955078125,-0.02154541015625,0.002197265625
1782846160473625000,1.383625,-0.9912872314453125,-0.021392822265625,0.0026092529296875
1782846160483630000,1.393630126953125,-0.9918975830078125,-0.02099609375,0.0035552978515625
1782846160493635000,1.403635009765625,-0.9903106689453125,-0.022491455078125,0.002166748046875
1782846160503640000,1.41364013671875,-0.9897003173828125,-0.020751953125,0.002288818359375
1782846160513645000,1.42364501953125,-0.9906768798828125,-0.0211181640625,0.0033111572265625
1782846160523650000,1.433650146484375,-0.990142822265625,-0.0206298828125,0.0030059814453125
1782846160533655000,1.443655029296875,-0.990753173828125,-0.020904541015625,0.0029296875
1782846160543660300,1.453660400390625,-0.9922943115234375,-0.0211639404296875,0.00274658203125
1782846160553665300,1.463665283203125,-0.9918060302734375,-0.0202789306640625,0.0030975341796875
1782846160563670300,1.473670166015625,-0.99163818359375,-0.0209808349609375,0.0032196044921875
1782846160573675300,1.48367529296875,-0.9910430908203125,-0.021881103515625,0.0013427734375
1782846160583680300,1.49368017578125,-0.991241455078125,-0.0203704833984375,0.002471923828125
1782846160593685200,1.503685302734375,-0.98956298828125,-0.0222625732421875,0.004302978515625
1782846160603690200,1.513690185546875,-0.9912872314453125,-0.0219268798828125,0.001800537109375
1782846160613695200,1.5236953125,-0.98931884765625,-0.02044677734375,0.002532958984375
1782846160623700200,1.5337001953125,-0.989471435546875,-0.02001953125,0.002716064453125
1782846160633705200,1.543705322265625,-0.9902496337890625,-0.0213775634765625,0.0034027099609375
1782846160643710200,1.553710205078125,-0.9909210205078125,-0.022216796875,0.0024261474609375
1782846160653715200,1.563715087890625,-0.9904632568359375,-0.0225372314453125,0.003936767578125
1782846160663720200,1.57372021484375,-0.9892578125,-0.0217437744140625,0.00286865234375
1782846160673725200,1.58372509765625,-0.9903564453125,-0.0223541259765625,0.0031890869140625
1782846160683730200,1.593730224609375,-0.990814208984375,-0.0213470458984375,0.0025634765625
1782846160693735200,1.603735107421875,-0.9890594482421875,-0.021484375,0.00274658203125
1782846160703740200,1.613740234375,-0.9891510009765625,-0.0208892822265625,0.0030059814453125
1782846160713745200,1.6237451171875,-0.9909820556640625,-0.0213775634765625,0.00244140625
1782846160723750100,1.633750244140625,-0.990447998046875,-0.0216217041015625,0.0026397705078125
1782846160733755100,1.643755126953125,-0.98974609375,-0.02099609375,0.0020904541015625
1782846160743760100,1.653760009765625,-0.990447998046875,-0.0203704833984375,0.002655029296875
1782846160753765000,1.66376513671875,-0.9902801513671875,-0.0208587646484375,0.0041656494140625
1782846160763770000,1.67377001953125,-0.9910430908203125,-0.0217742919921875,0.001556396484375
1782846160773775000,1.683775146484375,-0.9915008544921875,-0.0222320556640625,0.002105712890625
1782846160783780000,1.693780029296875,-0.990203857421875,-0.0221405029296875,0.0019073486328125
1782846160793785000,1.70378515625,-0.991119384765625,-0.0212249755859375,0.001556396484375
1782846160803790000,1.7137900390625,-0.9908599853515625,-0.019775390625,0.0027923583984375
1782846160813795000,1.723795166015625,-0.9903564453125,-0.0216827392578125,0.0032196044921875
1782846160823800000,1.733800048828125,-0.9909210205078125,-0.020416259765625,0.003387451171875
1782846160833805000,1.74380517578125,-0.9911346435546875,-0.0206451416015625,0.0028839111328125
1782846160843810000,1.75381005859375,-0.991607666015625,-0.0222625732421875,0.0032196044921875
1782846160853815000,1.76381494140625,-0.991790771484375,-0.02142333984375,0.00408935546875
1782846160863820000,1.773820068359375,-0.989349365234375,-0.0219879150390625,0.003082275390625
1782846160873825000,1.783824951171875,-0.9919891357421875,-0.020721435546875,0.001708984375
1782846160883830000,1.793830078125,-0.991302490234375,-0.0203704833984375,0.0018768310546875
1782846160893835000,1.8038349609375,-0.9896392822265625,-0.0201873779296875,0.0034027099609375
1782846160903840000,1.813840087890625,-0.9912109375,-0.02117919921875,0.0019073486328125
1782846160913845000,1.823844970703125,-0.9915771484375,-0.02130126953125,0.00347900390625
1782846160923850000,1.83385009765625,-0.990081787109375,-0.0224151611328125,0.0026092529296875
1782846160933855000,1.84385498046875,-0.9914703369140625,-0.021514892578125,0.000885009765625
1782846160943860000,1.85385986328125,-0.99078369140625,-0.0210418701171875,0.0029144287109375
1782846160953865000,1.863864990234375,-0.990570068359375,-0.020477294921875,0.0015411376953125
1782846160963870000,1.873869873046875,-0.9907989501953125,-0.02239990234375,0.0031585693359375
1782846160973875000,1.883875,-0.9896392822265625,-0.020294189453125,0.0019073486328125
1782846160983880000,1.8938798828125,-0.9903717041015625,-0.0218353271484375,0.0025177001953125
1782846160993885000,1.903885009765625,-0.9891510009765625,-0.022796630859375,0.0032806396484375
1782846161003890000,1.913889892578125,-0.9898834228515625,-0.0198516845703125,0.0029754638671875
1782846161013895200,1.923895263671875,-0.9898681640625,-0.021331787109375,0.002960205078125
1782846161023900200,1.933900146484375,-0.9910430908203125,-0.021514892578125,0.002349853515625
1782846161033905200,1.9439052734375,-0.9901123046875,-0.020538330078125,0.0023193359375
1782846161043910100,1.95391015625,-0.9899749755859375,-0.02130126953125,0.0030364990234375
1782846161053915100,1.9639150390625,-0.99078369140625,-0.01983642578125,0.0037689208984375
1782846161063920400,1.97392041015625,-0.9899749755859375,-0.0226898193359375,0.0035247802734375
1782846161073925400,1.98392529296875,-0.990692138671875,-0.0218963623046875,0.003936767578125
1782846161083930400,1.993930419921875,-0.9906005859375,-0.022308349609375,0.00177001953125
1782846161093935400,2.003935302734375,-0.99163818359375,-0.0211639404296875,0.0036773681640625
1782846161103940400,2.0139404296875,-0.9901885986328125,-0.0210113525390625,0.0020751953125
1782846161113945300,2.0239453125,-0.9902801513671875,-0.0205078125,0.001556396484375
1782846161123950300,2.033950439453125,-0.99005126953125,-0.02044677734375,0.002105712890625
1782846161133955300,2.043955322265625,-0.9894256591796875,-0.021270751953125,0.00360107421875
1782846161143960300,2.053960205078125,-0.9900360107421875,-0.0221405029296875,0.00152587890625
1782846161153965300,2.06396533203125,-0.989501953125,-0.020263671875,0.003021240234375
1782846161163970300,2.07397021484375,-0.989471435546875,-0.0216522216796875,0.002105712890625
1782846161173975300,2.083975341796875,-0.990264892578125,-0.0225830078125,0.003021240234375
1782846161183980300,2.093980224609375,-0.99053955078125,-0.0206756591796875,0.0009002685546875
1782846161193985300,2.1039853515625,-0.9912109375,-0.0204620361328125,0.0029296875
1782846161203990300,2.113990234375,-0.9893798828125,-0.02203369140625,0.0037078857421875
1782846161213995300,2.123995361328125,-0.9900360107421875,-0.020843505859375,0.0032501220703125
1782846161224000300,2.134000244140625,-0.9882659912109375,-0.021514892578125,0.002532958984375
1782846161234005200,2.144005126953125,-0.989898681640625,-0.021820068359375,0.002410888671875
1782846161244010200,2.15401025390625,-0.990875244140625,-0.0209197998046875,0.0036773681640625
1782846161254015200,2.16401513671875,-0.9897918701171875,-0.0218048095703125,0.0009918212890625
1782846161264020200,2.174020263671875,-0.9900665283203125,-0.021453857421875,0.0002593994140625
1782846161274025200,2.184025146484375,-0.9899444580078125,-0.0217742919921875,0.0020599365234375
1782846161284030200,2.1940302734375,-0.9898681640625,-0.020965576171875,0.0021820068359375
1782846161294035200,2.20403515625,-0.991424560546875,-0.021453857421875,0.002593994140625
1782846161304040200,2.214040283203125,-0.990814208984375,-0.021881103515625,0.0035247802734375
1782846161314045200,2.224045166015625,-0.99053955078125,-0.0218963623046875,0.0049285888671875
1782846161324050200,2.23405029296875,-0.990509033203125,-0.02008056640625,0.00299072265625
1782846161334055200,2.24405517578125,-0.9898223876953125,-0.022857666015625,0.0036773681640625
1782846161344060200,2.25406005859375,-0.989959716796875,-0.021087646484375,0.0025634765625
1782846161354065200,2.264065185546875,-0.9902801513671875,-0.0211334228515625,0.003570556640625
1782846161364070100,2.274070068359375,-0.9906005859375,-0.020782470703125,0.003143310546875
1782846161374075100,2.2840751953125,-0.99041748046875,-0.0214080810546875,0.0024566650390625
1782846161384080100,2.294080078125,-0.9904632568359375,-0.02252197265625,0.0022430419921875
1782846161394085000,2.304085205078125,-0.9906005859375,-0.022308349609375,0.00299072265625
1782846161404090000,2.314090087890625,-0.9899444580078125,-0.02288818359375,0.002349853515625
1782846161414095000,2.32409521484375,-0.9900054931640625,-0.021575927734375,0.0025482177734375
1782846161424100000,2.33410009765625,-0.9903564453125,-0.020660400390625,0.00201416015625
1782846161434105000,2.34410498046875,-0.9913330078125,-0.0218658447265625,0.0025177001953125
1782846161444109800,2.35410986328125,-0.990509033203125,-0.0203094482421875,0.00244140625
1782846161454114800,2.36411474609375,-0.9913787841796875,-0.0201568603515625,0.00408935546875
1782846161464119800,2.374119873046875,-0.9904937744140625,-0.0220947265625,0.0015106201171875
1782846161474125000,2.384125,-0.989288330078125,-0.02093505859375,0.0027618408203125
1782846161484130000,2.394130126953125,-0.9904327392578125,-0.02099609375,0.003143310546875
1782846161494135000,2.404135009765625,-0.9914398193359375,-0.0224609375,0.004180908203125
1782846161504140000,2.41414013671875,-0.9891357421875,-0.0213775634765625,0.002410888671875
1782846161514145000,2.42414501953125,-0.9897613525390625,-0.02239990234375,0.0036163330078125
1782846161524150000,2.43414990234375,-0.990386962890625,-0.022216796875,0.0035400390625
1782846161534155000,2.444155029296875,-0.9905548095703125,-0.021392822265625,0.0027008056640625
1782846161544160000,2.454159912109375,-0.9918365478515625,-0.0217437744140625,0.002166748046875
1782846161554165200,2.464165283203125,-0.9908294677734375,-0.021575927734375,0.0027313232421875
1782846161564170200,2.474170166015625,-0.9900665283203125,-0.0215606689453125,0.0034637451171875
1782846161574175200,2.48417529296875,-0.9900665283203125,-0.020111083984375,0.004364013671875
1782846161584180200,2.49418017578125,-0.989959716796875,-0.020538330078125,0.004241943359375
1782846161594185200,2.504185302734375,-0.9915313720703125,-0.0200042724609375,0.001983642578125
1782846161604190200,2.514190185546875,-0.991119384765625,-0.0214691162109375,0.0018463134765625
1782846161614195200,2.5241953125,-0.989349365234375,-0.022216796875,0.003875732421875
1782846161624200200,2.5342001953125,-0.99200439453125,-0.0227203369140625,0.002655029296875
1782846161634205200,2.544205078125,-0.99127197265625,-0.022552490234375,0.00335693359375
1782846161644210200,2.554210205078125,-0.98992919921875,-0.02032470703125,0.002532958984375
1782846161654215200,2.564215087890625,-0.990203857421875,-0.02154541015625,0.0028076171875
1782846161664220200,2.57422021484375,-0.9912261962890625,-0.023193359375,0.003326416015625
1782846161674225200,2.58422509765625,-0.990875244140625,-0.0239105224609375,0.0033111572265625
1782846161684230100,2.594230224609375,-0.9888916015625,-0.021484375,0.0021514892578125
1782846161694235100,2.604235107421875,-0.9898681640625,-0.02252197265625,0.001861572265625
1782846161704240000,2.614240234375,-0.9906768798828125,-0.0222015380859375,0.002166748046875
1782846161714245000,2.6242451171875,-0.9908905029296875,-0.0203857421875,0.002593994140625
1782846161724250000,2.63425,-0.9902801513671875,-0.02239990234375,0.0031280517578125
1782846161734255000,2.644255126953125,-0.9906463623046875,-0.0218963623046875,0.002197265625
1782846161744260000,2.654260009765625,-0.99188232421875,-0.0215911865234375,0.0012969970703125
1782846161754265000,2.66426513671875,-0.9907684326171875,-0.021820068359375,0.002197265625
1782846161764270000,2.67427001953125,-0.9910736083984375,-0.020751953125,0.0035858154296875
1782846161774275000,2.684275146484375,-0.9906005859375,-0.0197906494140625,0.0026702880859375
1782846161784280000,2.694280029296875,-0.9913177490234375,-0.0211944580078125,0.003173828125
1782846161794285000,2.70428515625,-0.988372802734375,-0.0200653076171875,0.0044403076171875
1782846161804290000,2.7142900390625,-0.9896087646484375,-0.020263671875,0.001800537109375
1782846161814295000,2.724294921875,-0.9911651611328125,-0.0220794677734375,0.004486083984375
1782846161824300000,2.734300048828125,-0.989471435546875,-0.0222625732421875,0.0036163330078125
1782846161834305000,2.744304931640625,-0.990386962890625,-0.02099609375,0.003326416015625
1782846161844310000,2.75431005859375,-0.9902496337890625,-0.0216827392578125,0.00384521484375
1782846161854315000,2.76431494140625,-0.9912109375,-0.0220184326171875,0.0020904541015625
1782846161864320000,2.774320068359375,-0.9911651611328125,-0.0216827392578125,0.0025177001953125
1782846161874325000,2.784324951171875,-0.9901580810546875,-0.0213623046875,0.0030517578125
1782846161884330000,2.794330078125,-0.9906768798828125,-0.021636962890625,0.0032501220703125
1782846161894335000,2.8043349609375,-0.9898834228515625,-0.022003173828125,0.0032806396484375
1782846161904340000,2.814340087890625,-0.990142822265625,-0.021392822265625,0.0019073486328125
1782846161914345000,2.824344970703125,-0.9907073974609375,-0.0213775634765625,0.002105712890625
1782846161924350000,2.834349853515625,-0.99066162109375,-0.022003173828125,0.002197265625
1782846161934355000,2.84435498046875,-0.989593505859375,-0.0208892822265625,0.00262451171875
1782846161944360000,2.85435986328125,-0.9901123046875,-0.021514892578125,0.0035247802734375
1782846161954365000,2.864364990234375,-0.9907073974609375,-0.021636962890625,0.0026092529296875
1782846161964370000,2.874369873046875,-0.9901275634765625,-0.0222930908203125,0.0030364990234375
1782846161974375000,2.884375,-0.9916839599609375,-0.02069091796875,0.003082275390625
1782846161984380000,2.8943798828125,-0.9913482666015625,-0.02252197265625,0.00225830078125
1782846161994385000,2.904385009765625,-0.991424560546875,-0.021820068359375,0.0027923583984375
1782846162004390000,2.914389892578125,-0.9907073974609375,-0.0221099853515625,0.002105712890625
1782846162014396000,2.92439599609375,-0.9907989501953125,-0.0208587646484375,0.0025177001953125
1782846162024401000,2.93440087890625,-0.991058349609375,-0.0212554931640625,0.00213623046875
1782846162034406000,2.944406005859375,-0.9906158447265625,-0.02197265625,0.0010833740234375
1782846162044411000,2.954410888671875,-0.99041748046875,-0.0215911865234375,0.0033111572265625
1782846162054416000,2.964415771484375,-0.990631103515625,-0.02239990234375,0.0020904541015625
1782846162064420900,2.9744208984375,-0.9911346435546875,-0.0201873779296875,0.0024871826171875
1782846162074425900,2.98442578125,-0.9904937744140625,-0.02154541015625,0.001922607421875
1782846162084430800,2.994430908203125,-0.9902496337890625,-0.0228424072265625,0.0009918212890625
1782846162094435800,3.004435791015625,-0.9898834228515625,-0.021026611328125,0.002655029296875
1782846162104440800,3.01444091796875,-0.989990234375,-0.0226898193359375,0.003753662109375
1782846162114445800,3.02444580078125,-0.990081787109375,-0.0222625732421875,0.002838134765625
1782846162124450800,3.034450927734375,-0.9910736083984375,-0.0211029052734375,0.0012664794921875
1782846162134455800,3.044455810546875,-0.9892730712890625,-0.02154541015625,0.0028533935546875
1782846162144460800,3.054460693359375,-0.990509033203125,-0.021881103515625,0.00384521484375
1782846162154465800,3.0644658203125,-0.9897003173828125,-0.0221710205078125,0.004486083984375
1782846162164471000,3.074470947265625,-0.9902496337890625,-0.021728515625,0.00177001953125
1782846162174476000,3.08447607421875,-0.99029541015625,-0.0214080810546875,0.0032806396484375
1782846162184481000,3.09448095703125,-0.99102783203125,-0.02197265625,0.0024871826171875
1782846162194486000,3.104486083984375,-0.9898223876953125,-0.0211334228515625,0.0025634765625
1782846162204491300,3.1144912109375,-0.9901123046875,-0.0215301513671875,0.0029144287109375
1782846162214496300,3.124496337890625,-0.9906768798828125,-0.0215301513671875,0.002471923828125
1782846162224501200,3.134501220703125,-0.9892425537109375,-0.0208892822265625,0.002044677734375
1782846162234506200,3.14450634765625,-0.98956298828125,-0.0207061767578125,0.0028533935546875
1782846162244511200,3.15451123046875,-0.989593505859375,-0.02069091796875,0.0022735595703125
1782846162254516200,3.16451611328125,-0.9904937744140625,-0.0198516845703125,0.0025787353515625
1782846162264521200,3.174521240234375,-0.990631103515625,-0.02227783203125,0.0028228759765625
1782846162274526200,3.184526123046875,-0.990142822265625,-0.0213775634765625,0.003875732421875
1782846162284531200,3.19453125,-0.99090576171875,-0.02130126953125,0.0029296875
1782846162294536200,3.2045361328125,-0.990570068359375,-0.021820068359375,0.0024871826171875
1782846162304541200,3.214541259765625,-0.9906463623046875,-0.0212554931640625,0.0034332275390625
1782846162314546200,3.224546142578125,-0.9900054931640625,-0.0201568603515625,0.0026092529296875
1782846162324551200,3.23455126953125,-0.9906005859375,-0.0208740234375,0.0019073486328125
1782846162334556200,3.24455615234375,-0.990692138671875,-0.0209197998046875,0.0019378662109375
1782846162344561200,3.25456103515625,-0.99066162109375,-0.0223846435546875,0.0015411376953125
1782846162354566100,3.264566162109375,-0.989715576171875,-0.021209716796875,0.0034332275390625
1782846162364571100,3.274571044921875,-0.990936279296875,-0.0193634033203125,0.0024261474609375
1782846162374576000,3.284576171875,-0.9903717041015625,-0.0212249755859375,0.0012664794921875
1782846162384581000,3.2945810546875,-0.989593505859375,-0.020538330078125,0.00408935546875
1782846162394586000,3.304586181640625,-0.989501953125,-0.0223846435546875,0.0021209716796875
1782846162404591000,3.314591064453125,-0.989959716796875,-0.0218505859375,0.001617431640625
1782846162414596000,3.32459619140625,-0.989044189453125,-0.0201873779296875,0.0033416748046875
1782846162424601000,3.33460107421875,-0.9898529052734375,-0.020721435546875,0.00323486328125
1782846162434606000,3.344606201171875,-0.9898223876953125,-0.0213165283203125,0.0032958984375
1782846162444611300,3.354611328125,-0.9903564453125,-0.0210418701171875,0.002349853515625
1782846162454616300,3.3646162109375,-0.990264892578125,-0.0204620361328125,0.0031280517578125
1782846162464621300,3.374621337890625,-0.989349365234375,-0.0213775634765625,0.003082275390625
1782846162474626300,3.384626220703125,-0.9891510009765625,-0.023040771484375,0.0030975341796875
1782846162484631300,3.39463134765625,-0.992034912109375,-0.021087646484375,0.002593994140625
1782846162494636300,3.40463623046875,-0.990753173828125,-0.02203369140625,0.0040130615234375
1782846162504641300,3.414641357421875,-0.9898529052734375,-0.022064208984375,0.003936767578125
1782846162514646300,3.424646240234375,-0.9908599853515625,-0.0207977294921875,0.0033721923828125
1782846162524651300,3.4346513671875,-0.991119384765625,-0.021484375,0.0031280517578125
1782846162534656300,3.44465625,-0.9889373779296875,-0.0224151611328125,0.0023193359375
1782846162544661500,3.45466162109375,-0.9914093017578125,-0.0214385986328125,0.0012359619140625
1782846162554666500,3.46466650390625,-0.9904022216796875,-0.0222015380859375,0.0030517578125
1782846162564671500,3.47467138671875,-0.9911651611328125,-0.0204925537109375,0.00189208984375
1782846162574676500,3.484676513671875,-0.9910736083984375,-0.020538330078125,0.002593994140625
1782846162584681500,3.494681396484375,-0.9900054931640625,-0.0220489501953125,0.003387451171875
1782846162594686500,3.5046865234375,-0.9904327392578125,-0.02197265625,0.002227783203125
1782846162604691500,3.51469140625,-0.9903717041015625,-0.0213623046875,0.00152587890625
1782846162614696400,3.524696533203125,-0.9901275634765625,-0.020751953125,0.002960205078125
1782846162624701400,3.534701416015625,-0.9909820556640625,-0.0223388671875,0.0026702880859375
1782846162634706400,3.54470654296875,-0.99066162109375,-0.0208892822265625,0.002197265625
1782846162644711400,3.55471142578125,-0.990234375,-0.022003173828125,0.0028228759765625
1782846162654716400,3.56471630859375,-0.9893035888671875,-0.0211639404296875,0.00347900390625
1782846162664721400,3.574721435546875,-0.9917144775390625,-0.0209197998046875,0.0025482177734375
1782846162674726400,3.584726318359375,-0.989288330078125,-0.021026611328125,0.0028533935546875
1782846162684731400,3.5947314453125,-0.9900665283203125,-0.02264404296875,0.0012664794921875
1782846162694736400,3.604736328125,-0.98956298828125,-0.022186279296875,0.0032958984375
1782846162704741400,3.614741455078125,-0.990875244140625,-0.021240234375,0.003265380859375
1782846162714746400,3.624746337890625,-0.9916839599609375,-0.020416259765625,0.0018463134765625
1782846162724751400,3.63475146484375,-0.990478515625,-0.0216217041015625,0.0037384033203125
1782846162734756400,3.64475634765625,-0.98858642578125,-0.02197265625,0.0019378662109375
1782846162744761300,3.65476123046875,-0.9891357421875,-0.0224761962890625,0.0018768310546875
1782846162754766600,3.6647666015625,-0.9915924072265625,-0.0214691162109375,0.0036163330078125
1782846162764771600,3.674771484375,-0.989776611328125,-0.022308349609375,0.00360107421875
1782846162774776600,3.684776611328125,-0.9913177490234375,-0.02276611328125,0.0043182373046875
1782846162784781600,3.694781494140625,-0.9910888671875,-0.02239990234375,0.0035858154296875
1782846162794786600,3.70478662109375,-0.9907684326171875,-0.020904541015625,0.002838134765625
1782846162804791600,3.71479150390625,-0.99169921875,-0.021942138671875,0.0017242431640625
1782846162814796500,3.724796630859375,-0.9910888671875,-0.0218963623046875,0.002899169921875
1782846162824801500,3.734801513671875,-0.9899444580078125,-0.0226593017578125,0.0026397705078125
1782846162834806500,3.744806640625,-0.9902496337890625,-0.02117919921875,0.0019683837890625
1782846162844811500,3.7548115234375,-0.990936279296875,-0.0224761962890625,0.00238037109375
1782846162854816500,3.76481640625,-0.9910736083984375,-0.02081298828125,0.003265380859375
1782846162864821500,3.774821533203125,-0.99090576171875,-0.0209197998046875,0.0032196044921875
1782846162874826500,3.784826416015625,-0.9896697998046875,-0.020111083984375,0.003204345703125
1782846162884831500,3.79483154296875,-0.988525390625,-0.0219268798828125,0.002166748046875
1782846162894836500,3.80483642578125,-0.9896240234375,-0.0207672119140625,0.0024566650390625
1782846162904841500,3.814841552734375,-0.99114990234375,-0.0213470458984375,0.002685546875
1782846162914846500,3.824846435546875,-0.9922332763671875,-0.021453857421875,0.0027008056640625
1782846162924851500,3.8348515625,-0.990509033203125,-0.0218048095703125,0.004058837890625
1782846162934856400,3.8448564453125,-0.98974609375,-0.022247314453125,0.0034027099609375
1782846162944861400,3.854861328125,-0.9906768798828125,-0.021697998046875,0.003631591796875
1782846162954866400,3.864866455078125,-0.9910736083984375,-0.02093505859375,0.0024261474609375
1782846162964871400,3.874871337890625,-0.9905853271484375,-0.02154541015625,0.002197265625
1782846162974876400,3.88487646484375,-0.9903411865234375,-0.0219268798828125,0.0027008056640625
1782846162984881400,3.89488134765625,-0.9889984130859375,-0.021148681640625,0.003082275390625
1782846162994886400,3.904886474609375,-0.9913330078125,-0.021453857421875,0.0027618408203125
1782846163004891400,3.914891357421875,-0.990631103515625,-0.021575927734375,0.00390625
1782846163014896400,3.924896484375,-0.9914398193359375,-0.0224456787109375,0.004547119140625
1782846163024901400,3.9349013671875,-0.992462158203125,-0.021392822265625,0.0041046142578125
1782846163034906400,3.94490625,-0.991455078125,-0.0220489501953125,0.0036163330078125
1782846163044911400,3.954911376953125,-0.9898834228515625,-0.022247314453125,0.0028533935546875
1782846163054916400,3.964916259765625,-0.9908294677734375,-0.0231781005859375,0.0033721923828125
1782846163064921300,3.97492138671875,-0.99017333984375,-0.021270751953125,0.002532958984375
1782846163074926300,3.98492626953125,-0.98931884765625,-0.0213165283203125,0.00335693359375
1782846163084931300,3.994931396484375,-0.990447998046875,-0.0210418701171875,0.002197265625
1782846163094936300,4.004936279296875,-0.98980712890625,-0.0210113525390625,0.00286865234375
1782846163104941300,4.01494140625,-0.9890899658203125,-0.0226898193359375,0.003814697265625
1782846163114946300,4.0249462890625,-0.98907470703125,-0.021331787109375,0.0033721923828125
1782846163124951300,4.034951416015625,-0.9901275634765625,-0.0205535888671875,0.0031890869140625
1782846163134956300,4.044956298828125,-0.9903106689453125,-0.0219573974609375,0.004058837890625
1782846163144961300,4.054961181640625,-0.989105224609375,-0.022430419921875,0.003814697265625
1782846163154966300,4.06496630859375,-0.9899444580078125,-0.0223388671875,0.0034942626953125
1782846163164971300,4.07497119140625,-0.990875244140625,-0.0210113525390625,0.0017242431640625
1782846163174976300,4.084976318359375,-0.9908294677734375,-0.0219268798828125,0.0012359619140625
1782846163184981200,4.094981201171875,-0.990753173828125,-0.0214996337890625,0.00250244140625
1782846163194986200,4.104986328125,-0.99072265625,-0.0223236083984375,0.0030517578125
1782846163204991200,4.1149912109375,-0.99072265625,-0.0216827392578125,0.002288818359375
1782846163214996200,4.124996337890625,-0.989959716796875,-0.0219268798828125,0.0028533935546875
1782846163225001200,4.135001220703125,-0.9888153076171875,-0.0203704833984375,0.001129150390625
1782846163235006200,4.145006103515625,-0.989654541015625,-0.021270751953125,0.0027923583984375
1782846163245011500,4.155011474609375,-0.989898681640625,-0.021331787109375,0.0028076171875
1782846163255016400,4.165016357421875,-0.9911651611328125,-0.0232086181640625,0.003753662109375
1782846163265021400,4.175021484375,-0.9918365478515625,-0.021240234375,0.00250244140625
1782846163275026400,4.1850263671875,-0.98974609375,-0.0209197998046875,0.0029296875
1782846163285031400,4.195031494140625,-0.9890899658203125,-0.023040771484375,0.0028076171875
1782846163295036400,4.205036376953125,-0.9901123046875,-0.0211334228515625,0.0031280517578125
1782846163305041400,4.21504150390625,-0.990325927734375,-0.021484375,0.003387451171875
1782846163315046400,4.22504638671875,-0.9917755126953125,-0.0225677490234375,0.003204345703125
1782846163325051400,4.235051513671875,-0.991241455078125,-0.0232086181640625,0.004486083984375
1782846163335056400,4.245056396484375,-0.99017333984375,-0.0230560302734375,0.004119873046875
1782846163345061400,4.255061279296875,-0.989471435546875,-0.021575927734375,0.002777099609375
1782846163355066400,4.26506640625,-0.990875244140625,-0.0216522216796875,0.0031585693359375
1782846163365071400,4.2750712890625,-0.990142822265625,-0.0233306884765625,0.00408935546875
1782846163375076400,4.285076416015625,-0.9911041259765625,-0.0206298828125,0.0020599365234375
1782846163385081300,4.295081298828125,-0.9904327392578125,-0.02142333984375,0.00299072265625
1782846163395086300,4.30508642578125,-0.99078369140625,-0.022308349609375,0.0040283203125
1782846163405091600,4.315091552734375,-0.9913787841796875,-0.0212860107421875,0.0022430419921875
1782846163415096600,4.3250966796875,-0.989532470703125,-0.02154541015625,0.002655029296875
1782846163425101600,4.3351015625,-0.9901885986328125,-0.0219268798828125,0.002838134765625
1782846163435106600,4.3451064453125,-0.9903106689453125,-0.0207672119140625,0.002471923828125
1782846163445110500,4.355110595703125,-0.9910125732421875,-0.0209503173828125,0.0034027099609375
1782846163455115500,4.365115478515625,-0.9916229248046875,-0.0216064453125,0.0037689208984375
1782846163465120500,4.37512060546875,-0.9910430908203125,-0.0212249755859375,0.0036468505859375
1782846163475125500,4.38512548828125,-0.9913787841796875,-0.020965576171875,0.002471923828125
1782846163485130500,4.395130615234375,-0.990966796875,-0.02264404296875,0.0015411376953125
1782846163495135500,4.405135498046875,-0.990753173828125,-0.021270751953125,0.002410888671875
1782846163505140500,4.415140380859375,-0.98980712890625,-0.0210723876953125,0.0009307861328125
1782846163515145500,4.4251455078125,-0.9889373779296875,-0.0214080810546875,0.0039215087890625
1782846163525150500,4.435150390625,-0.991455078125,-0.0204010009765625,0.0035552978515625
1782846163535155700,4.44515576171875,-0.990875244140625,-0.0213623046875,0.0027923583984375
1782846163545160700,4.45516064453125,-0.99151611328125,-0.0212860107421875,0.0035858154296875
1782846163555165700,4.465165771484375,-0.9902496337890625,-0.0206298828125,0.0007781982421875
1782846163565170700,4.475170654296875,-0.99072265625,-0.0204010009765625,0.00250244140625
1782846163575175700,4.48517578125,-0.991729736328125,-0.0215606689453125,0.0023956298828125
1782846163585180700,4.4951806640625,-0.9895477294921875,-0.020904541015625,0.0028533935546875
1782846163595185700,4.505185546875,-0.989776611328125,-0.020782470703125,0.002532958984375
1782846163605190700,4.515190673828125,-0.9905853271484375,-0.02081298828125,0.0026397705078125
1782846163615195600,4.525195556640625,-0.9891357421875,-0.0213470458984375,0.003204345703125
1782846163625200600,4.53520068359375,-0.9900360107421875,-0.0215606689453125,0.002227783203125
1782846163635205600,4.54520556640625,-0.990478515625,-0.0217132568359375,0.002105712890625
1782846163645210600,4.555210693359375,-0.9906463623046875,-0.0224761962890625,0.002105712890625
1782846163655215600,4.565215576171875,-0.9909515380859375,-0.0216827392578125,0.0036468505859375
1782846163665220900,4.575220947265625,-0.9913330078125,-0.0223846435546875,0.002838134765625
1782846163675225900,4.585225830078125,-0.98956298828125,-0.0212860107421875,0.002716064453125
1782846163685230800,4.59523095703125,-0.990875244140625,-0.0200653076171875,0.003326416015625
1782846163695235800,4.60523583984375,-0.9923858642578125,-0.020599365234375,0.002532958984375
1782846163705240800,4.61524072265625,-0.990325927734375,-0.020538330078125,0.0037384033203125
1782846163715245800,4.625245849609375,-0.9907073974609375,-0.022216796875,0.004730224609375
1782846163725250800,4.635250732421875,-0.989013671875,-0.023223876953125,0.0020751953125
1782846163735255800,4.645255859375,-0.9905853271484375,-0.021148681640625,0.00177001953125
1782846163745260800,4.6552607421875,-0.9907379150390625,-0.0226287841796875,0.0029144287109375
1782846163755265800,4.665265869140625,-0.9899749755859375,-0.0227813720703125,0.0033721923828125
1782846163765270800,4.675270751953125,-0.9892425537109375,-0.0220947265625,0.00262451171875
1782846163775275800,4.68527587890625,-0.9911651611328125,-0.0227813720703125,0.00250244140625
1782846163785280800,4.69528076171875,-0.990081787109375,-0.021026611328125,0.0023193359375
1782846163795285800,4.70528564453125,-0.9909515380859375,-0.0203094482421875,0.002960205078125
1782846163805290800,4.715290771484375,-0.990875244140625,-0.023040771484375,0.0022125244140625
1782846163815295700,4.725295654296875,-0.990203857421875,-0.0222930908203125,0.00299072265625
1782846163825300700,4.73530078125,-0.9903411865234375,-0.0209197998046875,0.0029144287109375
1782846163835305700,4.7453056640625,-0.991058349609375,-0.0206451416015625,0.0023193359375
1782846163845310700,4.755310791015625,-0.9903106689453125,-0.020843505859375,0.0016937255859375
1782846163855315700,4.765315673828125,-0.9906158447265625,-0.021484375,0.0020599365234375
1782846163865320700,4.77532080078125,-0.9901580810546875,-0.023345947265625,0.0039520263671875
1782846163875325700,4.78532568359375,-0.9908599853515625,-0.0204315185546875,0.00335693359375
1782846163885330700,4.79533056640625,-0.9905242919921875,-0.0204010009765625,0.0027618408203125
1782846163895335700,4.805335693359375,-0.9890289306640625,-0.022308349609375,0.0016632080078125
1782846163905340700,4.815340576171875,-0.9906158447265625,-0.021820068359375,0.0037689208984375
1782846163915345700,4.825345703125,-0.988861083984375,-0.0231475830078125,0.0032806396484375
1782846163925350700,4.8353505859375,-0.98974609375,-0.0223388671875,0.0023651123046875
1782846163935355600,4.845355712890625,-0.99102783203125,-0.0209503173828125,0.0030670166015625
1782846163945360600,4.855360595703125,-0.9911346435546875,-0.0209808349609375,0.0033111572265625
1782846163955366700,4.86536669921875,-0.98968505859375,-0.0221099853515625,0.0021820068359375
1782846163965371600,4.87537158203125,-0.990447998046875,-0.0217742919921875,0.0031280517578125
1782846163975376600,4.885376708984375,-0.990386962890625,-0.0222015380859375,0.00213623046875
1782846163985381600,4.895381591796875,-0.991119384765625,-0.0210418701171875,0.002288818359375
1782846163995386600,4.90538671875,-0.9904632568359375,-0.0205078125,0.003875732421875
1782846164005391600,4.9153916015625,-0.990631103515625,-0.021392822265625,0.0032501220703125
1782846164015396600,4.925396728515625,-0.9900970458984375,-0.0212860107421875,0.0021514892578125
1782846164025401600,4.935401611328125,-0.98883056640625,-0.021484375,0.00238037109375
1782846164035406600,4.945406494140625,-0.989288330078125,-0.0218963623046875,0.0013427734375
1782846164045411600,4.95541162109375,-0.990142822265625,-0.0217742919921875,0.002044677734375
1782846164055416600,4.96541650390625,-0.9894561767578125,-0.0208892822265625,0.0017242431640625
1782846164065421600,4.975421630859375,-0.991302490234375,-0.0204925537109375,0.002655029296875
1782846164075426600,4.985426513671875,-0.99200439453125,-0.0219573974609375,0.0032196044921875
1782846164085431600,4.995431640625,-0.9904022216796875,-0.022613525390625,0.0022430419921875
1782846164095436500,5.0054365234375,-0.990570068359375,-0.0221710205078125,0.001617431640625
1782846164105441500,5.015441650390625,-0.9895477294921875,-0.0217132568359375,0.0025177001953125
1782846164115446500,5.025446533203125,-0.989410400390625,-0.0225372314453125,0.0024261474609375
1782846164125451500,5.035451416015625,-0.9886016845703125,-0.0208740234375,0.0032501220703125
1782846164135456500,5.04545654296875,-0.9904632568359375,-0.02215576171875,0.002685546875
1782846164145461500,5.05546142578125,-0.9897918701171875,-0.0214080810546875,0.001434326171875
1782846164155466500,5.065466552734375,-0.988311767578125,-0.0203094482421875,0.003143310546875
1782846164165471500,5.075471435546875,-0.9900970458984375,-0.0208740234375,0.0011138916015625
1782846164175476500,5.0854765625,-0.9896392822265625,-0.0218505859375,0.0012969970703125
1782846164185481500,5.0954814453125,-0.9912261962890625,-0.021575927734375,0.0016632080078125
1782846164195486500,5.105486572265625,-0.9903717041015625,-0.0211334228515625,0.0014801025390625
1782846164205491500,5.115491455078125,-0.9902496337890625,-0.0207977294921875,0.0039520263671875
1782846164215496400,5.125496337890625,-0.9904022216796875,-0.0207061767578125,0.001953125
1782846164225501400,5.13550146484375,-0.9900360107421875,-0.0211334228515625,0.003173828125
1782846164235506700,5.145506591796875,-0.99102783203125,-0.021942138671875,0.003662109375
1782846164245511700,5.15551171875,-0.9896087646484375,-0.0225067138671875,0.0031585693359375
1782846164255516700,5.1655166015625,-0.9908447265625,-0.02197265625,0.0018463134765625
1782846164265521700,5.175521728515625,-0.9898834228515625,-0.021942138671875,0.002777099609375
1782846164275526700,5.185526611328125,-0.989898681640625,-0.0230865478515625,0.0026092529296875
1782846164285531600,5.19553173828125,-0.9898529052734375,-0.020904541015625,0.00238037109375
1782846164295536600,5.20553662109375,-0.9911651611328125,-0.0215911865234375,0.0040283203125
1782846164305541600,5.215541748046875,-0.9903411865234375,-0.0225982666015625,0.004058837890625
1782846164315546600,5.225546630859375,-0.990509033203125,-0.021759033203125,0.003387451171875
1782846164325551900,5.2355517578125,-0.991241455078125,-0.0213775634765625,0.00274658203125
1782846164335556900,5.245556884765625,-0.99029541015625,-0.022125244140625,0.00323486328125
1782846164345561900,5.255561767578125,-0.9903717041015625,-0.0209197998046875,0.003662109375
1782846164355566800,5.26556689453125,-0.9907684326171875,-0.0217132568359375,0.002777099609375
1782846164365571800,5.27557177734375,-0.9914703369140625,-0.021392822265625,0.003021240234375
1782846164375576800,5.285576904296875,-0.9909515380859375,-0.02178955078125,0.003997802734375
1782846164385581800,5.295581787109375,-0.99139404296875,-0.0209503173828125,0.0029754638671875
1782846164395586800,5.3055869140625,-0.991058349609375,-0.0216827392578125,0.0020751953125
1782846164405591800,5.315591796875,-0.991485595703125,-0.0213775634765625,0.002197265625
1782846164415596800,5.3255966796875,-0.9896087646484375,-0.022491455078125,0.0045318603515625
1782846164425601800,5.335601806640625,-0.990264892578125,-0.022430419921875,0.003662109375
1782846164435606800,5.345606689453125,-0.99200439453125,-0.021728515625,0.002838134765625
1782846164445611500,5.355611572265625,-0.990325927734375,-0.0209503173828125,0.003143310546875
1782846164455616500,5.365616455078125,-0.9906005859375,-0.021209716796875,0.0028533935546875
1782846164465621500,5.37562158203125,-0.9907073974609375,-0.021575927734375,0.0030059814453125
1782846164475626500,5.38562646484375,-0.9901275634765625,-0.0221710205078125,0.0033111572265625
1782846164485631500,5.395631591796875,-0.9894866943359375,-0.023406982421875,0.003204345703125
1782846164495636500,5.405636474609375,-0.99102783203125,-0.022552490234375,0.00299072265625
1782846164505641500,5.415641357421875,-0.990264892578125,-0.0216064453125,0.0031280517578125
1782846164515646500,5.425646484375,-0.98956298828125,-0.02197265625,0.001556396484375
1782846164525651500,5.4356513671875,-0.990875244140625,-0.02191162109375,0.0041351318359375
1782846164535656400,5.445656494140625,-0.991943359375,-0.0213775634765625,0.00225830078125
1782846164545661400,5.455661376953125,-0.9910125732421875,-0.0214691162109375,0.00396728515625
1782846164555666400,5.46566650390625,-0.98974609375,-0.02142333984375,0.0025787353515625
1782846164565671400,5.47567138671875,-0.9895477294921875,-0.02239990234375,0.0027618408203125
1782846164575676400,5.485676513671875,-0.989898681640625,-0.020904541015625,0.0036773681640625
1782846164585681400,5.495681396484375,-0.99053955078125,-0.0205841064453125,0.00335693359375
1782846164595686400,5.505686279296875,-0.9913787841796875,-0.021026611328125,0.00274658203125
1782846164605691400,5.51569140625,-0.9900360107421875,-0.0210113525390625,0.0034332275390625
1782846164615696400,5.5256962890625,-0.9899444580078125,-0.0211029052734375,0.0036468505859375
1782846164625701400,5.535701416015625,-0.9888763427734375,-0.0220184326171875,0.00146484375
1782846164635706400,5.545706298828125,-0.9914703369140625,-0.022125244140625,0.0023651123046875
1782846164645711400,5.55571142578125,-0.9908905029296875,-0.020477294921875,0.002838134765625
1782846164655716400,5.56571630859375,-0.99090576171875,-0.0211181640625,0.0027923583984375
1782846164665721300,5.575721435546875,-0.9911651611328125,-0.0222625732421875,0.0037994384765625
1782846164675726300,5.585726318359375,-0.9898681640625,-0.022247314453125,0.0034027099609375
1782846164685731300,5.5957314453125,-0.9914398193359375,-0.0221710205078125,0.0014190673828125
1782846164695736300,5.605736328125,-0.991241455078125,-0.02276611328125,0.000518798828125
1782846164705741300,5.6157412109375,-0.99066162109375,-0.0216064453125,0.002471923828125
1782846164715746300,5.625746337890625,-0.9900360107421875,-0.0222625732421875,0.0036468505859375
1782846164725751300,5.635751220703125,-0.99139404296875,-0.02197265625,0.0032501220703125
1782846164735756300,5.64575634765625,-0.991424560546875,-0.021697998046875,0.002105712890625
1782846164745761300,5.65576123046875,-0.99066162109375,-0.0203094482421875,0.00372314453125
1782846164755766300,5.665766357421875,-0.990509033203125,-0.0205841064453125,0.0028839111328125
1782846164765771300,5.675771240234375,-0.9912109375,-0.0227508544921875,0.0028228759765625
1782846164775776500,5.685776611328125,-0.99127197265625,-0.0210113525390625,0.0030059814453125
1782846164785781500,5.695781494140625,-0.98968505859375,-0.0222625732421875,0.003448486328125
1782846164795786500,5.705786376953125,-0.989715576171875,-0.0226287841796875,0.0031280517578125
1782846164805791500,5.71579150390625,-0.9907379150390625,-0.0225067138671875,0.0038604736328125
1782846164815796500,5.72579638671875,-0.9904327392578125,-0.02239990234375,0.00225830078125
1782846164825801500,5.735801513671875,-0.9903411865234375,-0.0232696533203125,0.002960205078125
1782846164835806500,5.745806396484375,-0.989959716796875,-0.0216827392578125,0.00262451171875
1782846164845811500,5.7558115234375,-0.9899139404296875,-0.0225982666015625,0.00274658203125
1782846164855816400,5.76581640625,-0.9891815185546875,-0.0224151611328125,0.0018157958984375
1782846164865821400,5.775821533203125,-0.99127197265625,-0.021453857421875,0.0021209716796875
1782846164875826400,5.785826416015625,-0.9913177490234375,-0.021240234375,0.001708984375
1782846164885831400,5.79583154296875,-0.989776611328125,-0.02093505859375,0.0025482177734375
1782846164895836400,5.80583642578125,-0.9907684326171875,-0.020416259765625,0.0027923583984375
1782846164905841400,5.81584130859375,-0.9908294677734375,-0.02130126953125,0.0032196044921875
1782846164915846400,5.825846435546875,-0.990478515625,-0.0215606689453125,0.0023345947265625
1782846164925851400,5.835851318359375,-0.99176025390625,-0.0209197998046875,0.0037384033203125
1782846164935856400,5.8458564453125,-0.991943359375,-0.02093505859375,0.000946044921875
1782846164945861400,5.855861328125,-0.99102783203125,-0.022308349609375,-0.0000762939453125
1782846164955866400,5.865866455078125,-0.9907989501953125,-0.02154541015625,0.0023040771484375
1782846164965871400,5.875871337890625,-0.9891357421875,-0.0209197998046875,0.001861572265625
1782846164975876400,5.88587646484375,-0.9905853271484375,-0.021575927734375,0.0026397705078125
1782846164985881300,5.89588134765625,-0.990997314453125,-0.0208892822265625,0.002166748046875
1782846164995886600,5.905886474609375,-0.990509033203125,-0.021392822265625,0.003143310546875
1782846165005891600,5.9158916015625,-0.9896697998046875,-0.0212860107421875,0.0023651123046875
1782846165015896600,5.925896484375,-0.991790771484375,-0.021270751953125,0.0015716552734375
1782846165025901600,5.935901611328125,-0.9902191162109375,-0.021026611328125,0.0022430419921875
1782846165035906600,5.945906494140625,-0.9908905029296875,-0.021270751953125,0.0023345947265625
1782846165045911600,5.95591162109375,-0.989959716796875,-0.02197265625,0.0025787353515625
1782846165055916500,5.96591650390625,-0.989715576171875,-0.0210418701171875,0.0035247802734375
1782846165065921500,5.975921630859375,-0.9902496337890625,-0.0218048095703125,0.0030975341796875
1782846165075926500,5.985926513671875,-0.988922119140625,-0.0231475830078125,0.0023040771484375
1782846165085931500,5.995931640625,-0.9884796142578125,-0.0218048095703125,0.002471923828125
1782846165095936500,6.0059365234375,-0.9904632568359375,-0.0210113525390625,0.0022735595703125
1782846165105941500,6.01594140625,-0.9904022216796875,-0.0220184326171875,0.002838134765625
1782846165115946500,6.025946533203125,-0.990997314453125,-0.02069091796875,0.005096435546875
1782846165125951500,6.035951416015625,-0.9905242919921875,-0.0201263427734375,0.004180908203125
1782846165135956500,6.04595654296875,-0.9903106689453125,-0.020782470703125,0.0032806396484375
1782846165145961500,6.05596142578125,-0.99053955078125,-0.0213165283203125,0.0034027099609375
1782846165155966500,6.065966552734375,-0.9912872314453125,-0.0220947265625,0.0035552978515625
1782846165165971500,6.075971435546875,-0.991363525390625,-0.0220947265625,0.0027313232421875
1782846165175976400,6.0859765625,-0.9907684326171875,-0.0211181640625,0.0016937255859375
1782846165185981400,6.0959814453125,-0.989471435546875,-0.02166748046875,-0.00042724609375
1782846165195986400,6.105986328125,-0.9910430908203125,-0.0230712890625,0.0008392333984375
1782846165205991400,6.115991455078125,-0.9908599853515625,-0.0218353271484375,0.00347900390625
1782846165215996400,6.125996337890625,-0.98968505859375,-0.021881103515625,0.00335693359375
1782846165226001400,6.13600146484375,-0.990478515625,-0.0218658447265625,0.0020751953125
1782846165236006400,6.14600634765625,-0.990875244140625,-0.02117919921875,0.0031585693359375
1782846165246011400,6.156011474609375,-0.991943359375,-0.0207366943359375,0.0028533935546875
1782846165256016400,6.166016357421875,-0.990966796875,-0.0217132568359375,0.0041656494140625
1782846165266021400,6.176021484375,-0.990997314453125,-0.0226287841796875,0.0033416748046875
1782846165276026400,6.1860263671875,-0.9915008544921875,-0.0227203369140625,0.0034027099609375
1782846165286031400,6.19603125,-0.9901275634765625,-0.0209503173828125,0.0032958984375
1782846165296036600,6.20603662109375,-0.9912261962890625,-0.021392822265625,0.0016326904296875
1782846165306041600,6.21604150390625,-0.99127197265625,-0.0210723876953125,0.0025177001953125
1782846165316046600,6.226046630859375,-0.99029541015625,-0.0206298828125,0.003662109375
1782846165326051600,6.236051513671875,-0.9909820556640625,-0.020721435546875,0.00274658203125
1782846165336056600,6.246056640625,-0.9900360107421875,-0.0201568603515625,0.0037841796875
1782846165346061600,6.2560615234375,-0.9923248291015625,-0.0214385986328125,0.00177001953125
1782846165356066600,6.266066650390625,-0.9902801513671875,-0.0215911865234375,0.0027618408203125
1782846165366071600,6.276071533203125,-0.99078369140625,-0.021575927734375,0.00360107421875
1782846165376076500,6.28607666015625,-0.99066162109375,-0.0218505859375,0.00372314453125
1782846165386081500,6.29608154296875,-0.9911956787109375,-0.020904541015625,0.0038909912109375
1782846165396086500,6.30608642578125,-0.9903564453125,-0.022613525390625,0.0031890869140625
1782846165406091500,6.316091552734375,-0.99139404296875,-0.02081298828125,0.0022735595703125
1782846165416096500,6.326096435546875,-0.991119384765625,-0.02056884765625,0.001953125
1782846165426101500,6.3361015625,-0.9902191162109375,-0.02191162109375,0.0025482177734375
1782846165436106500,6.3461064453125,-0.9904327392578125,-0.0211181640625,0.0027313232421875
1782846165446112300,6.3561123046875,-0.9906005859375,-0.02191162109375,0.0015106201171875
1782846165456117200,6.3661171875,-0.9913330078125,-0.0212554931640625,0.00115966796875
1782846165466122200,6.376122314453125,-0.990234375,-0.021240234375,0.001953125
1782846165476127200,6.386127197265625,-0.99029541015625,-0.0214691162109375,0.00225830078125
1782846165486132200,6.39613232421875,-0.9906768798828125,-0.0224609375,0.003204345703125
1782846165496137200,6.40613720703125,-0.9904022216796875,-0.0203094482421875,0.0032806396484375
1782846165506142200,6.41614208984375,-0.990234375,-0.0205535888671875,0.0006103515625
1782846165516147200,6.426147216796875,-0.9901123046875,-0.022003173828125,0.00201416015625
1782846165526152200,6.436152099609375,-0.990631103515625,-0.021392822265625,0.0019073486328125
1782846165536157200,6.4461572265625,-0.9899139404296875,-0.0213470458984375,0.0014495849609375
1782846165546162200,6.456162109375,-0.9903564453125,-0.021240234375,0.00250244140625
1782846165556167200,6.466167236328125,-0.9896087646484375,-0.0205535888671875,0.0005950927734375
1782846165566172200,6.476172119140625,-0.990234375,-0.0219573974609375,0.0010833740234375
1782846165576177200,6.48617724609375,-0.9905242919921875,-0.02105712890625,0.00262451171875
1782846165586182100,6.49618212890625,-0.99163818359375,-0.0219879150390625,0.002655029296875
1782846165596187100,6.506187255859375,-0.990570068359375,-0.023193359375,0.0034637451171875
1782846165606192000,6.516192138671875,-0.9903411865234375,-0.021575927734375,0.004608154296875
1782846165616197000,6.526197021484375,-0.9897003173828125,-0.0217132568359375,0.0039520263671875
1782846165626202000,6.5362021484375,-0.9883575439453125,-0.0215911865234375,0.001617431640625
1782846165636207000,6.54620703125,-0.9903106689453125,-0.0223388671875,0.0033721923828125
1782846165646212000,6.556212158203125,-0.991668701171875,-0.021453857421875,0.003692626953125
1782846165656217000,6.566217041015625,-0.990631103515625,-0.021453857421875,0.0031280517578125
1782846165666222000,6.57622216796875,-0.9892120361328125,-0.0230865478515625,0.0008697509765625
1782846165676227000,6.58622705078125,-0.9910888671875,-0.020233154296875,0.0013427734375
1782846165686232000,6.596232177734375,-0.98883056640625,-0.021270751953125,0.0026397705078125
1782846165696237000,6.606237060546875,-0.9902496337890625,-0.021392822265625,0.0032958984375
1782846165706242000,6.616241943359375,-0.99066162109375,-0.0229949951171875,0.0020294189453125
1782846165716247000,6.6262470703125,-0.9889984130859375,-0.0215911865234375,0.00201416015625
1782846165726252000,6.636251953125,-0.989227294921875,-0.022247314453125,0.0028076171875
1782846165736257000,6.646257080078125,-0.9899139404296875,-0.0207672119140625,0.00311279296875
1782846165746262000,6.656261962890625,-0.989654541015625,-0.0233306884765625,0.00238037109375
1782846165756267000,6.66626708984375,-0.9895782470703125,-0.02117919921875,0.0020751953125
1782846165766272000,6.67627197265625,-0.9908599853515625,-0.0216827392578125,0.0029449462890625
1782846165776277000,6.686277099609375,-0.990203857421875,-0.02056884765625,0.00347900390625
1782846165786282000,6.696281982421875,-0.990631103515625,-0.020721435546875,0.002471923828125
1782846165796287000,6.706286865234375,-0.9892425537109375,-0.02105712890625,0.0027618408203125
1782846165806292000,6.7162919921875,-0.98895263671875,-0.0213470458984375,0.002105712890625
1782846165816297000,6.726296875,-0.9902801513671875,-0.0200958251953125,0.002838134765625
1782846165826302000,6.736302001953125,-0.9908599853515625,-0.0215606689453125,0.0028228759765625
1782846165836307000,6.746306884765625,-0.99066162109375,-0.021942138671875,0.004180908203125
1782846165846312000,6.75631201171875,-0.9895172119140625,-0.021148681640625,0.0027923583984375
1782846165856317000,6.76631689453125,-0.9904022216796875,-0.02130126953125,0.0025634765625
1782846165866322000,6.776322021484375,-0.9896240234375,-0.0204925537109375,0.002593994140625
1782846165876327000,6.786326904296875,-0.988983154296875,-0.0210723876953125,0.0023651123046875
1782846165886332200,6.796332275390625,-0.9908294677734375,-0.021514892578125,0.00250244140625
1782846165896337200,6.806337158203125,-0.989654541015625,-0.019805908203125,0.00311279296875
1782846165906342100,6.816342041015625,-0.9903564453125,-0.021240234375,0.0034942626953125
1782846165916347100,6.82634716796875,-0.990386962890625,-0.022247314453125,0.0029144287109375
1782846165926352100,6.83635205078125,-0.9902191162109375,-0.0230255126953125,0.003387451171875
1782846165936357000,6.846357177734375,-0.9909515380859375,-0.0227813720703125,0.00250244140625
1782846165946362000,6.856362060546875,-0.9900970458984375,-0.0213470458984375,0.001922607421875
1782846165956367000,6.8663671875,-0.9899139404296875,-0.0213775634765625,0.00299072265625
1782846165966372000,6.8763720703125,-0.99090576171875,-0.020721435546875,0.002899169921875
1782846165976377000,6.886377197265625,-0.9918212890625,-0.0213165283203125,0.00152587890625
1782846165986382000,6.896382080078125,-0.9908905029296875,-0.0218048095703125,0.00152587890625
1782846165996387000,6.906386962890625,-0.9907989501953125,-0.0210418701171875,0.0039520263671875
1782846166006392000,6.91639208984375,-0.9901123046875,-0.0220184326171875,0.003570556640625
1782846166016397000,6.92639697265625,-0.989776611328125,-0.0221710205078125,0.0031890869140625
1782846166026402000,6.936402099609375,-0.9889068603515625,-0.0215911865234375,0.0019989013671875
1782846166036407000,6.946406982421875,-0.98992919921875,-0.0215606689453125,0.002716064453125
1782846166046412000,6.956412109375,-0.99078369140625,-0.022552490234375,0.003082275390625
1782846166056417000,6.9664169921875,-0.9911651611328125,-0.0218505859375,0.0023956298828125
1782846166066422000,6.976422119140625,-0.9897613525390625,-0.021881103515625,0.002410888671875
1782846166076427000,6.986427001953125,-0.9897918701171875,-0.0218353271484375,0.0020599365234375
1782846166086432000,6.996431884765625,-0.9906005859375,-0.0216827392578125,0.0025177001953125
1782846166096437000,7.00643701171875,-0.990509033203125,-0.021697998046875,0.00225830078125
1782846166106442000,7.01644189453125,-0.9897918701171875,-0.0211029052734375,0.0017852783203125
1782846166116447000,7.026447021484375,-0.989105224609375,-0.0209503173828125,0.003173828125
1782846166126452000,7.036451904296875,-0.9908599853515625,-0.021270751953125,0.0020904541015625
1782846166136457000,7.04645703125,-0.99017333984375,-0.02142333984375,0.0031890869140625
1782846166146462000,7.0564619140625,-0.98992919921875,-0.0216217041015625,0.0032958984375
1782846166156467000,7.066467041015625,-0.9897308349609375,-0.0227813720703125,0.0028839111328125
1782846166166472000,7.076471923828125,-0.99127197265625,-0.0216522216796875,0.002960205078125
1782846166176477000,7.086476806640625,-0.990264892578125,-0.020782470703125,0.00201416015625
1782846166186482000,7.09648193359375,-0.9893646240234375,-0.0219573974609375,0.0035247802734375
1782846166196487200,7.106487060546875,-0.9888458251953125,-0.0224151611328125,0.0035247802734375
1782846166206492200,7.1164921875,-0.9901580810546875,-0.0223236083984375,0.0032958984375
1782846166216497200,7.1264970703125,-0.989898681640625,-0.0222320556640625,0.004119873046875
1782846166226502100,7.136502197265625,-0.99053955078125,-0.02044677734375,0.0015869140625
1782846166236507100,7.146507080078125,-0.9921417236328125,-0.0214691162109375,0.0028228759765625
1782846166246512000,7.15651220703125,-0.9903106689453125,-0.0216064453125,0.002105712890625
1782846166256517000,7.16651708984375,-0.9901885986328125,-0.022064208984375,0.0029296875
1782846166266522000,7.176522216796875,-0.989227294921875,-0.0228271484375,0.0033416748046875
1782846166276527000,7.186527099609375,-0.9904937744140625,-0.0222320556640625,0.0041046142578125
1782846166286532000,7.196531982421875,-0.9917755126953125,-0.0210723876953125,0.0028533935546875
1782846166296537000,7.206537109375,-0.9900054931640625,-0.02081298828125,0.002838134765625
1782846166306542000,7.2165419921875,-0.9903411865234375,-0.021240234375,0.002960205078125
1782846166316547000,7.226547119140625,-0.9921112060546875,-0.02166748046875,0.001617431640625
1782846166326552000,7.236552001953125,-0.990447998046875,-0.0233154296875,0.0037689208984375
1782846166336557000,7.24655712890625,-0.9900970458984375,-0.022186279296875,0.0029449462890625
1782846166346562000,7.25656201171875,-0.99127197265625,-0.0210723876953125,0.0018157958984375
1782846166356567000,7.266567138671875,-0.990386962890625,-0.0212554931640625,0.00177001953125
1782846166366572000,7.276572021484375,-0.991455078125,-0.021270751953125,0.003936767578125
1782846166376577000,7.286576904296875,-0.9921112060546875,-0.0213165283203125,0.003387451171875
1782846166386582000,7.29658203125,-0.9900054931640625,-0.02130126953125,0.0034332275390625
1782846166396587000,7.3065869140625,-0.9912567138671875,-0.02203369140625,0.0028839111328125
1782846166406592300,7.31659228515625,-0.991180419921875,-0.021820068359375,0.003814697265625
1782846166416597200,7.32659716796875,-0.9891510009765625,-0.0215606689453125,0.0030670166015625
1782846166426602200,7.336602294921875,-0.9903106689453125,-0.02252197265625,0.00213623046875
1782846166436607200,7.346607177734375,-0.990478515625,-0.0211334228515625,0.0021820068359375
1782846166446612000,7.356612060546875,-0.9928741455078125,-0.0210113525390625,0.0035400390625
1782846166456617000,7.366616943359375,-0.9914093017578125,-0.0207977294921875,0.0023956298828125
1782846166466622000,7.3766220703125,-0.98992919921875,-0.0209503173828125,0.003753662109375
1782846166476627000,7.386626953125,-0.9902801513671875,-0.02081298828125,0.0030670166015625
1782846166486632000,7.3966318359375,-0.9896240234375,-0.02044677734375,0.0016632080078125
1782846166496637000,7.406636962890625,-0.99041748046875,-0.02117919921875,0.002593994140625
1782846166506642000,7.416641845703125,-0.9892578125,-0.02020263671875,0.00238037109375
1782846166516647000,7.42664697265625,-0.989105224609375,-0.0211029052734375,0.0032501220703125
1782846166526652000,7.43665185546875,-0.9920196533203125,-0.022186279296875,0.0028533935546875
1782846166536657000,7.446656982421875,-0.9912261962890625,-0.0219573974609375,0.003875732421875
1782846166546662000,7.456661865234375,-0.9897308349609375,-0.0230712890625,0.0034027099609375
1782846166556667000,7.4666669921875,-0.99005126953125,-0.02252197265625,0.0026397705078125
1782846166566672000,7.476671875,-0.98956298828125,-0.0209503173828125,0.002655029296875
1782846166576676900,7.4866767578125,-0.9903411865234375,-0.0208892822265625,0.0021820068359375
1782846166586681900,7.496681884765625,-0.9907073974609375,-0.0213775634765625,0.0026702880859375
1782846166596686800,7.506686767578125,-0.991058349609375,-0.020416259765625,0.0031280517578125
1782846166606691800,7.51669189453125,-0.9898223876953125,-0.022430419921875,0.00341796875
1782846166616696800,7.52669677734375,-0.9900665283203125,-0.0212860107421875,0.0023956298828125
1782846166626701800,7.536701904296875,-0.9903564453125,-0.021697998046875,0.002716064453125
1782846166636706800,7.546706787109375,-0.9907073974609375,-0.0216522216796875,0.0018463134765625
1782846166646711800,7.5567119140625,-0.9905853271484375,-0.0208587646484375,0.0036773681640625
1782846166656716800,7.566716796875,-0.9894866943359375,-0.0220947265625,0.002532958984375
1782846166666721800,7.5767216796875,-0.991851806640625,-0.0222320556640625,0.0027618408203125
1782846166676726800,7.586726806640625,-0.9904937744140625,-0.02252197265625,0.0026092529296875
1782846166686731800,7.596731689453125,-0.9914093017578125,-0.0221405029296875,0.0028839111328125
1782846166696736800,7.60673681640625,-0.9904327392578125,-0.0200042724609375,0.002716064453125
1782846166706741800,7.61674169921875,-0.99041748046875,-0.021392822265625,0.003082275390625
1782846166716746800,7.626746826171875,-0.991973876953125,-0.022308349609375,0.0028533935546875
1782846166726751700,7.636751708984375,-0.9898681640625,-0.021087646484375,0.0022125244140625
1782846166736756700,7.6467568359375,-0.9904327392578125,-0.023406982421875,0.002960205078125
1782846166746761700,7.65676171875,-0.9910888671875,-0.021820068359375,0.0045013427734375
1782846166756766700,7.6667666015625,-0.9893798828125,-0.02178955078125,0.001617431640625
1782846166766771700,7.676771728515625,-0.990234375,-0.022552490234375,0.0012054443359375
1782846166776776700,7.686776611328125,-0.9908447265625,-0.021026611328125,0.0032501220703125
1782846166786781700,7.69678173828125,-0.9911956787109375,-0.0207672119140625,0.002899169921875
1782846166796786700,7.70678662109375,-0.99005126953125,-0.019683837890625,0.00323486328125
1782846166806791700,7.716791748046875,-0.989410400390625,-0.0213775634765625,0.0030364990234375
1782846166816796700,7.726796630859375,-0.988616943359375,-0.0211639404296875,0.002410888671875
1782846166826801700,7.7368017578125,-0.9909210205078125,-0.020782470703125,0.0031890869140625
1782846166836806700,7.746806640625,-0.991424560546875,-0.021575927734375,0.004150390625
1782846166846811600,7.756811767578125,-0.98992919921875,-0.0210113525390625,0.0019378662109375
1782846166856817000,7.76681689453125,-0.990142822265625,-0.022796630859375,0.003082275390625
1782846166866822000,7.77682177734375,-0.9909210205078125,-0.02313232421875,0.004241943359375
1782846166876827000,7.786826904296875,-0.9912261962890625,-0.0225677490234375,0.001953125
1782846166886831900,7.796831787109375,-0.9918670654296875,-0.0216217041015625,0.0013427734375
1782846166896836900,7.8068369140625,-0.9913330078125,-0.0216064453125,0.0020599365234375
1782846166906841900,7.816841796875,-0.989959716796875,-0.0200958251953125,0.002288818359375
1782846166916846800,7.826846923828125,-0.9896697998046875,-0.02130126953125,0.003509521484375
1782846166926851800,7.836851806640625,-0.989776611328125,-0.02191162109375,0.003265380859375
1782846166936856800,7.84685693359375,-0.99053955078125,-0.02117919921875,0.0020904541015625
1782846166946861800,7.85686181640625,-0.988861083984375,-0.02166748046875,0.0029144287109375
1782846166956866800,7.86686669921875,-0.9901580810546875,-0.0216522216796875,0.002044677734375
1782846166966871800,7.876871826171875,-0.9903106689453125,-0.0220947265625,0.004119873046875
1782846166976876800,7.886876708984375,-0.990509033203125,-0.021759033203125,0.00390625
1782846166986881800,7.8968818359375,-0.9893951416015625,-0.021636962890625,0.0018463134765625
1782846166996886800,7.90688671875,-0.99029541015625,-0.021636962890625,0.001861572265625
1782846167006891800,7.916891845703125,-0.991363525390625,-0.0218963623046875,0.00299072265625
1782846167016896800,7.926896728515625,-0.9909820556640625,-0.0214385986328125,0.00445556640625
1782846167026901800,7.93690185546875,-0.9912567138671875,-0.0216064453125,0.0018768310546875
1782846167036906800,7.94690673828125,-0.9909820556640625,-0.0227203369140625,0.0010986328125
1782846167046911700,7.956911865234375,-0.9908905029296875,-0.0207977294921875,0.0024566650390625
1782846167056916700,7.966916748046875,-0.9908905029296875,-0.02203369140625,0.00323486328125
1782846167066921700,7.976921630859375,-0.9901123046875,-0.020843505859375,0.002197265625
1782846167076926700,7.9869267578125,-0.9901580810546875,-0.0217132568359375,0.004852294921875
1782846167086931700,7.996931640625,-0.9902496337890625,-0.0217132568359375,0.002532958984375
1782846167096936700,8.006936767578125,-0.990325927734375,-0.0211181640625,0.0008697509765625
1782846167106941700,8.016941650390624,-0.989837646484375,-0.0206756591796875,0.000885009765625
1782846167116946700,8.02694677734375,-0.991302490234375,-0.0214080810546875,0.001922607421875
1782846167126951700,8.03695166015625,-0.9907989501953125,-0.0228118896484375,0.0027923583984375
1782846167136956700,8.046956787109375,-0.990203857421875,-0.020843505859375,0.002777099609375
1782846167146961700,8.056961669921876,-0.991455078125,-0.019927978515625,0.0016021728515625
1782846167156966700,8.066966552734375,-0.98919677734375,-0.021331787109375,0.002777099609375
1782846167166971600,8.0769716796875,-0.991485595703125,-0.0225067138671875,0.0020751953125
1782846167176976600,8.0869765625,-0.990692138671875,-0.020843505859375,0.002716064453125
1782846167186981600,8.096981689453125,-0.9917449951171875,-0.0207366943359375,0.00262451171875
1782846167196986600,8.106986572265624,-0.9908905029296875,-0.02117919921875,0.0038299560546875
1782846167206991600,8.11699169921875,-0.99102783203125,-0.02099609375,0.0020294189453125
1782846167216996600,8.12699658203125,-0.99017333984375,-0.020904541015625,0.0017242431640625
1782846167227001600,8.137001708984375,-0.9899444580078125,-0.0217132568359375,0.0012664794921875
1782846167237006600,8.147006591796876,-0.9910888671875,-0.0218048095703125,0.0027008056640625
1782846167247011600,8.157011474609375,-0.9903717041015625,-0.021240234375,0.0025634765625
1782846167257016800,8.167016845703126,-0.990936279296875,-0.0213623046875,0.0033721923828125
1782846167267021800,8.177021728515625,-0.9913177490234375,-0.0226898193359375,0.001922607421875
1782846167277026800,8.18702685546875,-0.98992919921875,-0.0223388671875,0.003631591796875
1782846167287031800,8.19703173828125,-0.989013671875,-0.021331787109375,0.004302978515625
1782846167297036800,8.207036865234375,-0.991058349609375,-0.0218505859375,0.001739501953125
1782846167307041800,8.217041748046874,-0.9913787841796875,-0.0211334228515625,0.00384521484375
1782846167317046800,8.227046875,-0.9893035888671875,-0.0214385986328125,0.00360107421875
1782846167327051800,8.2370517578125,-0.990509033203125,-0.0218963623046875,0.0015716552734375
1782846167337056800,8.247056884765625,-0.991424560546875,-0.022186279296875,0.0030517578125
1782846167347061800,8.257061767578126,-0.990264892578125,-0.0218658447265625,0.003662109375
1782846167357066800,8.267066650390625,-0.99072265625,-0.0214385986328125,0.0028839111328125
1782846167367071700,8.27707177734375,-0.9911346435546875,-0.021087646484375,0.00341796875
1782846167377077000,8.287076904296875,-0.9904937744140625,-0.0215606689453125,0.001953125
1782846167387082000,8.29708203125,-0.9904327392578125,-0.02313232421875,0.001922607421875
1782846167397087000,8.3070869140625,-0.9896392822265625,-0.02264404296875,0.0019073486328125
1782846167407092000,8.317092041015625,-0.9906768798828125,-0.022308349609375,0.0023040771484375
1782846167417097000,8.327096923828124,-0.9907379150390625,-0.021575927734375,0.0035247802734375
1782846167427102000,8.33710205078125,-0.989349365234375,-0.0202484130859375,0.0023956298828125
1782846167437107000,8.34710693359375,-0.9902191162109375,-0.021881103515625,0.00262451171875
1782846167447112200,8.3571123046875,-0.9904022216796875,-0.020355224609375,0.002685546875
1782846167457117200,8.3671171875,-0.9895782470703125,-0.0216217041015625,0.0023956298828125
1782846167467122200,8.3771220703125,-0.9897918701171875,-0.02227783203125,0.0030975341796875
1782846167477127200,8.387127197265626,-0.9897308349609375,-0.02197265625,0.0030059814453125
1782846167487132200,8.397132080078125,-0.9889373779296875,-0.021453857421875,0.0032501220703125
1782846167497137200,8.40713720703125,-0.991363525390625,-0.0211181640625,0.0009002685546875
1782846167507142100,8.41714208984375,-0.9904022216796875,-0.021148681640625,0.00244140625
1782846167517147100,8.427147216796875,-0.990570068359375,-0.0208282470703125,0.002838134765625
1782846167527152000,8.437152099609374,-0.99078369140625,-0.0212249755859375,0.0022735595703125
1782846167537157000,8.4471572265625,-0.9900665283203125,-0.02178955078125,0.003204345703125
1782846167547162000,8.457162109375,-0.990570068359375,-0.0209503173828125,0.003021240234375
1782846167557167000,8.4671669921875,-0.9915618896484375,-0.022216796875,0.003936767578125
1782846167567172000,8.477172119140626,-0.991424560546875,-0.0208740234375,0.002593994140625
1782846167577177000,8.487177001953125,-0.9901123046875,-0.0198516845703125,0.0027923583984375
1782846167587182000,8.49718212890625,-0.9909515380859375,-0.0208587646484375,0.001953125
1782846167597187000,8.50718701171875,-0.990478515625,-0.0211639404296875,0.003204345703125
1782846167607192000,8.517192138671875,-0.99090576171875,-0.021820068359375,0.0044097900390625
1782846167617197000,8.527197021484374,-0.991119384765625,-0.0223541259765625,0.002655029296875
1782846167627202000,8.5372021484375,-0.990875244140625,-0.0227508544921875,0.0020904541015625
1782846167637207000,8.54720703125,-0.991241455078125,-0.0214691162109375,0.0026092529296875
1782846167647212000,8.5572119140625,-0.9913787841796875,-0.0210418701171875,0.00250244140625
1782846167657217000,8.567217041015626,-0.991119384765625,-0.0222015380859375,0.0007781982421875
1782846167667222000,8.577221923828125,-0.990509033203125,-0.0206451416015625,0.0012359619140625
1782846167677227000,8.58722705078125,-0.989715576171875,-0.0220489501953125,0.0015869140625
1782846167687232000,8.59723193359375,-0.99078369140625,-0.022369384765625,0.002227783203125
1782846167697237000,8.607237060546876,-0.990997314453125,-0.0200347900390625,0.003936767578125
1782846167707242000,8.617241943359375,-0.99407958984375,-0.0216522216796875,0.0032958984375
1782846167717247000,8.6272470703125,-1.0226898193359375,-0.02215576171875,-0.0087127685546875
1782846167727252000,8.637251953125,-0.93011474609375,-0.02459716796875,0.0284881591796875
1782846167737257000,8.647257080078125,-1.0296630859375,-0.0198516845703125,-0.013885498046875
1782846167747262000,8.657261962890624,-0.960906982421875,-0.0231781005859375,0.0142669677734375
1782846167757267000,8.667266845703125,-1.0092620849609375,-0.0189971923828125,-0.004119873046875
1782846167767272000,8.67727197265625,-0.976287841796875,-0.0211334228515625,0.0086212158203125
