time,seconds_elapsed,z,y,x
1782846159165469000,0.075468994140625,-0.001091523328796029,-0.0015940666198730469,-0.0019014511490240693
1782846159175474000,0.085473876953125,0.0009411638602614403,0.011556428857147694,0.0016523830126971006
1782846159185479000,0.09547900390625,0.002377406693994999,-0.000876804580911994,-0.0013916101306676865
1782846159195484000,0.10548388671875,-0.002219557296484709,-0.009642479009926319,-0.0007699864218011498
1782846159205489000,0.115489013671875,0.0016196554061025381,0.004444045480340719,-0.0010376340942457318
1782846159215494000,0.125493896484375,-0.000794885098002851,0.006267028860747814,-0.0003890071529895067
1782846159225499000,0.135498779296875,-0.0012638678308576345,-0.006587782874703407,0.0004751886008307338
1782846159235503900,0.14550390625,1.6298145055770874e-8,-0.0053975689224898815,-0.0022422620095312595
1782846159245508900,0.1555087890625,0.00007751421071588993,0.004277429543435574,0.0022907042875885963
1782846159255513900,0.165513916015625,0.00033535249531269073,0.0017404775135219097,-0.00037146511022001505
1782846159265518800,0.175518798828125,-0.0011626756750047207,-0.0061523327603936195,-0.0021366081200540066
1782846159275523800,0.18552392578125,-0.0005479296669363976,-0.001501461723819375,-0.0008466854924336076
1782846159285528800,0.19552880859375,-0.0021458263508975506,0.004958035424351692,-0.0014815829927101731
1782846159295533800,0.205533935546875,-0.0017329978290945292,0.00047588697634637356,0.00005528877954930067
1782846159305538800,0.215538818359375,-0.00005520647391676903,-0.001996059203520417,-0.0034038913436233997
1782846159315543800,0.225543701171875,-0.0007517333142459393,-0.00269402377307415,0.0010565180564299226
1782846159325548800,0.235548828125,0.0011292572598904371,0.002477568807080388,0.000028804293833673
1782846159335553800,0.2455537109375,0.0020971326157450676,-0.0013183315750211477,-0.002773184794932604
1782846159345558800,0.255558837890625,0.00040655815973877907,-0.0011311110574752092,0.000522743328474462
1782846159355563800,0.265563720703125,-0.0007584687555208802,0.0014728778041899204,-0.0021927624475210905
1782846159365568800,0.27556884765625,-0.0005619274452328682,0.0011029646266251802,0.0006674726027995348
1782846159375573800,0.28557373046875,0.0014156782999634743,-0.0036496876273304224,0.000942650658544153
1782846159385578800,0.295578857421875,0.003322501666843891,-0.003270986257120967,-0.0007127702701836824
1782846159395583700,0.305583740234375,-0.0009259594371542335,0.002333007287234068,0.001258690608665347
1782846159405589000,0.315589111328125,-0.0028804533649235964,0.001139911124482751,-0.001651345519348979
1782846159415594000,0.325593994140625,0.0007142219692468643,0.0003846636973321438,-0.0012099865125492215
1782846159425599000,0.335598876953125,-0.0005771449068561196,-0.00006088311783969402,0.002297130413353443
1782846159435604000,0.34560400390625,0.00017304602079093456,0.0001381498295813799,-0.0010981648229062557
1782846159445609000,0.35560888671875,-0.0007665171287953854,-0.002446181606501341,0.0009695134358480573
1782846159455614000,0.365614013671875,-0.000040427315980196,0.0008663563057780266,0.00019125710241496563
1782846159465619000,0.375618896484375,0.00020484975539147854,0.0018754280172288418,0.00004771270323544741
1782846159475624000,0.3856240234375,-0.00007399637252092361,-0.0001193028874695301,0.0012456367257982492
1782846159485629000,0.39562890625,-0.0016479244222864509,-0.00362242478877306,0.003310385625809431
1782846159495634000,0.405634033203125,0.0008141396101564169,-0.0010840946342796087,0.0008616132545284927
1782846159505639000,0.415638916015625,-0.00003460980951786041,-0.0013570685405284166,0.00023071037139743567
1782846159515644000,0.425643798828125,-0.0029299533925950527,-0.00030410289764404297,-0.0034897644072771072
1782846159525649000,0.43564892578125,0.0011872935574501753,-0.0014045210555195808,-0.0039544859901070595
1782846159535654000,0.44565380859375,-0.001352657680399716,0.000036322278901934624,-0.0022997520864009857
1782846159545659000,0.455658935546875,-0.0028839753940701485,-0.0031400297302752733,0.00028271519113332033
1782846159555664000,0.465663818359375,-0.002203605370596051,-0.0022378975991159678,-0.0013995609479025006
1782846159565668900,0.4756689453125,-0.0009423323208466172,0.0002700011245906353,-0.00009328045416623354
1782846159575673900,0.485673828125,-0.0018725134432315826,-0.0009883670136332512,0.0014334360603243113
1782846159585678800,0.495678955078125,-0.0010836852015927434,0.00018422259017825127,0.0002768252743408084
1782846159595683800,0.505683837890625,0.0011836285702884197,0.0002660315949469805,-0.00029667268972843885
1782846159605688800,0.515688720703125,0.00006563356146216393,-0.0024732958991080523,0.00044128927402198315
1782846159615693800,0.52569384765625,0.0011470252647995949,-0.00014634756371378899,-0.001539187622256577
1782846159625698800,0.53569873046875,-0.0006346293957903981,0.0004155794158577919,-0.0023559792898595333
1782846159635703800,0.545703857421875,0.000023923814296722412,-0.001021969597786665,-0.001496237819083035
1782846159645708800,0.555708740234375,-0.0006392033537849784,-0.001546346116811037,-0.0004562733229249716
1782846159655713800,0.5657138671875,0.002107738284394145,0.0015449296915903687,-0.00015095912385731936
1782846159665718800,0.57571875,-0.0015032419469207525,-0.0010114386677742004,0.0011167055927217007
1782846159675723800,0.585723876953125,-0.000800363952293992,-0.00030681444332003593,0.0010307985357940197
1782846159685728800,0.595728759765625,-0.0008467029547318816,-0.0012839280534535646,0.001992732286453247
1782846159695733800,0.605733642578125,-0.00022100447677075863,-0.0022861724719405174,0.001668084878474474
1782846159705738800,0.61573876953125,0.0008498525712639093,-0.002670466434210539,-0.0005969336489215493
1782846159715743700,0.62574365234375,-0.0014223037287592888,-0.0004885154776275158,-4.525063559412956e-7
1782846159725748700,0.635748779296875,0.00020142551511526108,0.00044172676280140877,-0.0011996738612651825
1782846159735753700,0.645753662109375,-0.0026751079130917788,0.0015071359230205417,-0.0011342838406562805
1782846159745758700,0.6557587890625,-0.0027909553609788418,0.00012096064165234566,0.0013259444385766983
1782846159755763700,0.665763671875,-0.0025920760817825794,0.0007205384317785501,0.0007944991230033338
1782846159765768700,0.675768798828125,0.0006913351826369762,0.0010877882596105337,-0.0007543953834101558
1782846159775773700,0.685773681640625,-0.0017095651710405946,0.00014384067617356777,0.0022439658641815186
1782846159785778700,0.69577880859375,-0.0008634788682684302,-0.0025994814932346344,0.0012239752104505897
1782846159795783700,0.70578369140625,-0.0004453068831935525,0.0006634464953094721,0.0006316181388683617
1782846159805788700,0.71578857421875,0.000163225457072258,0.0008282961789518595,-0.0024011896457523108
1782846159815793700,0.725793701171875,-0.0005161490989848971,0.0008459028322249651,0.0009811396012082696
1782846159825798700,0.735798583984375,-0.0028940855991095304,0.00020834198221564293,0.00024690607096999884
1782846159835803600,0.7458037109375,-0.001451925141736865,0.00010824715718626976,-0.0035518482327461243
1782846159845808600,0.75580859375,0.00017499993555247784,-0.0001737817656248808,-0.0003272929461672902
1782846159855813600,0.765813720703125,0.0027655900921672583,-0.0003621135838329792,0.00041210989002138376
1782846159865818600,0.775818603515625,0.0009375964291393757,-0.0006364192813634872,0.00010344944894313812
1782846159875823600,0.78582373046875,0.001326033379882574,-0.0006620623171329498,0.00179109291639179
1782846159885828600,0.79582861328125,0.0007459970656782389,-0.0009627330582588911,0.0014161198632791638
1782846159895833900,0.805833740234375,0.0001771841198205948,-0.0013979419600218534,-0.0003109142417088151
1782846159905838800,0.8158388671875,-0.0006539885653182864,0.00017358968034386635,0.003050793893635273
1782846159915843800,0.82584375,-0.0003567459061741829,0.001095794839784503,0.00038478896021842957
1782846159925848800,0.835848876953125,-0.0013447785750031471,-0.0023008007556200027,0.0004300627042539418
1782846159935853800,0.845853759765625,-0.000689046224579215,0.0004933301825076342,-0.0005659995367750525
1782846159945858800,0.85585888671875,-0.0012547016376629472,-0.0013788719661533833,0.0022217975929379463
1782846159955863800,0.86586376953125,0.0012993377167731524,0.0005504311993718147,0.0012333308113738894
1782846159965868800,0.875868896484375,0.00002634664997458458,-0.0019348307978361845,0.000827731448225677
1782846159975873800,0.885873779296875,-0.0003089744132012129,0.0023966124281287193,-0.0015299885999411345
1782846159985878800,0.895878662109375,-0.0013531999429687858,-0.0021786983124911785,-0.00022157758940011263
1782846159995883800,0.9058837890625,-0.002744691213592887,0.0006635356694459915,0.0011907959124073386
1782846160005888800,0.915888671875,-0.00008153030648827553,-0.0009929505176842213,0.002608662936836481
1782846160015893800,0.925893798828125,0.0014414505567401648,0.0001943451352417469,0.001078661298379302
1782846160025898800,0.935898681640625,-0.00023554195649921894,-0.00009301002137362957,-0.002416737610474229
1782846160035903700,0.94590380859375,0.002284388290718198,-0.00022981525398790836,0.0003569969558157027
1782846160045908700,0.95590869140625,0.0001615826040506363,-0.0009315584320574999,0.001110937912017107
1782846160055913700,0.965913818359375,0.002932281931862235,0.00002412823960185051,0.00009466824121773243
1782846160065918700,0.975918701171875,0.0002480819821357727,-0.0008272842969745398,0.0012515455018728971
1782846160075923700,0.985923828125,0.0005535599775612354,0.000983741832897067,-0.0004603358684107661
1782846160085928700,0.9959287109375,-0.00016842293553054333,-0.0006615589372813702,-0.002068885136395693
1782846160095933700,1.00593359375,-0.002648055087774992,0.0005716022569686174,-0.00003926060162484646
1782846160105938700,1.015938720703125,0.001995432423427701,0.001748453127220273,-0.00006562587805092335
1782846160115943700,1.025943603515625,0.00010697287507355213,0.0004618156235665083,-0.0012752427719533443
1782846160125948700,1.03594873046875,-0.0013945173704996705,-0.0033089539501816034,0.0010816548019647598
1782846160135953700,1.04595361328125,0.001029101898893714,0.00006400304846465588,-0.0003062437754124403
1782846160145958700,1.055958740234375,-0.003156055696308613,0.001575080561451614,-0.0007659053662791848
1782846160155964000,1.0659638671875,-0.000892338459379971,-0.00015527615323662758,-0.0007248638430610299
1782846160165969000,1.075968994140625,-0.0024976918939501047,0.0005619132425636053,0.0034078294411301613
1782846160175974000,1.085973876953125,0.0010161562822759151,0.003331083571538329,0.0005976379616186023
1782846160185979000,1.095978759765625,-0.0008525837911292911,0.00039761164225637913,0.002210182137787342
1782846160195984000,1.10598388671875,0.002801818074658513,-0.000070174690335989,-0.0010583512485027313
1782846160205988900,1.11598876953125,0.0013147091958671808,-0.0012254540342837572,-0.0016399857122451067
1782846160215993900,1.125993896484375,-0.0013743515592068434,-0.000055083539336919785,-0.004111734218895435
1782846160225998800,1.135998779296875,-0.0013069736305624247,0.0017777038738131523,-0.0010174072813242674
1782846160236003800,1.14600390625,0.0021524156909435987,-0.003507673041895032,0.0015223267255350947
1782846160246008800,1.1560087890625,-0.000684383325278759,0.0017004049150273204,-0.00017756898887455463
1782846160256013800,1.166013916015625,0.0022166743874549866,-0.0003255100455135107,0.001348281279206276
1782846160266018800,1.176018798828125,-0.000016652513295412064,0.0004286970943212509,-0.0025641685351729393
1782846160276023800,1.18602392578125,0.001579795265570283,0.00040913536213338375,0.0007693864172324538
1782846160286028800,1.19602880859375,-0.0009179835906252265,-0.0033525796607136726,0.002621082356199622
1782846160296033800,1.20603369140625,-0.0004586117574945092,-0.0015106082428246737,-0.0017951915506273508
1782846160306038800,1.216038818359375,0.0006348821334540844,0.0006180563941597939,0.001980372006073594
1782846160316043800,1.226043701171875,-0.0008662132313475013,-0.0010053233709186316,0.0005063831922598183
1782846160326048800,1.236048828125,-0.0004925717366859317,0.0021822142880409956,-0.001338921138085425
1782846160336053800,1.2460537109375,0.0002045284491032362,-0.0010192582849413157,0.0036768505815416574
1782846160346058800,1.256058837890625,0.0014610078651458025,0.00046971486881375313,-0.00087342644110322
1782846160356063700,1.266063720703125,0.0007638391107320786,-0.00006495066918432713,-0.001333291525952518
1782846160366068700,1.27606884765625,0.0007523875683546066,0.0006128237582743168,0.0014707506634294987
1782846160376073700,1.28607373046875,0.001170086907222867,0.0009151750709861517,-0.002512787003070116
1782846160386078700,1.29607861328125,-0.0019008041126653552,-0.0026646461337804794,0.0016430758405476809
1782846160396083700,1.306083740234375,0.0013518985360860825,0.0004444702062755823,-0.00014857237692922354
1782846160406088700,1.316088623046875,0.00032844580709934235,0.0038874049205332994,0.0008735489100217819
1782846160416094000,1.326093994140625,-0.00014299806207418442,-0.002290263306349516,0.001103128888644278
1782846160426099000,1.336098876953125,0.0007089471910148859,0.0007420119363814592,0.0008970001945272088
1782846160436104700,1.346104736328125,0.000010863645002245903,0.0005349840503185987,0.0014419321669265628
1782846160446109200,1.356109130859375,0.002528349868953228,0.002177888061851263,-0.0001165496651083231
1782846160456115200,1.366115234375,-0.0011067778104916215,0.00031076534651219845,-0.0013640873366966844
1782846160466120200,1.3761201171875,0.0014128389302641153,-0.000338513171300292,-0.0004905705573037267
1782846160476125200,1.386125244140625,0.0011137959081679583,-0.0013155920896679163,0.004153750836849213
1782846160486130200,1.396130126953125,-0.0015743989497423172,0.0003376984968781471,-0.0009555238066241145
1782846160496135200,1.40613525390625,-0.0000803610309958458,-0.0008118045516312122,0.0013886268716305494
1782846160506140200,1.41614013671875,-0.0005059342365711927,-0.0007689273916184902,-0.0007469620322808623
1782846160516145200,1.426145263671875,0.001413371879607439,-0.0014234278351068497,-0.0014182220911607146
1782846160526150100,1.436150146484375,0.001395528670400381,0.0011633005924522877,0.0022385644260793924
1782846160536155100,1.446155029296875,0.0008604158647358418,0.00046161538921296597,0.00034771388163790107
1782846160546160000,1.45616015625,0.0014100922271609306,0.0025428757071495056,0.0024497469421476126
1782846160556165000,1.4661650390625,-0.0014306879602372646,0.00023904372937977314,-0.0020354969892650843
1782846160566170000,1.476170166015625,0.00019330764189362526,0.000131185632199049,-0.00003359885886311531
1782846160576175000,1.486175048828125,0.001467553898692131,-0.0034176544286310673,0.00015649694250896573
1782846160586180000,1.49618017578125,0.0019256176892668009,0.001201065955683589,0.0013495930470526218
1782846160596185000,1.50618505859375,-0.00025466433726251125,0.0003771053161472082,-0.0010021928464993834
1782846160606190000,1.516190185546875,-0.002657634671777487,-0.00011557969264686108,-0.0000389275373890996
1782846160616195300,1.5261953125,-0.0010828833328559995,0.0005139696877449751,0.0009230354917235672
1782846160626200300,1.536200439453125,0.0013416584115475416,-0.0004279904533177614,0.0006681709783151746
1782846160636205300,1.546205322265625,-0.002098908182233572,-0.0004636042285710573,0.001615819986909628
1782846160646210300,1.556210205078125,-0.00006718258373439312,-0.0012218060437589884,0.0006914368132129312
1782846160656215300,1.56621533203125,0.00004770001396536827,0.0008604119066148996,-0.0008173314854502678
1782846160666220300,1.57622021484375,0.0016330797225236893,0.0006305812858045101,-0.000891899922862649
1782846160676225300,1.586225341796875,0.0006448538042604923,-0.0022620558738708496,-0.0008567885961383581
1782846160686230300,1.596230224609375,-0.002985567320138216,-0.0015214304439723492,0.0012566960649564862
1782846160696235300,1.6062353515625,-0.00032842461951076984,-0.0009156840387731791,-0.0004046509275212884
1782846160706240300,1.616240234375,-0.0011404224205762148,0.0006356074009090662,0.0021905996836721897
1782846160716245200,1.626245361328125,-0.0004382017068564892,0.0022003313060849905,-0.0021645664237439632
1782846160726250200,1.636250244140625,-0.001567648258060217,0.001139327883720398,-0.002205312717705965
1782846160736255200,1.646255126953125,0.00112014333717525,0.00043604569509625435,-0.001914727152325213
1782846160746260200,1.65626025390625,0.0001257190015166998,0.0027263641823083162,0.0018557764124125242
1782846160756265200,1.66626513671875,0.0007331690285354853,0.00013231649063527584,-0.0023124883882701397
1782846160766270200,1.676270263671875,0.0005699172616004944,0.0016101046930998564,-0.0019343196181580424
1782846160776275200,1.686275146484375,-0.00058998994063586,-0.0010334453545510769,0.0012980486499145627
1782846160786280200,1.6962802734375,0.0002052299678325653,0.000013176817446947098,0.002359318546950817
1782846160796285200,1.70628515625,-0.000556027633138001,-0.00013038469478487968,-0.001464665518142283
1782846160806290200,1.716290283203125,0.0009707626886665821,-0.0002576839178800583,-0.002308088820427656
1782846160816295200,1.726295166015625,0.0003962651826441288,0.0024267674889415503,0.0010665184818208218
1782846160826300200,1.736300048828125,-0.00044982112012803555,0.0004762683529406786,0.0010811658576130867
1782846160836305200,1.74630517578125,-0.001359510119073093,0.002788037061691284,0.0013384311459958553
1782846160846310100,1.75631005859375,-0.0004921185318380594,-0.0021228317636996508,-0.0021590981632471085
1782846160856315100,1.766315185546875,0.000025987625122070312,0.0004256465472280979,0.001106641604565084
1782846160866320100,1.776320068359375,0.0022622442338615656,-0.00044067995622754097,0.0019993330352008343
1782846160876325000,1.7863251953125,0.003464203327894211,0.0002546303439885378,-0.0016358377179130912
1782846160886330000,1.796330078125,0.0001293928362429142,-0.00010942365042865276,0.001304025761783123
1782846160896335000,1.806335205078125,-0.0020766491070389748,0.0002608615905046463,0.0025409155059605837
1782846160906340000,1.816340087890625,-0.0008713024435564876,-0.0012614012230187654,-0.0012223974335938692
1782846160916345000,1.826344970703125,-0.00144722661934793,-0.0006674374453723431,0.0011190067743882537
1782846160926350000,1.83635009765625,0.000018577324226498604,-0.00032575405202805996,-0.00248025543987751
1782846160936355000,1.84635498046875,-0.00011332100257277489,-0.0018341823015362024,-0.001528115593828261
1782846160946360000,1.856360107421875,-0.0005021424731239676,-0.0010935573372989893,0.00019068847177550197
1782846160956365000,1.866364990234375,-0.0023072760086506605,0.0010701403953135014,-0.0009011393412947655
1782846160966370000,1.8763701171875,0.001287192339077592,0.0003564131911844015,-0.00005345523823052645
1782846160976375000,1.886375,-0.0015491005033254623,0.0006584676448255777,0.000995374284684658
1782846160986380000,1.896380126953125,0.00021630898118019104,0.0012342431582510471,-0.001477903570048511
1782846160996385000,1.906385009765625,0.0035228333435952663,-0.0011778960470110178,-0.00035363936331123114
1782846161006390000,1.91639013671875,-0.0006133220158517361,0.0010098910424858332,0.0014597070403397083
1782846161016395000,1.92639501953125,0.002378008095547557,-0.0008812206797301769,-0.00351297901943326
1782846161026400000,1.93639990234375,0.0003425539471209049,0.003371847327798605,-0.0003171856515109539
1782846161036405000,1.946405029296875,-0.00003439304418861866,-0.0014313014689832926,-0.00040322355926036835
1782846161046410000,1.956409912109375,-0.001299394527450204,0.000006006332114338875,0.0008788221748545766
1782846161056415000,1.9664150390625,-0.0015970309032127261,0.0011357355397194624,-0.0004904265515506268
1782846161066420000,1.976419921875,0.0019753333181142807,-0.00015057111158967018,-0.0017634176183491945
1782846161076425000,1.986425048828125,-0.0006605959497392178,0.0007793526165187359,0.000989163643680513
1782846161086430000,1.996429931640625,0.0020699428860098124,0.00040304800495505333,-0.00136347278021276
1782846161096435000,2.00643505859375,-0.0009827837347984314,0.002143185120075941,-0.00010667706374078989
1782846161106440200,2.016440185546875,0.0017962248530238867,0.0016773984534665942,0.0009244988905265927
1782846161116445200,2.026445068359375,-0.0006815349915996194,0.0003033180255442858,-0.00009923649486154318
1782846161126450200,2.0364501953125,-0.00030523038003593683,0.00006709550507366657,0.0015705653931945562
1782846161136455200,2.046455078125,-0.00037453812547028065,-0.0005356909241527319,-0.00378890591673553
1782846161146460200,2.056460205078125,-0.0009676241315901279,-0.0017775229644030333,0.0009118398884311318
1782846161156465200,2.066465087890625,0.002049504779279232,0.0015429571503773332,-0.001950576319359243
1782846161166470100,2.07647021484375,0.0027134311385452747,0.00043428316712379456,-0.0007982264505699277
1782846161176475100,2.08647509765625,0.0011297797318547964,0.0006985592190176249,-0.0004237036919221282
1782846161186480000,2.096480224609375,-0.0010878345929086208,0.0005829778965562582,-0.0016213272465392947
1782846161196485000,2.106485107421875,-0.0014971792697906494,-0.00034428643994033337,0.000029993709176778793
1782846161206490000,2.116489990234375,-0.0008779943455010653,-0.0021994446869939566,0.0006577008171007037
1782846161216495000,2.1264951171875,-0.00010575214400887489,0.0014741976046934724,-0.004201383329927921
1782846161226500400,2.136500244140625,-0.0011483796406537294,-0.001768999733030796,0.0011837949277833104
1782846161236505300,2.14650537109375,-0.000060063088312745094,-0.0014962577261030674,0.000028658832889050245
1782846161246510300,2.15651025390625,0.0004222355782985687,-0.0005508356261998415,-0.0014097144594416022
1782846161256515300,2.166515380859375,-0.001139577478170395,-0.0026340968906879425,0.0013352404348552227
1782846161266520300,2.176520263671875,0.0016048101242631674,0.00010203453712165356,-0.0008488179882988334
1782846161276525300,2.186525390625,-0.0006213050801306963,0.00015861866995692253,-0.0019219683017581701
1782846161286530300,2.1965302734375,0.0002756475005298853,0.0010417229495942593,-0.0009030428482219577
1782846161296535300,2.206535400390625,-0.0005754299927502871,0.0010858878958970308,0.0012455182150006294
1782846161306540300,2.216540283203125,0.001974280457943678,-0.0012688790448009968,0.0005789289716631174
1782846161316545300,2.226545166015625,0.002279104897752404,0.0009089256636798382,-0.0019582556560635567
1782846161326550300,2.23655029296875,0.0019962771330028772,-0.00020560715347528458,-0.0012796822702512145
1782846161336555300,2.24655517578125,0.0017497735098004341,0.001407460542395711,-0.001613581902347505
1782846161346560300,2.256560302734375,-0.0016082061920315027,0.00047961529344320297,0.00018724770052358508
1782846161356565200,2.266565185546875,-0.00039660953916609287,0.0014633007813245058,0.0012728041037917137
1782846161366570200,2.2765703125,0.00038236496038734913,-0.0018789663445204496,0.0006935666315257549
1782846161376575200,2.2865751953125,0.0025093830190598965,0.000507100485265255,-0.0010118742939084768
1782846161386580200,2.296580322265625,-0.00009518861770629883,-0.00033126259222626686,-0.001143967267125845
1782846161396585200,2.306585205078125,-0.00012340210378170013,-0.00132484151981771,0.0015594708966091275
1782846161406590200,2.316590087890625,-0.000800910172984004,-0.0001613064669072628,0.002807960845530033
1782846161416595200,2.32659521484375,0.0019281385466456413,0.00006374670192599297,-0.003663829527795315
1782846161426600200,2.33660009765625,-0.00047136947978287935,-0.0008169605862349272,-0.0010121199302375317
1782846161436605200,2.346605224609375,0.0018147341907024384,0.0020840929355472326,-0.001660814043134451
1782846161446610000,2.35660986328125,0.00031910277903079987,0.00010030437260866165,0.00007024075603112578
1782846161456615000,2.366614990234375,-0.0014177028788253665,0.000673825154080987,0.0010718059493228793
1782846161466620000,2.376619873046875,-0.0014941355912014842,-0.000762683805078268,-0.0025812522508203983
1782846161476625000,2.386625,0.0009238212369382381,0.00015694298781454563,0.0030185908544808626
1782846161486630000,2.3966298828125,0.0012910710647702217,0.0007087499834597111,-0.00023259606678038836
1782846161496635000,2.406634765625,0.0007154191844165325,-0.00035241665318608284,0.0002504983567632735
1782846161506640000,2.416639892578125,-0.0007692930521443486,-0.00028663664124906063,-0.0005878647789359093
1782846161516644900,2.426644775390625,-0.001456988276913762,0.0024702008813619614,0.0008486550068482757
1782846161526649900,2.43664990234375,0.00007566087879240513,-0.000771398888900876,0.0004161576507613063
1782846161536654800,2.44665478515625,-0.0004436157178133726,-0.00004889839328825474,-0.0010286681354045868
1782846161546659800,2.456659912109375,-0.0010478869080543518,-0.002502468880265951,0.0021617987658828497
1782846161556664800,2.466664794921875,-0.0002170263323932886,0.0012590286787599325,-0.001234882976859808
1782846161566669800,2.476669921875,-0.00047668442130088806,-0.0010778950527310371,0.00194253446534276
1782846161576674800,2.4866748046875,0.0007363732438534498,-0.00024522142484784126,0.0014458302175626159
1782846161586679800,2.4966796875,-0.0005312913563102484,0.0004458688199520111,-0.00022264011204242706
1782846161596685000,2.50668505859375,0.0007768443319946527,0.0008405277039855719,0.0018665031529963017
1782846161606690000,2.51668994140625,-0.0002777674235403538,-0.00007639871910214424,-0.00021182780619710684
1782846161616695000,2.526695068359375,-0.0014731952687725425,0.0010603228583931923,0.0019299739506095648
1782846161626700000,2.536699951171875,0.00006318232044577599,0.000001716194674372673,0.002004808746278286
1782846161636705000,2.546705078125,0.0007755046244710684,0.0016669195611029863,0.0000428896164521575
1782846161646710000,2.5567099609375,0.0007989404257386923,-0.0008790623396635056,-0.0018700589425861835
1782846161656715000,2.566715087890625,-0.003454911056905985,-0.0019584698602557182,0.0003814290976151824
1782846161666720000,2.576719970703125,-0.002262347610667348,-0.0008074520155787468,-0.000378637108951807
1782846161676725200,2.586725341796875,-0.002040139865130186,0.0016249645268544555,0.00010341848246753216
1782846161686730200,2.596730224609375,0.0010842806659638882,0.0028417627327144146,-0.000852123717777431
1782846161696735200,2.6067353515625,-0.00032892939634621143,-0.0008180967997759581,0.0011858140351250768
1782846161706740200,2.616740234375,-0.0005260033067315817,-0.00014245277270674706,0.000653714407235384
1782846161716745200,2.6267451171875,0.000024469802156090736,0.000628940062597394,-0.0015139869647100568
1782846161726750200,2.636750244140625,0.000008490867912769318,0.0013352103997021914,0.0001358413719572127
1782846161736755200,2.646755126953125,0.002049951581284404,0.0010451690759509802,0.0008120823185890913
1782846161746760200,2.65676025390625,-0.0004275870742276311,0.0000326354056596756,-0.0022763856686651707
1782846161756765200,2.66676513671875,0.0004409139510244131,0.0007500515785068274,-0.00034026382490992546
1782846161766770200,2.676770263671875,0.00016341242007911205,-0.000902439933270216,0.0006198057089932263
1782846161776775200,2.686775146484375,0.001020696246996522,0.001597395516000688,0.0015002947766333818
1782846161786780200,2.6967802734375,-0.001403312897309661,-0.000034589553251862526,-0.0008603311143815517
1782846161796785200,2.70678515625,-0.00044997676741331816,0.0015392268542200327,-0.0009397650137543678
1782846161806790100,2.7167900390625,-0.0005005768034607172,0.0007298921700567007,0.0018600161420181394
1782846161816795100,2.726795166015625,0.002013641642406583,0.001516144024208188,-0.002491892082616687
1782846161826800000,2.736800048828125,-0.0020601958967745304,0.001747572678141296,-0.0011685674544423819
1782846161836805000,2.74680517578125,-0.0005945058073848486,0.0012383128050714731,0.00028601649682968855
1782846161846810000,2.75681005859375,-0.0004115465562790632,0.0017192796804010868,-0.0005235844291746616
1782846161856815000,2.766815185546875,0.0009376825764775276,0.001482106395997107,0.00005621707532554865
1782846161866820000,2.776820068359375,0.00012275530025362968,-0.0017019689548760653,0.002425631508231163
1782846161876825000,2.7868251953125,-0.00036941037978976965,0.0012114939745515585,0.0014153642114251852
1782846161886830000,2.796830078125,0.00012327451258897781,-0.00327113876119256,0.0011269438546150923
1782846161896835000,2.8068349609375,0.001930951839312911,0.0006128286477178335,-0.004211869090795517
1782846161906840000,2.816840087890625,0.00007526134140789509,-0.0008274090941995382,0.00001296971458941698
1782846161916845000,2.826844970703125,0.0006205318495631218,0.0015154591528698802,-0.0016972688026726246
1782846161926850000,2.83685009765625,-0.0016737815458327532,0.0025160089135169983,0.0008279404137283564
1782846161936855000,2.84685498046875,0.001447581686079502,0.0008297727908939123,-0.0011328846449032426
1782846161946860000,2.856860107421875,0.002466506790369749,-0.0010528156999498606,-0.0011134435189887881
1782846161956865000,2.866864990234375,-0.000709658139385283,-0.0007320926524698734,-0.0014113385695964098
1782846161966870000,2.8768701171875,0.0035817597527056932,0.0002314392477273941,-0.0029527763836085796
1782846161976875000,2.886875,-0.0012427959591150284,-0.0010385005734860897,0.0005927952006459236
1782846161986880000,2.8968798828125,-0.0016918048495426774,-0.0012973598204553127,-0.0010074982419610023
1782846161996885000,2.906885009765625,0.000056826742365956306,0.0005308345425873995,-0.00150076556019485
1782846162006890000,2.916889892578125,0.00020543113350868225,0.0028893300332129,-0.001232318812981248
1782846162016896000,2.92689599609375,-0.0010743907187134027,0.0005590221844613552,-0.0003463728353381157
1782846162026901000,2.93690087890625,0.0007046009413897991,-0.0005917300004512072,0.0011348773259669542
1782846162036906000,2.946906005859375,-0.0003808109322562814,-0.0017483308911323547,-0.0008088995236903429
1782846162046911000,2.956910888671875,-0.0013747026678174734,-0.0006223465315997601,0.002260127104818821
1782846162056916000,2.966916015625,-0.00042653572745621204,-0.00012621399946510792,0.0007283412851393223
1782846162066921000,2.9769208984375,0.0010922648943960667,-0.0001616340596228838,-0.0013044496299698949
1782846162076926000,2.986926025390625,0.002454651752486825,0.0002056811936199665,-0.0023187478072941303
1782846162086931000,2.996930908203125,-0.000488407677039504,-0.0020939584355801344,-0.0003943478222936392
1782846162096936000,3.00693603515625,-0.0004916618345305324,-0.001648071687668562,0.0005525039741769433
1782846162106941000,3.01694091796875,-0.0016037978930398822,0.000621740473434329,0.0011538458056747913
1782846162116946000,3.02694580078125,0.00012023281306028366,0.001143398229032755,0.0014942041598260403
1782846162126951000,3.036950927734375,-0.000777518842369318,0.00203901925124228,-0.0002059577964246273
1782846162136956000,3.046955810546875,-0.0008715296862646937,-0.0015259385108947754,0.0010667953174561262
1782846162146961000,3.0569609375,0.0005354182794690132,0.0020498877856880426,-0.0011207250645384192
1782846162156966000,3.0669658203125,-0.0005149920471012592,0.0015657435869798064,-0.0009232880547642708
1782846162166971000,3.076970947265625,-0.00016052532009780407,-0.001339765265583992,0.0007318665739148855
1782846162176976000,3.086975830078125,-0.000048749614506959915,0.00006908318027853966,0.0010091288713738322
1782846162186980900,3.09698095703125,-0.002595796948298812,0.00037241727113723755,-0.0011805221438407898
1782846162196985900,3.10698583984375,-0.0002291554119437933,0.002812644001096487,-0.0008616200648248196
1782846162206990800,3.116990966796875,0.0009674027096480131,0.0001662608701735735,-0.0018400653498247266
1782846162216995800,3.126995849609375,-0.001562462653964758,0.0002814647741615772,0.003175936173647642
1782846162227000800,3.137000732421875,-0.0006298236548900604,-0.000849046977236867,-0.0014651546953245997
1782846162237005800,3.147005859375,-0.002227621851488948,0.0010368302464485168,-0.001957808155566454
1782846162247011000,3.157010986328125,0.003533062059432268,0.001281042117625475,-0.0007884142687544227
1782846162257016000,3.16701611328125,0.0012985351495444775,0.0008973374497145414,0.0016011096304282546
1782846162267021000,3.17702099609375,0.0004945266991853714,0.0002472598571330309,-0.0007161068497225642
1782846162277026000,3.187026123046875,-0.000295657548122108,-0.002127178246155381,0.0012108213268220425
1782846162287031000,3.197031005859375,-0.0008408066350966692,0.0007823253981769085,-0.0004203647840768099
1782846162297036000,3.2070361328125,0.0007166294381022453,0.00018037785775959492,-0.0006672998424619436
1782846162307041000,3.217041015625,0.0006399303674697876,-0.001212721923366189,-0.0014691776596009731
1782846162317046000,3.2270458984375,0.00020642485469579697,-0.00004712841473519802,0.0005092484061606228
1782846162327051000,3.237051025390625,-0.0013445999938994646,-0.0008924158755689859,0.0007049908163025975
1782846162337056000,3.247055908203125,0.003163247834891081,-0.000094579067081213,-0.0015744133852422237
1782846162347061000,3.25706103515625,-0.0011132563231512904,0.0009664243552833796,-0.0013003740459680557
1782846162357066000,3.26706591796875,0.0009673158638179302,0.0008733882568776608,0.00043067021761089563
1782846162367071000,3.277071044921875,0.0013284403830766678,-0.00002090143971145153,0.0007228190079331398
1782846162377076200,3.287076171875,0.00046238861978054047,0.0017848315183073282,-0.002508030505850911
1782846162387081200,3.297081298828125,0.0014767865650355816,0.000808783108368516,0.0010683283908292651
1782846162397086200,3.307086181640625,-0.000568547286093235,0.00007484573870897293,-0.0026314775459468365
1782846162407091200,3.31709130859375,-0.000559758860617876,-0.002253822283819318,-0.000487899174913764
1782846162417096200,3.32709619140625,0.0011685944627970457,0.001341366209089756,0.00003272225148975849
1782846162427101200,3.33710107421875,0.0007656582165509462,0.0004782357718795538,0.0015621756901964545
1782846162437106200,3.347106201171875,-0.0006657218327745795,-0.002065797336399555,-0.00002505641896277666
1782846162447111400,3.357111328125,0.00024667708203196526,-0.0006348807364702225,0.0012151777045801282
1782846162457116400,3.367116455078125,0.0022526411339640617,0.0014186757616698742,0.0015262555098161101
1782846162467121400,3.377121337890625,0.0019921837374567986,0.002096183830872178,0.0011070739710703492
1782846162477126400,3.38712646484375,-0.002612501848489046,-0.0008569769561290741,-0.0013670717598870397
1782846162487131400,3.39713134765625,-0.0003256453201174736,0.00020003179088234901,-0.002210228703916073
1782846162497136400,3.407136474609375,0.001101143890991807,0.002346527297049761,-0.00008525745943188667
1782846162507141400,3.417141357421875,0.00011657318100333214,0.00009162886999547482,0.00047720223665237427
1782846162517146400,3.427146484375,-0.0007997088832780719,0.0005583558231592178,0.00027645734371617436
1782846162527151400,3.4371513671875,-0.000553100137040019,-0.0010488617699593306,0.000465808087028563
1782846162537156400,3.44715625,0.0002814140170812607,0.0007592446636408567,0.0014484693529084325
1782846162547161300,3.457161376953125,-0.00010873912833631039,0.002339031780138612,0.0028359764255583286
1782846162557166300,3.467166259765625,0.002207068959251046,-0.0013234051875770092,0.0008141831494867802
1782846162567171300,3.47717138671875,0.000649918569251895,-0.0001508153509348631,0.00038248475175350904
1782846162577176300,3.48717626953125,-0.0012833578512072563,-0.0007554746698588133,-0.0005104660522192717
1782846162587181300,3.497181396484375,-0.00020184810273349285,-0.0009597388561815023,0.0006022026645950973
1782846162597186300,3.507186279296875,0.00241969246417284,-0.00027635484002530575,-0.000695446040481329
1782846162607191300,3.51719140625,-0.000335081247612834,0.0003942290786653757,0.0014252291293814778
1782846162617196300,3.5271962890625,0.0012622810900211334,-0.0005939106922596693,0.0004261142457835376
1782846162627201300,3.537201171875,0.0002795746549963951,-0.00014490168541669846,-0.00008175056427717209
1782846162637206300,3.547206298828125,0.00008997716940939426,-0.0018877703696489334,0.00348443491384387
1782846162647211300,3.557211181640625,0.00006973720155656338,-0.00009892508387565613,0.0014055712381377816
1782846162657216300,3.56721630859375,0.003163151443004608,0.0026001804508268833,0.0015994678251445293
1782846162667221200,3.57722119140625,-0.0008201384916901588,0.0016491656424477696,-0.0010596984066069126
1782846162677226200,3.587226318359375,0.0024434621445834637,0.0010717452969402075,0.00037640001391991973
1782846162687231200,3.597231201171875,0.0011662100441753864,-0.0025999550707638264,-0.0007479866035282612
1782846162697236200,3.607236328125,-0.0011090767802670598,0.0022288314066827297,-0.000937021104618907
1782846162707241200,3.6172412109375,-0.0025751469656825066,-0.0019880179315805435,0.0030840858817100525
1782846162717246200,3.62724609375,-0.000573112047277391,-0.0008922189008444548,-0.00022480019833892584
1782846162727251200,3.637251220703125,0.0002447448205202818,-0.00084827677346766,-0.0007819334277883172
1782846162737256200,3.647256103515625,-0.0003115462604910135,-0.00007196282967925072,0.0012664238456636667
1782846162747261400,3.657261474609375,-0.00078292575199157,0.0007858413737267256,-0.000422819284722209
1782846162757266400,3.667266357421875,-0.00046715070493519306,0.0007413453422486782,0.0005857399664819241
1782846162767271400,3.677271484375,0.0017161089926958084,0.0010119224898517132,0.0018864278681576252
1782846162777276400,3.6872763671875,0.0005934159271419048,0.0008249462116509676,0.00328027899377048
1782846162787281400,3.697281494140625,-0.00039328529965132475,0.00041109113954007626,0.0027066341135650873
1782846162797286400,3.707286376953125,0.0008702606428414583,-0.000538563821464777,0.0010466667590662837
1782846162807291400,3.71729150390625,-0.0016759876161813736,-0.0014632134698331356,0.0014059272361919284
1782846162817296400,3.72729638671875,-0.0017473128391429782,0.00036803632974624634,0.000010061892680823803
1782846162827301400,3.73730126953125,0.001318251946941018,0.0006769630126655102,0.000361599144525826
1782846162837306600,3.747306640625,-0.001807652530260384,-0.00035936408676207066,0.002224224153906107
1782846162847311600,3.7573115234375,0.0011260856408625841,0.0007234772201627493,0.0010921144858002663
1782846162857316600,3.767316650390625,0.0010987685527652502,0.0012040487490594387,0.00020719104213640094
1782846162867321600,3.777321533203125,0.0012407151516526937,0.002154797315597534,0.0014679315499961376
1782846162877326600,3.78732666015625,-0.0005756063619628549,0.0009913502726703882,-0.004789641126990318
1782846162887331600,3.79733154296875,0.0002662187907844782,0.0004398096352815628,0.00014546274906024337
1782846162897336600,3.807336669921875,-0.0014966502785682678,0.00013746344484388828,0.0007954734610393643
1782846162907341600,3.817341552734375,0.0013689110055565834,0.00018273713067173958,-0.0019459844334051013
1782846162917346600,3.8273466796875,0.0011623140890151262,-0.0015351837500929832,-0.0008623098256066442
1782846162927351600,3.8373515625,-0.001617227215319872,-0.000553276389837265,-0.0010473994771018624
1782846162937356500,3.8473564453125,-0.0029486899729818106,0.0002791017759591341,0.0017248375806957483
1782846162947361500,3.857361572265625,-0.0008945937734097242,-0.0003528664819896221,-0.001697857165709138
1782846162957366500,3.867366455078125,0.0009193129371851683,-0.004147518426179886,-0.00042066164314746857
1782846162967371500,3.87737158203125,-0.0017957796808332205,0.0015119650634005666,-0.002668103203177452
1782846162977376500,3.88737646484375,0.0019567818380892277,-0.0016239110846072435,-0.0015597791643813252
1782846162987381500,3.897381591796875,-0.0018179825274273753,0.0003249901346862316,0.0011704935459420085
1782846162997386500,3.907386474609375,-0.000874284072779119,-0.00042639276944100857,0.0025413285475224257
1782846163007391500,3.9173916015625,0.0004833955317735672,0.00019012903794646263,-0.00009786407463252544
1782846163017396500,3.927396484375,-0.0006197019247338176,-0.0021455627866089344,0.0017560042906552553
1782846163027401500,3.9374013671875,0.0003345087170600891,0.0005841772072017193,-0.0011620213044807315
1782846163037406500,3.947406494140625,-0.0007062866352498531,-0.0007536103948950768,0.0007742747548036277
1782846163047411500,3.957411376953125,-0.00038564205169677734,0.00028555491007864475,6.264308467507362e-7
1782846163057416400,3.96741650390625,-0.0004662484861910343,0.00010021356865763664,0.0014436792116612196
1782846163067421400,3.97742138671875,0.0012261902447789907,-0.003092916449531913,0.00021143449703231454
1782846163077426400,3.987426513671875,-0.0008255967404693365,0.0004212080966681242,-0.00008615583647042513
1782846163087431400,3.997431396484375,-0.0001025486271828413,-0.00022514094598591328,0.00050346803618595
1782846163097436400,4.0074365234375,0.0008422064129263163,0.0016184920677915215,-0.00030951492954045534
1782846163107441400,4.01744140625,0.0018579359166324139,0.0009236733894795179,0.00047691649524495006
1782846163117446400,4.0274462890625,0.0005413712933659554,-0.0018911748193204403,0.00012072687968611717
1782846163127451400,4.037451416015625,-0.0004282855661585927,-0.0003617214970290661,-0.0021956905256956816
1782846163137456400,4.047456298828125,-0.002551489043980837,-0.0011300209444016218,-0.0013907422544434667
1782846163147461400,4.05746142578125,-0.00015624193474650383,0.0004079544451087713,0.0019975975155830383
1782846163157466400,4.06746630859375,0.00030482164584100246,-0.0009320327080786228,0.0011495375074446201
1782846163167471400,4.077471435546875,-0.00021955487318336964,0.002547653391957283,0.001298408256843686
1782846163177476400,4.087476318359375,-0.002298973500728607,0.00024356599897146225,0.0006542938644997776
1782846163187481300,4.0974814453125,-0.0005093293730169535,0.0003301186952739954,-0.0028533553704619408
1782846163197486300,4.107486328125,0.0010110409930348396,0.00013597472570836544,0.0025029778480529785
1782846163207491300,4.1174912109375,0.0008115700911730528,0.0008686103392392397,-0.00038468767888844013
1782846163217496300,4.127496337890625,0.00033878698013722897,-0.000776887871325016,0.00002660264726728201
1782846163227501300,4.137501220703125,-0.0004423181526362896,0.001290257554501295,0.0025416919961571693
1782846163237506300,4.14750634765625,0.0023306275252252817,-0.001793398754671216,0.001774864038452506
1782846163247511300,4.15751123046875,0.001444327412173152,-0.0022352172527462244,-0.00023582263384014368
1782846163257516300,4.167516357421875,0.000050607603043317795,-0.0006872385274618864,-0.0019473657011985779
1782846163267521300,4.177521240234375,0.0010434340219944715,0.0006749685853719711,0.00042417924851179123
1782846163277526300,4.1875263671875,0.0015372203197330236,0.003228367306292057,-0.0024872682988643646
1782846163287531300,4.19753125,0.0012679747305810452,-0.00007874611765146255,-0.0015668798005208373
1782846163297536300,4.207536376953125,-0.00037225312553346157,0.0007958358619362116,0.001720065250992775
1782846163307541200,4.217541259765625,-0.0011131445644423366,0.0003327119629830122,0.0009331011096946895
1782846163317546200,4.227546142578125,0.0010234159417450428,0.00030477182008326054,-0.001775931566953659
1782846163327551500,4.237551513671875,-0.0031660026870667934,-0.0029568017926067114,-0.0015104145277291536
1782846163337556500,4.247556396484375,-0.0013488135300576687,-0.000775644788518548,0.00010932295117527246
1782846163347561500,4.2575615234375,-0.0005653115222230554,0.0009633994195610285,-0.0007575360359624028
1782846163357566500,4.26756640625,0.0001593597698956728,-0.0009257299825549126,-0.002705264836549759
1782846163367571500,4.277571533203125,0.0017042593099176884,-0.0004903029184788465,0.001283351331949234
1782846163377576400,4.287576416015625,-0.001323462463915348,0.0000036046840250492096,-0.00022692966740578413
1782846163387581400,4.29758154296875,0.0010187877342104912,0.00017617736011743546,-0.0008554357336834073
1782846163397586400,4.30758642578125,-0.00007494213059544563,0.0014327868120744824,0.0003462882596068084
1782846163407591400,4.31759130859375,0.0011804718524217606,0.0013835183344781399,-0.000640146667137742
1782846163417596400,4.327596435546875,-0.002515633823350072,0.0005685403011739254,-0.00030263455118983984
1782846163427601400,4.337601318359375,0.0009970755781978369,0.0007594889029860497,-0.00052900321315974
1782846163437606400,4.3476064453125,0.0003830904606729746,-0.0002909472677856684,-0.0003813164075836539
1782846163447610600,4.357610595703125,-0.001307750353589654,-0.0001649798359721899,-0.001562161953188479
1782846163457615600,4.36761572265625,0.0010485448874533176,0.000019629718735814095,0.0006327470764517784
1782846163467620600,4.37762060546875,-0.0008223258191719651,-0.0008243259508162737,0.004129743669182062
1782846163477625600,4.38762548828125,0.001457517733797431,-0.0019701935816556215,-0.000224570045247674
1782846163487630600,4.397630615234375,0.00004657497629523277,0.0008698015008121729,0.00007956294575706124
1782846163497635600,4.407635498046875,0.0006845551542937756,-0.0012840377166867256,0.0016413077246397734
1782846163507640600,4.417640625,0.0007532646413892508,0.0015692728338763118,0.003255449701100588
1782846163517645600,4.4276455078125,-0.001914212480187416,-0.0013971985317766666,0.0010735639370977879
1782846163527650600,4.437650634765625,0.00008289213292300701,0.0003202741499990225,0.00020244397455826402
1782846163537655600,4.447655517578125,-0.0005093483487144113,-0.001322579337283969,0.0004046181566081941
1782846163547660500,4.45766064453125,0.0022608719300478697,0.0012383160647004843,-0.0037610982544720173
1782846163557665500,4.46766552734375,0.0011867277789860964,-0.00037291902117431164,-0.002643961925059557
1782846163567670500,4.47767041015625,-0.0047768885269761086,0.0002784901298582554,0.0030733123421669006
1782846163577675500,4.487675537109375,-0.001311756088398397,0.0011274535208940506,0.00007195968646556139
1782846163587680500,4.497680419921875,-0.0021162969060242176,-0.0018494280520826578,-0.0023861380759626627
1782846163597685500,4.507685546875,-0.0003641281509771943,0.0007593282498419285,-0.00035286101046949625
1782846163607690500,4.5176904296875,0.0015962247271090746,0.001985980197787285,-0.002333187498152256
1782846163617695500,4.527695556640625,0.0009920112788677216,0.0011845880653709173,-0.0022326651960611343
1782846163627700500,4.537700439453125,0.0019512821454554796,0.0015124231576919556,0.002410023706033826
1782846163637705500,4.54770556640625,-0.0022838208824396133,-0.0012896426487714052,0.001157321035861969
1782846163647710500,4.55771044921875,-0.0013628997839987278,0.002518411260098219,0.0009083154145628214
1782846163657715500,4.567715576171875,-0.001239089178852737,0.001716060098260641,-0.000331902876496315
1782846163667720400,4.577720458984375,-0.0004547882126644254,0.0007264295127242804,-0.00034814816899597645
1782846163677725400,4.587725341796875,-0.0005655868444591761,-0.0006960153114050627,-0.0005240917671471834
1782846163687730400,4.59773046875,-0.00044840772170573473,-0.0010872336570173502,0.00006473320536315441
1782846163697735400,4.6077353515625,0.0013296271208673716,-0.0003160571213811636,0.00007396825822070241
1782846163707740700,4.61774072265625,0.001107519492506981,0.00026983837597072124,-0.0003761060070246458
1782846163717745700,4.62774560546875,-0.00044206425081938505,0.0013016497250646353,0.0006890400545671582
1782846163727750700,4.637750732421875,-0.0005621728487312794,0.0008268081583082676,-0.0026015618350356817
1782846163737755600,4.647755615234375,-0.0014660288579761982,-0.0008450301829725504,-0.0012701657833531499
1782846163747761000,4.657760986328125,-0.0016505859093740582,-0.0003566064406186342,-0.0014350154669955373
1782846163757766000,4.667765869140625,-0.0002224375493824482,0.001299642724916339,0.00035767327062785625
1782846163767771000,4.67777099609375,-0.00018781633116304874,0.001955579500645399,-0.0013534077443182468
1782846163777775900,4.68777587890625,0.0002941102720797062,0.0016970601864159107,0.00039867061423137784
1782846163787780900,4.69778076171875,-0.0024835667572915554,0.001242724945768714,0.0008221131865866482
1782846163797785900,4.707785888671875,-0.0005064642755314708,-0.002202240051701665,-0.000656822114251554
1782846163807790800,4.717790771484375,-0.0010912944562733173,-0.0006011475343257189,-0.00044803018681705
1782846163817795800,4.7277958984375,0.0007817232981324196,0.0015033958479762077,0.001476647099480033
1782846163827800800,4.73780078125,0.0008775971364229918,0.002131102839484811,-0.0013361836317926645
1782846163837805800,4.747805908203125,0.00012037786655128002,0.0002872860059142113,-0.0010024349903687835
1782846163847810800,4.757810791015625,-0.0016442325431853533,-0.002213422441855073,0.0015022680163383484
1782846163857815800,4.76781591796875,0.00043505546636879444,-0.0020527055021375418,0.0012229749700054526
1782846163867820800,4.77782080078125,0.0002720700576901436,-0.0005626669153571129,-0.0003703942056745291
1782846163877825800,4.78782568359375,0.002378125675022602,-0.00041897292248904705,0.00043847685446962714
1782846163887830800,4.797830810546875,0.0002864792477339506,0.0002548068296164274,-0.002254245337098837
1782846163897835800,4.807835693359375,-0.00009729783050715923,0.0010865672957152128,0.0011638342402875423
1782846163907840800,4.8178408203125,-0.0011625622864812613,0.0002868198789656162,0.0012501206947490573
1782846163917845800,4.827845703125,0.0006958076264709234,-0.0022370347287505865,0.0033158690202981234
1782846163927850800,4.837850830078125,-0.0016038320027291775,-0.0003722894471138716,0.00103913270868361
1782846163937855700,4.847855712890625,0.000058874255046248436,-0.0029384936206042767,0.0025726989842951298
1782846163947860700,4.85786083984375,0.0008825899567455053,0.0018360217800363898,-0.0003312118351459503
1782846163957866800,4.86786669921875,0.0008364538662135601,0.0006247851997613907,-0.00006159243639558554
1782846163967871700,4.877871826171875,0.0013270080089569092,0.0011379763018339872,-0.0008424313273280859
1782846163977876700,4.887876708984375,0.0011013478506356478,0.000772558618336916,-0.0009079555748030543
1782846163987881700,4.8978818359375,-0.000008924165740609169,0.0027526188641786575,-0.0006698690121993423
1782846163997886700,4.90788671875,0.0009335968643426895,-0.0013871099799871445,0.0021562501788139343
1782846164007891700,4.9178916015625,0.0005082900170236826,0.00024061393924057484,-0.0024334415793418884
1782846164017896700,4.927896728515625,0.0005005712155252695,-0.0002983636222779751,-0.001469049951992929
1782846164027901700,4.937901611328125,0.0009381284471601248,0.00045158248394727707,0.0004055490135215223
1782846164037906700,4.94790673828125,-0.0012158227618783712,0.0013648468302562833,-0.000758287264034152
1782846164047911700,4.95791162109375,0.001397803658619523,0.0024298448115587234,-0.0018163610948249698
1782846164057916700,4.967916748046875,0.001267511397600174,0.0003231368027627468,-0.0026620186399668455
1782846164067921700,4.977921630859375,0.0019564712420105934,0.0013966570841148496,-0.0004180391551926732
1782846164077926700,4.9879267578125,0.0020893681794404984,0.0009097792208194733,-0.0035559351090341806
1782846164087931600,4.997931640625,-0.0005687330849468708,0.0009345465805381536,0.0016071352874860168
1782846164097936600,5.0079365234375,0.0019915166776627302,0.0009677079506218433,-0.000231119804084301
1782846164107941600,5.017941650390625,0.00043356744572520256,0.0000779458787292242,-0.0001176691148430109
1782846164117946600,5.027946533203125,-0.0031643114052712917,0.0008338135667145252,0.0004374805139377713
1782846164127951600,5.03795166015625,-0.0014028965961188078,-0.00011294009163975716,0.0003828857443295419
1782846164137956600,5.04795654296875,0.00048245047219097614,0.00018426147289574146,-0.0023305241484194994
1782846164147961600,5.057961669921875,-0.0011854872573167086,0.000977084506303072,-0.0010202487464994192
1782846164157966600,5.067966552734375,-0.0012434348464012146,0.0004504718817770481,-0.0008687891531735659
1782846164167971600,5.0779716796875,0.0010684551671147346,0.000878175487741828,0.0011605395702645183
1782846164177976600,5.0879765625,0.0005849367007613182,0.00209413911215961,0.00017181586008518934
1782846164187981600,5.097981689453125,0.0010589791927486658,-0.0005639619193971157,0.0016365544870495796
1782846164197986600,5.107986572265625,0.000886416994035244,-0.0008972364012151957,-0.00018062558956444263
1782846164207991600,5.117991455078125,0.00034526269882917404,-0.0008833881001919508,-0.0013747869525104761
1782846164217996500,5.12799658203125,-0.00018956908024847507,0.00003676326014101505,0.00016210315516218543
1782846164228001500,5.13800146484375,0.000021353131160140038,0.00020640669390559196,0.0024558836594223976
1782846164238006500,5.148006591796875,-0.001146215363405645,-0.0009647626429796219,0.0012162671191617846
1782846164248011500,5.158011474609375,-0.0022841840982437134,-0.002424707170575857,-0.0012929631629958749
1782846164258016500,5.1680166015625,0.000770891085267067,0.00007539382204413414,-0.0016143468674272299
1782846164268021500,5.178021484375,0.00003505963832139969,-0.0005299428012222052,-0.0017530976328998804
1782846164278026500,5.188026611328125,-0.00023930950555950403,-0.0011284439824521542,-0.0001744703622534871
1782846164288031500,5.198031494140625,-0.0010062998626381159,0.0015323202824220061,0.0022676484659314156
1782846164298036500,5.208036376953125,-0.0013362765312194824,0.003346175653859973,-0.0010576237691566348
1782846164308041500,5.21804150390625,-0.00017806771211326122,-0.001461629057303071,0.0025842487812042236
1782846164318046500,5.22804638671875,0.00016294769011437893,-0.00060086022131145,0.00026081298710778356
1782846164328051500,5.238051513671875,-0.0009963264456018806,0.0011741367634385824,0.0017351389396935701
1782846164338056400,5.248056396484375,-0.00018026726320385933,0.0020249676890671253,-0.0004875145386904478
1782846164348061400,5.2580615234375,-0.00023512844927608967,0.0013389374362304807,-0.0001322488533332944
1782846164358066400,5.26806640625,-0.0002853861078619957,-0.0013347237836569548,-0.001222774968482554
1782846164368071700,5.27807177734375,0.002518922323361039,0.0011145852040499449,0.0008574202074669302
1782846164378076700,5.28807666015625,-0.004433196969330311,0.0008330591954290867,0.0026178844273090363
1782846164388081700,5.29808154296875,0.001779691781848669,-0.00003646290861070156,-0.00019973982125520706
1782846164398086700,5.308086669921875,0.0019402990583330393,-0.0003903866745531559,0.0001329766819253564
1782846164408091600,5.318091552734375,-0.00027598359156399965,-0.0009579062461853027,-0.002500623231753707
1782846164418096600,5.3280966796875,0.001246798550710082,0.00040654302574694157,0.0009775134967640042
1782846164428101600,5.3381015625,-0.0007340607699006796,-0.0014102656859904528,-0.0023029684089124203
1782846164438106600,5.348106689453125,-0.0013615898787975311,-0.0014511561021208763,0.002492896281182766
1782846164448111600,5.358111572265625,-0.0010223031276836991,-0.000109455781057477,-0.0016374000115320086
1782846164458116600,5.36811669921875,0.0019197715446352959,0.0015680668875575066,-0.0035780761390924454
1782846164468121600,5.37812158203125,-0.0014187672641128302,0.00116752739995718,0.0013687455793842673
1782846164478126600,5.388126708984375,0.0009923651814460754,-0.0015142729971557856,-0.002855056431144476
1782846164488131600,5.398131591796875,0.00012310943566262722,0.0013315806863829494,0.002462477656081319
1782846164498136600,5.408136474609375,-0.0003292880719527602,-0.0006844042800366879,0.0011554606026038527
1782846164508141600,5.4181416015625,0.003250266658142209,-0.0013219648972153664,-0.0011660169111564755
1782846164518146600,5.428146484375,0.0011339662596583366,-0.0037468327209353447,0.0021893903613090515
1782846164528151600,5.438151611328125,-0.0019092279253527522,0.0004423195496201515,-0.001450085430406034
1782846164538156500,5.448156494140625,-0.0008383763488382101,0.0003466166090220213,0.0008858253131620586
1782846164548161500,5.45816162109375,0.0007600528188049793,0.0023101652041077614,-0.0015810608165338635
1782846164558166500,5.46816650390625,-0.001973570790141821,-0.0007064477540552616,-0.0008610197110101581
1782846164568171500,5.478171630859375,0.0010251484345644712,-0.002016722923144698,0.0020892301108688116
1782846164578176500,5.488176513671875,0.0004919441416859627,-0.0002012255135923624,-0.0028397333808243275
1782846164588181500,5.498181396484375,-0.0009528206428512931,-0.001086726551875472,-0.003261045552790165
1782846164598186500,5.5081865234375,-0.002411021152511239,0.00021150102838873863,-0.002559441141784191
1782846164608191500,5.51819140625,-0.0007912867004051805,-0.00035415426827967167,0.000497068976983428
1782846164618196500,5.528196533203125,0.001134358812123537,0.0018631955608725548,0.0017083713319152594
1782846164628201500,5.538201416015625,0.0014363613445311785,0.0010346861090511084,-0.0008405401604250073
1782846164638206500,5.54820654296875,0.00016780965961515903,-0.0005377302877604961,0.0009052037494257092
1782846164648211500,5.55821142578125,0.0012695593759417534,-0.00153135578148067,0.0001288923085667193
1782846164658216400,5.568216552734375,0.0024262580554932356,-0.0008181571029126644,0.0000010695075616240501
1782846164668221400,5.578221435546875,0.0016619309317320585,-0.002057858742773533,-0.00041358463931828737
1782846164678226400,5.588226318359375,0.0022290521301329136,0.0006895840633660555,0.0015912267845124006
1782846164688231400,5.5982314453125,-0.0016533040907233953,-0.0008726262021809816,0.0001176997902803123
1782846164698236400,5.608236328125,0.002275851322337985,-0.0007274348754435778,-0.0015969411469995975
1782846164708241400,5.618241455078125,0.000041725579649209976,0.00023343367502093315,-0.0009231613948941231
1782846164718246400,5.628246337890625,0.0009898424614220858,0.0007222988642752171,-0.0003350605256855488
1782846164728251400,5.63825146484375,0.002274284837767482,0.0014368249103426933,-0.000672216759994626
1782846164738256400,5.64825634765625,-0.000542326015420258,0.0012259522918611765,0.001964146737009287
1782846164748261400,5.658261474609375,0.0002092178910970688,0.0014794851886108518,-0.0021280664950609207
1782846164758266400,5.668266357421875,0.0023668184876441956,-0.0015958836302161217,0.0008613760583102703
1782846164768271400,5.678271240234375,-0.0012279162183403969,0.0022278830874711275,0.0022187894210219383
1782846164778276400,5.6882763671875,0.002253376878798008,0.0010667608585208654,0.0014873896725475788
1782846164788281300,5.69828125,-0.0006902149179950356,0.002346942201256752,0.001523608691059053
1782846164798286300,5.708286376953125,0.0026551156770437956,-0.00033441209234297276,-0.0010084460955113173
1782846164808291300,5.718291259765625,-0.00013028481043875217,0.0008501620031893253,-0.0010364092886447906
1782846164818296300,5.72829638671875,-0.00009699747897684574,-0.0008863809052854776,-0.0006220984505489469
1782846164828301300,5.73830126953125,-0.0020240608137100935,0.0017560074338689446,0.00024369516177102923
1782846164838306300,5.748306396484375,-0.000047147274017333984,-0.001244724029675126,0.001173542346805334
1782846164848311600,5.7583115234375,0.0008420823141932487,0.00046609039418399334,-0.0010459361365064979
1782846164858316500,5.768316650390625,-0.0004558550426736474,-0.0008336505852639675,-0.00031736004166305065
1782846164868321500,5.778321533203125,0.0010168729349970818,-0.0013457764871418476,-0.0005280161276459694
1782846164878326500,5.788326416015625,-0.0015820012195035815,-0.0003223475068807602,0.0012183843646198511
1782846164888331500,5.79833154296875,-0.002393200062215328,0.0004196090158075094,-0.0021840701811015606
1782846164898336500,5.80833642578125,0.0024207765236496925,0.00030446751043200493,-0.0019329548813402653
1782846164908341500,5.818341552734375,0.000258023152127862,-0.000008187489584088326,0.00027374032652005553
1782846164918346500,5.828346435546875,-0.0003422773443162441,-0.0015523610636591911,0.0015497414860874414
1782846164928351500,5.8383515625,-0.0026877233758568764,-0.0020367903634905815,-0.001825548941269517
1782846164938356500,5.8483564453125,-0.0004863695940002799,-0.001321826595813036,-0.0010410367976874113
1782846164948361500,5.858361572265625,0.0009570636320859194,-0.0008887969888746738,-0.0030072485096752644
1782846164958366500,5.868366455078125,0.002374210162088275,-0.0009127792436629534,0.001370821031741798
1782846164968371500,5.878371337890625,0.00033715832978487015,-0.000203313073143363,-0.0030881096608936787
1782846164978376400,5.88837646484375,0.000025260960683226585,0.0004809703677892685,0.0004152290057390928
1782846164988381400,5.89838134765625,0.00048199319280683994,0.0023883264511823654,0.0000040369341149926186
1782846164998386400,5.908386474609375,-0.0020766162779182196,0.0005920999683439732,0.00200467836111784
1782846165008391400,5.918391357421875,-0.0006486292695626616,-0.0008710406254976988,0.0003665679832920432
1782846165018396400,5.928396484375,0.0005566163454204798,0.0012964410707354546,-0.0005376704502850771
1782846165028401400,5.9384013671875,0.00012198835611343384,-0.00033234828151762486,0.001235728501342237
1782846165038406400,5.948406494140625,-0.00017482414841651917,-0.00016292138025164604,-0.00046838063281029463
1782846165048411400,5.958411376953125,-0.00010851165279746056,-0.0004036710597574711,-0.003320360090583563
1782846165058416400,5.96841650390625,0.0009534091223031282,0.00015083234757184982,0.0009095169953070581
1782846165068421400,5.97842138671875,-0.0006309053860604763,0.000016342848539352417,0.0033447113819420338
1782846165078426400,5.98842626953125,0.00018881657160818577,0.0020611686632037163,0.0016745562897995114
1782846165088431400,5.998431396484375,-0.00040453579276800156,-0.000704790698364377,0.002090009395033121
1782846165098436400,6.008436279296875,-0.00039859325625002384,0.0007209158502519131,-0.0012998082675039768
1782846165108441300,6.01844140625,-0.0013759733410552144,-0.0014849805738776922,-0.0010276332031935453
1782846165118446300,6.0284462890625,0.0020177089609205723,0.0012985644862055779,0.0006807636236771941
1782846165128451300,6.038451416015625,-0.0003549013053998351,0.00015393784269690514,0.0021787916775792837
1782846165138456300,6.048456298828125,-0.0016258154064416885,0.00009542284533381462,0.00007531559094786644
1782846165148461300,6.05846142578125,-0.0024841520935297012,0.00004775216802954674,0.0005834467592649162
1782846165158466300,6.06846630859375,0.0014100114349275827,-0.000986047787591815,-0.0027783445548266172
1782846165168471300,6.07847119140625,0.001116531202569604,0.0011617918498814106,-0.0006371631752699614
1782846165178476300,6.088476318359375,-0.0006125210784375668,0.001609268831089139,0.00017111498164013028
1782846165188481300,6.098481201171875,-0.0007611254695802927,0.00025877985171973705,-0.0025887188967317343
1782846165198486300,6.108486328125,0.0035278494469821453,0.0012851422652602196,0.0001569164451211691
1782846165208491500,6.118491455078125,0.0005485713481903076,-0.000832337187603116,-0.0017381890211254358
1782846165218496500,6.12849658203125,0.0011352822184562683,-0.002394661772996187,-0.0025192240718752146
1782846165228501500,6.13850146484375,0.00024871574714779854,0.001363058458082378,0.0016017514280974865
1782846165238506500,6.148506591796875,0.0007375911809504032,-0.00012692715972661972,-0.0015105323400348425
1782846165248511500,6.158511474609375,0.002562921494245529,0.0001228773035109043,-0.003528409404680133
1782846165258516500,6.1685166015625,-0.000784793053753674,-0.0006484398618340492,0.00032746634678915143
1782846165268521500,6.178521484375,0.0015460054855793715,-0.00042926170863211155,0.0001588882296346128
1782846165278526500,6.1885263671875,-0.002678390359506011,-0.00016564968973398209,-0.00019821315072476864
1782846165288531500,6.198531494140625,-0.00002375151962041855,-0.0017243977636098862,0.002427663654088974
1782846165298536400,6.208536376953125,-0.0007414374267682433,-0.0012509538792073727,-0.0014335340820252895
1782846165308541400,6.21854150390625,-0.001526004634797573,0.002740325639024377,0.0001579710515215993
1782846165318546400,6.22854638671875,-0.0010835402645170689,0.001226635416969657,0.00041156343650072813
1782846165328551400,6.238551513671875,0.001873900182545185,0.0011749700643122196,-0.00020602357108145952
1782846165338556400,6.248556396484375,0.002599497325718403,0.0018670627614483237,0.001859576441347599
1782846165348561400,6.2585615234375,-0.0012972401455044746,-0.0023780157789587975,0.001466227462515235
1782846165358566400,6.26856640625,0.001738973194733262,0.0004302139859646559,-0.000073243398219347
1782846165368571400,6.2785712890625,0.001543497433885932,0.0007031878922134638,0.000548604701180011
1782846165378576600,6.28857666015625,-0.0003811158239841461,0.00182486476842314,-0.0018821731209754944
1782846165388581600,6.29858154296875,-0.002385677071288228,-0.0014116750098764896,0.0017855323385447264
1782846165398586600,6.308586669921875,0.002396155847236514,-0.00043730554170906544,-0.0007775729754939675
1782846165408591600,6.318591552734375,0.00005603628233075142,0.0008820246439427137,0.0013833158882334828
1782846165418596600,6.3285966796875,0.0022578181233257055,-0.002179116941988468,-0.0002138607669621706
1782846165428601600,6.3386015625,0.001693227794021368,0.002988214138895273,0.002063408261165023
1782846165438606600,6.348606689453125,0.0012456993572413921,-0.0014443544205278158,-0.0018828562460839748
1782846165448612000,6.358612060546875,-0.00031091831624507904,-0.001976986648514867,-0.0015454336535185575
1782846165458617000,6.3686171875,0.0010256809182465076,-0.002840813249349594,-0.00023094099014997482
1782846165468622000,6.3786220703125,-0.000594586250372231,-0.002614178229123354,0.000018330872990190983
1782846165478627000,6.388626953125,0.0013773890677839518,0.00021880632266402245,0.0005360051873140037
1782846165488632000,6.398632080078125,0.0003472783137112856,0.001005237689241767,0.00026249850634485483
1782846165498637000,6.408636962890625,-0.0016429480165243149,-0.00012975255958735943,0.00161159154959023
1782846165508642000,6.41864208984375,0.0032849651761353016,-0.0015857028774917126,-0.0013016404118388891
1782846165518647000,6.42864697265625,0.0013702635187655687,-0.0003965755458921194,-0.0017345889937132597
1782846165528652000,6.438652099609375,-0.00024654169101268053,-0.001971835270524025,0.0013663957361131907
1782846165538657300,6.4486572265625,0.00010364782065153122,0.003417576663196087,-0.00012167065870016813
1782846165548662300,6.458662353515625,-0.0004247232573106885,0.000014589400961995125,0.001414174330420792
1782846165558667300,6.468667236328125,-0.0005019131349399686,-0.0007880304474383593,0.0019931604620069265
1782846165568672300,6.47867236328125,-0.0013493309961631894,-0.0004926857072860003,-0.0011781317880377173
1782846165578677200,6.48867724609375,0.0018176708836108446,-0.003987283445894718,-0.0018944644834846258
1782846165588682200,6.49868212890625,0.000211251899600029,0.00041492190212011337,0.0026254523545503616
1782846165598687200,6.508687255859375,0.0015011739451438189,0.0029629296623170376,0.0023635951802134514
1782846165608692200,6.518692138671875,-0.0013143200194463134,-0.000724483048543334,-0.0014580409042537212
1782846165618697200,6.528697265625,-0.0003874218091368675,0.000042839907109737396,-0.0025808520149439573
1782846165628702200,6.5387021484375,0.00002536829560995102,0.0008705502841621637,0.000009604846127331257
1782846165638707200,6.548707275390625,-0.0008837131317704916,-0.00035319291055202484,-0.00261505926027894
1782846165648712200,6.558712158203125,0.00042336643673479557,0.00010620220564305782,0.003567469073459506
1782846165658717200,6.56871728515625,-0.0009249945869669318,-0.002065394539386034,0.00007168576121330261
1782846165668722200,6.57872216796875,0.0005461354739964008,0.00005980790592730045,-0.002286010654643178
1782846165678727200,6.58872705078125,0.0009459948632866144,-0.00034345313906669617,0.00021220248891040683
1782846165688732200,6.598732177734375,0.0023177890107035637,-0.0012486614286899567,0.0012202089419588447
1782846165698737200,6.608737060546875,0.0021161427721381187,0.0015965000493451953,-0.0007413763087242842
1782846165708742100,6.6187421875,0.00009373808279633522,0.0006233809981495142,-0.0018788123270496726
1782846165718747100,6.6287470703125,0.00039455993101000786,-0.0004203768912702799,0.00016845489153638482
1782846165728752000,6.638752197265625,0.0008387751877307892,0.002009224845096469,0.0009972306434065104
1782846165738757000,6.648757080078125,-0.000984589452855289,-0.001084320480003953,-0.0005674388958141208
1782846165748762000,6.65876220703125,-0.00013237795792520046,0.0012949475785717368,-0.0005210998933762312
1782846165758767000,6.66876708984375,0.0010453087743371725,0.0013204746646806598,-0.002237249631434679
1782846165768772000,6.678772216796875,0.0016682222485542297,-0.0008539962582290173,-0.00302634434774518
1782846165778777000,6.688777099609375,-0.001384840114042163,-0.0013937829062342644,-0.0006369473412632942
1782846165788782000,6.698781982421875,0.0001739079598337412,0.0003945298958569765,0.0008464333950541914
1782846165798787000,6.708787109375,-0.0007739159045740962,-0.00047883763909339905,0.0001673855003900826
1782846165808792000,6.7187919921875,0.002389386761933565,0.0003680475056171417,-0.001551418681629002
1782846165818797000,6.728797119140625,0.0011874553747475147,-0.00024634809233248234,-0.00032791763078421354
1782846165828802000,6.738802001953125,-0.00034865608904510736,0.0002479346003383398,0.0012622559443116188
1782846165838807000,6.74880712890625,-0.0007353707915171981,0.0008040177635848522,-0.002615277422592044
1782846165848812000,6.75881201171875,-0.00023043551482260227,-0.000911058159545064,-0.00022801989689469337
1782846165858817000,6.768817138671875,0.0021897119004279375,0.0003190601710230112,0.00012427254114300013
1782846165868822000,6.778822021484375,0.000557193998247385,-0.00005005393177270889,0.0010662325657904148
1782846165878827000,6.788826904296875,-0.002055666409432888,-0.0003424752503633499,-0.0020811043214052916
1782846165888832000,6.79883203125,-0.0013342159800231457,-0.00027909199707210064,-0.0008227607468143106
1782846165898837000,6.8088369140625,0.00023245252668857574,-0.002683411817997694,0.0013505667448043823
1782846165908842000,6.818842041015625,0.0007243382278829813,-0.0014628847129642963,-0.0009402844589203596
1782846165918847000,6.828846923828125,0.0014949101023375988,-0.0003102165646851063,0.0007012590067461133
1782846165928852000,6.83885205078125,-0.000872640055604279,0.0003832706715911627,-0.0006526921642944217
1782846165938857000,6.84885693359375,0.002313388977199793,-0.0013856175355613232,-0.00048161158338189125
1782846165948862000,6.858862060546875,0.00012720003724098206,-0.0006196922622621059,-0.0018850975902751088
1782846165958867200,6.8688671875,0.00013173790648579597,-0.0007281389553099871,0.0004101275117136538
1782846165968872200,6.8788720703125,-0.0012025057803839445,0.0014274236746132374,-0.0012149333488196135
1782846165978877200,6.888877197265625,-0.001131213502958417,-0.0007748629432171583,0.0006044220644980669
1782846165988882200,6.898882080078125,0.0012970566749572754,-0.0001567432191222906,0.0015493116807192564
1782846165998887200,6.90888720703125,0.001294836401939392,0.0005831362213939428,0.00001594400964677334
1782846166008892200,6.91889208984375,0.0017379866912961006,0.00043426547199487686,-0.002666924614459276
1782846166018897200,6.928897216796875,0.0021494142711162567,0.0011580032296478748,0.0006348307942971587
1782846166028902100,6.938902099609375,-0.0002575507387518883,-0.0005549420602619648,0.00328680663369596
1782846166038907100,6.9489072265625,-0.0007840943289920688,0.0009688045829534531,0.0007275008829310536
1782846166048912100,6.958912109375,0.0014750652480870485,0.000002343440428376198,-0.002469357568770647
1782846166058917000,6.968917236328125,0.00036610360257327557,0.002507483819499612,-0.00039994530379772186
1782846166068922000,6.978922119140625,-0.0008626788621768355,0.00033940444700419903,0.0020435049664229155
1782846166078927000,6.988927001953125,-0.0009263264946639538,0.00018867570906877518,0.004417529329657555
1782846166088932000,6.99893212890625,0.0012460139114409685,0.0013886961387470365,-0.00002169376239180565
1782846166098937000,7.00893701171875,0.0005403193645179272,-0.00032346462830901146,-0.0023012966848909855
1782846166108942000,7.018942138671875,0.0005650867242366076,-0.0001514244358986616,0.002638334408402443
1782846166118947000,7.028947021484375,0.000007640337571501732,0.00046021072193980217,0.0007949068676680326
1782846166128952000,7.0389521484375,0.0024500254075974226,0.00009589036926627159,0.0010689460905268788
1782846166138957000,7.04895703125,0.0006798387039452791,-0.001021611038595438,-0.0004811269463971257
1782846166148962000,7.058962158203125,0.0018665431998670101,0.0004798790905624628,-0.00011281168553978205
1782846166158967000,7.068967041015625,-0.0005355875473469496,0.00009469292126595974,-0.002133594360202551
1782846166168972000,7.078971923828125,0.0024929591454565525,0.0022931324783712626,0.0008241122704930604
1782846166178977000,7.08897705078125,0.00041098310612142086,-0.00005922210402786732,0.0009264890104532242
1782846166188982000,7.09898193359375,-0.002104904968291521,-0.002117312978953123,-0.0005172105738893151
1782846166198987000,7.108987060546875,0.0022384992334991693,-0.001012550899758935,-0.0007390141254290938
1782846166208992000,7.118991943359375,0.001166843343526125,0.001256462186574936,-0.000620503444224596
1782846166218997000,7.1289970703125,-0.0008265074575319886,-0.0006219397764652967,-0.0004250785568729043
1782846166229002000,7.139001953125,0.0001724441535770893,-0.001482407096773386,0.0012087707873433828
1782846166239007000,7.149007080078125,0.001421924913302064,-0.0011197146959602833,0.0008623129688203335
1782846166249012000,7.159011962890625,0.0001598529051989317,0.000037162331864237785,-0.0025675720535218716
1782846166259017000,7.169016845703125,-0.0005969495978206396,-0.0003482252359390259,-0.0014322593342512846
1782846166269022000,7.17902197265625,-0.0010925638489425182,-0.002446796279400587,-0.0014319932088255882
1782846166279027000,7.18902685546875,0.0007659010589122772,0.00022466923110187054,-0.0009868319611996412
1782846166289032000,7.199031982421875,-0.0016304112505167723,-0.0016699032858014107,-0.0034489245153963566
1782846166299037000,7.209036865234375,0.001907361438497901,0.0011900290846824646,-0.0045731947757303715
1782846166309042000,7.2190419921875,-0.0007222437998279929,-0.0027828747406601906,0.0017504813149571419
1782846166319047000,7.229046875,0.00031820940785109997,-0.0002702733036130667,0.002916946541517973
1782846166329052000,7.239052001953125,0.0011019776575267315,0.0012711643939837813,0.0010740392608568072
1782846166339057000,7.249056884765625,-0.00007495144382119179,-0.0004504907410591841,-0.0014053919585421681
1782846166349062000,7.259061767578125,-0.001753275515511632,0.0012818954419344664,0.0024141138419508934
1782846166359067000,7.26906689453125,-0.0015119530726224184,-0.0011403418611735106,0.00010738754644989967
1782846166369071900,7.27907177734375,0.0034053076524287462,0.0003544902428984642,0.00016784132458269596
1782846166379076900,7.289076904296875,-0.0014408170245587826,-0.001835221191868186,0.00009172933641821146
1782846166389081900,7.299081787109375,-0.0013939454220235348,0.0014263519551604986,-0.000052880262956023216
1782846166399087000,7.309087158203125,0.0013759008143097162,0.0008582414593547583,-0.0011872148606926203
1782846166409092000,7.319092041015625,-0.001189788687042892,-0.0009252773597836494,0.0009497054852545261
1782846166419097000,7.32909716796875,0.0009861711878329515,0.0005260379984974861,0.0004943928797729313
1782846166429102000,7.33910205078125,0.0006170570850372314,0.0011907629668712616,-0.0005756652681156993
1782846166439107000,7.349107177734375,0.0014643804170191288,-0.00021419115364551544,0.0003451937227509916
1782846166449111800,7.35911181640625,-0.00012153200805187225,0.0014106034068390727,0.002110070548951626
1782846166459116800,7.36911669921875,-0.0008184650214388967,-0.0014090060722082853,-0.0029346938244998455
1782846166469121800,7.379121826171875,0.00023694569244980812,0.0009798493701964617,-0.002109912922605872
1782846166479126800,7.389126708984375,-0.0003887999337166548,-0.0007198085077106953,-0.001295225229114294
1782846166489131800,7.3991318359375,0.0007486362010240555,0.002491963794454932,-1.300359144806862e-7
1782846166499136800,7.40913671875,0.0022003762423992157,0.0026354752480983734,-0.0008398176869377494
1782846166509141800,7.419141845703125,-0.0009402896976098418,0.0014298621099442244,-0.002435317263007164
1782846166519146800,7.429146728515625,-0.0006847810000181198,0.0009368453174829483,0.0014381585642695427
1782846166529151700,7.43915185546875,-0.00032578688114881516,0.0006249891594052315,0.0019521487411111593
1782846166539156700,7.44915673828125,0.0010486440733075142,-0.00032791541889309883,0.0010284886229783297
1782846166549161700,7.45916162109375,-0.001692547695711255,-0.0005561483558267355,-0.0001137411454692483
1782846166559166700,7.469166748046875,0.0017878466751426458,0.00021086493507027626,-0.00033880281262099743
1782846166569171700,7.479171630859375,0.001953228609636426,0.0026953278575092554,-0.0033204779028892517
1782846166579176700,7.4891767578125,-0.000574727775529027,-0.001590069616213441,-0.001960715278983116
1782846166589181700,7.499181640625,-0.0015209488337859511,-0.00185558688826859,-0.0004323271568864584
1782846166599187000,7.50918701171875,-0.0004345799097791314,0.0007880202028900385,0.0001619862741790712
1782846166609192000,7.51919189453125,0.002366533037275076,0.002220534486696124,-0.003384545212611556
1782846166619197000,7.529197021484375,0.0033795181661844254,-0.0012352061457931995,0.0010137754725292325
1782846166629202000,7.539201904296875,-0.0019755661487579346,-0.0012874039821326733,0.00019352190429344773
1782846166639207000,7.54920703125,0.001366030890494585,-0.0005002601537853479,0.0007282485021278262
1782846166649212000,7.5592119140625,0.0013306108303368092,-0.00005604489706456661,-0.001575119560584426
1782846166659217000,7.569216796875,-0.0004904210800305009,0.00032716640271246433,-0.00012869457714259624
1782846166669222000,7.579221923828125,0.0021048292983323336,-0.000025436049327254295,-0.0008195185801014304
1782846166679227000,7.589226806640625,0.0002875295467674732,0.0012664985843002796,-0.0006253714673221111
1782846166689232000,7.59923193359375,0.001289410749450326,-0.00033992016687989235,0.003081748727709055
1782846166699236900,7.60923681640625,0.002200779505074024,-0.00028153229504823685,0.0012117456644773483
1782846166709241900,7.619241943359375,0.0012726681306958199,-0.00079765310510993,0.001835457980632782
1782846166719246800,7.629246826171875,0.00004192790947854519,0.0006289759185165167,0.0026787733659148216
1782846166729251800,7.639251953125,-0.0015506423078477383,-0.002059218706563115,0.0021072588860988617
1782846166739256800,7.6492568359375,0.0007953688036650419,0.0015266591217368841,-0.0017133353976532817
1782846166749261800,7.65926171875,-0.001965530216693878,0.0006864317692816257,-0.0007021330529823899
1782846166759266800,7.669266845703125,-0.0028086062520742416,0.0002517206594347954,0.001491992617957294
1782846166769271800,7.679271728515625,-0.0016346847405657172,0.0013990105362609029,-0.001046266290359199
1782846166779276800,7.68927685546875,0.0013343836180865765,-0.0007180254906415939,0.00004066352266818285
1782846166789281800,7.69928173828125,0.0011194664984941483,0.001774693257175386,-0.0012760033132508397
1782846166799286800,7.709286865234375,-0.00007522781379520893,0.00024232221767306328,0.0014734563883394003
1782846166809291800,7.719291748046875,-0.0015639347257092595,-0.0007712768856436014,0.0016678671818226576
1782846166819296800,7.729296875,-0.001216398668475449,-0.002254842547699809,0.001099254353903234
1782846166829301800,7.7393017578125,0.0001271660439670086,-0.0010170054156333208,-0.0011697588488459587
1782846166839306800,7.749306640625,-0.002376314252614975,-0.003940894268453121,0.0008831170853227377
1782846166849311700,7.759311767578125,-0.0003991834819316864,-0.0003187290858477354,-0.00048468238674104214
1782846166859316700,7.769316650390625,0.0013426183722913265,-0.00033839279785752296,-0.0004600271349772811
1782846166869321700,7.77932177734375,-0.0010113496100530028,-0.0003671548329293728,0.00044065393740311265
1782846166879326700,7.78932666015625,0.001353914150968194,-0.0006074761040508747,0.00019781978335231543
1782846166889331700,7.799331787109375,-0.00047035119496285915,-0.0024549108929932117,-0.00020458386279642582
1782846166899336700,7.809336669921875,-0.0023334494326263666,0.0017882459796965122,0.00002341915387660265
1782846166909341700,7.819341796875,-0.00023807422257959843,0.0019933092407882214,-0.00032705278135836124
1782846166919346700,7.8293466796875,-0.00008244253695011139,-0.0012234558816999197,0.0025578150525689125
1782846166929351700,7.8393515625,0.00047522340901196003,0.00008735200390219688,-0.0025152405723929405
1782846166939357000,7.84935693359375,-0.0009802960557863116,0.0012915241532027721,-0.0014332958962768316
1782846166949362000,7.85936181640625,0.0008897755760699511,-0.0011689704842865467,0.0011366545222699642
1782846166959367000,7.869366943359375,0.0003869314678013325,0.000038522761315107346,-0.0000824278686195612
1782846166969372000,7.879371826171875,-0.0004381157923489809,0.00107023143209517,0.00035273260436952114
1782846166979377000,7.889376953125,0.0008317830506712198,-0.00019532791338860989,0.00012678583152592182
1782846166989382000,7.8993818359375,0.0005947619210928679,-0.002565274713560939,-0.0013435453874990344
1782846166999387000,7.909386962890625,0.002054112497717142,0.0021140379831194878,-0.0005209911614656448
1782846167009391900,7.919391845703125,0.0012170812115073204,0.0001310482621192932,0.0008659830782562494
1782846167019396900,7.92939697265625,-0.0017655316041782498,0.000033735064789652824,-0.000978633644990623
1782846167029401900,7.93940185546875,-0.002441175514832139,-0.00020435149781405926,-0.00033228436950594187
1782846167039406800,7.94940673828125,0.0005392520688474178,-0.00103485444560647,-0.0002665476640686393
1782846167049411800,7.959411865234375,-0.0004650260088965297,-0.0001882354263216257,-0.0007262092549353838
1782846167059416800,7.969416748046875,0.00013959943316876888,0.000005022622644901276,0.001071169157512486
1782846167069421800,7.979421875,0.0017356318421661854,0.0011222187895327806,0.001544679282233119
1782846167079426800,7.9894267578125,-0.00019601383246481419,0.00010059867054224014,0.0011665860656648874
1782846167089431800,7.999431884765625,0.00003887689672410488,-0.0018959734588861465,-0.0008939016843214631
1782846167099436800,8.009436767578125,0.0017393163871020079,0.0003390386700630188,0.0008966275490820408
1782846167109441800,8.01944189453125,0.00026445789262652397,-0.0009640459902584553,-0.0005811605369672179
1782846167119446800,8.02944677734375,-0.0010642795823514462,0.002301763975992799,0.0021773804910480976
1782846167129451800,8.03945166015625,0.0021504221949726343,0.00007349718362092972,0.001438619801774621
1782846167139456800,8.049456787109374,0.0007394910790026188,0.002231225371360779,-0.0010648129973560572
1782846167149461800,8.059461669921875,-0.00011591613292694092,-0.0012109102681279182,0.00043934036511927843
1782846167159466800,8.069466796875,-0.0015273146564140916,-0.0016674161888659,0.0009083525510504842
1782846167169471700,8.0794716796875,0.0016642173286527395,0.0021158703602850437,-0.0015923557803034782
1782846167179476700,8.089476806640626,0.0012198546901345253,0.0015752888284623623,0.0016059566987678409
1782846167189481700,8.099481689453125,0.0001782923936843872,-0.00038932496681809425,0.000028832699172198772
1782846167199486700,8.10948681640625,0.0002953906077891588,0.0001635232474654913,0.0025727800093591213
1782846167209491700,8.11949169921875,0.000637606717646122,-0.0016452958807349205,-0.0005399227375164628
1782846167219496700,8.12949658203125,0.002143955323845148,0.0013337323907762766,-0.00242467038333416
1782846167229501700,8.139501708984374,0.0022901627235114574,0.002186210360378027,-0.001196420518681407
1782846167239506700,8.149506591796875,0.0007945115212351084,0.0009091889951378107,0.0020067074801772833
1782846167249511700,8.15951171875,0.0014235503040254116,-0.002099916571751237,-0.0001294140238314867
1782846167259516700,8.1695166015625,-0.0002153951209038496,-0.00117277423851192,0.0007600914686918259
1782846167269521700,8.179521728515626,-0.0006787851452827454,0.001359625719487667,0.0007425146177411079
1782846167279526700,8.189526611328125,-0.0022126983385533094,-0.0016092285513877869,0.0006951051182113588
1782846167289531600,8.19953173828125,-0.0016001714393496513,0.000024887267500162125,-0.0003198256017640233
1782846167299536600,8.20953662109375,-0.0017957061063498259,-0.0008010210003703833,0.00018456054385751486
1782846167309541600,8.219541748046876,-0.00033948966301977634,-0.0008971609640866518,0.002511098049581051
1782846167319546600,8.229546630859375,0.00130465067923069,-0.0004692042712122202,-0.002523470437154174
1782846167329551600,8.239551513671875,0.0005682867486029863,0.0024544140323996544,-0.003101376350969076
1782846167339556600,8.249556640625,-0.0006495373090729117,0.0009381880518049002,-0.0023995779920369387
1782846167349561600,8.2595615234375,0.0018295994959771633,0.0022415390703827143,-0.00017051224131137133
1782846167359566600,8.269566650390624,0.0000445791520178318,-0.00032394123263657093,-0.0025402293540537357
1782846167369571600,8.279571533203125,-0.00036821095272898674,-0.0003015706315636635,-0.0015905459877103567
1782846167379576600,8.28957666015625,-0.00011298945173621178,-0.0017924855928868055,0.0005584110040217638
1782846167389581600,8.29958154296875,-0.00021525472402572632,0.0001268545165657997,0.001591184874996543
1782846167399586600,8.309586669921876,-0.002825362142175436,-0.0010962302330881357,-0.0015150492545217276
1782846167409591600,8.319591552734375,-0.0019129631109535694,-0.001027786871418357,0.0019891380798071623
1782846167419596800,8.3295966796875,-0.000014532124623656273,-0.0013734514359384775,0.0015091574750840664
1782846167429601800,8.339601806640625,0.00312187266536057,-0.0008208455983549356,0.00031233293702825904
1782846167439606800,8.349606689453125,-0.0009502071188762784,0.00001035258173942566,-0.0010957256890833378
1782846167449612000,8.359612060546874,-0.00005431962199509144,0.0006329996977001429,-0.0020358215551823378
1782846167459617000,8.369616943359375,0.0002735867165029049,0.0003900183364748955,0.0010907487012445927
1782846167469622000,8.3796220703125,0.0023172965738922358,0.00007629790343344212,-0.00001339777372777462
1782846167479627000,8.389626953125,0.0008209687657654285,0.002507344353944063,-0.0003815781092271209
1782846167489632300,8.39963232421875,-0.0005873107584193349,0.00230627553537488,0.00022003002231940627
1782846167499637200,8.40963720703125,-0.0022115674801170826,0.0014741701306775212,0.00007790070958435535
1782846167509642200,8.419642333984376,0.001627645455300808,0.0008959979750216007,0.0011056145885959268
1782846167519647200,8.429647216796875,-0.00016820523887872696,-0.000623972387984395,0.0017341750208288431
1782846167529652200,8.43965234375,-0.00032320129685103893,0.0009542168118059635,-0.0007910343119874597
1782846167539657200,8.4496572265625,-0.001780716935172677,-0.000691812252625823,0.001644684700295329
1782846167549662200,8.459662109375,0.00008189794607460499,0.0001697202678769827,0.0010196407092735171
1782846167559667200,8.469667236328124,0.0004987854044884443,-0.0003477521240711212,0.004138449672609568
1782846167569672200,8.479672119140625,-0.0018570469692349434,-0.0005307113751769066,0.000949846813455224
1782846167579677200,8.48967724609375,-0.0005007418803870678,-0.001249609049409628,0.0004026869428344071
1782846167589682200,8.49968212890625,-0.000501540838740766,0.00006545986980199814,0.002493801061064005
1782846167599687200,8.509687255859374,-0.0010364108020439744,-0.0010238487739115953,0.001038120361045003
1782846167609692200,8.519692138671875,-0.0014952734345570207,0.0006515458226203918,-0.00035364762879908085
1782846167619697200,8.529697265625,-0.0006873966194689274,-0.0011416638735681772,0.0005138953565619886
1782846167629702100,8.5397021484375,-0.0003094940911978483,0.002465055091306567,0.00045530585339292884
1782846167639707100,8.54970703125,-0.00010932236909866333,-0.00357209169305861,0.0020284971687942743
1782846167649712000,8.559712158203125,-0.0027269432321190834,-0.00232306937687099,0.002545949537307024
1782846167659717000,8.569717041015625,0.00037440028972923756,-0.0015065660700201988,-0.0003666016273200512
1782846167669722000,8.57972216796875,0.00005215778946876526,-0.002733218017965555,-0.00013836880680173635
1782846167679727000,8.58972705078125,-0.00208902801387012,0.0007405728101730347,-0.0034623988904058933
1782846167689732000,8.599732177734374,-0.0006455946713685989,-0.00047223083674907684,0.0014053272316232324
1782846167699737000,8.609737060546875,0.0018444473389536142,0.0013240644475445151,0.0003735745558515191
1782846167709742000,8.6197421875,-0.003805715125054121,0.13394814729690552,0.02938498556613922
1782846167719747000,8.6297470703125,0.007445615716278553,-0.048137594014406204,-0.011273838579654694
1782846167729752000,8.639751953125,-0.00417189160361886,0.03944765031337738,-0.0009136090520769358
1782846167739757000,8.649757080078125,0.0008917402010411024,-0.03969602659344673,-0.006986830849200487
1782846167749762000,8.659761962890625,0.0004544490948319435,0.01294135395437479,-0.0001949714496731758
1782846167759767000,8.66976708984375,0.0013519520871341228,-0.02156444825232029,-0.003952392376959324
1782846167769772000,8.67977197265625,-0.0015580840408802032,-0.04437495395541191,-0.011490203440189362
