time,seconds_elapsed,z,y,x
1782846773103329500,0.06332958984375,-1.135772705078125,-0.6329193115234375,0.1299285888671875
1782846773113333800,0.073333740234375,-1.2909088134765625,-0.728759765625,0.156005859375
1782846773123338800,0.0833388671875,-1.5006103515625,-0.752532958984375,0.1563720703125
1782846773133343700,0.09334375,-1.8037261962890625,-0.74871826171875,0.159912109375
1782846773143347700,0.10334765625,-2.0777130126953125,-0.7497406005859375,0.1934967041015625
1782846773153352700,0.113352783203125,-2.2141571044921875,-0.754730224609375,0.2286834716796875
1782846773163357700,0.123357666015625,-2.273529052734375,-0.83538818359375,0.2683258056640625
1782846773173361700,0.133361572265625,-2.315032958984375,-0.986114501953125,0.2691802978515625
1782846773183366700,0.14336669921875,-2.2545013427734375,-1.06256103515625,0.2706298828125
1782846773193371600,0.15337158203125,-2.1844024658203125,-1.034912109375,0.2982635498046875
1782846773203375900,0.1633759765625,-2.172698974609375,-0.9631195068359375,0.240447998046875
1782846773213380900,0.173380859375,-2.140350341796875,-0.886871337890625,0.143463134765625
1782846773223385900,0.1833857421875,-2.049530029296875,-0.77178955078125,0.082733154296875
1782846773233389800,0.193389892578125,-1.913360595703125,-0.5930938720703125,0.0871124267578125
1782846773243394800,0.203394775390625,-1.778533935546875,-0.41009521484375,0.1166534423828125
1782846773253399800,0.21339990234375,-1.601531982421875,-0.26507568359375,0.1298980712890625
1782846773263403800,0.22340380859375,-1.3871307373046875,-0.158660888671875,0.1367340087890625
1782846773273408800,0.23340869140625,-1.1340484619140625,-0.0953826904296875,0.1226959228515625
1782846773283413800,0.243413818359375,-0.8668060302734375,-0.0829010009765625,0.1011810302734375
1782846773293418800,0.253418701171875,-0.624176025390625,-0.1199951171875,0.0813751220703125
1782846773303422700,0.263422607421875,-0.403778076171875,-0.1673736572265625,0.059326171875
1782846773313427700,0.273427734375,-0.2182159423828125,-0.18798828125,0.0395355224609375
1782846773323432700,0.2834326171875,-0.06634521484375,-0.1616973876953125,0.03326416015625
1782846773333436700,0.293436767578125,0.0308074951171875,-0.1086578369140625,0.02191162109375
1782846773343441700,0.303441650390625,0.07342529296875,-0.0575408935546875,-0.0018463134765625
1782846773353446700,0.31344677734375,0.06927490234375,-0.014862060546875,-0.011962890625
1782846773363451000,0.323450927734375,0.0058441162109375,0.051605224609375,-0.003143310546875
1782846773373456000,0.333455810546875,-0.109466552734375,0.11273193359375,-0.0102691650390625
1782846773383460900,0.3434609375,-0.1926422119140625,0.172210693359375,-0.0045013427734375
1782846773393464800,0.35346484375,-0.181427001953125,0.2010040283203125,0.0117340087890625
1782846773403469800,0.3634697265625,-0.1162872314453125,0.18597412109375,0.016815185546875
1782846773413474800,0.373474853515625,-0.0611724853515625,0.1479644775390625,0.0130615234375
1782846773423478800,0.383478759765625,-0.029205322265625,0.0965728759765625,0.018585205078125
1782846773433483800,0.39348388671875,0.033660888671875,0.0514373779296875,0.009765625
1782846773443488800,0.40348876953125,0.093048095703125,0.017333984375,-0.00390625
1782846773453493000,0.413492919921875,0.125701904296875,-0.0070648193359375,-0.0189361572265625
1782846773463498000,0.423498046875,0.134063720703125,-0.0184478759765625,-0.023284912109375
1782846773473503000,0.4335029296875,0.12518310546875,-0.02099609375,-0.0216522216796875
1782846773483506700,0.443506591796875,0.093597412109375,-0.0086669921875,-0.0052490234375
1782846773493511700,0.45351171875,0.0338287353515625,0.00634765625,0.0078277587890625
1782846773503516700,0.4635166015625,-0.036865234375,0.0189971923828125,0.0094757080078125
1782846773513520600,0.473520751953125,-0.1092987060546875,0.031097412109375,0.0341796875
1782846773523525600,0.483525634765625,-0.180877685546875,0.023162841796875,0.04779052734375
1782846773533530600,0.493530517578125,-0.2528839111328125,-0.03765869140625,0.0514984130859375
1782846773543534800,0.503534912109375,-0.35009765625,-0.119232177734375,0.061614990234375
1782846773553539800,0.513539794921875,-0.481842041015625,-0.1972808837890625,0.035919189453125
1782846773563544800,0.523544921875,-0.685028076171875,-0.2514190673828125,0.0308074951171875
1782846773573549800,0.5335498046875,-0.9119415283203125,-0.3000030517578125,0.0462493896484375
1782846773583553800,0.5435537109375,-1.13189697265625,-0.337738037109375,0.1022186279296875
1782846773593558800,0.553558837890625,-1.317047119140625,-0.340911865234375,0.215728759765625
1782846773603563800,0.563563720703125,-1.467437744140625,-0.328216552734375,0.3367156982421875
1782846773613567700,0.573567626953125,-1.6282501220703125,-0.376983642578125,0.409210205078125
1782846773623572700,0.58357275390625,-1.73309326171875,-0.584991455078125,0.3131256103515625
1782846773633577700,0.59357763671875,-1.7430877685546875,-0.976043701171875,0.0950164794921875
1782846773643582000,0.60358203125,-1.579620361328125,-1.2387542724609375,-0.042633056640625
1782846773653587000,0.6135869140625,-1.38812255859375,-1.222137451171875,-0.0172119140625
1782846773663592000,0.623592041015625,-1.5971832275390625,-1.0388031005859375,0.1629486083984375
1782846773673595600,0.633595703125,-2.04168701171875,-0.6702880859375,0.4386749267578125
1782846773683600600,0.6436005859375,-2.2691497802734375,-0.315765380859375,0.691131591796875
1782846773693605600,0.653605712890625,-2.24456787109375,-0.115936279296875,0.7229766845703125
1782846773703609600,0.663609619140625,-2.1901092529296875,-0.120025634765625,0.465728759765625
1782846773713614600,0.673614501953125,-2.06134033203125,-0.2905120849609375,0.168243408203125
1782846773723619600,0.68361962890625,-1.820770263671875,-0.60003662109375,-0.01531982421875
1782846773733623800,0.693623779296875,-1.425933837890625,-0.934051513671875,0.00274658203125
1782846773743628800,0.70362890625,-0.9715576171875,-1.0721435546875,0.1905517578125
1782846773753633800,0.7136337890625,-0.685546875,-1.024566650390625,0.3489990234375
1782846773763637800,0.7236376953125,-0.72479248046875,-0.892822265625,0.3697662353515625
1782846773773642800,0.733642822265625,-0.9229736328125,-0.71661376953125,0.304901123046875
1782846773783647700,0.743647705078125,-1.098663330078125,-0.527435302734375,0.212249755859375
1782846773793652000,0.75365185546875,-1.2170867919921875,-0.36590576171875,0.1565093994140625
1782846773803657000,0.763656982421875,-1.2628631591796875,-0.26214599609375,0.094207763671875
1782846773813662000,0.773661865234375,-1.2162628173828125,-0.173828125,0.0413970947265625
1782846773823666200,0.783666259765625,-1.1265106201171875,-0.1046295166015625,0.0055999755859375
1782846773833671200,0.793671142578125,-0.9964599609375,-0.0659942626953125,-0.0317840576171875
1782846773843676200,0.80367626953125,-0.84808349609375,-0.06646728515625,-0.0718536376953125
1782846773853679900,0.813679931640625,-0.6890869140625,-0.0689239501953125,-0.0849456787109375
1782846773863685000,0.82368505859375,-0.5528717041015625,-0.0959320068359375,-0.114288330078125
1782846773873690000,0.833690185546875,-0.4290924072265625,-0.1287994384765625,-0.1558380126953125
1782846773883695000,0.843695068359375,-0.3302001953125,-0.14971923828125,-0.178619384765625
1782846773893698800,0.85369873046875,-0.267669677734375,-0.167205810546875,-0.1726531982421875
1782846773903703800,0.863703857421875,-0.2509002685546875,-0.1873626708984375,-0.1467132568359375
1782846773913708800,0.873708740234375,-0.273193359375,-0.19476318359375,-0.1067657470703125
1782846773923713000,0.883713134765625,-0.315185546875,-0.1869049072265625,-0.0641937255859375
1782846773933718000,0.893718017578125,-0.3399658203125,-0.193695068359375,-0.0013580322265625
1782846773943723000,0.903722900390625,-0.36614990234375,-0.1915130615234375,0.090087890625
1782846773953727000,0.91372705078125,-0.409423828125,-0.1717376708984375,0.1784210205078125
1782846773963732000,0.92373193359375,-0.4638671875,-0.1483154296875,0.22454833984375
1782846773973737000,0.933737060546875,-0.543182373046875,-0.1074066162109375,0.2254791259765625
1782846773983741000,0.943740966796875,-0.6295318603515625,-0.0513153076171875,0.214385986328125
1782846773993746000,0.953745849609375,-0.6923980712890625,-0.0064239501953125,0.1900787353515625
1782846774003751000,0.9637509765625,-0.7513580322265625,0.0223388671875,0.161865234375
1782846774013755100,0.973755126953125,-0.7707977294921875,0.0316619873046875,0.1330413818359375
1782846774023760100,0.983760009765625,-0.7462310791015625,0.0149993896484375,0.101318359375
1782846774033765000,0.99376513671875,-0.7068939208984375,-0.00958251953125,0.052734375
1782846774043769000,1.00376904296875,-0.6998291015625,-0.041015625,0.0016632080078125
1782846774053774000,1.013774169921875,-0.7425689697265625,-0.091766357421875,-0.038177490234375
1782846774063779000,1.023779052734375,-0.818634033203125,-0.1583251953125,-0.097686767578125
1782846774073783000,1.033782958984375,-0.963470458984375,-0.2223358154296875,-0.136627197265625
1782846774083788000,1.0437880859375,-1.1566162109375,-0.291168212890625,-0.1132354736328125
1782846774093793000,1.05379296875,-1.337890625,-0.358642578125,-0.0757904052734375
1782846774103797000,1.063796875,-1.5313262939453125,-0.405029296875,0.02960205078125
1782846774113802000,1.073802001953125,-1.7205810546875,-0.431671142578125,0.178253173828125
1782846774123807000,1.083806884765625,-1.89508056640625,-0.422271728515625,0.3238067626953125
1782846774133812000,1.09381201171875,-2.078521728515625,-0.40350341796875,0.427093505859375
1782846774143816000,1.10381591796875,-2.243316650390625,-0.4156341552734375,0.4868316650390625
1782846774153821000,1.113821044921875,-2.3473968505859375,-0.4545745849609375,0.52056884765625
1782846774163825200,1.1238251953125,-2.3683319091796875,-0.5149383544921875,0.522125244140625
1782846774173830100,1.133830078125,-2.3255157470703125,-0.600433349609375,0.483367919921875
1782846774183835100,1.143835205078125,-2.2203369140625,-0.7021484375,0.420562744140625
1782846774193840000,1.153840087890625,-2.0679931640625,-0.807830810546875,0.3140106201171875
1782846774203844000,1.163843994140625,-1.963653564453125,-0.8802337646484375,0.18896484375
1782846774213849000,1.17384912109375,-1.909454345703125,-0.8981475830078125,0.0685882568359375
1782846774223854000,1.18385400390625,-1.90087890625,-0.887115478515625,-0.0416259765625
1782846774233858000,1.193858154296875,-1.9317474365234375,-0.8346710205078125,-0.130645751953125
1782846774243863000,1.203863037109375,-1.9400482177734375,-0.7119293212890625,-0.1968841552734375
1782846774253868000,1.213867919921875,-1.91156005859375,-0.50457763671875,-0.2070770263671875
1782846774263872000,1.2238720703125,-1.8168182373046875,-0.247314453125,-0.16326904296875
1782846774273877000,1.233876953125,-1.6867218017578125,-0.0137939453125,-0.0758514404296875
1782846774283882000,1.243882080078125,-1.51904296875,0.15283203125,-0.0033111572265625
1782846774293886000,1.253885986328125,-1.2831268310546875,0.2221527099609375,0.0098419189453125
1782846774303891000,1.263890869140625,-1.0074920654296875,0.190277099609375,-0.0215911865234375
1782846774313896000,1.27389599609375,-0.71466064453125,0.0770111083984375,-0.0518798828125
1782846774323900000,1.28389990234375,-0.416748046875,-0.08740234375,-0.0479888916015625
1782846774333905000,1.29390478515625,-0.13092041015625,-0.2176513671875,-0.006744384765625
1782846774343910000,1.303909912109375,0.11114501953125,-0.229736328125,0.0509796142578125
1782846774353914000,1.3139140625,0.270965576171875,-0.154754638671875,0.072174072265625
1782846774363919000,1.323919189453125,0.3054656982421875,-0.0956878662109375,0.0384368896484375
1782846774373924000,1.333924072265625,0.2494659423828125,-0.0674285888671875,0.0037994384765625
1782846774383928000,1.343927978515625,0.1760711669921875,-0.037841796875,0.00634765625
1782846774393933000,1.35393310546875,0.11163330078125,0.00091552734375,0.0194244384765625
1782846774403938000,1.36393798828125,0.059661865234375,0.0372772216796875,0.021728515625
1782846774413942000,1.37394189453125,0.043182373046875,0.0581817626953125,0.02734375
1782846774423947000,1.383947021484375,0.0665283203125,0.06048583984375,0.0325164794921875
1782846774433952000,1.393951904296875,0.0894622802734375,0.056060791015625,0.03607177734375
1782846774443956000,1.4039560546875,0.0998992919921875,0.0455780029296875,0.0393524169921875
1782846774453961000,1.4139609375,0.101470947265625,0.0511932373046875,0.046417236328125
1782846774463966200,1.42396630859375,0.091552734375,0.0621337890625,0.0352325439453125
1782846774473971200,1.43397119140625,0.0752716064453125,0.070831298828125,0.0158233642578125
1782846774483975000,1.443974853515625,0.06903076171875,0.078582763671875,-0.0001678466796875
1782846774493980000,1.45397998046875,0.0601654052734375,0.0788116455078125,-0.0221405029296875
1782846774503983900,1.46398388671875,0.055633544921875,0.0728302001953125,-0.0446014404296875
1782846774513988900,1.47398876953125,0.050537109375,0.0643310546875,-0.0676116943359375
1782846774523993900,1.483993896484375,0.03363037109375,0.0520477294921875,-0.0803070068359375
1782846774533998800,1.493998779296875,0.00799560546875,0.0275421142578125,-0.0563812255859375
1782846774544003000,1.504003173828125,-0.022674560546875,-0.0106201171875,-0.0179901123046875
1782846774554008000,1.514008056640625,-0.0715179443359375,-0.052978515625,0.0049591064453125
1782846774564013000,1.524012939453125,-0.1517486572265625,-0.1119537353515625,0.0036468505859375
1782846774574017000,1.53401708984375,-0.2664642333984375,-0.1805877685546875,-0.010589599609375
1782846774584022000,1.54402197265625,-0.415252685546875,-0.2496490478515625,-0.0116729736328125
1782846774594027000,1.554027099609375,-0.6184234619140625,-0.32513427734375,-0.0054931640625
1782846774604031000,1.564031005859375,-0.8863677978515625,-0.4200286865234375,-0.0122833251953125
1782846774614036000,1.574035888671875,-1.1824798583984375,-0.513427734375,-0.014373779296875
1782846774624041000,1.584041015625,-1.4063873291015625,-0.5461578369140625,0.05377197265625
1782846774634045200,1.594045166015625,-1.5449371337890625,-0.467315673828125,0.231719970703125
1782846774644050200,1.60405029296875,-1.7059173583984375,-0.361236572265625,0.40765380859375
1782846774654055200,1.61405517578125,-1.9183349609375,-0.3855133056640625,0.440338134765625
1782846774664059000,1.624058837890625,-2.036834716796875,-0.5891265869140625,0.289581298828125
1782846774674064000,1.63406396484375,-2.0265045166015625,-0.858642578125,0.03778076171875
1782846774684068900,1.64406884765625,-2.056549072265625,-0.94134521484375,-0.0898895263671875
1782846774694073000,1.654072998046875,-2.3882598876953125,-0.7801666259765625,-0.065826416015625
1782846774704078000,1.664078125,-2.76177978515625,-0.4625701904296875,0.0687713623046875
1782846774714083000,1.6740830078125,-2.819793701171875,-0.03424072265625,0.290435791015625
1782846774724087000,1.684087158203125,-2.724578857421875,0.288818359375,0.447723388671875
1782846774734092000,1.694092041015625,-2.5754852294921875,0.35577392578125,0.4179229736328125
1782846774744097000,1.704096923828125,-2.332275390625,0.2490692138671875,0.2705078125
1782846774754101000,1.71410107421875,-2.0269622802734375,0.05596923828125,0.1014862060546875
1782846774764106000,1.72410595703125,-1.6520233154296875,-0.189971923828125,-0.01348876953125
1782846774774111000,1.734111083984375,-1.1905670166015625,-0.5213775634765625,-0.0323486328125
1782846774784116000,1.744115966796875,-0.7501678466796875,-0.8142547607421875,0.0433197021484375
1782846774794120200,1.7541201171875,-0.413909912109375,-0.88311767578125,0.1538543701171875
1782846774804125200,1.764125244140625,-0.2634429931640625,-0.6964111328125,0.2245941162109375
1782846774814130200,1.774130126953125,-0.34130859375,-0.4504852294921875,0.184478759765625
1782846774824134100,1.784134033203125,-0.5583343505859375,-0.2813720703125,0.093475341796875
1782846774834139100,1.79413916015625,-0.755889892578125,-0.1728973388671875,0.02008056640625
1782846774844144000,1.80414404296875,-0.879974365234375,-0.0716094970703125,-0.002166748046875
1782846774854148000,1.814148193359375,-0.9429168701171875,0.00628662109375,0.0108489990234375
1782846774864153000,1.824153076171875,-0.900970458984375,0.0592803955078125,0.042236328125
1782846774874158000,1.834157958984375,-0.8236236572265625,0.0990753173828125,0.049713134765625
1782846774884162300,1.844162353515625,-0.743194580078125,0.1297454833984375,0.0202789306640625
1782846774894167300,1.854167236328125,-0.6764068603515625,0.1400909423828125,-0.0203094482421875
1782846774904172300,1.86417236328125,-0.624847412109375,0.1310882568359375,-0.0635833740234375
1782846774914176300,1.87417626953125,-0.5705413818359375,0.1042633056640625,-0.0969696044921875
1782846774924181200,1.88418115234375,-0.5085601806640625,0.0720367431640625,-0.114593505859375
1782846774934186200,1.894186279296875,-0.45465087890625,0.024566650390625,-0.1226043701171875
1782846774944190000,1.90418994140625,-0.408721923828125,-0.0348968505859375,-0.1083831787109375
1782846774954195000,1.91419482421875,-0.3798675537109375,-0.1000518798828125,-0.09405517578125
1782846774964200000,1.924199951171875,-0.35455322265625,-0.1598663330078125,-0.073638916015625
1782846774974204200,1.9342041015625,-0.33367919921875,-0.205474853515625,-0.0405120849609375
1782846774984209200,1.944209228515625,-0.3343048095703125,-0.2328643798828125,-0.00555419921875
1782846774994214100,1.954214111328125,-0.3784942626953125,-0.2243194580078125,0.0243988037109375
1782846775004218000,1.964218017578125,-0.463470458984375,-0.18798828125,0.06915283203125
1782846775014223000,1.97422314453125,-0.55987548828125,-0.15399169921875,0.116119384765625
1782846775024228000,1.98422802734375,-0.632598876953125,-0.1210174560546875,0.1490020751953125
1782846775034232000,1.994232177734375,-0.7025146484375,-0.0795745849609375,0.16864013671875
1782846775044237000,2.004237060546875,-0.7826995849609375,-0.0408935546875,0.17071533203125
1782846775054242000,2.014241943359375,-0.8587799072265625,-0.0241851806640625,0.1517486572265625
1782846775064247000,2.0242470703125,-0.9248809814453125,-0.0403900146484375,0.10015869140625
1782846775074251300,2.034251220703125,-0.968505859375,-0.1053619384765625,0.0272674560546875
1782846775084256300,2.04425634765625,-0.9990234375,-0.197052001953125,-0.0280609130859375
1782846775094261200,2.05426123046875,-1.0520477294921875,-0.29461669921875,-0.04425048828125
1782846775104265200,2.06426513671875,-1.123138427734375,-0.365264892578125,0.0027008056640625
1782846775114270200,2.074270263671875,-1.2189788818359375,-0.42303466796875,0.0838470458984375
1782846775124275200,2.084275146484375,-1.382080078125,-0.4775390625,0.160308837890625
1782846775134279200,2.094279052734375,-1.6266937255859375,-0.5117645263671875,0.2117919921875
1782846775144284200,2.1042841796875,-1.850799560546875,-0.531982421875,0.26025390625
1782846775154289200,2.1142890625,-2.085235595703125,-0.533905029296875,0.2858428955078125
1782846775164293000,2.124293212890625,-2.3253021240234375,-0.550933837890625,0.264068603515625
1782846775174298000,2.134298095703125,-2.493011474609375,-0.595062255859375,0.2409210205078125
1782846775184303000,2.14430322265625,-2.5516204833984375,-0.6220855712890625,0.2316436767578125
1782846775194307000,2.15430712890625,-2.5338592529296875,-0.6505126953125,0.2424774169921875
1782846775204312000,2.16431201171875,-2.502960205078125,-0.6828155517578125,0.25103759765625
1782846775214317000,2.174317138671875,-2.438720703125,-0.6963653564453125,0.248809814453125
1782846775224321000,2.184321044921875,-2.366973876953125,-0.6940460205078125,0.212982177734375
1782846775234326000,2.194325927734375,-2.2873687744140625,-0.6610260009765625,0.186431884765625
1782846775244331000,2.2043310546875,-2.1567535400390625,-0.5843658447265625,0.205322265625
1782846775254335200,2.214335205078125,-1.98394775390625,-0.474273681640625,0.2433929443359375
1782846775264340200,2.22434033203125,-1.8004608154296875,-0.3525390625,0.27203369140625
1782846775274345200,2.23434521484375,-1.617919921875,-0.235931396484375,0.2720184326171875
1782846775284349200,2.24434912109375,-1.434844970703125,-0.1427001953125,0.239532470703125
1782846775294354200,2.254354248046875,-1.2396087646484375,-0.0790252685546875,0.1820526123046875
1782846775304359200,2.264359130859375,-1.035552978515625,-0.055694580078125,0.0987701416015625
1782846775314363100,2.274363037109375,-0.8368377685546875,-0.0472564697265625,0.01824951171875
1782846775324368100,2.2843681640625,-0.6456298828125,-0.0462493896484375,-0.0399169921875
1782846775334373000,2.294373046875,-0.4660491943359375,-0.0585784912109375,-0.07293701171875
1782846775344377000,2.304377197265625,-0.295257568359375,-0.0662384033203125,-0.0828399658203125
1782846775354382000,2.314382080078125,-0.139678955078125,-0.06414794921875,-0.074371337890625
1782846775364387000,2.324386962890625,-0.005523681640625,-0.0482940673828125,-0.0528564453125
1782846775374392000,2.33439208984375,0.084442138671875,-0.02874755859375,-0.0259246826171875
1782846775384396000,2.34439599609375,0.146636962890625,-0.002685546875,-0.0063934326171875
1782846775394401000,2.354401123046875,0.18994140625,0.016448974609375,-0.001617431640625
1782846775404406000,2.364406005859375,0.2171630859375,0.0324554443359375,0.00445556640625
1782846775414410200,2.37441015625,0.2363739013671875,0.0445556640625,0.0055084228515625
1782846775424415200,2.384415283203125,0.2512359619140625,0.0515899658203125,-0.001312255859375
1782846775434420200,2.394420166015625,0.2723846435546875,0.045745849609375,-0.017608642578125
1782846775444424200,2.404424072265625,0.279815673828125,0.0264129638671875,-0.03851318359375
1782846775454429200,2.41442919921875,0.2978363037109375,0.0003662109375,-0.0457611083984375
1782846775464434200,2.42443408203125,0.335113525390625,-0.027099609375,-0.0488128662109375
1782846775474438100,2.434438232421875,0.3624114990234375,-0.04608154296875,-0.0350341796875
1782846775484443100,2.444443115234375,0.36468505859375,-0.042694091796875,-0.0168914794921875
1782846775494448000,2.4544482421875,0.327301025390625,-0.0323944091796875,-0.007354736328125
1782846775504452400,2.464452392578125,0.2585906982421875,-0.0184173583984375,-0.01092529296875
1782846775514457300,2.474457275390625,0.1815185546875,-0.005859375,-0.0074310302734375
1782846775524462300,2.48446240234375,0.114776611328125,0.0070953369140625,0.0206756591796875
1782846775534466000,2.494466064453125,0.04815673828125,0.026275634765625,0.0460357666015625
1782846775544471000,2.504470947265625,-0.0283966064453125,0.0307769775390625,0.0529022216796875
1782846775554476000,2.51447607421875,-0.11285400390625,0.0410308837890625,0.03985595703125
1782846775564480000,2.52447998046875,-0.2247314453125,0.07025146484375,0.0211334228515625
1782846775574485000,2.534485107421875,-0.388214111328125,0.079620361328125,0.0029296875
1782846775584490000,2.544489990234375,-0.5682525634765625,0.036590576171875,-0.022918701171875
1782846775594494200,2.554494140625,-0.73388671875,-0.0364990234375,-0.02886962890625
1782846775604499200,2.564499267578125,-0.8921661376953125,-0.128387451171875,0.0051116943359375
1782846775614504200,2.574504150390625,-1.0819549560546875,-0.2281646728515625,0.0569610595703125
1782846775624509200,2.58450927734375,-1.2741546630859375,-0.3347320556640625,0.085906982421875
1782846775634513200,2.59451318359375,-1.4161376953125,-0.4205322265625,0.1141510009765625
1782846775644518100,2.60451806640625,-1.5084075927734375,-0.4772796630859375,0.1690826416015625
1782846775654523100,2.614523193359375,-1.5658111572265625,-0.5235748291015625,0.2331390380859375
1782846775664527000,2.624527099609375,-1.6310882568359375,-0.616851806640625,0.215576171875
1782846775674532000,2.634531982421875,-1.6574554443359375,-0.745086669921875,0.1550140380859375
1782846775684537000,2.644537109375,-1.6694183349609375,-0.8744049072265625,0.131195068359375
1782846775694541300,2.654541259765625,-1.9246063232421875,-0.8886260986328125,0.2316741943359375
1782846775704546300,2.66454638671875,-2.3174285888671875,-0.709014892578125,0.4149932861328125
1782846775714551300,2.67455126953125,-2.574615478515625,-0.437530517578125,0.5831146240234375
1782846775724555300,2.68455517578125,-2.59515380859375,-0.178436279296875,0.64874267578125
1782846775734560300,2.694560302734375,-2.6074066162109375,-0.0608673095703125,0.5424957275390625
1782846775744565200,2.704565185546875,-2.603485107421875,-0.0930938720703125,0.3603973388671875
1782846775754569000,2.71456884765625,-2.449188232421875,-0.2066650390625,0.19525146484375
1782846775764574000,2.724573974609375,-2.1423187255859375,-0.357635498046875,0.1240081787109375
1782846775774579000,2.734578857421875,-1.766387939453125,-0.5860595703125,0.148773193359375
1782846775784583200,2.744583251953125,-1.42327880859375,-0.843597412109375,0.22314453125
1782846775794587400,2.75458740234375,-1.1959381103515625,-0.9179840087890625,0.2955169677734375
1782846775804592400,2.76459228515625,-1.0629730224609375,-0.74310302734375,0.3480987548828125
1782846775814596400,2.774596435546875,-1.040313720703125,-0.5034637451171875,0.3135223388671875
1782846775824601300,2.784601318359375,-1.1148681640625,-0.3438262939453125,0.2009735107421875
1782846775834606300,2.7946064453125,-1.1893768310546875,-0.2259674072265625,0.1048583984375
1782846775844610300,2.8046103515625,-1.163543701171875,-0.10931396484375,0.049591064453125
1782846775854615300,2.814615234375,-1.0775299072265625,-0.0355682373046875,-0.003692626953125
1782846775864620300,2.824620361328125,-0.980316162109375,0.0118560791015625,-0.0369873046875
1782846775874625300,2.834625244140625,-0.8652801513671875,0.0370330810546875,-0.073822021484375
1782846775884629200,2.844629150390625,-0.751678466796875,0.04022216796875,-0.1061859130859375
1782846775894634200,2.85463427734375,-0.635528564453125,0.0311126708984375,-0.1339111328125
1782846775904638200,2.86463818359375,-0.5336761474609375,0.00531005859375,-0.157928466796875
1782846775914643200,2.874643310546875,-0.4589080810546875,-0.0242462158203125,-0.1893157958984375
1782846775924648200,2.884648193359375,-0.37774658203125,-0.048614501953125,-0.215545654296875
1782846775934653200,2.894653076171875,-0.3078155517578125,-0.0829620361328125,-0.22698974609375
1782846775944657400,2.904657470703125,-0.26318359375,-0.107574462890625,-0.2210693359375
1782846775954662400,2.914662353515625,-0.23052978515625,-0.12396240234375,-0.1917572021484375
1782846775964667400,2.92466748046875,-0.2087860107421875,-0.1299285888671875,-0.13909912109375
1782846775974671400,2.93467138671875,-0.2147369384765625,-0.12799072265625,-0.0850372314453125
1782846775984676400,2.94467626953125,-0.244873046875,-0.107391357421875,-0.0268096923828125
1782846775994681300,2.954681396484375,-0.2770233154296875,-0.08734130859375,0.021453857421875
1782846776004685300,2.964685302734375,-0.2843017578125,-0.0749359130859375,0.0595550537109375
1782846776014690300,2.974690185546875,-0.2776947021484375,-0.0648651123046875,0.0593719482421875
1782846776024695300,2.9846953125,-0.283843994140625,-0.0532073974609375,0.0244293212890625
1782846776034699300,2.99469921875,-0.3199005126953125,-0.035247802734375,-0.001007080078125
1782846776044704300,3.004704345703125,-0.3549652099609375,-0.0175018310546875,-0.0251922607421875
1782846776054709200,3.014709228515625,-0.406768798828125,-0.0113372802734375,-0.036712646484375
1782846776064713200,3.024713134765625,-0.4759979248046875,-0.0130767822265625,-0.0294647216796875
1782846776074718200,3.03471826171875,-0.55889892578125,-0.02423095703125,-0.0281524658203125
1782846776084723200,3.04472314453125,-0.6466827392578125,-0.0509033203125,-0.024505615234375
1782846776094727200,3.05472705078125,-0.7487335205078125,-0.120758056640625,-0.03900146484375
1782846776104732200,3.064732177734375,-0.8516998291015625,-0.2147064208984375,-0.0608673095703125
1782846776114737200,3.074737060546875,-0.952911376953125,-0.3167724609375,-0.061279296875
1782846776124741400,3.084741455078125,-1.0592041015625,-0.4232330322265625,-0.059478759765625
1782846776134746400,3.094746337890625,-1.215118408203125,-0.5015411376953125,-0.04547119140625
1782846776144751400,3.10475146484375,-1.427490234375,-0.5463714599609375,-0.0001220703125
1782846776154756400,3.11475634765625,-1.6756591796875,-0.550689697265625,0.0874176025390625
1782846776164760300,3.12476025390625,-1.9122161865234375,-0.528472900390625,0.2187347412109375
1782846776174765300,3.134765380859375,-2.1128692626953125,-0.528656005859375,0.3589935302734375
1782846776184770300,3.144770263671875,-2.248443603515625,-0.6085205078125,0.429779052734375
1782846776194774300,3.154774169921875,-2.271148681640625,-0.7619476318359375,0.4243621826171875
1782846776204779300,3.164779296875,-2.2816314697265625,-0.9026336669921875,0.361236572265625
1782846776214784300,3.1747841796875,-2.298065185546875,-0.998046875,0.280181884765625
1782846776224788200,3.184788330078125,-2.310394287109375,-1.041046142578125,0.2266998291015625
1782846776234793200,3.194793212890625,-2.3307342529296875,-1.0265655517578125,0.1941680908203125
1782846776244798500,3.204798583984375,-2.389739990234375,-0.9697113037109375,0.1672821044921875
1782846776254802200,3.21480224609375,-2.4370269775390625,-0.8760223388671875,0.1408538818359375
1782846776264807200,3.22480712890625,-2.421142578125,-0.7389068603515625,0.113372802734375
1782846776274812200,3.234812255859375,-2.3410186767578125,-0.6049957275390625,0.111114501953125
1782846776284816400,3.24481640625,-2.178985595703125,-0.5076751708984375,0.146697998046875
1782846776294821400,3.2548212890625,-1.973388671875,-0.4405975341796875,0.2044677734375
1782846776304826400,3.264826416015625,-1.734375,-0.39324951171875,0.25238037109375
1782846776314830300,3.274830322265625,-1.4737396240234375,-0.35357666015625,0.262542724609375
1782846776324835300,3.28483544921875,-1.19757080078125,-0.318939208984375,0.243408203125
1782846776334840300,3.29484033203125,-0.916748046875,-0.282318115234375,0.20513916015625
1782846776344844300,3.30484423828125,-0.67132568359375,-0.2335357666015625,0.15966796875
1782846776354849300,3.314849365234375,-0.48193359375,-0.1667022705078125,0.107574462890625
1782846776364854300,3.324854248046875,-0.3347625732421875,-0.107025146484375,0.0286712646484375
1782846776374858500,3.3348583984375,-0.2345123291015625,-0.0567169189453125,-0.0463104248046875
1782846776384863500,3.344863525390625,-0.1544036865234375,-0.0011138916015625,-0.0921173095703125
1782846776394868500,3.354868408203125,-0.0895843505859375,0.0525054931640625,-0.1127471923828125
1782846776404872400,3.36487255859375,-0.02655029296875,0.0943603515625,-0.1062774658203125
1782846776414877400,3.37487744140625,0.0336761474609375,0.1164093017578125,-0.0973358154296875
1782846776424882400,3.38488232421875,0.0765533447265625,0.130706787109375,-0.069732666015625
1782846776434886100,3.39488623046875,0.1109466552734375,0.136077880859375,-0.0447998046875
1782846776444891100,3.40489111328125,0.134033203125,0.1189727783203125,-0.0626373291015625
1782846776454896000,3.414896240234375,0.1569976806640625,0.08612060546875,-0.0944366455078125
1782846776464901000,3.424901123046875,0.1934661865234375,0.0536956787109375,-0.1197357177734375
1782846776474905300,3.4349052734375,0.2371978759765625,0.026397705078125,-0.13153076171875
1782846776484910300,3.444910400390625,0.267425537109375,-0.00048828125,-0.1284332275390625
1782846776494915300,3.454915283203125,0.296844482421875,-0.0128631591796875,-0.0981903076171875
1782846776504919300,3.464919189453125,0.31939697265625,-0.0079193115234375,-0.0469818115234375
1782846776514924300,3.47492431640625,0.32476806640625,0.0003204345703125,0.0068206787109375
1782846776524929300,3.48492919921875,0.3181610107421875,0.0067596435546875,0.0482330322265625
1782846776534933200,3.494933349609375,0.2934417724609375,0.01568603515625,0.0624847412109375
1782846776544938200,3.504938232421875,0.2548675537109375,0.019287109375,0.074615478515625
1782846776554943200,3.514943115234375,0.214569091796875,0.0152740478515625,0.0657806396484375
1782846776564947500,3.524947509765625,0.1685028076171875,0.010498046875,0.0461883544921875
1782846776574952400,3.534952392578125,0.1257476806640625,0.0149688720703125,0.0265960693359375
1782846776584957400,3.54495751953125,0.070648193359375,0.024322509765625,0.0081634521484375
1782846776594961400,3.55496142578125,-0.007080078125,0.036712646484375,0.00921630859375
1782846776604966400,3.56496630859375,-0.12109375,0.0581207275390625,0.0119171142578125
1782846776614971400,3.574971435546875,-0.2843170166015625,0.0448150634765625,0.010772705078125
1782846776624975000,3.58497509765625,-0.462005615234375,-0.00750732421875,0.010589599609375
1782846776634980000,3.59497998046875,-0.6361083984375,-0.0631103515625,0.0296783447265625
1782846776644985000,3.604985107421875,-0.861907958984375,-0.1505126953125,0.037750244140625
1782846776654989300,3.6149892578125,-1.13128662109375,-0.3079986572265625,0.0250244140625
1782846776664994300,3.624994384765625,-1.3997039794921875,-0.511627197265625,0.0291595458984375
1782846776674999300,3.634999267578125,-1.5991363525390625,-0.689849853515625,0.0677032470703125
1782846776685004300,3.64500439453125,-1.7003631591796875,-0.7792816162109375,0.15234375
1782846776695008300,3.65500830078125,-1.76556396484375,-0.758270263671875,0.3136749267578125
1782846776705013200,3.66501318359375,-1.908660888671875,-0.5746917724609375,0.458038330078125
1782846776715018200,3.675018310546875,-2.25177001953125,-0.5325469970703125,0.4166717529296875
1782846776725022200,3.685022216796875,-2.6462860107421875,-0.6800689697265625,0.2777557373046875
1782846776735027200,3.695027099609375,-2.849334716796875,-0.690673828125,0.199737548828125
1782846776745032200,3.7050322265625,-2.9206085205078125,-0.4946441650390625,0.238250732421875
1782846776755036400,3.715036376953125,-2.9117584228515625,-0.2507781982421875,0.3402557373046875
1782846776765041400,3.72504150390625,-2.801361083984375,-0.081451416015625,0.449462890625
1782846776775046400,3.73504638671875,-2.6015167236328125,-0.037322998046875,0.506500244140625
1782846776785050400,3.74505029296875,-2.3206024169921875,-0.1533355712890625,0.4544525146484375
1782846776795055900,3.755055908203125,-1.97576904296875,-0.407440185546875,0.337738037109375
1782846776805060900,3.765060791015625,-1.55157470703125,-0.753814697265625,0.2470703125
1782846776815064800,3.77506494140625,-1.0452880859375,-0.9880523681640625,0.226470947265625
1782846776825069800,3.78506982421875,-0.64599609375,-0.915374755859375,0.24163818359375
1782846776835074800,3.79507470703125,-0.4869232177734375,-0.6956329345703125,0.1968994140625
1782846776845079000,3.8050791015625,-0.5134735107421875,-0.5207977294921875,0.08758544921875
1782846776855084000,3.815083984375,-0.63037109375,-0.388275146484375,-0.0158538818359375
1782846776865089000,3.825089111328125,-0.708892822265625,-0.27593994140625,-0.0523529052734375
1782846776875093000,3.835093017578125,-0.77313232421875,-0.1844635009765625,-0.098175048828125
1782846776885098000,3.845097900390625,-0.822174072265625,-0.114349365234375,-0.1230926513671875
1782846776895103000,3.85510302734375,-0.79937744140625,-0.0581817626953125,-0.1317901611328125
1782846776905106700,3.865106689453125,-0.746368408203125,-0.012908935546875,-0.1233367919921875
1782846776915111700,3.875111572265625,-0.69818115234375,0.0231170654296875,-0.120941162109375
1782846776925116700,3.88511669921875,-0.6566619873046875,0.039306640625,-0.12567138671875
1782846776935121000,3.895120849609375,-0.6130523681640625,0.0413665771484375,-0.1211090087890625
1782846776945126000,3.9051259765625,-0.562225341796875,0.0262603759765625,-0.1160430908203125
1782846776955131000,3.915130859375,-0.5124664306640625,-0.0108184814453125,-0.10614013671875
1782846776965134800,3.925134765625,-0.462615966796875,-0.0606536865234375,-0.0937652587890625
1782846776975139800,3.935139892578125,-0.4233245849609375,-0.108154296875,-0.07452392578125
1782846776985144800,3.945144775390625,-0.4021148681640625,-0.145751953125,-0.0470123291015625
1782846776995149800,3.95514990234375,-0.3914642333984375,-0.1744537353515625,-0.0080108642578125
1782846777005153800,3.96515380859375,-0.384918212890625,-0.1934967041015625,0.0404510498046875
1782846777015158800,3.97515869140625,-0.392425537109375,-0.204010009765625,0.07415771484375
1782846777025163800,3.985163818359375,-0.417755126953125,-0.1932830810546875,0.1034088134765625
1782846777035168000,3.99516796875,-0.4554290771484375,-0.1658477783203125,0.1428375244140625
1782846777045173000,4.005173095703125,-0.5140533447265625,-0.1414642333984375,0.162353515625
1782846777055178000,4.015177978515625,-0.588409423828125,-0.1106414794921875,0.165130615234375
1782846777065182000,4.025181884765625,-0.671905517578125,-0.055908203125,0.1629638671875
1782846777075187000,4.03518701171875,-0.7572479248046875,0.0040130615234375,0.1571044921875
1782846777085192000,4.04519189453125,-0.8287200927734375,0.034423828125,0.14544677734375
1782846777095195600,4.055195556640625,-0.8700714111328125,0.03912353515625,0.1317138671875
1782846777105201000,4.065200927734375,-0.89019775390625,0.00848388671875,0.10711669921875
1782846777115206000,4.075205810546875,-0.921356201171875,-0.040008544921875,0.0609130859375
1782846777125209900,4.0852099609375,-0.98699951171875,-0.1021270751953125,0.01220703125
1782846777135214800,4.09521484375,-1.0719146728515625,-0.19329833984375,-0.031768798828125
1782846777145219800,4.1052197265625,-1.1877899169921875,-0.3060455322265625,-0.0453338623046875
1782846777155223800,4.115223876953125,-1.3193359375,-0.4141387939453125,-0.0340728759765625
1782846777165228800,4.125228759765625,-1.46209716796875,-0.4790496826171875,0.0152740478515625
1782846777175233800,4.13523388671875,-1.63348388671875,-0.4894866943359375,0.1119384765625
1782846777185237800,4.14523779296875,-1.8199615478515625,-0.4733734130859375,0.2262725830078125
1782846777195243000,4.155242919921875,-1.977996826171875,-0.472076416015625,0.342803955078125
1782846777205248000,4.165248046875,-2.096435546875,-0.5088958740234375,0.4246826171875
1782846777215252000,4.175251953125,-2.1528472900390625,-0.6069488525390625,0.4255218505859375
1782846777225257000,4.185257080078125,-2.147186279296875,-0.757965087890625,0.3746185302734375
1782846777235262000,4.195261962890625,-2.111968994140625,-0.8938446044921875,0.3233642578125
1782846777245266000,4.205265869140625,-2.063812255859375,-0.97406005859375,0.274444580078125
1782846777255271000,4.21527099609375,-2.027984619140625,-0.990814208984375,0.2154083251953125
1782846777265276000,4.22527587890625,-2.0164337158203125,-0.9741058349609375,0.139678955078125
1782846777275281000,4.235281005859375,-1.9978790283203125,-0.949462890625,0.0496978759765625
1782846777285285000,4.24528515625,-1.9730987548828125,-0.9118804931640625,-0.023162841796875
1782846777295290000,4.2552900390625,-1.953521728515625,-0.8475189208984375,-0.04156494140625
1782846777305295000,4.265295166015625,-1.909454345703125,-0.736846923828125,0.0098724365234375
1782846777315298800,4.275298828125,-1.8341522216796875,-0.5689239501953125,0.1152191162109375
1782846777325303800,4.2853037109375,-1.7169036865234375,-0.3856658935546875,0.2085418701171875
1782846777335308800,4.295308837890625,-1.570831298828125,-0.2432861328125,0.244232177734375
1782846777345312800,4.305312744140625,-1.4063720703125,-0.151580810546875,0.2048187255859375
1782846777355317800,4.31531787109375,-1.1977691650390625,-0.0836181640625,0.1268768310546875
1782846777365322800,4.32532275390625,-0.97509765625,-0.04315185546875,0.057373046875
1782846777375327000,4.335326904296875,-0.7430877685546875,-0.0446014404296875,-0.0022125244140625
1782846777385332000,4.34533203125,-0.5164642333984375,-0.075042724609375,-0.0493927001953125
1782846777395337000,4.3553369140625,-0.302886962890625,-0.105072021484375,-0.08843994140625
1782846777405341000,4.3653408203125,-0.1133270263671875,-0.1142578125,-0.1172943115234375
1782846777415346000,4.375345947265625,0.025360107421875,-0.104156494140625,-0.1313323974609375
1782846777425351000,4.385350830078125,0.105682373046875,-0.08001708984375,-0.1412353515625
1782846777435355000,4.39535498046875,0.1635589599609375,-0.042816162109375,-0.1499786376953125
1782846777445359900,4.40535986328125,0.2059326171875,-0.00872802734375,-0.1610870361328125
1782846777455364900,4.41536474609375,0.214447021484375,0.0279998779296875,-0.1733856201171875
1782846777465369000,4.425369140625,0.188995361328125,0.0718994140625,-0.1769866943359375
1782846777475374000,4.4353740234375,0.1643829345703125,0.1051483154296875,-0.16998291015625
1782846777485379000,4.445379150390625,0.1573028564453125,0.12078857421875,-0.1510009765625
1782846777495382800,4.4553828125,0.1616363525390625,0.1228179931640625,-0.0866546630859375
1782846777505387800,4.4653876953125,0.185760498046875,0.1080780029296875,0.0035247802734375
1782846777515392800,4.475392822265625,0.2146148681640625,0.078857421875,0.0687255859375
1782846777525396700,4.485396728515625,0.2257843017578125,0.0561065673828125,0.101806640625
1782846777535401700,4.495401611328125,0.2347564697265625,0.043243408203125,0.100555419921875
1782846777545406700,4.50540673828125,0.2571563720703125,0.0315093994140625,0.0791015625
1782846777555411700,4.51541162109375,0.2577362060546875,0.0238494873046875,0.0488739013671875
1782846777565416000,4.525416015625,0.231170654296875,0.025390625,0.016265869140625
1782846777575421000,4.5354208984375,0.192352294921875,0.033599853515625,-0.009429931640625
1782846777585425000,4.5454248046875,0.135406494140625,0.044921875,-0.0137939453125
1782846777595430000,4.555429931640625,0.06982421875,0.034576416015625,-0.0023345947265625
1782846777605435000,4.565434814453125,0.01861572265625,0.0159454345703125,0.005523681640625
1782846777615440000,4.57543994140625,-0.0283966064453125,0.0027923583984375,0.0218658447265625
1782846777625443800,4.58544384765625,-0.095062255859375,-0.047821044921875,0.0362396240234375
1782846777635448800,4.59544873046875,-0.2103424072265625,-0.131805419921875,0.0515899658203125
1782846777645453800,4.605453857421875,-0.3645172119140625,-0.216156005859375,0.052978515625
1782846777655458000,4.6154580078125,-0.5652923583984375,-0.2775421142578125,0.0359344482421875
1782846777665463000,4.625463134765625,-0.8571319580078125,-0.31689453125,0.00433349609375
1782846777675468000,4.635468017578125,-1.1995849609375,-0.3692474365234375,-0.015289306640625
1782846777685471700,4.6454716796875,-1.4623565673828125,-0.424835205078125,0.0410003662109375
1782846777695476700,4.655476806640625,-1.6206512451171875,-0.4695587158203125,0.1747894287109375
1782846777705482000,4.66548193359375,-1.728607177734375,-0.50396728515625,0.343231201171875
1782846777715485700,4.675485595703125,-1.8387298583984375,-0.5894317626953125,0.4673309326171875
1782846777725490700,4.68549072265625,-1.9563751220703125,-0.7656707763671875,0.4192352294921875
1782846777735495700,4.69549560546875,-2.01806640625,-0.966033935546875,0.239990234375
1782846777745500000,4.7055,-2.1413421630859375,-1.07684326171875,0.0997772216796875
1782846777755505000,4.7155048828125,-2.41046142578125,-0.9777069091796875,0.1064605712890625
1782846777765510000,4.725510009765625,-2.5865631103515625,-0.691558837890625,0.2548675537109375
1782846777775513900,4.735513916015625,-2.553985595703125,-0.3533172607421875,0.42901611328125
1782846777785518800,4.745518798828125,-2.44427490234375,-0.1424713134765625,0.485595703125
1782846777795524000,4.755524169921875,-2.329071044921875,-0.1203765869140625,0.4041595458984375
1782846777805527800,4.76552783203125,-2.1393585205078125,-0.2618865966796875,0.24114990234375
1782846777815532800,4.77553271484375,-1.8114013671875,-0.51708984375,0.1036224365234375
1782846777825537800,4.785537841796875,-1.35125732421875,-0.7977142333984375,0.0555419921875
1782846777835542000,4.7955419921875,-0.94024658203125,-0.925018310546875,0.0838470458984375
1782846777845547000,4.805547119140625,-0.7361907958984375,-0.7954559326171875,0.1431121826171875
1782846777855552000,4.815552001953125,-0.71868896484375,-0.554656982421875,0.1581878662109375
1782846777865556000,4.825555908203125,-0.834014892578125,-0.3615570068359375,0.140777587890625
1782846777875561000,4.83556103515625,-0.9847564697265625,-0.2060089111328125,0.1166839599609375
1782846777885566000,4.84556591796875,-1.12164306640625,-0.06427001953125,0.0678253173828125
1782846777895570000,4.85556982421875,-1.1859283447265625,0.03173828125,0.0440521240234375
1782846777905575000,4.865574951171875,-1.1298370361328125,0.08978271484375,0.03973388671875
1782846777915580200,4.875580078125,-0.9850921630859375,0.1087493896484375,0.0187225341796875
1782846777925585200,4.885585205078125,-0.8324432373046875,0.096343994140625,-0.0016937255859375
1782846777935589000,4.895589111328125,-0.715087890625,0.06695556640625,-0.026123046875
1782846777945594000,4.905593994140625,-0.6164703369140625,0.030731201171875,-0.0595703125
1782846777955599000,4.91559912109375,-0.5336151123046875,0.00384521484375,-0.0797882080078125
1782846777965603000,4.92560302734375,-0.4753570556640625,-0.0175933837890625,-0.0901641845703125
1782846777975608000,4.935608154296875,-0.4253387451171875,-0.0347442626953125,-0.0905303955078125
1782846777985613000,4.945613037109375,-0.3994598388671875,-0.055084228515625,-0.090362548828125
1782846777995617000,4.955616943359375,-0.4071044921875,-0.078887939453125,-0.096588134765625
1782846778005622000,4.9656220703125,-0.4332427978515625,-0.0950775146484375,-0.0997772216796875
1782846778015627000,4.975626953125,-0.4446258544921875,-0.1075286865234375,-0.0836181640625
1782846778025631000,4.985630859375,-0.451324462890625,-0.112152099609375,-0.03448486328125
1782846778035636000,4.995635986328125,-0.4762725830078125,-0.10858154296875,0.019805908203125
1782846778045641000,5.005640869140625,-0.5041656494140625,-0.0947265625,0.063934326171875
1782846778055645000,5.01564501953125,-0.551910400390625,-0.05413818359375,0.10968017578125
1782846778065650000,5.02564990234375,-0.6290283203125,-0.0047607421875,0.1442108154296875
1782846778075655000,5.035655029296875,-0.690521240234375,0.040557861328125,0.1436920166015625
1782846778085659100,5.0456591796875,-0.735504150390625,0.06951904296875,0.11602783203125
1782846778095664000,5.0556640625,-0.75494384765625,0.08038330078125,0.0821685791015625
1782846778105669000,5.065669189453125,-0.7439422607421875,0.064453125,0.0522003173828125
1782846778115673000,5.075673095703125,-0.7164306640625,0.0201263427734375,0.0311737060546875
1782846778125678000,5.085677978515625,-0.6743927001953125,-0.0418243408203125,0.0212554931640625
1782846778135683000,5.09568310546875,-0.637420654296875,-0.108489990234375,0.0180206298828125
1782846778145687000,5.10568701171875,-0.6338653564453125,-0.1676788330078125,0.023284912109375
1782846778155692000,5.115692138671875,-0.6635284423828125,-0.2249908447265625,0.0235748291015625
1782846778165697000,5.125697021484375,-0.7244415283203125,-0.2931365966796875,-0.009674072265625
1782846778175701000,5.135700927734375,-0.7981719970703125,-0.3502655029296875,-0.0350799560546875
1782846778185706000,5.1457060546875,-0.9159088134765625,-0.335205078125,-0.01409912109375
1782846778195711000,5.1557109375,-1.138031005859375,-0.30560302734375,0.043731689453125
1782846778205715000,5.16571484375,-1.4341583251953125,-0.2961578369140625,0.1198883056640625
1782846778215720000,5.175719970703125,-1.7634429931640625,-0.2989349365234375,0.188690185546875
1782846778225725000,5.185724853515625,-2.0619354248046875,-0.305816650390625,0.2370758056640625
1782846778235729000,5.19572900390625,-2.3264007568359375,-0.2963409423828125,0.2793731689453125
1782846778245734000,5.20573388671875,-2.538330078125,-0.32080078125,0.2664947509765625
1782846778255739000,5.21573876953125,-2.6694488525390625,-0.376922607421875,0.21636962890625
1782846778265743000,5.2257431640625,-2.719818115234375,-0.4256744384765625,0.1735076904296875
1782846778275748000,5.235748046875,-2.725799560546875,-0.4635162353515625,0.121917724609375
1782846778285753000,5.245753173828125,-2.66888427734375,-0.498291015625,0.0587615966796875
1782846778295757000,5.255757080078125,-2.5719146728515625,-0.509429931640625,-0.000274658203125
1782846778305762000,5.265761962890625,-2.4512176513671875,-0.4762725830078125,-0.02294921875
1782846778315767000,5.27576708984375,-2.3230743408203125,-0.45062255859375,-0.0186614990234375
1782846778325771000,5.28577099609375,-2.207061767578125,-0.4134979248046875,0.021270751953125
1782846778335776000,5.29577587890625,-2.115509033203125,-0.3376312255859375,0.0853424072265625
1782846778345781000,5.305781005859375,-2.025848388671875,-0.2616424560546875,0.130615234375
1782846778355785200,5.31578515625,-1.896728515625,-0.1980133056640625,0.1578521728515625
1782846778365790200,5.325790283203125,-1.7081146240234375,-0.1494293212890625,0.1878509521484375
1782846778375795200,5.335795166015625,-1.4662322998046875,-0.139984130859375,0.20843505859375
1782846778385800200,5.34580029296875,-1.191192626953125,-0.1724853515625,0.222015380859375
1782846778395804000,5.355803955078125,-0.9058837890625,-0.1984405517578125,0.2282257080078125
1782846778405809000,5.365808837890625,-0.647308349609375,-0.185211181640625,0.2160491943359375
1782846778415814000,5.37581396484375,-0.4397735595703125,-0.150360107421875,0.1719512939453125
1782846778425817900,5.38581787109375,-0.2927398681640625,-0.1272735595703125,0.09698486328125
1782846778435822800,5.39582275390625,-0.1959991455078125,-0.0911102294921875,0.02325439453125
1782846778445827800,5.405827880859375,-0.0856475830078125,-0.0284576416015625,-0.02337646484375
1782846778455832000,5.41583203125,0.0250244140625,0.0322265625,-0.0593719482421875
1782846778465837000,5.425837158203125,0.111602783203125,0.0843658447265625,-0.093109130859375
1782846778475842000,5.435842041015625,0.1644134521484375,0.11993408203125,-0.13018798828125
1782846778485846000,5.445845947265625,0.197998046875,0.1446533203125,-0.16534423828125
1782846778495851000,5.45585107421875,0.215911865234375,0.1504364013671875,-0.1922454833984375
1782846778505856000,5.46585595703125,0.2277069091796875,0.140533447265625,-0.2113189697265625
1782846778515860000,5.47585986328125,0.2405548095703125,0.1314849853515625,-0.2168121337890625
1782846778525865000,5.485864990234375,0.2485504150390625,0.10614013671875,-0.2104034423828125
1782846778535870000,5.495869873046875,0.264068603515625,0.073333740234375,-0.1755828857421875
1782846778545874200,5.505874267578125,0.2642364501953125,0.0432891845703125,-0.114288330078125
1782846778555879200,5.515879150390625,0.2451019287109375,0.0180206298828125,-0.046600341796875
1782846778565884200,5.52588427734375,0.2341766357421875,0.008941650390625,0.0255279541015625
1782846778575888000,5.535887939453125,0.2116241455078125,0.0143280029296875,0.0948486328125
1782846778585892900,5.545892822265625,0.1682891845703125,0.0341644287109375,0.1455078125
1782846778595897900,5.55589794921875,0.1071319580078125,0.056243896484375,0.164642333984375
1782846778605902000,5.565902099609375,0.046600341796875,0.0645904541015625,0.1554107666015625
1782846778615907000,5.575906982421875,0.0118408203125,0.05645751953125,0.14617919921875
1782846778625912000,5.585912109375,-0.020050048828125,0.032196044921875,0.1369476318359375
1782846778635916000,5.595916015625,-0.05169677734375,-0.0047607421875,0.1270599365234375
1782846778645921000,5.605921142578125,-0.0710906982421875,-0.0300445556640625,0.129791259765625
1782846778655926000,5.615926025390625,-0.114959716796875,-0.0342559814453125,0.1304931640625
1782846778665930000,5.625929931640625,-0.23101806640625,-0.066314697265625,0.0765838623046875
1782846778675935000,5.63593505859375,-0.412200927734375,-0.106109619140625,0.0209503173828125
1782846778685940000,5.64593994140625,-0.6207122802734375,-0.13604736328125,0.012420654296875
1782846778695944200,5.655944091796875,-0.822357177734375,-0.17333984375,0.0525665283203125
1782846778705949200,5.66594921875,-1.01336669921875,-0.2479400634765625,0.0784149169921875
1782846778715954200,5.6759541015625,-1.2005462646484375,-0.3334808349609375,0.095489501953125
1782846778725958100,5.685958251953125,-1.3902587890625,-0.398345947265625,0.150848388671875
1782846778735963100,5.695963134765625,-1.5652618408203125,-0.43572998046875,0.22662353515625
1782846778745968000,5.705968017578125,-1.711944580078125,-0.4384765625,0.279510498046875
1782846778755971800,5.715971923828125,-1.838653564453125,-0.4434661865234375,0.29864501953125
1782846778765976800,5.725976806640625,-1.98577880859375,-0.487762451171875,0.262359619140625
1782846778775981800,5.73598193359375,-2.1113128662109375,-0.579376220703125,0.1722869873046875
1782846778785986000,5.745986083984375,-2.2725982666015625,-0.6705474853515625,0.0670623779296875
1782846778795990000,5.755989990234375,-2.452789306640625,-0.64532470703125,0.037628173828125
1782846778805995000,5.7659951171875,-2.5236053466796875,-0.4836273193359375,0.145050048828125
1782846778815999000,5.7759990234375,-2.468902587890625,-0.26629638671875,0.3078460693359375
1782846778826004000,5.78600390625,-2.333526611328125,-0.1177978515625,0.3990478515625
1782846778836009000,5.796009033203125,-2.174041748046875,-0.1322021484375,0.3535919189453125
1782846778846013200,5.80601318359375,-1.9678192138671875,-0.2775115966796875,0.2437744140625
1782846778856018200,5.81601806640625,-1.6883544921875,-0.5068511962890625,0.1585540771484375
1782846778866023200,5.826023193359375,-1.286407470703125,-0.7859649658203125,0.133880615234375
1782846778876028200,5.836028076171875,-0.8871307373046875,-0.9567108154296875,0.17706298828125
1782846778886032100,5.8460322265625,-0.656646728515625,-0.8575286865234375,0.2459564208984375
1782846778896037000,5.856037109375,-0.6505279541015625,-0.609405517578125,0.2595062255859375
1782846778906042000,5.8660419921875,-0.803466796875,-0.402862548828125,0.2086334228515625
1782846778916045800,5.8760458984375,-0.9701080322265625,-0.2555999755859375,0.1212615966796875
1782846778926050800,5.88605078125,-1.0894775390625,-0.111724853515625,0.0574798583984375
1782846778936055000,5.896054931640625,-1.1498565673828125,-0.03106689453125,0.0281982421875
1782846778946060000,5.90606005859375,-1.1013946533203125,-0.0025634765625,0.02880859375
1782846778956065000,5.91606494140625,-0.979156494140625,0.0140533447265625,0.03582763671875
1782846778966069000,5.926069091796875,-0.850494384765625,0.014892578125,0.0384674072265625
1782846778976074000,5.936073974609375,-0.741668701171875,-0.002227783203125,0.046722412109375
1782846778986079000,5.946078857421875,-0.655029296875,-0.036163330078125,0.0407867431640625
1782846778996084000,5.956083984375,-0.59613037109375,-0.0644683837890625,0.01409912109375
1782846779006088000,5.966087890625,-0.5454559326171875,-0.066162109375,-0.0175933837890625
1782846779016093000,5.976093017578125,-0.5188140869140625,-0.0706024169921875,-0.0396728515625
1782846779026098000,5.986097900390625,-0.4998931884765625,-0.078399658203125,-0.0478515625
1782846779036102100,5.99610205078125,-0.4671783447265625,-0.09564208984375,-0.0568695068359375
1782846779046107100,6.006107177734375,-0.4524078369140625,-0.1102294921875,-0.0436859130859375
1782846779056112000,6.016112060546875,-0.46258544921875,-0.116729736328125,-0.0178680419921875
1782846779066116000,6.0261162109375,-0.4681243896484375,-0.1169281005859375,0.007598876953125
1782846779076121000,6.03612109375,-0.4772186279296875,-0.11376953125,0.03179931640625
1782846779086126000,6.0461259765625,-0.4940032958984375,-0.1038360595703125,0.0619354248046875
1782846779096129800,6.0561298828125,-0.53289794921875,-0.0797882080078125,0.09246826171875
1782846779106135000,6.066135009765625,-0.5810394287109375,-0.0400238037109375,0.0984954833984375
1782846779116140000,6.07614013671875,-0.616912841796875,0.004119873046875,0.08062744140625
1782846779126144000,6.08614404296875,-0.6374359130859375,0.0416107177734375,0.047454833984375
1782846779136149000,6.09614892578125,-0.6434783935546875,0.062896728515625,0.0279998779296875
1782846779146154000,6.106154052734375,-0.6505126953125,0.07537841796875,0.00482177734375
1782846779156158000,6.116157958984375,-0.6709747314453125,0.06500244140625,-0.027862548828125
1782846779166163000,6.126162841796875,-0.670135498046875,0.0300750732421875,-0.0545654296875
1782846779176168000,6.13616796875,-0.6677093505859375,-0.003082275390625,-0.059478759765625
1782846779186172000,6.146171875,-0.6977691650390625,-0.0501861572265625,-0.0424957275390625
1782846779196177000,6.156177001953125,-0.77130126953125,-0.14178466796875,-0.0357513427734375
1782846779206182000,6.166181884765625,-0.8450775146484375,-0.2567901611328125,-0.0368194580078125
1782846779216186000,6.17618603515625,-0.93267822265625,-0.3371429443359375,0.008209228515625
1782846779226191000,6.186191162109375,-1.0577239990234375,-0.3682403564453125,0.1158447265625
1782846779236196000,6.196196044921875,-1.24444580078125,-0.364349365234375,0.2413330078125
1782846779246200000,6.206199951171875,-1.4795379638671875,-0.3561859130859375,0.3382720947265625
1782846779256205000,6.216205078125,-1.6953887939453125,-0.3829498291015625,0.3845062255859375
1782846779266210000,6.2262099609375,-1.8907470703125,-0.4427490234375,0.42510986328125
1782846779276214000,6.236214111328125,-2.1955413818359375,-0.4871673583984375,0.7195281982421875
1782846779286219000,6.246218994140625,-2.410308837890625,-0.63372802734375,0.7526702880859375
1782846779296224000,6.25622412109375,-2.2727508544921875,-0.7573394775390625,0.609527587890625
1782846779306228000,6.26622802734375,-2.3607635498046875,-0.8196868896484375,0.5374755859375
1782846779316233000,6.27623291015625,-2.423614501953125,-0.82415771484375,0.3038330078125
1782846779326238000,6.286238037109375,-2.4445343017578125,-0.74127197265625,0.2061920166015625
1782846779336242000,6.296241943359375,-2.382354736328125,-0.6804351806640625,0.1646728515625
1782846779346247000,6.306246826171875,-2.2100982666015625,-0.6437835693359375,0.1599273681640625
1782846779356252000,6.316251953125,-2.0475006103515625,-0.608001708984375,0.1715850830078125
1782846779366255900,6.326255859375,-1.8749847412109375,-0.55419921875,0.1327056884765625
1782846779376261000,6.33626123046875,-1.69488525390625,-0.4690704345703125,0.0906829833984375
1782846779386266000,6.34626611328125,-1.57012939453125,-0.3924102783203125,0.0910491943359375
1782846779396270000,6.35627001953125,-1.4360504150390625,-0.3223114013671875,0.1156005859375
1782846779406275000,6.366275146484375,-1.2578582763671875,-0.2397918701171875,0.1348876953125
1782846779416280000,6.376280029296875,-1.0926513671875,-0.1794586181640625,0.116546630859375
1782846779426284000,6.386283935546875,-0.94659423828125,-0.1127471923828125,0.1197967529296875
1782846779436289000,6.3962890625,-0.82073974609375,-0.0750885009765625,0.1073760986328125
1782846779446294000,6.4062939453125,-0.7000579833984375,-0.0458221435546875,0.07659912109375
1782846779456298200,6.41629833984375,-0.592742919921875,-0.023406982421875,0.0643157958984375
1782846779466303200,6.42630322265625,-0.49041748046875,-0.021697998046875,0.098297119140625
1782846779476308200,6.43630810546875,-0.437530517578125,0.0400238037109375,0.0991058349609375
1782846779486312000,6.44631201171875,-0.4433746337890625,0.0957183837890625,0.076995849609375
1782846779496317000,6.45631689453125,-0.4520416259765625,0.1241607666015625,0.0555572509765625
1782846779506322000,6.466322021484375,-0.39459228515625,0.1453399658203125,0.0619049072265625
1782846779516326000,6.476325927734375,-0.33038330078125,0.128936767578125,0.087982177734375
1782846779526331000,6.486330810546875,-0.2364959716796875,0.08953857421875,0.104278564453125
1782846779536336000,6.4963359375,-0.1194610595703125,0.0440673828125,0.0704193115234375
1782846779546340000,6.506340087890625,-0.06256103515625,0.0278778076171875,0.0699462890625
1782846779556345000,6.516344970703125,0.0043792724609375,0.0263214111328125,0.0782318115234375
1782846779566350000,6.52635009765625,0.0759429931640625,-0.002227783203125,0.0513916015625
1782846779576354000,6.53635400390625,0.095794677734375,-0.0067901611328125,0.020233154296875
1782846779586359000,6.546359130859375,0.0976715087890625,-0.01214599609375,-0.0084075927734375
1782846779596364000,6.556364013671875,0.095428466796875,-0.01165771484375,-0.022674560546875
1782846779606368000,6.566367919921875,0.081329345703125,-0.0073089599609375,-0.01446533203125
1782846779616373000,6.576373046875,0.0638580322265625,-0.0000457763671875,0.003875732421875
1782846779626378000,6.5863779296875,0.0308837890625,0.01800537109375,0.0035858154296875
1782846779636382200,6.59638232421875,-0.0126190185546875,0.0247955322265625,0.00933837890625
1782846779646387200,6.60638720703125,-0.035125732421875,0.022064208984375,0.03179931640625
1782846779656392200,6.61639208984375,-0.047088623046875,0.014495849609375,0.0511016845703125
1782846779666396000,6.62639599609375,-0.066436767578125,0.0176849365234375,0.0523681640625
1782846779676401000,6.63640087890625,-0.107147216796875,0.013153076171875,0.0100250244140625
1782846779686406000,6.646406005859375,-0.1679229736328125,-0.0135650634765625,0.0004119873046875
1782846779696409900,6.656409912109375,-0.2401123046875,-0.0686187744140625,-0.0298614501953125
1782846779706414800,6.666414794921875,-0.3116607666015625,-0.13006591796875,-0.0471954345703125
1782846779716419800,6.676419921875,-0.4404449462890625,-0.1796112060546875,-0.01568603515625
1782846779726424000,6.686424072265625,-0.648895263671875,-0.2300262451171875,0.032501220703125
1782846779736429000,6.696428955078125,-0.8865814208984375,-0.2750396728515625,0.0688629150390625
1782846779746434000,6.70643408203125,-1.1699066162109375,-0.2968597412109375,0.1030120849609375
1782846779756438000,6.71643798828125,-1.4105224609375,-0.306976318359375,0.149627685546875
1782846779766443000,6.726443115234375,-1.4732513427734375,-0.3113861083984375,0.2789154052734375
1782846779776448000,6.736447998046875,-1.4833831787109375,-0.3678436279296875,0.3603057861328125
1782846779786452000,6.746451904296875,-1.53662109375,-0.5424652099609375,0.3585662841796875
1782846779796457000,6.75645703125,-1.6380462646484375,-0.8300933837890625,0.271820068359375
1782846779806462200,6.766462158203125,-1.658843994140625,-1.01885986328125,0.2047119140625
1782846779816466400,6.776466552734375,-1.6154632568359375,-1.0458984375,0.18316650390625
1782846779826471400,6.786471435546875,-1.7706451416015625,-0.9562835693359375,0.208038330078125
1782846779836476400,6.796476318359375,-2.0232391357421875,-0.6885986328125,0.309722900390625
1782846779846480400,6.80648046875,-2.0953216552734375,-0.327484130859375,0.40478515625
1782846779856485400,6.8164853515625,-2.0361480712890625,-0.0859375,0.4005126953125
1782846779866490400,6.826490478515625,-2.030487060546875,-0.0639495849609375,0.25
1782846779876494300,6.836494384765625,-1.9432373046875,-0.196319580078125,0.0953369140625
1782846779886499300,6.846499267578125,-1.7776336669921875,-0.3921356201171875,0.0307769775390625
1782846779896504300,6.85650439453125,-1.498291015625,-0.6167755126953125,0.06787109375
1782846779906508500,6.866508544921875,-1.1373138427734375,-0.8509063720703125,0.15765380859375
1782846779916513500,6.876513427734375,-0.8485260009765625,-0.956390380859375,0.2374267578125
1782846779926518500,6.8865185546875,-0.7322540283203125,-0.9435577392578125,0.2317352294921875
1782846779936522500,6.8965224609375,-0.766326904296875,-0.8143157958984375,0.184600830078125
1782846779946527500,6.906527587890625,-0.837371826171875,-0.6173248291015625,0.153350830078125
1782846779956532500,6.916532470703125,-0.8843994140625,-0.453765869140625,0.1507110595703125
1782846779966537500,6.926537353515625,-0.9241790771484375,-0.328216552734375,0.1508941650390625
1782846779976541200,6.936541259765625,-0.9764862060546875,-0.2249298095703125,0.1296844482421875
1782846779986546200,6.946546142578125,-1.0301361083984375,-0.1351470947265625,0.114654541015625
1782846779996551200,6.95655126953125,-1.01171875,-0.083648681640625,0.10968017578125
1782846780006555400,6.966555419921875,-0.942291259765625,-0.07373046875,0.1065673828125
1782846780016560400,6.976560302734375,-0.8431396484375,-0.0924530029296875,0.0818023681640625
1782846780026565400,6.9865654296875,-0.7496337890625,-0.1273956298828125,0.0450286865234375
1782846780036569300,6.9965693359375,-0.674224853515625,-0.1502838134765625,0.019195556640625
1782846780046574300,7.00657421875,-0.594573974609375,-0.1743621826171875,-0.01214599609375
1782846780056579300,7.016579345703125,-0.53680419921875,-0.1860198974609375,-0.059722900390625
1782846780066583300,7.026583251953125,-0.5297698974609375,-0.2011871337890625,-0.072418212890625
1782846780076588300,7.03658837890625,-0.5422210693359375,-0.2158203125,-0.0582427978515625
1782846780086592500,7.046592529296875,-0.5345611572265625,-0.2329864501953125,-0.0228729248046875
1782846780096597500,7.056597412109375,-0.4986572265625,-0.2312164306640625,0.0465545654296875
1782846780106602500,7.0666025390625,-0.448089599609375,-0.2159576416015625,0.125396728515625
1782846780116607500,7.076607421875,-0.4428253173828125,-0.2105712890625,0.1741180419921875
1782846780126611500,7.086611572265625,-0.469757080078125,-0.1972198486328125,0.19622802734375
1782846780136616400,7.096616455078125,-0.4956512451171875,-0.17913818359375,0.1733551025390625
1782846780146620200,7.1066201171875,-0.5207672119140625,-0.154998779296875,0.1427764892578125
1782846780156625200,7.116625244140625,-0.538726806640625,-0.1260528564453125,0.122283935546875
1782846780166630400,7.12663037109375,-0.555755615234375,-0.082611083984375,0.1021270751953125
1782846780176635400,7.136635498046875,-0.5787506103515625,-0.0313568115234375,0.0863189697265625
1782846780186639400,7.146639404296875,-0.60833740234375,0.0114898681640625,0.0785064697265625
1782846780196644400,7.156644287109375,-0.6592559814453125,0.0453338623046875,0.0548858642578125
1782846780206649300,7.1666494140625,-0.7012786865234375,0.0727386474609375,0.0207977294921875
1782846780216653300,7.1766533203125,-0.731689453125,0.080230712890625,0.00823974609375
1782846780226658300,7.186658203125,-0.7785491943359375,0.061126708984375,0.03204345703125
1782846780236663300,7.196663330078125,-0.82470703125,0.0233306884765625,0.0453948974609375
1782846780246667300,7.206667236328125,-0.8939056396484375,-0.036346435546875,0.06683349609375
1782846780256672300,7.21667236328125,-0.9774627685546875,-0.1269073486328125,0.08929443359375
1782846780266677500,7.226677490234375,-1.042633056640625,-0.234161376953125,0.116363525390625
1782846780276681500,7.236681396484375,-1.154327392578125,-0.3508758544921875,0.163238525390625
1782846780286686500,7.2466865234375,-1.3408966064453125,-0.4607391357421875,0.1930084228515625
1782846780296691500,7.25669140625,-1.5401611328125,-0.538665771484375,0.2360687255859375
1782846780306695400,7.2666953125,-1.71405029296875,-0.58721923828125,0.286224365234375
1782846780316700400,7.276700439453125,-1.874908447265625,-0.6270294189453125,0.32568359375
1782846780326705400,7.286705322265625,-2.0500640869140625,-0.6626434326171875,0.3875579833984375
1782846780336709400,7.29670947265625,-2.2082061767578125,-0.7056121826171875,0.4332275390625
1782846780346714600,7.306714599609375,-2.32061767578125,-0.7807159423828125,0.5140838623046875
1782846780356719600,7.3167197265625,-2.3813018798828125,-0.9038238525390625,0.56689453125
1782846780366723300,7.326723388671875,-2.3705596923828125,-1.00341796875,0.5281524658203125
1782846780376728300,7.336728271484375,-2.304107666015625,-1.0576171875,0.3974609375
1782846780386733300,7.3467333984375,-2.1944732666015625,-1.0719451904296875,0.22607421875
1782846780396737300,7.3567373046875,-2.06292724609375,-1.0666656494140625,0.09320068359375
1782846780406742300,7.3667421875,-1.93585205078125,-1.04931640625,0.05377197265625
1782846780416747300,7.376747314453125,-1.8065338134765625,-1.0315399169921875,0.0867767333984375
1782846780426751500,7.38675146484375,-1.6428070068359375,-0.973602294921875,0.1796722412109375
1782846780436756500,7.396756591796875,-1.4558868408203125,-0.83489990234375,0.3030242919921875
1782846780446761500,7.406761474609375,-1.32470703125,-0.693511962890625,0.3742828369140625
1782846780456765400,7.416765380859375,-1.2415924072265625,-0.5601043701171875,0.3968505859375
1782846780466770400,7.4267705078125,-1.160369873046875,-0.423004150390625,0.404541015625
1782846780476775400,7.436775390625,-1.0737152099609375,-0.303070068359375,0.3927154541015625
1782846780486779400,7.446779296875,-0.9493255615234375,-0.2211761474609375,0.3530731201171875
1782846780496784400,7.456784423828125,-0.7720794677734375,-0.159942626953125,0.2932586669921875
1782846780506789400,7.466789306640625,-0.5807647705078125,-0.1121368408203125,0.213714599609375
1782846780516793600,7.476793701171875,-0.39691162109375,-0.0800628662109375,0.119842529296875
1782846780526798600,7.486798583984375,-0.24725341796875,-0.059722900390625,0.01727294921875
1782846780536803600,7.496803466796875,-0.1343994140625,-0.0297393798828125,-0.0555572509765625
1782846780546807300,7.506807373046875,-0.027191162109375,-0.0049896240234375,-0.089385986328125
1782846780556812300,7.516812255859375,0.0259857177734375,0.03985595703125,-0.1216888427734375
1782846780566817300,7.5268173828125,0.0574493408203125,0.0630035400390625,-0.160491943359375
1782846780576821200,7.5368212890625,0.078948974609375,0.07763671875,-0.1687164306640625
1782846780586826200,7.546826171875,0.06475830078125,0.0962066650390625,-0.1696929931640625
1782846780596831200,7.556831298828125,0.0332183837890625,0.109130859375,-0.15045166015625
1782846780606835500,7.56683544921875,0.058837890625,0.072479248046875,-0.102630615234375
1782846780616840400,7.57684033203125,0.13421630859375,0.0180206298828125,-0.03753662109375
1782846780626845400,7.586845458984375,0.2079315185546875,-0.004150390625,0.007843017578125
1782846780636849400,7.596849365234375,0.251708984375,-0.01385498046875,0.02972412109375
1782846780646854400,7.6068544921875,0.2501068115234375,-0.0078277587890625,0.0372314453125
1782846780656859400,7.616859375,0.2136383056640625,0.00390625,0.0383758544921875
1782846780666863400,7.62686328125,0.1632537841796875,0.0106353759765625,0.0487518310546875
1782846780676868400,7.636868408203125,0.1163787841796875,0.02008056640625,0.069244384765625
1782846780686873300,7.646873291015625,0.05084228515625,0.0368804931640625,0.0950164794921875
1782846780696877600,7.656877685546875,-0.0370941162109375,0.0502471923828125,0.1188812255859375
1782846780706882600,7.666882568359375,-0.137542724609375,0.0551300048828125,0.131134033203125
1782846780716887600,7.676887451171875,-0.213531494140625,0.052459716796875,0.1381683349609375
1782846780726891300,7.686891357421875,-0.2481689453125,0.0449371337890625,0.1464996337890625
1782846780736896300,7.696896240234375,-0.2731781005859375,0.0482177734375,0.1648406982421875
1782846780746901200,7.7069013671875,-0.32513427734375,0.0487518310546875,0.157989501953125
1782846780756905200,7.7169052734375,-0.391204833984375,0.015899658203125,0.1218414306640625
1782846780766910200,7.72691015625,-0.47064208984375,-0.0445556640625,0.0839996337890625
1782846780776915200,7.736915283203125,-0.5714569091796875,-0.1154632568359375,0.06365966796875
1782846780786919400,7.74691943359375,-0.656646728515625,-0.194183349609375,0.0659332275390625
1782846780796924400,7.75692431640625,-0.754791259765625,-0.292999267578125,0.1335296630859375
1782846780806929400,7.766929443359375,-0.8956756591796875,-0.42059326171875,0.2593231201171875
1782846780816933400,7.776933349609375,-1.0609283447265625,-0.5106658935546875,0.32586669921875
1782846780826938400,7.7869384765625,-1.27056884765625,-0.4859771728515625,0.361968994140625
1782846780836943400,7.796943359375,-1.5193634033203125,-0.4170379638671875,0.380706787109375
1782846780846947000,7.806947021484375,-1.7256927490234375,-0.3810882568359375,0.4074859619140625
1782846780856952000,7.8169521484375,-1.8428955078125,-0.4751434326171875,0.44378662109375
1782846780866957300,7.826957275390625,-1.8919677734375,-0.6566162109375,0.4438934326171875
1782846780876961300,7.836961181640625,-1.8600616455078125,-0.814910888671875,0.4031524658203125
1782846780886966300,7.84696630859375,-1.8081817626953125,-0.8531494140625,0.383514404296875
1782846780896971300,7.85697119140625,-1.83612060546875,-0.7293243408203125,0.4104156494140625
1782846780906975200,7.866975341796875,-1.8546295166015625,-0.4862823486328125,0.439666748046875
1782846780916980200,7.876980224609375,-1.8392791748046875,-0.27947998046875,0.49810791015625
1782846780926985200,7.886985107421875,-1.8548583984375,-0.2070159912109375,0.5047607421875
1782846780936989200,7.8969892578125,-1.9438934326171875,-0.215972900390625,0.3949127197265625
1782846780946994400,7.906994384765625,-1.915191650390625,-0.331634521484375,0.3582763671875
1782846780956999400,7.91699951171875,-1.7380218505859375,-0.547821044921875,0.35186767578125
1782846780967003400,7.92700341796875,-1.46435546875,-0.75537109375,0.31536865234375
1782846780977008400,7.93700830078125,-1.1896514892578125,-0.8783416748046875,0.2436370849609375
1782846780987013400,7.947013427734375,-1.0635223388671875,-0.8776702880859375,0.17669677734375
1782846780997017300,7.957017333984375,-1.085968017578125,-0.7651519775390625,0.1709136962890625
1782846781007022300,7.967022216796875,-1.1289215087890625,-0.6088714599609375,0.167266845703125
1782846781017027300,7.97702734375,-1.1468963623046875,-0.46630859375,0.1574249267578125
1782846781027031300,7.98703125,-1.156951904296875,-0.35858154296875,0.1570892333984375
1782846781037036500,7.99703662109375,-1.1484832763671875,-0.26837158203125,0.175994873046875
1782846781047041500,8.00704150390625,-1.10235595703125,-0.2099456787109375,0.1943206787109375
1782846781057045200,8.017045166015626,-1.0027313232421875,-0.1863861083984375,0.2033843994140625
1782846781067050200,8.02705029296875,-0.9025726318359375,-0.158294677734375,0.19842529296875
1782846781077055200,8.03705517578125,-0.8193511962890625,-0.136260986328125,0.1612548828125
1782846781087059200,8.04705908203125,-0.7446441650390625,-0.1246337890625,0.1072235107421875
1782846781097064200,8.057064208984375,-0.6949310302734375,-0.1111602783203125,0.0704193115234375
1782846781107069200,8.067069091796874,-0.63983154296875,-0.116241455078125,0.0578155517578125
1782846781117073400,8.077073486328125,-0.5696563720703125,-0.1238555908203125,0.048431396484375
1782846781127078400,8.087078369140626,-0.4976043701171875,-0.12799072265625,0.032501220703125
1782846781137083400,8.09708349609375,-0.4555206298828125,-0.128631591796875,0.0208587646484375
1782846781147087400,8.10708740234375,-0.408050537109375,-0.1093902587890625,0.045440673828125
1782846781157092400,8.11709228515625,-0.3596343994140625,-0.1169586181640625,0.0635986328125
1782846781167097300,8.127097412109375,-0.3299713134765625,-0.115020751953125,0.0921173095703125
1782846781177101300,8.137101318359376,-0.3042449951171875,-0.115264892578125,0.1157073974609375
1782846781187106300,8.147106201171875,-0.29937744140625,-0.097808837890625,0.1337738037109375
1782846781197111300,8.157111328125,-0.3230438232421875,-0.0624847412109375,0.1378631591796875
1782846781207115500,8.167115478515624,-0.363067626953125,-0.024383544921875,0.133331298828125
1782846781217120500,8.17712060546875,-0.447601318359375,-0.000946044921875,0.1242828369140625
1782846781227125500,8.18712548828125,-0.546478271484375,0.004913330078125,0.1198883056640625
1782846781237130500,8.197130615234375,-0.6536712646484375,-0.0016021728515625,0.1264801025390625
1782846781247134200,8.20713427734375,-0.7716827392578125,-0.02203369140625,0.1427001953125
1782846781257139200,8.21713916015625,-0.9049530029296875,-0.05340576171875,0.166290283203125
1782846781267144200,8.227144287109375,-1.0475921630859375,-0.1182098388671875,0.2140655517578125
1782846781277148200,8.237148193359374,-1.1768951416015625,-0.2011260986328125,0.2440643310546875
1782846781287153200,8.247153076171875,-1.295257568359375,-0.26446533203125,0.226959228515625
1782846781297157400,8.257157470703126,-1.4154815673828125,-0.32757568359375,0.206756591796875
1782846781307162400,8.267162353515625,-1.5064239501953125,-0.3874053955078125,0.177581787109375
1782846781317167400,8.27716748046875,-1.5533905029296875,-0.44635009765625,0.16455078125
1782846781327172400,8.28717236328125,-1.59503173828125,-0.4575958251953125,0.173614501953125
1782846781337176300,8.29717626953125,-1.6739959716796875,-0.46295166015625,0.2178497314453125
1782846781347181300,8.307181396484374,-1.78857421875,-0.5024566650390625,0.251251220703125
1782846781357186300,8.317186279296875,-1.88922119140625,-0.5538177490234375,0.22686767578125
1782846781367190300,8.327190185546876,-1.9608001708984375,-0.628143310546875,0.18951416015625
1782846781377195300,8.3371953125,-2.0285186767578125,-0.7281494140625,0.192596435546875
1782846781387200300,8.3472001953125,-2.0803070068359375,-0.8314056396484375,0.2323150634765625
1782846781397204500,8.35720458984375,-2.09405517578125,-0.91326904296875,0.27532958984375
1782846781407209500,8.36720947265625,-2.083740234375,-0.9709930419921875,0.29608154296875
1782846781417214500,8.37721435546875,-2.06964111328125,-0.964599609375,0.280487060546875
1782846781427218200,8.38721826171875,-2.031402587890625,-0.91729736328125,0.2681427001953125
1782846781437223200,8.39722314453125,-1.9717864990234375,-0.8232269287109375,0.2749786376953125
1782846781447228200,8.407228271484374,-1.9243927001953125,-0.684967041015625,0.2913970947265625
1782846781457232100,8.417232177734375,-1.857177734375,-0.537384033203125,0.2978515625
1782846781467237000,8.427237060546876,-1.7279510498046875,-0.395538330078125,0.2868194580078125
1782846781477242000,8.4372421875,-1.55841064453125,-0.2772216796875,0.2616729736328125
1782846781487246300,8.447246337890626,-1.3690185546875,-0.1982879638671875,0.2342071533203125
1782846781497251300,8.457251220703125,-1.156158447265625,-0.1411285400390625,0.2227020263671875
1782846781507256300,8.46725634765625,-0.9453887939453125,-0.1056365966796875,0.2146759033203125
1782846781517260300,8.47726025390625,-0.7570037841796875,-0.0955657958984375,0.20648193359375
1782846781527265300,8.487265380859375,-0.576934814453125,-0.105865478515625,0.175384521484375
1782846781537270300,8.497270263671876,-0.4143829345703125,-0.1055755615234375,0.116485595703125
1782846781547274200,8.507274169921875,-0.2834625244140625,-0.07159423828125,0.0646209716796875
1782846781557279200,8.517279296875,-0.1836090087890625,-0.0167083740234375,0.0293731689453125
1782846781567284200,8.5272841796875,-0.0996551513671875,0.0218963623046875,-0.0041656494140625
1782846781577288400,8.537288330078125,-0.016082763671875,0.0293121337890625,-0.0317535400390625
1782846781587293400,8.54729345703125,0.0603179931640625,0.01824951171875,-0.045379638671875
1782846781597298400,8.55729833984375,0.1312408447265625,0.021026611328125,-0.0693511962890625
1782846781607302100,8.56730224609375,0.1581878662109375,0.0352935791015625,-0.1036376953125
1782846781617307100,8.57730712890625,0.1788787841796875,0.0362396240234375,-0.097808837890625
1782846781627312400,8.5873125,0.203216552734375,0.01470947265625,-0.0751800537109375
1782846781637316400,8.59731640625,0.2276458740234375,-0.01251220703125,-0.045166015625
1782846781647321300,8.6073212890625,0.23541259765625,-0.021026611328125,-0.0308074951171875
1782846781657326300,8.617326416015626,0.1954345703125,-0.0088043212890625,-0.0362091064453125
1782846781667330300,8.627330322265625,0.1355438232421875,0.01568603515625,-0.0581817626953125
1782846781677335300,8.637335205078125,0.125274658203125,0.03924560546875,-0.0710601806640625
1782846781687340300,8.64734033203125,0.078521728515625,0.04302978515625,-0.0330352783203125
1782846781697344300,8.65734423828125,0.141357421875,0.0631103515625,0.0646514892578125
1782846781707349200,8.667349365234376,0.095184326171875,0.029541015625,0.0964508056640625
1782846781717354200,8.677354248046875,0.02288818359375,0.016357421875,0.0969390869140625
