time,seconds_elapsed,z,y,x
1782846773108331800,0.068331787109375,-0.4104112386703491,-0.2028239518404007,0.4927617609500885
1782846773118336800,0.078336669921875,-0.44090336561203003,-0.269659161567688,0.275559663772583
1782846773128340700,0.0883408203125,-0.4531749486923218,-0.330518513917923,0.1275624930858612
1782846773138345700,0.098345703125,-0.4196965992450714,-0.35498765110969543,0.08438438922166824
1782846773148350700,0.108350830078125,-0.358679860830307,-0.25704139471054077,0.013547500595450401
1782846773158354700,0.118354736328125,-0.3065766990184784,-0.29264357686042786,-0.04585137963294983
1782846773168359700,0.128359619140625,-0.29768094420433044,-0.23116184771060944,-0.07530780136585236
1782846773178364700,0.13836474609375,-0.28545305132865906,-0.15160417556762695,-0.09703759849071503
1782846773188369000,0.148368896484375,-0.21442973613739014,-0.16737434267997742,-0.1375456154346466
1782846773198374000,0.158373779296875,-0.19049431383609772,-0.22680731117725372,-0.17010381817817688
1782846773208379000,0.16837890625,-0.23035651445388794,-0.2962271273136139,-0.18242226541042328
1782846773218382800,0.1783828125,-0.29636749625205994,-0.353450745344162,-0.2136680781841278
1782846773228387800,0.188387939453125,-0.34310221672058105,-0.3956003189086914,-0.26246702671051025
1782846773238392800,0.198392822265625,-0.36942651867866516,-0.3814496099948883,-0.28039810061454773
1782846773248396800,0.208396728515625,-0.38604968786239624,-0.3707224130630493,-0.24154284596443176
1782846773258401800,0.21840185546875,-0.3856169283390045,-0.377958744764328,-0.17390574514865875
1782846773268406800,0.22840673828125,-0.3724132478237152,-0.43808600306510925,-0.12228276580572128
1782846773278410800,0.23841064453125,-0.3515452444553375,-0.5175858736038208,-0.11894263327121735
1782846773288415700,0.248415771484375,-0.325061172246933,-0.5842661261558533,-0.15368783473968506
1782846773298420700,0.258420654296875,-0.27922844886779785,-0.6278101205825806,-0.2314968705177307
1782846773308425700,0.26842578125,-0.22543925046920776,-0.6125483512878418,-0.34383806586265564
1782846773318429700,0.2784296875,-0.1598980575799942,-0.544539749622345,-0.48024916648864746
1782846773328434700,0.2884345703125,-0.11028788983821869,-0.4039466679096222,-0.6164695620536804
1782846773338439700,0.298439697265625,-0.11161414533853531,-0.22000214457511902,-0.7133689522743225
1782846773348443600,0.308443603515625,-0.1397286057472229,-0.0631219744682312,-0.7640007138252258
1782846773358448600,0.31844873046875,-0.15666525065898895,0.02022590860724449,-0.7045032978057861
1782846773368453600,0.32845361328125,-0.1649114489555359,0.01671985723078251,-0.5027584433555603
1782846773378457900,0.338457763671875,-0.14734098315238953,-0.0020501012913882732,-0.2091446965932846
1782846773388462800,0.348462890625,-0.11219125241041183,-0.013399162329733372,0.09487191587686539
1782846773398467800,0.3584677734375,-0.08893546462059021,-0.04441247135400772,0.35356631875038147
1782846773408471800,0.368471923828125,-0.07709664851427078,-0.08654927462339401,0.568004310131073
1782846773418476800,0.378476806640625,-0.06755907088518143,-0.09646262228488922,0.7381853461265564
1782846773428481800,0.388481689453125,-0.06891914457082748,-0.09634411334991455,0.8309839963912964
1782846773438485800,0.39848583984375,-0.09774653613567352,-0.08894984424114227,0.8263458609580994
1782846773448490800,0.40849072265625,-0.14332227408885956,-0.06217096373438835,0.729617178440094
1782846773458495700,0.418495849609375,-0.20142285525798798,-0.039627037942409515,0.5731700658798218
1782846773468499700,0.428499755859375,-0.25474652647972107,-0.008873386308550835,0.38328081369400024
1782846773478504700,0.438504638671875,-0.2850455939769745,0.030297718942165375,0.1961095929145813
1782846773488509700,0.448509765625,-0.3076832592487335,0.07090133428573608,0.05468694865703583
1782846773498513700,0.458513671875,-0.3283781409263611,0.13214153051376343,-0.0169675312936306
1782846773508518700,0.4685185546875,-0.33831414580345154,0.20816491544246674,-0.01600826159119606
1782846773518523600,0.478523681640625,-0.3611648678779602,0.27016890048980713,0.051245611160993576
1782846773528527600,0.488527587890625,-0.39040422439575195,0.29457545280456543,0.16805265843868256
1782846773538532600,0.49853271484375,-0.41825050115585327,0.293153315782547,0.3000493049621582
1782846773548537900,0.508537841796875,-0.47529488801956177,0.33476200699806213,0.41688111424446106
1782846773558541800,0.518541748046875,-0.5342066884040833,0.46655598282814026,0.549247682094574
1782846773568546800,0.528546875,-0.5334399342536926,0.6056203842163086,0.6909158825874329
1782846773578551800,0.5385517578125,-0.4384167790412903,0.7313055992126465,0.8162854909896851
1782846773588556800,0.548556884765625,-0.24240145087242126,0.781547486782074,0.8714033365249634
1782846773598560800,0.558560791015625,-0.0038863508962094784,0.6850795149803162,0.8806218504905701
1782846773608565800,0.568565673828125,0.19826409220695496,0.5238640308380127,0.9757475852966309
1782846773618570800,0.57857080078125,0.2229747623205185,0.3219817578792572,1.0990184545516968
1782846773628575000,0.588574951171875,0.11218086630105972,0.14561499655246735,0.9916549324989319
1782846773638580000,0.598580078125,0.04957447573542595,0.22723715007305145,0.03141917660832405
1782846773648585000,0.6085849609375,-0.2209499627351761,0.30150339007377625,-1.369260311126709
1782846773658588700,0.618588623046875,-0.6639015674591064,0.08129218965768814,-2.053997278213501
1782846773668593700,0.62859375,-0.868366003036499,-0.2405116707086563,-1.9557408094406128
1782846773678599000,0.638598876953125,-0.6565027832984924,-0.6695610284805298,-1.4749243259429932
1782846773688602600,0.6486025390625,-0.23133628070354462,-1.1440238952636719,-0.7915255427360535
1782846773698607600,0.658607666015625,0.04628627374768257,-1.3439644575119019,0.06124045327305794
1782846773708612600,0.668612548828125,0.10176284611225128,-1.0766249895095825,0.9320134520530701
1782846773718616800,0.678616943359375,0.07482949644327164,-0.5483765602111816,1.6052629947662354
1782846773728621800,0.688621826171875,0.14917829632759094,-0.05847183242440224,1.7239056825637817
1782846773738626800,0.698626708984375,0.3776719272136688,0.2608257234096527,1.1695802211761475
1782846773748630800,0.708630859375,0.5826700925827026,0.32416608929634094,0.2933748960494995
1782846773758635800,0.7186357421875,0.6251000761985779,0.17497846484184265,-0.44064611196517944
1782846773768640800,0.728640869140625,0.5342894792556763,-0.03506184741854668,-0.8198309540748596
1782846773778644700,0.738644775390625,0.4002624452114105,-0.18973371386528015,-0.881965160369873
1782846773788649700,0.748649658203125,0.30354735255241394,-0.27589043974876404,-0.7014268040657043
1782846773798655000,0.758655029296875,0.24372424185276031,-0.2907290458679199,-0.3975098133087158
1782846773808659200,0.7686591796875,0.22566455602645874,-0.24702709913253784,-0.07760078459978104
1782846773818664200,0.778664306640625,0.25723686814308167,-0.14742061495780945,0.1975807249546051
1782846773828669200,0.788669189453125,0.31503838300704956,-0.050696201622486115,0.40466973185539246
1782846773838673200,0.798673095703125,0.37452858686447144,0.02009647898375988,0.5333065390586853
1782846773848678100,0.80867822265625,0.40732941031455994,0.05865345895290375,0.5685931444168091
1782846773858683100,0.81868310546875,0.35839489102363586,0.05958769470453262,0.5262171626091003
1782846773868688100,0.828688232421875,0.22089242935180664,-0.002671150490641594,0.4129590690135956
1782846773878691800,0.83869189453125,0.01805276982486248,-0.08179979026317596,0.23856942355632782
1782846773888696800,0.84869677734375,-0.2047656625509262,-0.15392164885997772,0.033793117851018906
1782846773898701800,0.858701904296875,-0.41970565915107727,-0.18767961859703064,-0.1657780408859253
1782846773908706000,0.8687060546875,-0.5887239575386047,-0.1494044065475464,-0.3395722210407257
1782846773918711000,0.8787109375,-0.7004369497299194,-0.08476602286100388,-0.4799056053161621
1782846773928716000,0.888716064453125,-0.7447916269302368,-0.03621206805109978,-0.6156413555145264
1782846773938720000,0.898719970703125,-0.7240743637084961,-0.029808761551976204,-0.7470278739929199
1782846773948725000,0.90872509765625,-0.6437802910804749,-0.06085429713129997,-0.8648631572723389
1782846773958730000,0.91872998046875,-0.5329076051712036,-0.11510182172060013,-0.9453625082969666
1782846773968734000,0.92873388671875,-0.4080921411514282,-0.1467694640159607,-0.9699637293815613
1782846773978739000,0.938739013671875,-0.2902046740055084,-0.17523333430290222,-0.9302487969398499
1782846773988744000,0.948743896484375,-0.18961334228515625,-0.2045680582523346,-0.8364443182945251
1782846773998748200,0.958748046875,-0.1147361695766449,-0.19577695429325104,-0.6910977363586426
1782846774008753200,0.968753173828125,-0.06614786386489868,-0.18601647019386292,-0.5287498831748962
1782846774018758100,0.978758056640625,-0.049256496131420135,-0.21293410658836365,-0.3913848102092743
1782846774028762000,0.98876220703125,-0.07229230552911758,-0.25540459156036377,-0.320313036441803
1782846774038767000,0.99876708984375,-0.12554380297660828,-0.2790204584598541,-0.3055135905742645
1782846774048772000,1.008772216796875,-0.19692717492580414,-0.28447088599205017,-0.33139950037002563
1782846774058775800,1.01877587890625,-0.28898999094963074,-0.2424784153699875,-0.38431093096733093
1782846774068780800,1.02878076171875,-0.38395431637763977,-0.13943645358085632,-0.4269004464149475
1782846774078785800,1.038785888671875,-0.4714146554470062,-0.017224259674549103,-0.4462432563304901
1782846774088790000,1.0487900390625,-0.588622510433197,0.0665593221783638,-0.49247705936431885
1782846774098795000,1.058794921875,-0.6521732807159424,0.14428819715976715,-0.5600215196609497
1782846774108800000,1.068800048828125,-0.6237682700157166,0.13695625960826874,-0.6283233165740967
1782846774118804000,1.078803955078125,-0.5252576470375061,0.005365470424294472,-0.632107138633728
1782846774128809000,1.08880908203125,-0.41595059633255005,-0.13611575961112976,-0.4864948093891144
1782846774138814000,1.09881396484375,-0.29256927967071533,-0.20726263523101807,-0.1882743090391159
1782846774148818000,1.10881787109375,-0.12605832517147064,-0.21227018535137177,0.20714998245239258
1782846774158823000,1.118822998046875,0.09267720580101013,-0.16959142684936523,0.613727867603302
1782846774168828000,1.128827880859375,0.32964953780174255,-0.08178327977657318,0.9627708196640015
1782846774178833000,1.1388330078125,0.5704682469367981,0.00905714463442564,1.1687889099121094
1782846774188837000,1.148837158203125,0.7577481269836426,0.08808085322380066,1.1673966646194458
1782846774198842000,1.158842041015625,0.8916524052619934,0.16433700919151306,0.9828092455863953
1782846774208847000,1.16884716796875,0.9402042627334595,0.15871773660182953,0.6898798942565918
1782846774218851000,1.17885107421875,0.8539298176765442,0.03843607380986214,0.38907238841056824
1782846774228856000,1.18885595703125,0.6505372524261475,-0.18837523460388184,0.15789562463760376
1782846774238861000,1.198861083984375,0.38955068588256836,-0.44436946511268616,0.023784158751368523
1782846774248865000,1.208864990234375,0.16072949767112732,-0.5818780660629272,-0.03531404957175255
1782846774258870000,1.2188701171875,0.012254535220563412,-0.6104260683059692,-0.05379825085401535
1782846774268875000,1.228875,-0.06864297389984131,-0.5858759880065918,-0.0011193265672773123
1782846774278879000,1.23887890625,-0.11467811465263367,-0.5991635918617249,0.1250505894422531
1782846774288884000,1.248884033203125,-0.1564449965953827,-0.6696518659591675,0.27679750323295593
1782846774298889000,1.258888916015625,-0.20580562949180603,-0.7255920767784119,0.3781294524669647
1782846774308893000,1.268892822265625,-0.24210691452026367,-0.734546959400177,0.4165878891944885
1782846774318898000,1.27889794921875,-0.23232538998126984,-0.7334755659103394,0.3876795470714569
1782846774328903000,1.28890283203125,-0.15889564156532288,-0.7236538529396057,0.29546067118644714
1782846774338907000,1.298906982421875,-0.05606460198760033,-0.6606400012969971,0.0844043642282486
1782846774348912000,1.308912109375,0.01441249530762434,-0.5151328444480896,-0.1840611845254898
1782846774358917000,1.318917236328125,0.0018695390317589045,-0.29399195313453674,-0.3995106518268585
1782846774368921000,1.328921142578125,-0.07670969516038895,-0.05988037586212158,-0.4693315327167511
1782846774378926000,1.338926025390625,-0.14969734847545624,0.12611240148544312,-0.41119712591171265
1782846774388931000,1.34893115234375,-0.18791158497333527,0.2164611965417862,-0.25014618039131165
1782846774398935000,1.35893505859375,-0.20205242931842804,0.26288941502571106,-0.041370343416929245
1782846774408940000,1.36893994140625,-0.2088773101568222,0.28871089220046997,0.16365444660186768
1782846774418945000,1.378945068359375,-0.20032404363155365,0.2936673164367676,0.32489606738090515
1782846774428949000,1.388948974609375,-0.1884295642375946,0.2974625825881958,0.42817452549934387
1782846774438954200,1.398954345703125,-0.1699719876050949,0.2921048402786255,0.4502316117286682
1782846774448959200,1.408959228515625,-0.1456352323293686,0.2414509654045105,0.40967461466789246
1782846774458963000,1.418962890625,-0.12213602662086487,0.16985641419887543,0.32437169551849365
1782846774468968000,1.428968017578125,-0.0997292548418045,0.0865577980875969,0.21591338515281677
1782846774478973000,1.438972900390625,-0.088791124522686,-0.003934287931770086,0.09742189198732376
1782846774488978000,1.44897802734375,-0.09132325649261475,-0.08638868480920792,-0.01170672383159399
1782846774498982000,1.45898193359375,-0.12136770784854889,-0.155284121632576,-0.10800183564424515
1782846774508987000,1.46898681640625,-0.18429207801818848,-0.18682686984539032,-0.18762075901031494
1782846774518992000,1.478991943359375,-0.2725953161716461,-0.17558833956718445,-0.24209146201610565
1782846774528996000,1.48899609375,-0.3573189973831177,-0.1391160786151886,-0.27151966094970703
1782846774539001000,1.4990009765625,-0.4163804352283478,-0.1086532399058342,-0.2769296169281006
1782846774549006000,1.509006103515625,-0.45424580574035645,-0.04218526929616928,-0.271410197019577
1782846774559010000,1.519010009765625,-0.49789392948150635,0.0721474289894104,-0.25497955083847046
1782846774569015000,1.52901513671875,-0.5501582026481628,0.2678394317626953,-0.2232687771320343
1782846774579020000,1.53902001953125,-0.5835220217704773,0.4905183017253876,-0.15900163352489471
1782846774589024000,1.54902392578125,-0.5935123562812805,0.7128589749336243,-0.082339346408844
1782846774599029000,1.559029052734375,-0.5809635519981384,0.9495431780815125,0.016810938715934753
1782846774609034000,1.569033935546875,-0.5071721076965332,1.1769142150878906,0.07904688268899918
1782846774619038200,1.5790380859375,-0.3347007632255554,1.3024415969848633,-0.005596899427473545
1782846774629043200,1.589043212890625,-0.08977675437927246,1.2329015731811523,-0.24653947353363037
1782846774639048200,1.599048095703125,0.11817750334739685,0.9612237811088562,-0.5069558620452881
1782846774649052000,1.609052001953125,0.21984128654003143,0.5530328154563904,-0.6967881321907043
1782846774659057000,1.619056884765625,0.2270725667476654,0.07896485924720764,-1.0277109146118164
1782846774669062000,1.629061767578125,0.16482357680797577,-0.32398977875709534,-1.7543262243270874
1782846774679065900,1.63906591796875,-0.007908523082733154,-0.622620701789856,-2.503345251083374
1782846774689070800,1.64907080078125,-0.3033777177333832,-0.7166340351104736,-2.5526862144470215
1782846774699075800,1.659075927734375,-0.4461420774459839,-0.5255681872367859,-2.148678779602051
1782846774709080000,1.669080078125,-0.23538215458393097,-0.4087856411933899,-1.6186274290084839
1782846774719085000,1.6790849609375,0.14185141026973724,-0.4089728593826294,-0.9604368209838867
1782846774729090000,1.689090087890625,0.39446529746055603,-0.4570242762565613,-0.16426484286785126
1782846774739094000,1.699093994140625,0.37246543169021606,-0.4751383066177368,0.6775068640708923
1782846774749099000,1.70909912109375,0.16285522282123566,-0.4172033667564392,1.4034419059753418
1782846774759104000,1.71910400390625,-0.041007086634635925,-0.38875412940979004,1.7955902814865112
1782846774769109000,1.72910888671875,-0.12333418428897858,-0.4344627559185028,1.6852747201919556
1782846774779113000,1.739113037109375,-0.017614945769309998,-0.5282401442527771,1.1355148553848267
1782846774789118000,1.749117919921875,0.1923135221004486,-0.5810205340385437,0.3730824887752533
1782846774799122200,1.7591220703125,0.3897749185562134,-0.4867584705352783,-0.3746279180049896
1782846774809127200,1.769127197265625,0.5030032396316528,-0.21169812977313995,-0.9271174669265747
1782846774819132200,1.779132080078125,0.5274113416671753,0.10922768712043762,-1.1562305688858032
1782846774829137200,1.78913720703125,0.5161682963371277,0.355244904756546,-1.0807291269302368
1782846774839141000,1.79914111328125,0.4965498447418213,0.48217064142227173,-0.8013970851898193
1782846774849146000,1.80914599609375,0.47496944665908813,0.48154693841934204,-0.42093950510025024
1782846774859151000,1.819151123046875,0.455068975687027,0.3779084086418152,-0.05038008466362953
1782846774869155000,1.829155029296875,0.44804754853248596,0.2640063464641571,0.24337883293628693
1782846774879160000,1.83916015625,0.450469434261322,0.17414303123950958,0.44547227025032043
1782846774889165000,1.8491650390625,0.46171170473098755,0.112992063164711,0.5744451880455017
1782846774899169300,1.859169189453125,0.4508529305458069,0.09735611081123352,0.6520925760269165
1782846774909174300,1.86917431640625,0.41891762614250183,0.09971993416547775,0.713413417339325
1782846774919179300,1.87917919921875,0.3580516278743744,0.0885503739118576,0.7475258708000183
1782846774929183200,1.889183349609375,0.2851947247982025,0.07870333641767502,0.7571619749069214
1782846774939188200,1.899188232421875,0.2157522588968277,0.0723213329911232,0.7389510273933411
1782846774949193200,1.909193115234375,0.14942917227745056,0.08177156001329422,0.6907116174697876
1782846774959197000,1.919197021484375,0.09102125465869904,0.09914468973875046,0.5891095995903015
1782846774969202000,1.929201904296875,0.049974750727415085,0.11335798352956772,0.41471144556999207
1782846774979207000,1.93920703125,0.02683321200311184,0.15371152758598328,0.17367112636566162
1782846774989211100,1.949211181640625,0.012909406796097755,0.21736080944538116,-0.08680946379899979
1782846774999216000,1.959216064453125,0.020489562302827835,0.26567161083221436,-0.3104574680328369
1782846775009221000,1.96922119140625,0.04843144863843918,0.2630348205566406,-0.44563978910446167
1782846775019225000,1.97922509765625,0.09316056966781616,0.21852914988994598,-0.5018351674079895
1782846775029230000,1.98922998046875,0.1477212905883789,0.1789010465145111,-0.47871652245521545
1782846775039235000,1.999235107421875,0.20518910884857178,0.16631360352039337,-0.39345407485961914
1782846775049239000,2.009239013671875,0.24478444457054138,0.15144838392734528,-0.24805746972560883
1782846775059244000,2.019244140625,0.23121963441371918,0.13329413533210754,-0.058759719133377075
1782846775069249300,2.029249267578125,0.1476975828409195,0.11445680260658264,0.1325383335351944
1782846775079254300,2.039254150390625,0.01401941291987896,0.11119789630174637,0.27616313099861145
1782846775089258200,2.04925830078125,-0.12478826940059662,0.17174725234508514,0.35798877477645874
1782846775099263200,2.05926318359375,-0.19210712611675262,0.2895825505256653,0.3488951325416565
1782846775109268200,2.069268310546875,-0.13933232426643372,0.43346327543258667,0.2382860630750656
1782846775119272200,2.079272216796875,0.02148664928972721,0.564794659614563,0.04350726306438446
1782846775129277200,2.089277099609375,0.22630903124809265,0.6268463134765625,-0.16814586520195007
1782846775139282200,2.0992822265625,0.41582757234573364,0.5604939460754395,-0.332488477230072
1782846775149286100,2.1092861328125,0.5352463722229004,0.4883672893047333,-0.41832828521728516
1782846775159291100,2.119291015625,0.5141459107398987,0.4558649957180023,-0.3513455092906952
1782846775169296100,2.129296142578125,0.3479744791984558,0.4129374921321869,-0.12322765588760376
1782846775179300000,2.139300048828125,0.1247994527220726,0.2711404263973236,0.12480878084897995
1782846775189305000,2.14930517578125,-0.06631191074848175,0.027634823694825172,0.34661415219306946
1782846775199310000,2.15931005859375,-0.16013161838054657,-0.17931942641735077,0.5162599086761475
1782846775209314000,2.16931396484375,-0.1461351066827774,-0.2759937644004822,0.6237658262252808
1782846775219319000,2.179319091796875,-0.04915396496653557,-0.22924916446208954,0.6962291598320007
1782846775229324000,2.189323974609375,0.11460886895656586,-0.09826025366783142,0.7264496088027954
1782846775239328300,2.199328369140625,0.3411136567592621,0.03207297995686531,0.6702761054039001
1782846775249333200,2.209333251953125,0.578084409236908,0.0966130942106247,0.5209755301475525
1782846775259338200,2.219338134765625,0.7607130408287048,0.055629972368478775,0.34935081005096436
1782846775269342200,2.22934228515625,0.8362240791320801,-0.1301414966583252,0.24446327984333038
1782846775279347200,2.23934716796875,0.7867395877838135,-0.39101916551589966,0.21495571732521057
1782846775289352200,2.249352294921875,0.6742585897445679,-0.6420596241950989,0.25830450654029846
1782846775299356200,2.259356201171875,0.5402097105979919,-0.8320394158363342,0.33784833550453186
1782846775309361200,2.269361083984375,0.4129180610179901,-0.8916420340538025,0.43473175168037415
1782846775319366100,2.2793662109375,0.3203178346157074,-0.7980399131774902,0.5355182886123657
1782846775329370000,2.2893701171875,0.2831832468509674,-0.5992472171783447,0.6219785809516907
1782846775339375000,2.299375,0.30659109354019165,-0.33453112840652466,0.6679788827896118
1782846775349380400,2.30938037109375,0.3622879087924957,-0.06373956799507141,0.6575714945793152
1782846775359385300,2.31938525390625,0.41871336102485657,0.15585510432720184,0.5884770750999451
1782846775369389000,2.32938916015625,0.4543113112449646,0.303018718957901,0.49134761095046997
1782846775379394000,2.33939404296875,0.45938757061958313,0.3387381136417389,0.4015018939971924
1782846775389399000,2.34939892578125,0.41894373297691345,0.24964845180511475,0.3452593982219696
1782846775399403000,2.359403076171875,0.3363407254219055,0.10154633224010468,0.332638680934906
1782846775409408000,2.369407958984375,0.22866646945476532,-0.03251400217413902,0.3624109625816345
1782846775419413000,2.3794130859375,0.12557284533977509,-0.1037873849272728,0.4125627875328064
1782846775429417200,2.389417236328125,0.021464545279741287,-0.1035330519080162,0.46098437905311584
1782846775439422200,2.399422119140625,-0.06169265881180763,-0.034085530787706375,0.4934515357017517
1782846775449427200,2.40942724609375,-0.11648479849100113,0.06854577362537384,0.4791676700115204
1782846775459431200,2.41943115234375,-0.14260534942150116,0.1787540316581726,0.3879184424877167
1782846775469436200,2.429436279296875,-0.1448461413383484,0.284788578748703,0.19895251095294952
1782846775479441200,2.439441162109375,-0.12234189361333847,0.36522775888442993,-0.06525277346372604
1782846775489445000,2.449445068359375,-0.09519149363040924,0.39284077286720276,-0.35275352001190186
1782846775499450000,2.4594501953125,-0.08171696960926056,0.3695162534713745,-0.6068148612976074
1782846775509455000,2.469455078125,-0.09426738321781158,0.3289206326007843,-0.8008716702461243
1782846775519459300,2.479459228515625,-0.12706127762794495,0.25547677278518677,-0.9375264644622803
1782846775529464300,2.48946435546875,-0.16097024083137512,0.13037344813346863,-1.0148001909255981
1782846775539469300,2.49946923828125,-0.20435713231563568,0.0033931334037333727,-1.035884976387024
1782846775549473000,2.50947314453125,-0.24968813359737396,-0.08552528917789459,-1.0104925632476807
1782846775559478000,2.51947802734375,-0.2848548889160156,-0.09022976458072662,-0.9071775674819946
1782846775569483000,2.52948291015625,-0.32212796807289124,0.03769171983003616,-0.7117385864257812
1782846775579487000,2.539487060546875,-0.3863884508609772,0.21872594952583313,-0.40343695878982544
1782846775589492000,2.549491943359375,-0.46354395151138306,0.4012153446674347,-0.018127338960766792
1782846775599497000,2.5594970703125,-0.525262713432312,0.525793194770813,0.38124561309814453
1782846775609501200,2.569501220703125,-0.5044605135917664,0.6166102290153503,0.7356606721878052
1782846775619506200,2.579506103515625,-0.41540998220443726,0.7037240862846375,0.9787793159484863
1782846775629511200,2.58951123046875,-0.27568724751472473,0.7686202526092529,1.0007603168487549
1782846775639516200,2.59951611328125,-0.1205703541636467,0.7511656284332275,0.8374531269073486
1782846775649520000,2.60952001953125,-0.009784719906747341,0.6630605459213257,0.5734832286834717
1782846775659525000,2.619525146484375,-0.0015475628897547722,0.5885713696479797,0.16447176039218903
1782846775669530000,2.629530029296875,-0.04198287054896355,0.5066458582878113,-0.6197152137756348
1782846775679534000,2.6395341796875,-0.20058609545230865,0.23571984469890594,-1.5248298645019531
1782846775689539000,2.6495390625,-0.4007817804813385,-0.08252124488353729,-2.0614986419677734
1782846775699544000,2.6595439453125,-0.4858852028846741,-0.33037763833999634,-2.125330924987793
1782846775709548300,2.66954833984375,-0.3404656946659088,-0.4735771417617798,-1.9393242597579956
1782846775719553300,2.67955322265625,-0.03874420002102852,-0.6738218069076538,-1.6693772077560425
1782846775729558300,2.689558349609375,0.20322582125663757,-0.8459171652793884,-1.253751516342163
1782846775739562000,2.69956201171875,0.19624993205070496,-0.857825756072998,-0.619490921497345
1782846775749567000,2.70956689453125,-0.05091750994324684,-0.7759873270988464,0.11738681048154831
1782846775759572000,2.719572021484375,-0.2610158920288086,-0.6169604063034058,0.5399633646011353
1782846775769576200,2.729576171875,-0.26768285036087036,-0.6071290969848633,0.5352511405944824
1782846775779581200,2.739581298828125,-0.12255041301250458,-0.7265526652336121,0.27208346128463745
1782846775789586200,2.749586181640625,0.08362032473087311,-0.817258894443512,-0.035463716834783554
1782846775799589400,2.75958935546875,0.30714768171310425,-0.7723092436790466,-0.3069833815097809
1782846775809594400,2.769594482421875,0.5084922313690186,-0.5906635522842407,-0.4691544473171234
1782846775819599400,2.779599365234375,0.6492626667022705,-0.36702513694763184,-0.44345518946647644
1782846775829603000,2.78960302734375,0.7425409555435181,-0.16871552169322968,-0.2289074808359146
1782846775839608300,2.7996083984375,0.7921037077903748,-0.021996378898620605,0.06185457855463028
1782846775849613300,2.80961328125,0.7954012751579285,0.08602649718523026,0.3482099175453186
1782846775859617300,2.8196171875,0.7792624831199646,0.16344325244426727,0.5925371050834656
1782846775869622300,2.829622314453125,0.744412362575531,0.1964550018310547,0.775277316570282
1782846775879627300,2.839627197265625,0.6946275234222412,0.17466102540493011,0.8762385845184326
1782846775889632300,2.84963232421875,0.6234662532806396,0.08222509920597076,0.9133167266845703
1782846775899636200,2.85963623046875,0.5309275388717651,-0.05776289850473404,0.9116466641426086
1782846775909641200,2.86964111328125,0.4129391014575958,-0.15954172611236572,0.8841726779937744
1782846775919646200,2.879646240234375,0.28296059370040894,-0.22005806863307953,0.8252105712890625
1782846775929650400,2.889650390625,0.14812767505645752,-0.22863531112670898,0.7441777586936951
1782846775939655400,2.899655517578125,0.01453020703047514,-0.17038771510124207,0.6405618786811829
1782846775949660400,2.909660400390625,-0.09706822782754898,-0.059478774666786194,0.5162255167961121
1782846775959664400,2.919664306640625,-0.17504611611366272,0.03502429649233818,0.36896100640296936
1782846775969669400,2.92966943359375,-0.21861223876476288,0.09685943275690079,0.23116157948970795
1782846775979674400,2.93967431640625,-0.2121673822402954,0.10269255936145782,0.1131981909275055
1782846775989678300,2.94967822265625,-0.1815711259841919,0.04496028274297714,0.028975991532206535
1782846775999683300,2.959683349609375,-0.14750370383262634,-0.06530390679836273,-0.04892626404762268
1782846776009688300,2.969688232421875,-0.14699557423591614,-0.2216610163450241,-0.14583736658096313
1782846776019692500,2.979692626953125,-0.18205608427524567,-0.3228675425052643,-0.24284540116786957
1782846776029697500,2.989697509765625,-0.24405021965503693,-0.3190690577030182,-0.31828024983406067
1782846776039702500,2.99970263671875,-0.332226425409317,-0.2518466114997864,-0.36112383008003235
1782846776049706200,3.009706298828125,-0.40735286474227905,-0.178706094622612,-0.35169678926467896
1782846776059711200,3.019711181640625,-0.4458288848400116,-0.11013849079608917,-0.28378617763519287
1782846776069716200,3.02971630859375,-0.44182536005973816,-0.03794551640748978,-0.1693437546491623
1782846776079720200,3.03972021484375,-0.42273128032684326,0.005219529382884502,-0.00472631212323904
1782846776089725200,3.04972509765625,-0.42404234409332275,0.04182148352265358,0.19379477202892303
1782846776099730200,3.059730224609375,-0.4847829341888428,0.07805725187063217,0.38359105587005615
1782846776109734400,3.069734375,-0.5813180208206177,0.09747356176376343,0.5089665651321411
1782846776119739400,3.079739501953125,-0.6712809205055237,0.11283627152442932,0.5381942391395569
1782846776129744400,3.089744384765625,-0.7087454795837402,0.23320609331130981,0.4672843813896179
1782846776139748400,3.099748291015625,-0.6514001488685608,0.42553770542144775,0.3594742715358734
1782846776149753300,3.10975341796875,-0.5243769288063049,0.6199396848678589,0.3229482173919678
1782846776159758300,3.11975830078125,-0.3710920512676239,0.7608347535133362,0.36837270855903625
1782846776169763300,3.129763427734375,-0.18343667685985565,0.7516846656799316,0.44738948345184326
1782846776179767300,3.139767333984375,-0.024530909955501556,0.5237865447998047,0.5154015421867371
1782846776189772300,3.149772216796875,0.047863930463790894,0.13643507659435272,0.5323456525802612
1782846776199777300,3.15977734375,0.05326428636908531,-0.15431180596351624,0.44845050573349
1782846776209781500,3.169781494140625,0.0526387095451355,-0.2605240046977997,0.2774430513381958
1782846776219786500,3.179786376953125,0.10496929287910461,-0.20515207946300507,0.05884547159075737
1782846776229791500,3.18979150390625,0.19352392852306366,-0.053639791905879974,-0.12252378463745117
1782846776239795200,3.199795166015625,0.2716602683067322,0.149155393242836,-0.1884165108203888
1782846776249800200,3.20980029296875,0.33283600211143494,0.28444904088974,-0.14770743250846863
1782846776259805200,3.21980517578125,0.37721678614616394,0.3061751127243042,-0.07618371397256851
1782846776269809200,3.22980908203125,0.39295101165771484,0.2565564215183258,-0.04609638825058937
1782846776279814100,3.239814208984375,0.3735775947570801,0.14824539422988892,-0.07955235242843628
1782846776289819100,3.249819091796875,0.34980514645576477,0.001814677962101996,-0.11516014486551285
1782846776299823400,3.2598232421875,0.35200729966163635,-0.16516339778900146,-0.10725615173578262
1782846776309828400,3.269828369140625,0.40452805161476135,-0.3331609070301056,-0.07794060558080673
1782846776319833300,3.279833251953125,0.4886549115180969,-0.44027405977249146,-0.06895376741886139
1782846776329837300,3.28983740234375,0.5901037454605103,-0.48922666907310486,-0.08952375501394272
1782846776339842300,3.29984228515625,0.709289014339447,-0.45133015513420105,-0.13736531138420105
1782846776349847300,3.309847412109375,0.8114963173866272,-0.3301374316215515,-0.16411304473876953
1782846776359851300,3.319851318359375,0.8569072484970093,-0.17687250673770905,-0.15706337988376617
1782846776369856300,3.329856201171875,0.82068932056427,-0.019513513892889023,-0.0903589278459549
1782846776379861200,3.339861328125,0.7196367383003235,0.1292858123779297,0.00507092522457242
1782846776389865500,3.349865478515625,0.5885588526725769,0.23694516718387604,0.11835434287786484
1782846776399870500,3.359870361328125,0.45800459384918213,0.25251853466033936,0.22646935284137726
1782846776409875500,3.36987548828125,0.3225705921649933,0.16738393902778625,0.3307206630706787
1782846776419879200,3.379879150390625,0.20317442715168,0.006599579472094774,0.44560864567756653
1782846776429884200,3.38988427734375,0.10168055444955826,-0.22103171050548553,0.5825015306472778
1782846776439889200,3.39988916015625,-0.0015595471486449242,-0.4175514280796051,0.7300038933753967
1782846776449894100,3.40989404296875,-0.12130539119243622,-0.527359127998352,0.8579642176628113
1782846776459898000,3.419898193359375,-0.23204255104064941,-0.5446920990943909,0.9325897097587585
1782846776469903000,3.429903076171875,-0.31228041648864746,-0.4783015847206116,0.9216726422309875
1782846776479908400,3.439908447265625,-0.36459314823150635,-0.30687737464904785,0.815687358379364
1782846776489912300,3.449912353515625,-0.3756069242954254,-0.09946160763502121,0.6158458590507507
1782846776499917300,3.459917236328125,-0.35517701506614685,0.072896309196949,0.3525862693786621
1782846776509922300,3.46992236328125,-0.31166067719459534,0.17669275403022766,0.06807705760002136
1782846776519926300,3.47992626953125,-0.25631433725357056,0.19923880696296692,-0.20587486028671265
1782846776529931300,3.48993115234375,-0.20357869565486908,0.1417696475982666,-0.4432184398174286
1782846776539936300,3.499936279296875,-0.15788203477859497,0.056472331285476685,-0.6312722563743591
1782846776549940200,3.509940185546875,-0.13988067209720612,-0.03463813662528992,-0.764366090297699
1782846776559945500,3.519945556640625,-0.14037388563156128,-0.08484218269586563,-0.8569756746292114
1782846776569950500,3.529950439453125,-0.16265815496444702,-0.0964924544095993,-0.919185221195221
1782846776579954400,3.539954345703125,-0.1968424916267395,-0.06605970859527588,-0.9663248062133789
1782846776589959400,3.54995947265625,-0.23720508813858032,-0.009337841533124447,-0.9988723397254944
1782846776599964400,3.55996435546875,-0.27305737137794495,0.04971908777952194,-0.9761942028999329
1782846776609968000,3.569968017578125,-0.3057716488838196,0.15137647092342377,-0.8660125732421875
1782846776619973400,3.579973388671875,-0.33888643980026245,0.2607852518558502,-0.6566329598426819
1782846776629978400,3.589978271484375,-0.37025582790374756,0.35904231667518616,-0.3933635354042053
1782846776639982300,3.599982421875,-0.4053533673286438,0.44944384694099426,-0.09636595100164413
1782846776649987300,3.6099873046875,-0.43563562631607056,0.5314295291900635,0.22828669846057892
1782846776659992300,3.619992431640625,-0.398470401763916,0.6313143372535706,0.4928528368473053
1782846776669996300,3.629996337890625,-0.28635480999946594,0.7423561215400696,0.5000713467597961
1782846776680001300,3.640001220703125,-0.10906310379505157,0.8041987419128418,0.08095024526119232
1782846776690006300,3.65000634765625,0.1057533249258995,0.7616369128227234,-0.6719626784324646
1782846776700011300,3.66001123046875,0.2890573740005493,0.6753824353218079,-1.5140632390975952
1782846776710015200,3.67001513671875,0.23969142138957977,0.5146593451499939,-1.9422321319580078
1782846776720020200,3.680020263671875,0.03629063069820404,0.2927706241607666,-1.8541622161865234
1782846776730025200,3.690025146484375,-0.14163222908973694,0.024462198838591576,-1.5305322408676147
1782846776740029400,3.700029541015625,-0.2165040820837021,-0.12685488164424896,-1.1190578937530518
1782846776750034400,3.710034423828125,-0.1758035123348236,-0.07089255005121231,-0.7226138710975647
1782846776760039400,3.720039306640625,-0.05237133055925369,0.014700649306178093,-0.28756919503211975
1782846776770043400,3.73004345703125,0.11223705857992172,0.0008415589109063148,0.23108701407909393
1782846776780048400,3.74004833984375,0.23564794659614563,-0.08127914369106293,0.7590552568435669
1782846776790053400,3.750053466796875,0.30372658371925354,-0.15089178085327148,1.1652318239212036
1782846776800057900,3.760057861328125,0.39666107296943665,-0.2384440004825592,1.320400357246399
1782846776810062800,3.770062744140625,0.5874922871589661,-0.38660869002342224,1.1335865259170532
1782846776820067800,3.78006787109375,0.8270537257194519,-0.39202848076820374,0.6616842150688171
1782846776830071800,3.79007177734375,0.9919598698616028,-0.125059112906456,0.10705640912055969
1782846776840076800,3.800076904296875,1.0264410972595215,0.2587814927101135,-0.3521029055118561
1782846776850082000,3.81008203125,0.9617758393287659,0.568671464920044,-0.5900425314903259
1782846776860086000,3.8200859375,0.8978549242019653,0.6864662766456604,-0.6512105464935303
1782846776870091000,3.830091064453125,0.8296295404434204,0.618052065372467,-0.5726717710494995
1782846776880096000,3.840095947265625,0.7489437460899353,0.49389734864234924,-0.39645493030548096
1782846776890100000,3.850099853515625,0.6476299166679382,0.3665311336517334,-0.2104022353887558
1782846776900105000,3.86010498046875,0.5427258610725403,0.22995276749134064,-0.05000511184334755
1782846776910110000,3.87010986328125,0.43566012382507324,0.08880683779716492,0.07355517894029617
1782846776920114000,3.880114013671875,0.32687586545944214,-0.05447655916213989,0.1793479174375534
1782846776930119000,3.890118896484375,0.23701760172843933,-0.18449953198432922,0.2784081995487213
1782846776940124000,3.9001240234375,0.15693262219429016,-0.27029672265052795,0.3654003441333771
1782846776950127900,3.9101279296875,0.08451834321022034,-0.2899593710899353,0.42420294880867004
1782846776960132900,3.9201328125,0.00993225909769535,-0.27355459332466125,0.4476270377635956
1782846776970137900,3.930137939453125,-0.06813137978315353,-0.2281370311975479,0.43138229846954346
1782846776980142800,3.940142822265625,-0.14818893373012543,-0.1593284010887146,0.3732351064682007
1782846776990146800,3.950146728515625,-0.21828652918338776,-0.09517445415258408,0.27386537194252014
1782846777000151800,3.96015185546875,-0.2638590633869171,-0.0938926711678505,0.15097619593143463
1782846777010156800,3.97015673828125,-0.2919386327266693,-0.1327980011701584,-0.004418716765940189
1782846777020161000,3.9801611328125,-0.2925543785095215,-0.17152833938598633,-0.17601151764392853
1782846777030166000,3.990166015625,-0.2668308913707733,-0.2013554871082306,-0.34736114740371704
1782846777040171000,4.0001708984375,-0.22430740296840668,-0.21430137753486633,-0.4895244240760803
1782846777050175000,4.010175048828125,-0.17060422897338867,-0.21330028772354126,-0.5800966620445251
1782846777060180000,4.020179931640625,-0.10503507405519485,-0.20493316650390625,-0.604164719581604
1782846777070185000,4.03018505859375,-0.039677105844020844,-0.18832489848136902,-0.5538815855979919
1782846777080189000,4.04018896484375,0.003195527009665966,-0.16493302583694458,-0.42391690611839294
1782846777090194000,4.05019384765625,0.010747984983026981,-0.1626001000404358,-0.2583066523075104
1782846777100199000,4.060198974609375,-0.0017576862592250109,-0.17445942759513855,-0.09381011128425598
1782846777110203000,4.070202880859375,-0.035785429179668427,-0.15185530483722687,0.04862932115793228
1782846777120208000,4.080207763671875,-0.09510254859924316,-0.11483576893806458,0.17728902399539948
1782846777130212900,4.090212890625,-0.1992579847574234,-0.07926099747419357,0.2915295958518982
1782846777140216800,4.100216796875,-0.3273616135120392,-0.02105601690709591,0.37732571363449097
1782846777150221800,4.110221923828125,-0.44461527466773987,0.08270979672670364,0.4349203109741211
1782846777160226800,4.120226806640625,-0.48809298872947693,0.23784984648227692,0.44870057702064514
1782846777170230800,4.130230712890625,-0.41342779994010925,0.36379045248031616,0.4705914855003357
1782846777180235800,4.14023583984375,-0.24132899940013885,0.36622166633605957,0.5587916374206543
1782846777190240800,4.15024072265625,-0.054963648319244385,0.3253634572029114,0.7156824469566345
1782846777200245000,4.160244873046875,0.09751856327056885,0.3104787766933441,0.8876158595085144
1782846777210250000,4.17025,0.20911912620067596,0.26251736283302307,0.9990888833999634
1782846777220255000,4.1802548828125,0.2757546305656433,0.15480075776576996,1.0189073085784912
1782846777230259000,4.190259033203125,0.3339388370513916,0.04012478142976761,0.9459654688835144
1782846777240264000,4.200263916015625,0.39924246072769165,-0.03248603641986847,0.8112513422966003
1782846777250269000,4.21026904296875,0.4739968776702881,-0.04072026535868645,0.6576377749443054
1782846777260273000,4.22027294921875,0.5395047664642334,0.0023869911674410105,0.5008580684661865
1782846777270278000,4.23027783203125,0.578462541103363,0.0514349602162838,0.3596484363079071
1782846777280283000,4.240282958984375,0.5706989169120789,0.07959841936826706,0.24760207533836365
1782846777290287900,4.250287841796875,0.5262797474861145,0.12409238517284393,0.17073658108711243
1782846777300291800,4.260291748046875,0.5050002932548523,0.15519970655441284,0.12015970051288605
1782846777310296800,4.270296875,0.5682599544525146,0.1363581120967865,0.0871596708893776
1782846777320301800,4.2803017578125,0.6828006505966187,0.062434881925582886,0.10437141358852386
1782846777330305800,4.290305908203125,0.7978425621986389,-0.061345648020505905,0.1930147260427475
1782846777340310800,4.300310791015625,0.8641344904899597,-0.17359335720539093,0.3393724858760834
1782846777350315800,4.310315673828125,0.8690070509910583,-0.24395354092121124,0.4800640642642975
1782846777360319700,4.32031982421875,0.8274121880531311,-0.2816135585308075,0.590636134147644
1782846777370324700,4.33032470703125,0.748212993144989,-0.3126886785030365,0.6574875712394714
1782846777380329700,4.340329833984375,0.6634522676467896,-0.33287516236305237,0.6700422763824463
1782846777390334000,4.350333984375,0.5920270681381226,-0.37668150663375854,0.6561283469200134
1782846777400339000,4.3603388671875,0.5304481387138367,-0.4425521194934845,0.598929762840271
1782846777410344000,4.370343994140625,0.4613918662071228,-0.4749995470046997,0.5168511271476746
1782846777420348000,4.380347900390625,0.37039536237716675,-0.4327809810638428,0.44177475571632385
1782846777430353000,4.390352783203125,0.24830780923366547,-0.3415581285953522,0.3891320526599884
1782846777440358000,4.40035791015625,0.0860896110534668,-0.22928458452224731,0.3520837426185608
1782846777450361900,4.41036181640625,-0.0996517613530159,-0.11689812690019608,0.3553634285926819
1782846777460366800,4.420366943359375,-0.2807499170303345,-0.015800001099705696,0.4027983248233795
1782846777470371800,4.430371826171875,-0.4410721957683563,0.09615077078342438,0.46932193636894226
1782846777480376000,4.4403759765625,-0.5842496156692505,0.22810134291648865,0.5396952033042908
1782846777490381000,4.450381103515625,-0.671333909034729,0.32990705966949463,0.608191967010498
1782846777500386000,4.460385986328125,-0.6833138465881348,0.3325582444667816,0.6545628905296326
1782846777510389800,4.4703896484375,-0.6394867300987244,0.2546517252922058,0.6418388485908508
1782846777520394800,4.480394775390625,-0.5648074746131897,0.17422373592853546,0.555302083492279
1782846777530399700,4.490399658203125,-0.48620691895484924,0.07869614660739899,0.38707873225212097
1782846777540404000,4.500404052734375,-0.42654573917388916,-0.03200480341911316,0.14802542328834534
1782846777550409000,4.510408935546875,-0.395220547914505,-0.11052864044904709,-0.1165710836648941
1782846777560414000,4.5204140625,-0.3939630091190338,-0.1486762911081314,-0.3627385199069977
1782846777570418000,4.53041796875,-0.4205267131328583,-0.15994678437709808,-0.5587032437324524
1782846777580423000,4.5404228515625,-0.4522835910320282,-0.14600540697574615,-0.6890588402748108
1782846777590428000,4.550427978515625,-0.4766525626182556,-0.09579230844974518,-0.7548660635948181
1782846777600433000,4.560432861328125,-0.504943311214447,-0.020779846236109734,-0.7766646146774292
1782846777610436900,4.570436767578125,-0.5464460253715515,0.06174565479159355,-0.7705560922622681
1782846777620441900,4.58044189453125,-0.6077117919921875,0.09873882681131363,-0.7437127828598022
1782846777630446800,4.59044677734375,-0.663340151309967,0.06842859089374542,-0.6881962418556213
1782846777640451000,4.600451171875,-0.695458710193634,0.009407349862158298,-0.6092023849487305
1782846777650456000,4.6104560546875,-0.7064316868782043,-0.010807639919221401,-0.5180812478065491
1782846777660461000,4.6204609375,-0.7010547518730164,0.11812078207731247,-0.4071832001209259
1782846777670465000,4.630465087890625,-0.6737070679664612,0.3609273135662079,-0.23883388936519623
1782846777680470000,4.640469970703125,-0.6258561611175537,0.5881945490837097,-0.08688456565141678
1782846777690475000,4.65047509765625,-0.5444446802139282,0.7097374796867371,-0.047936633229255676
1782846777700478700,4.660478759765625,-0.41965505480766296,0.6567312479019165,-0.19564779102802277
1782846777710483700,4.670483642578125,-0.26250407099723816,0.47260376811027527,-0.5226448178291321
1782846777720488700,4.68048876953125,-0.12447508424520493,0.24218334257602692,-1.0930241346359253
1782846777730493000,4.690492919921875,-0.12686260044574738,-0.09754014015197754,-1.8180742263793945
1782846777740498000,4.700497802734375,-0.39164021611213684,-0.4957684576511383,-2.297698974609375
1782846777750503000,4.7105029296875,-0.7627817988395691,-0.8056373596191406,-2.2285802364349365
1782846777760507000,4.7205068359375,-0.9424008131027222,-0.9505876302719116,-1.9140293598175049
1782846777770512000,4.730511962890625,-0.8167515397071838,-1.021082878112793,-1.5874626636505127
1782846777780516900,4.740516845703125,-0.5599234700202942,-1.0001176595687866,-1.2126381397247314
1782846777790520800,4.750520751953125,-0.36430391669273376,-0.8460156917572021,-0.7057328820228577
1782846777800525800,4.76052587890625,-0.279887855052948,-0.583009660243988,-0.20448443293571472
1782846777810530800,4.77053076171875,-0.20147505402565002,-0.3302316963672638,-0.009277920238673687
1782846777820535000,4.78053515625,-0.05836423859000206,-0.26871535181999207,-0.28378456830978394
1782846777830540000,4.7905400390625,0.061944328248500824,-0.38153883814811707,-0.8359217643737793
1782846777840545000,4.800544921875,0.12265454977750778,-0.4802800714969635,-1.3909844160079956
1782846777850549000,4.810549072265625,0.12002068012952805,-0.47910454869270325,-1.8124523162841797
1782846777860554000,4.820553955078125,0.09289105981588364,-0.426635205745697,-1.9855849742889404
1782846777870559000,4.83055908203125,0.10662684589624405,-0.3540648818016052,-1.8885588645935059
1782846777880563000,4.84056298828125,0.17606796324253082,-0.26468971371650696,-1.5553505420684814
1782846777890568000,4.85056787109375,0.261251837015152,-0.1730002760887146,-1.0673984289169312
1782846777900573000,4.860572998046875,0.33927154541015625,-0.08534951508045197,-0.5597493052482605
1782846777910577200,4.8705771484375,0.37806180119514465,-0.0236443430185318,-0.11677321791648865
1782846777920582100,4.88058203125,0.38594290614128113,-0.014763499610126019,0.21653524041175842
1782846777930587100,4.890587158203125,0.3718896806240082,-0.03610314428806305,0.4700077176094055
1782846777940591000,4.900591064453125,0.32195886969566345,-0.0549926795065403,0.6360203623771667
1782846777950596000,4.91059619140625,0.24623027443885803,-0.05443767458200455,0.7460536956787109
1782846777960601000,4.92060107421875,0.15096527338027954,-0.05017555132508278,0.808975100517273
1782846777970606000,4.930606201171875,0.04670438915491104,-0.041005223989486694,0.8241540789604187
1782846777980609800,4.94060986328125,-0.05609762296080589,-0.03491777181625366,0.7937325239181519
1782846777990615000,4.950614990234375,-0.1597667634487152,-0.01715768128633499,0.7196692228317261
1782846778000620000,4.9606201171875,-0.24971182644367218,0.012739230878651142,0.596237301826477
1782846778010624000,4.9706240234375,-0.31854042410850525,0.016092950478196144,0.428727388381958
1782846778020629000,4.98062890625,-0.35283422470092773,-0.0013741911388933659,0.2181195467710495
1782846778030634000,4.990634033203125,-0.343438059091568,-0.035411786288022995,0.011895275674760342
1782846778040638000,5.000637939453125,-0.30805477499961853,-0.08696099370718002,-0.18806897103786469
1782846778050643000,5.010642822265625,-0.24050314724445343,-0.11399181932210922,-0.3541026711463928
1782846778060648000,5.02064794921875,-0.14713485538959503,-0.11246076226234436,-0.45715636014938354
1782846778070652000,5.03065185546875,-0.057747453451156616,-0.09506393224000931,-0.4885441064834595
1782846778080657000,5.040656982421875,0.0004261057765688747,-0.08164053410291672,-0.4375869333744049
1782846778090662000,5.050661865234375,0.02346324734389782,-0.07390538603067398,-0.3338107168674469
1782846778100666000,5.060666015625,0.015194931998848915,-0.052146025002002716,-0.20183219015598297
1782846778110671000,5.070671142578125,-0.00811837986111641,-0.020857078954577446,-0.08290074020624161
1782846778120676000,5.080676025390625,-0.02275404892861843,0.015896940603852272,-0.004269047174602747
1782846778130680000,5.09068017578125,-0.031185615807771683,0.04508465528488159,0.02178226038813591
1782846778140685000,5.10068505859375,-0.023812122642993927,0.12936384975910187,0.004525776021182537
1782846778150690000,5.11068994140625,-0.003026682650670409,0.23469826579093933,-0.048833318054676056
1782846778160694000,5.120694091796875,-0.008023837581276894,0.30654236674308777,-0.10047467797994614
1782846778170699000,5.130698974609375,-0.05329651013016701,0.3444463312625885,-0.19849897921085358
1782846778180704000,5.1407041015625,-0.11987127363681793,0.3439160883426666,-0.3151014745235443
1782846778190708000,5.1507080078125,-0.16655676066875458,0.3256017863750458,-0.3752191662788391
1782846778200713000,5.160712890625,-0.1477859914302826,0.30602172017097473,-0.32635653018951416
1782846778210718000,5.170718017578125,-0.04644845798611641,0.3038887679576874,-0.17425355315208435
1782846778220722000,5.180721923828125,0.1025543361902237,0.32767292857170105,-0.016690829768776894
1782846778230727000,5.190726806640625,0.2942337691783905,0.4255632758140564,0.09777157008647919
1782846778240732000,5.20073193359375,0.4507216215133667,0.5049982070922852,0.21388618648052216
1782846778250735900,5.21073583984375,0.5037505030632019,0.4978739619255066,0.33773118257522583
1782846778260741000,5.2207412109375,0.4292144775390625,0.35030636191368103,0.49089115858078003
1782846778270746000,5.23074609375,0.24930064380168915,0.12128940969705582,0.6814483404159546
1782846778280750000,5.24075,0.05252792313694954,-0.07446438074111938,0.856335461139679
1782846778290755000,5.250755126953125,-0.07955022156238556,-0.15465030074119568,0.974774181842804
1782846778300760000,5.260760009765625,-0.11046472191810608,-0.14384931325912476,0.9611403942108154
1782846778310764000,5.270763916015625,-0.07748813182115555,-0.04941921308636665,0.7902072668075562
1782846778320769000,5.28076904296875,-0.011360512115061283,0.05982072278857231,0.5104557871818542
1782846778330774000,5.29077392578125,0.051294345408678055,0.08546989411115646,0.2272946685552597
1782846778340778200,5.3007783203125,0.07768786698579788,0.037462420761585236,0.05369039252400398
1782846778350783200,5.310783203125,0.08040056377649307,-0.052913814783096313,0.016807476058602333
1782846778360788200,5.320788330078125,0.08147222548723221,-0.1313881129026413,0.07809507101774216
1782846778370792000,5.3307919921875,0.10958215594291687,-0.16976825892925262,0.16569548845291138
1782846778380797000,5.340796875,0.1861935704946518,-0.1932874321937561,0.24962393939495087
1782846778390802000,5.350802001953125,0.31184178590774536,-0.22701796889305115,0.319078654050827
1782846778400807000,5.360806884765625,0.4699089229106903,-0.24416260421276093,0.3908340632915497
1782846778410811000,5.370810791015625,0.6207790970802307,-0.22645604610443115,0.4898250997066498
1782846778420816000,5.38081591796875,0.7112901210784912,-0.13473545014858246,0.6231091022491455
1782846778430820900,5.39082080078125,0.7479642033576965,0.03050011768937111,0.7811563014984131
1782846778440825000,5.4008251953125,0.7622795104980469,0.2079441398382187,0.8996789455413818
1782846778450830000,5.410830078125,0.7447388768196106,0.35413357615470886,0.9520342946052551
1782846778460835000,5.4208349609375,0.6801092624664307,0.44066712260246277,0.9289641380310059
1782846778470839000,5.430839111328125,0.5542400479316711,0.43660447001457214,0.8545809388160706
1782846778480844000,5.440843994140625,0.37918752431869507,0.32979148626327515,0.7652947306632996
1782846778490849000,5.45084912109375,0.16689763963222504,0.16723985970020294,0.6867796778678894
1782846778500853000,5.46085302734375,-0.06238268315792084,-0.0030104373581707478,0.6281744241714478
1782846778510858000,5.47085791015625,-0.3066920340061188,-0.13374954462051392,0.5621389746665955
1782846778520863000,5.480863037109375,-0.5480990409851074,-0.18535654246807098,0.483498215675354
1782846778530867200,5.4908671875,-0.7420299053192139,-0.2092735916376114,0.36455345153808594
1782846778540872200,5.5008720703125,-0.8575237393379211,-0.18159696459770203,0.20049607753753662
1782846778550877200,5.510877197265625,-0.8916857242584229,-0.11497585475444794,-0.0011659319279715419
1782846778560881000,5.520880859375,-0.8585903644561768,-0.061226606369018555,-0.22901800274848938
1782846778570886000,5.530885986328125,-0.7662082314491272,-0.04850548505783081,-0.44146156311035156
1782846778580891000,5.540890869140625,-0.6380829811096191,-0.07188111543655396,-0.6129459738731384
1782846778590894800,5.550894775390625,-0.5136348009109497,-0.10766947269439697,-0.7103473544120789
1782846778600899800,5.56089990234375,-0.42432597279548645,-0.13572214543819427,-0.7292206287384033
1782846778610904800,5.57090478515625,-0.35752591490745544,-0.14178483188152313,-0.698686957359314
1782846778620909000,5.580908935546875,-0.310377299785614,-0.1052372083067894,-0.6207079887390137
1782846778630914000,5.5909140625,-0.27822229266166687,-0.04153865575790405,-0.5279213190078735
1782846778640919000,5.6009189453125,-0.24482892453670502,-0.007779626175761223,-0.4451460540294647
1782846778650923000,5.610923095703125,-0.22302615642547607,-0.018324146047234535,-0.37744608521461487
1782846778660928000,5.620927978515625,-0.2483925074338913,0.013700632378458977,-0.2907772362232208
1782846778670933000,5.63093310546875,-0.28700461983680725,0.11490368098020554,-0.13704147934913635
1782846778680937000,5.64093701171875,-0.3171180486679077,0.23464979231357574,0.07597865164279938
1782846778690942000,5.65094189453125,-0.3255937993526459,0.3460564613342285,0.30499371886253357
1782846778700947000,5.660947021484375,-0.30972591042518616,0.4564080238342285,0.5176798701286316
1782846778710951200,5.670951171875,-0.26753103733062744,0.5579231977462769,0.6435036063194275
1782846778720956200,5.6809560546875,-0.17281359434127808,0.6714710593223572,0.6297084093093872
1782846778730961200,5.690961181640625,-0.048179514706134796,0.7356508374214172,0.4575957953929901
1782846778740965000,5.700965087890625,0.07320018112659454,0.7403795719146729,0.1242295429110527
1782846778750970000,5.71097021484375,0.14700062572956085,0.6436668634414673,-0.27176520228385925
1782846778760975000,5.72097509765625,0.1709080934524536,0.46992436051368713,-0.69643235206604
1782846778770978800,5.730978759765625,0.10370189696550369,0.2438901662826538,-1.1060919761657715
1782846778780983800,5.74098388671875,-0.11700598150491714,0.007901332341134548,-1.2865453958511353
1782846778790988800,5.75098876953125,-0.3893868923187256,-0.17586450278759003,-1.1432726383209229
1782846778800992000,5.760991943359375,-0.5312479138374329,-0.2570190131664276,-0.8235647082328796
1782846778810997000,5.7709970703125,-0.4686604142189026,-0.3171079158782959,-0.4917793273925781
1782846778821002000,5.781001953125,-0.2923003137111664,-0.3994896113872528,-0.15085209906101227
1782846778831006000,5.791005859375,-0.16185814142227173,-0.43332532048225403,0.2089793086051941
1782846778841011000,5.801010986328125,-0.1429891139268875,-0.3980211317539215,0.5537420511245728
1782846778851016000,5.811015869140625,-0.15429982542991638,-0.35345128178596497,0.6948102116584778
1782846778861020200,5.821020263671875,-0.12997424602508545,-0.4257454574108124,0.44342589378356934
1782846778871025200,5.831025146484375,-0.0666717067360878,-0.5477664470672607,-0.14503681659698486
1782846778881030100,5.841030029296875,0.023146864026784897,-0.575693666934967,-0.8138641715049744
1782846778891034000,5.8510341796875,0.07619144022464752,-0.3959020674228668,-1.3323129415512085
1782846778901039000,5.8610390625,0.0895535871386528,-0.09419228136539459,-1.5662058591842651
1782846778911044000,5.871044189453125,0.09247400611639023,0.13456393778324127,-1.5050129890441895
1782846778921049000,5.881049072265625,0.11327329277992249,0.25749731063842773,-1.2098767757415771
1782846778931052800,5.891052734375,0.1372726410627365,0.2920704782009125,-0.7807208299636841
1782846778941058000,5.90105810546875,0.16344937682151794,0.28985366225242615,-0.3440793454647064
1782846778951063000,5.91106298828125,0.2051648646593094,0.2937767505645752,0.011002849787473679
1782846778961067000,5.92106689453125,0.25120559334754944,0.3189350962638855,0.2558072805404663
1782846778971072000,5.931072021484375,0.29827722907066345,0.3113134205341339,0.41397029161453247
1782846778981077000,5.941076904296875,0.3281427323818207,0.2545798122882843,0.4951346516609192
1782846778991081000,5.9510810546875,0.3123243451118469,0.16900819540023804,0.5229204893112183
1782846779001086000,5.9610859375,0.24747663736343384,0.06229852885007858,0.5278145670890808
1782846779011091000,5.971091064453125,0.13506248593330383,-0.00785552617162466,0.5270156264305115
1782846779021095000,5.981094970703125,0.005989449098706245,-0.04728815332055092,0.5311874747276306
1782846779031100200,5.99110009765625,-0.11959430575370789,-0.0838504284620285,0.5209656953811646
1782846779041105200,6.001105224609375,-0.20855161547660828,-0.0955616757273674,0.475690633058548
1782846779051109000,6.011109130859375,-0.2508186399936676,-0.0709918811917305,0.40743622183799744
1782846779061114000,6.021114013671875,-0.2624579966068268,-0.03269003704190254,0.32230719923973083
1782846779071119000,6.031119140625,-0.25683337450027466,-0.012034558691084385,0.22177846729755402
1782846779081123000,6.041123046875,-0.22402137517929077,-0.015210644342005253,0.11656123399734497
1782846779091128000,6.051128173828125,-0.15755553543567657,-0.03221013396978378,0.036786776036024094
1782846779101133000,6.061133056640625,-0.07005099207162857,-0.06587541848421097,-0.010734669864177704
1782846779111137000,6.071136962890625,-0.0032266860362142324,-0.08830003440380096,-0.029812756925821304
1782846779121142000,6.08114208984375,0.020228572189807892,-0.06084737181663513,-0.031159782782197
1782846779131147000,6.09114697265625,0.020374780520796776,-0.01822587475180626,-0.01709136925637722
1782846779141151000,6.10115087890625,-0.001657285145483911,0.027114974334836006,0.025487249717116356
1782846779151156000,6.111156005859375,-0.06559845060110092,0.06215258687734604,0.08898632973432541
1782846779161161000,6.121160888671875,-0.18840186297893524,0.04909856989979744,0.15907354652881622
1782846779171165000,6.1311650390625,-0.3389785885810852,0.0323006808757782,0.19172123074531555
1782846779181170000,6.141169921875,-0.4716423749923706,0.046240463852882385,0.2073284238576889
1782846779191175000,6.1511748046875,-0.5800071954727173,0.10609607398509979,0.22752876579761505
1782846779201179100,6.16117919921875,-0.6673149466514587,0.16772988438606262,0.23438213765621185
1782846779211184000,6.17118408203125,-0.716915488243103,0.2521728575229645,0.2015882432460785
1782846779221189000,6.181189208984375,-0.7105931639671326,0.33959752321243286,0.13952940702438354
1782846779231193000,6.191193115234375,-0.617834210395813,0.38829687237739563,0.11395613104104996
1782846779241198000,6.201197998046875,-0.48010456562042236,0.36358779668807983,0.1565786898136139
1782846779251203000,6.211203125,-0.3536081314086914,0.2873028814792633,0.24197188019752502
1782846779261207000,6.22120703125,-0.2219419777393341,0.22118857502937317,0.3430684208869934
1782846779271212000,6.2312119140625,0.20399893820285797,0.04050454869866371,0.5493201017379761
1782846779281217000,6.241217041015625,0.49250131845474243,0.23707912862300873,0.5421199798583984
1782846779291221000,6.251220947265625,0.604692280292511,0.10018785297870636,0.35131755471229553
1782846779301226000,6.26122607421875,0.5867407321929932,-0.0360964834690094,0.18858030438423157
1782846779311231000,6.27123095703125,0.39197683334350586,-0.060932859778404236,0.13141128420829773
1782846779321235000,6.28123486328125,0.20129476487636566,0.02015693299472332,0.19768644869327545
1782846779331240000,6.291239990234375,0.11030253767967224,0.1896871030330658,0.23909780383110046
1782846779341245000,6.301244873046875,0.15284840762615204,0.29984530806541443,0.1648278385400772
1782846779351249000,6.311248779296875,0.2557457685470581,0.329578697681427,-0.017794976010918617
1782846779361254000,6.32125390625,0.29326489567756653,0.28008678555488586,-0.26664793491363525
1782846779371259000,6.3312587890625,0.22346743941307068,0.08887767791748047,-0.5332956314086914
1782846779381263000,6.34126318359375,0.10486037284135818,-0.18823568522930145,-0.7435990571975708
1782846779391268000,6.35126806640625,-0.0016221314435824752,-0.4691261947154999,-0.8985018134117126
1782846779401273000,6.361273193359375,-0.07010478526353836,-0.6950650811195374,-1.037292718887329
1782846779411277000,6.371277099609375,-0.11149430274963379,-0.8314380645751953,-1.156402587890625
1782846779421282000,6.381281982421875,-0.1192755252122879,-0.8969172239303589,-1.2321902513504028
1782846779431287000,6.391287109375,-0.10593921691179276,-0.8726925849914551,-1.2848691940307617
1782846779441291000,6.401291015625,-0.08469092100858688,-0.7729548215866089,-1.3229750394821167
1782846779451296000,6.4112958984375,-0.07100307196378708,-0.6179431080818176,-1.3349883556365967
1782846779461301000,6.421301025390625,-0.029441511258482933,-0.5130904912948608,-1.332671046257019
1782846779471305000,6.431304931640625,0.01233549602329731,-0.3895922303199768,-1.274817705154419
1782846779481310200,6.441310302734375,0.05410477891564369,-0.2777581214904785,-1.0882285833358765
1782846779491315200,6.451315185546875,0.0907735824584961,-0.13555729389190674,-0.7923913598060608
1782846779501319000,6.46131884765625,0.13019369542598724,-0.020427243784070015,-0.47089773416519165
1782846779511324000,6.471323974609375,0.1775715947151184,0.09589803218841553,-0.14051610231399536
1782846779521329000,6.481328857421875,0.21538421511650085,0.2627972662448883,0.15725140273571014
1782846779531332900,6.491332763671875,0.20777450501918793,0.31333181262016296,0.43659543991088867
1782846779541337900,6.501337890625,0.22504137456417084,0.2724562883377075,0.7043360471725464
1782846779551342800,6.5113427734375,0.262593537569046,0.2673797607421875,0.8786042928695679
1782846779561347000,6.52134716796875,0.3069216012954712,0.25498008728027344,0.9637649655342102
1782846779571352000,6.53135205078125,0.3314919173717499,0.24577593803405762,0.9838071465492249
1782846779581357000,6.541357177734375,0.32538875937461853,0.25105032324790955,0.9442975521087646
1782846779591361000,6.551361083984375,0.29272881150245667,0.20309053361415863,0.8599932789802551
1782846779601366000,6.561365966796875,0.2477155178785324,0.10777600109577179,0.7485104203224182
1782846779611371000,6.57137109375,0.20117704570293427,-0.0038344194181263447,0.6288865804672241
1782846779621375000,6.581375,0.16669496893882751,-0.03946112468838692,0.5151078104972839
1782846779631380000,6.5913798828125,0.1758304089307785,0.020904749631881714,0.43741434812545776
1782846779641385000,6.601385009765625,0.22210630774497986,0.08425309509038925,0.4235174357891083
1782846779651389200,6.61138916015625,0.28637930750846863,0.0955829843878746,0.4546010494232178
1782846779661394200,6.621394287109375,0.33608558773994446,0.06501628458499908,0.513229489326477
1782846779671399200,6.631399169921875,0.3431323170661926,0.0741911381483078,0.5965598225593567
1782846779681403000,6.64140283203125,0.34098127484321594,0.11164876818656921,0.7070271968841553
1782846779691408000,6.651407958984375,0.25872528553009033,0.10739623010158539,0.8325976133346558
1782846779701412900,6.661412841796875,0.12534433603286743,0.1213914081454277,0.9333263635635376
1782846779711416800,6.671416748046875,0.004514856729656458,0.20534808933734894,1.0173234939575195
1782846779721422000,6.681422119140625,-0.04588732868432999,0.3910905420780182,1.0999222993850708
1782846779731427000,6.691427001953125,-0.0418984480202198,0.6148858070373535,1.183373212814331
1782846779741431000,6.70143115234375,0.02196388877928257,0.8698118329048157,1.2633652687072754
1782846779751436000,6.71143603515625,0.10841488838195801,0.960648775100708,1.3537249565124512
1782846779761441000,6.72144091796875,0.21088746190071106,0.8081926703453064,1.3827641010284424
1782846779771445000,6.731445068359375,0.27662840485572815,0.6320629119873047,1.2847291231155396
1782846779781450000,6.741449951171875,0.2940302789211273,0.47323840856552124,1.092811107635498
1782846779791455000,6.751455078125,0.2540954053401947,0.1814161241054535,0.8186753988265991
1782846779801459200,6.761459228515625,0.20475155115127563,-0.06299281120300293,0.15971243381500244
1782846779811464200,6.771464111328125,0.07849320769309998,-0.16605554521083832,-0.7656713128089905
1782846779821469200,6.78146923828125,-0.0776607096195221,-0.13021951913833618,-1.3138483762741089
1782846779831473400,6.791473388671875,-0.10363344848155975,-0.15433230996131897,-1.3334617614746094
1782846779841478400,6.801478515625,0.018382202833890915,-0.33401286602020264,-1.0761845111846924
1782846779851483400,6.8114833984375,0.15868578851222992,-0.4560681879520416,-0.6743595004081726
1782846779861487400,6.8214873046875,0.2013128697872162,-0.33044394850730896,-0.09486739337444305
1782846779871492400,6.831492431640625,0.14332067966461182,-0.15600185096263885,0.5777003765106201
1782846779881497300,6.841497314453125,0.08143067359924316,0.16522064805030823,1.1220347881317139
1782846779891501300,6.851501220703125,0.09183192253112793,0.3998323678970337,1.2646020650863647
1782846779901506300,6.86150634765625,0.14784805476665497,0.4204452335834503,0.881223201751709
1782846779911511300,6.87151123046875,0.15427133440971375,0.22966009378433228,0.18560288846492767
1782846779921516500,6.8815166015625,0.06571775674819946,-0.05386536195874214,-0.48027658462524414
1782846779931520500,6.8915205078125,-0.05313565582036972,-0.24918106198310852,-0.8966565132141113
1782846779941525500,6.901525390625,-0.11982840299606323,-0.2915428876876831,-1.0893306732177734
1782846779951530500,6.911530517578125,-0.12492702156305313,-0.30347466468811035,-1.1387977600097656
1782846779961534500,6.921534423828125,-0.07504894584417343,-0.2611687481403351,-1.0966100692749023
1782846779971539500,6.93153955078125,0.007838215678930283,-0.209471195936203,-0.961539089679718
1782846779981543400,6.94154345703125,0.11656656116247177,-0.14537343382835388,-0.7376745939254761
1782846779991548400,6.95154833984375,0.23024386167526245,-0.026518160477280617,-0.4900594651699066
1782846780001553400,6.961553466796875,0.33588239550590515,0.09199836850166321,-0.24307656288146973
1782846780011557400,6.971557373046875,0.39830103516578674,0.07991240918636322,-0.04584258794784546
1782846780021562400,6.981562255859375,0.4104035198688507,-0.021159080788493156,0.09474674612283707
1782846780031567400,6.9915673828125,0.38938796520233154,-0.08179552853107452,0.18265636265277863
1782846780041572400,7.001572265625,0.3351875841617584,-0.11710638552904129,0.21090424060821533
1782846780051576300,7.011576416015625,0.22938285768032074,-0.16648778319358826,0.20643679797649384
1782846780061581300,7.021581298828125,0.09700804203748703,-0.16097450256347656,0.2073017954826355
1782846780071586300,7.03158642578125,-0.05057023465633392,-0.13751232624053955,0.21790222823619843
1782846780081590500,7.041590576171875,-0.17462053894996643,-0.058576758950948715,0.20920488238334656
1782846780091595500,7.051595458984375,-0.2149418592453003,0.05181366205215454,0.15143266320228577
1782846780101600500,7.0616005859375,-0.16778740286827087,0.1389983594417572,0.03477023169398308
1782846780111604500,7.0716044921875,-0.07119295001029968,0.18860693275928497,-0.09495474398136139
1782846780121609500,7.081609375,0.0452905148267746,0.2305525243282318,-0.2093564122915268
1782846780131614500,7.091614501953125,0.13192927837371826,0.22294625639915466,-0.2972545921802521
1782846780141618400,7.101618408203125,0.180794820189476,0.192902609705925,-0.3667314052581787
1782846780151623400,7.11162353515625,0.18846765160560608,0.13721777498722076,-0.4133510887622833
1782846780161628400,7.12162841796875,0.17464211583137512,0.08343736827373505,-0.4325495660305023
1782846780171632400,7.13163232421875,0.15373815596103668,0.028542961925268173,-0.43292292952537537
1782846780181637400,7.141637451171875,0.12465351819992065,-0.012231632135808468,-0.41596418619155884
1782846780191642400,7.151642333984375,0.083692766726017,-0.05710349977016449,-0.35395461320877075
1782846780201646300,7.161646240234375,0.017669808119535446,-0.1089179590344429,-0.24584491550922394
1782846780211651300,7.1716513671875,-0.0491797961294651,-0.14462482929229736,-0.107564277946949
1782846780221656300,7.18165625,-0.08844437450170517,-0.11058802902698517,0.06482746452093124
1782846780231660300,7.191660400390625,-0.12814465165138245,-0.05356389284133911,0.2553183138370514
1782846780241665300,7.201665283203125,-0.14550712704658508,0.03206392750144005,0.46364596486091614
1782846780251670300,7.211670166015625,-0.17688262462615967,0.159146249294281,0.6608994007110596
1782846780261674500,7.221674560546875,-0.22423124313354492,0.27006396651268005,0.7930233478546143
1782846780271679500,7.231679443359375,-0.24868305027484894,0.3624567687511444,0.8503598570823669
1782846780281684500,7.2416845703125,-0.22148151695728302,0.4382447302341461,0.881289541721344
1782846780291688400,7.2516884765625,-0.14380882680416107,0.43792274594306946,0.9003977179527283
1782846780301693400,7.261693359375,-0.03993889316916466,0.37435948848724365,0.9071778655052185
1782846780311698400,7.271698486328125,0.04602528363466263,0.3331547975540161,0.9062950015068054
1782846780321702400,7.281702392578125,0.11738042533397675,0.39399072527885437,0.8971987366676331
1782846780331707400,7.291707275390625,0.15503431856632233,0.527572751045227,0.8498490452766418
1782846780341712400,7.30171240234375,0.23385536670684814,0.5584486126899719,0.8405077457427979
1782846780351716400,7.31171630859375,0.3490895628929138,0.486339271068573,0.9092708230018616
1782846780361721300,7.321721435546875,0.4494909942150116,0.38478896021842957,1.0584325790405273
1782846780371726300,7.331726318359375,0.45404499769210815,0.3011622428894043,1.2077970504760742
1782846780381730300,7.341730224609375,0.35578128695487976,0.2938667833805084,1.2594014406204224
1782846780391735300,7.3517353515625,0.17650499939918518,0.31155523657798767,1.145048975944519
1782846780401740300,7.361740234375,-0.042517367750406265,0.26362818479537964,0.8948402404785156
1782846780411744300,7.371744140625,-0.25596094131469727,0.180180162191391,0.5580233335494995
1782846780421749200,7.381749267578125,-0.3777102828025818,0.15267343819141388,0.17145749926567078
1782846780431754200,7.391754150390625,-0.3926767110824585,0.1460200548171997,-0.22852212190628052
1782846780441758500,7.401758544921875,-0.3440641760826111,0.14142903685569763,-0.5767222046852112
1782846780451763500,7.411763427734375,-0.2628585398197174,0.13539403676986694,-0.8368709087371826
1782846780461768400,7.4217685546875,-0.1491663157939911,0.11480966955423355,-0.9945132732391357
1782846780471772400,7.4317724609375,-0.009643039666116238,0.0550355538725853,-1.0490937232971191
1782846780481777400,7.44177734375,0.13102060556411743,-0.016034094616770744,-1.0182439088821411
1782846780491782400,7.451782470703125,0.25739824771881104,-0.08199845999479294,-0.9607534408569336
1782846780501786400,7.461786376953125,0.3536808490753174,-0.16100646555423737,-0.886748731136322
1782846780511791400,7.471791259765625,0.4143063724040985,-0.2757735252380371,-0.8111208081245422
1782846780521796400,7.48179638671875,0.4180063009262085,-0.38762736320495605,-0.7331687808036804
1782846780531800300,7.49180029296875,0.36930426955223083,-0.4479476809501648,-0.6497620344161987
1782846780541805600,7.5018056640625,0.3134812116622925,-0.4114205539226532,-0.5720059871673584
1782846780551810600,7.511810546875,0.20988479256629944,-0.44715991616249084,-0.4432796835899353
1782846780561814300,7.521814208984375,0.05160673335194588,-0.4496989846229553,-0.31644850969314575
1782846780571819300,7.5318193359375,-0.11432337760925293,-0.42641204595565796,-0.17925390601158142
1782846780581824300,7.54182421875,-0.26015275716781616,-0.33992961049079895,-0.020480507984757423
1782846780591828200,7.551828125,-0.3583349883556366,-0.16486218571662903,0.147304505109787
1782846780601833200,7.561833251953125,-0.40587878227233887,0.05717566981911659,0.26908817887306213
1782846780611838500,7.57183837890625,-0.3964719772338867,0.21122409403324127,0.30835065245628357
1782846780621842400,7.581842529296875,-0.3692725896835327,0.30297210812568665,0.23974016308784485
1782846780631847400,7.591847412109375,-0.3453853726387024,0.3231346607208252,0.08087966591119766
1782846780641852400,7.601852294921875,-0.3366270065307617,0.307162344455719,-0.11897832155227661
1782846780651856400,7.6118564453125,-0.3435128927230835,0.3030024766921997,-0.32787880301475525
1782846780661861400,7.621861328125,-0.35024136304855347,0.31816864013671875,-0.5084933042526245
1782846780671866400,7.631866455078125,-0.3409131169319153,0.27701616287231445,-0.6341585516929626
1782846780681870300,7.641870361328125,-0.3164117634296417,0.17924991250038147,-0.6919246912002563
1782846780691875600,7.65187548828125,-0.2785021960735321,0.07021450996398926,-0.6707285642623901
1782846780701880600,7.661880615234375,-0.23558323085308075,-0.02568858489394188,-0.5774063467979431
1782846780711884500,7.671884521484375,-0.18768920004367828,-0.08456282317638397,-0.4346334934234619
1782846780721889500,7.6818896484375,-0.13767796754837036,-0.11020080745220184,-0.2740728259086609
1782846780731894500,7.69189453125,-0.06513186544179916,-0.11293374001979828,-0.11112012714147568
1782846780741898200,7.701898193359375,0.009473396465182304,-0.07140734046697617,0.05848461389541626
1782846780751903200,7.7119033203125,0.056822001934051514,-0.001591505017131567,0.23614409565925598
1782846780761908200,7.721908203125,0.07080946117639542,0.10118840634822845,0.43401002883911133
1782846780771912400,7.731912353515625,0.05612558871507645,0.2127668559551239,0.6534097790718079
1782846780781917400,7.74191748046875,0.007631287910044193,0.2721146047115326,0.8240190744400024
1782846780791922400,7.75192236328125,-0.038174282759428024,0.2959834635257721,0.8946886658668518
1782846780801926400,7.761926513671875,-0.059235360473394394,0.2525816559791565,0.8602505326271057
1782846780811931400,7.771931396484375,-0.07149122655391693,0.16173803806304932,0.7033355236053467
1782846780821936400,7.781936279296875,-0.018757175654172897,0.13203047215938568,0.4718809723854065
1782846780831940400,7.7919404296875,0.09222100675106049,0.182106152176857,0.2732456624507904
1782846780841945300,7.8019453125,0.19888167083263397,0.288411021232605,0.15847060084342957
1782846780851950300,7.811950439453125,0.27928516268730164,0.4294680058956146,0.09884801506996155
1782846780861954300,7.821954345703125,0.34156930446624756,0.5910622477531433,-0.03810344263911247
1782846780871959300,7.831959228515625,0.31612253189086914,0.6678590178489685,-0.27211007475852966
1782846780881964300,7.84196435546875,0.23114906251430511,0.4730205535888672,-0.4847815930843353
1782846780891968300,7.85196826171875,0.15721066296100616,0.13204778730869293,-0.6102524399757385
1782846780901973200,7.86197314453125,0.11148684471845627,-0.18992546200752258,-0.7670114040374756
1782846780911978200,7.871978271484375,0.15428385138511658,-0.35500070452690125,-0.9141526818275452
1782846780921982200,7.881982177734375,0.20387563109397888,-0.6332088708877563,-0.8189638257026672
1782846780931987200,7.8919873046875,0.14022235572338104,-0.6833263635635376,-0.4625926613807678
1782846780941992200,7.9019921875,0.11247620731592178,-0.5347885489463806,-0.0006705839768983424
1782846780951996400,7.911996337890625,0.15338236093521118,-0.2830929458141327,0.296293705701828
1782846780962001400,7.92200146484375,0.21505717933177948,-0.07170641422271729,0.18559862673282623
1782846780972006400,7.93200634765625,0.2021387219429016,-0.0002924150903709233,-0.22725871205329895
1782846780982010400,7.94201025390625,0.0891522467136383,-0.050220027565956116,-0.5969177484512329
1782846780992015400,7.952015380859375,-0.016039952635765076,-0.09593531489372253,-0.7867510318756104
1782846781002020400,7.962020263671875,-0.06175417825579643,-0.11922093480825424,-0.8387910723686218
1782846781012024300,7.9720244140625,-0.04405640810728073,-0.14800091087818146,-0.7918273210525513
1782846781022029300,7.982029296875,0.016650615260004997,-0.14083461463451385,-0.6520931124687195
1782846781032034300,7.992034423828125,0.10510218143463135,-0.14349856972694397,-0.4570927023887634
1782846781042038300,8.002038330078125,0.2006622552871704,-0.1177079901099205,-0.2776627838611603
1782846781052043300,8.012043212890624,0.282875657081604,-0.10630486905574799,-0.15659333765506744
1782846781062048300,8.02204833984375,0.3384861648082733,-0.11764433979988098,-0.1021450087428093
1782846781072052200,8.03205224609375,0.342913955450058,-0.13068930804729462,-0.07884794473648071
1782846781082057200,8.04205712890625,0.29204970598220825,-0.12459732592105865,-0.067292220890522
1782846781092062200,8.052062255859376,0.21805483102798462,-0.07910627126693726,-0.04478877782821655
1782846781102066200,8.062066162109375,0.15871986746788025,-0.014873221516609192,-0.0016871124971657991
1782846781112071200,8.0720712890625,0.11376864463090897,0.02280811034142971,0.04182281345129013
1782846781122076200,8.082076171875,0.06037146598100662,-0.045362688601017,0.04144411161541939
1782846781132080400,8.092080322265625,0.000963797967415303,0.00006657902849838138,0.04465748369693756
1782846781142085400,8.10208544921875,-0.03196965157985687,0.03310282528400421,0.029381856322288513
1782846781152090400,8.11209033203125,-0.07885167002677917,0.06748050451278687,-0.00029401297797448933
1782846781162094300,8.12209423828125,-0.09852204471826553,0.0897088497877121,-0.0322684571146965
1782846781172099300,8.132099365234374,-0.11191348731517792,0.04655977711081505,-0.07937924563884735
1782846781182104300,8.142104248046875,-0.10276579111814499,-0.04815128445625305,-0.15215171873569489
1782846781192108300,8.1521083984375,-0.0720510259270668,-0.1425670087337494,-0.2345810830593109
1782846781202113300,8.16211328125,-0.030299315229058266,-0.22222082316875458,-0.2903447449207306
1782846781212118300,8.1721181640625,-0.0025683525018393993,-0.27943935990333557,-0.2822716236114502
1782846781222122200,8.182122314453125,0.01378185860812664,-0.29269763827323914,-0.2174987643957138
1782846781232127200,8.192127197265625,0.017363544553518295,-0.27218517661094666,-0.09674784541130066
1782846781242132200,8.20213232421875,0.01678004488348961,-0.22625337541103363,0.07412083446979523
1782846781252136200,8.21213623046875,0.02479083463549614,-0.17411081492900848,0.2762955129146576
1782846781262141200,8.22214111328125,0.04514643922448158,-0.12914440035820007,0.4852854609489441
1782846781272146200,8.232146240234375,0.08075450360774994,-0.01985013671219349,0.6691085696220398
1782846781282151200,8.242151123046876,0.0982421487569809,0.11473803222179413,0.8166133165359497
1782846781292155400,8.2521552734375,0.0962490364909172,0.20497365295886993,0.9489378333091736
1782846781302160400,8.262160400390625,0.06819210201501846,0.2214847207069397,1.0527443885803223
1782846781312165400,8.272165283203124,0.015222628600895405,0.10788758099079132,1.0912725925445557
1782846781322169300,8.28216943359375,-0.044440433382987976,-0.11139550060033798,1.0141242742538452
1782846781332174300,8.29217431640625,-0.08303976058959961,-0.36972931027412415,0.8818024396896362
1782846781342179300,8.302179443359375,-0.07337621599435806,-0.49906864762306213,0.7298794984817505
1782846781352183300,8.312183349609375,-0.02484196610748768,-0.47906219959259033,0.6040749549865723
1782846781362188300,8.322188232421874,0.031687356531620026,-0.3531511425971985,0.4953319728374481
1782846781372193300,8.332193359375,0.0642668679356575,-0.16046078503131866,0.4101009666919708
1782846781382197500,8.342197509765626,0.09326016902923584,0.03672259300947189,0.3545500934123993
1782846781392202500,8.352202392578125,0.12705062329769135,0.14427807927131653,0.2973238229751587
1782846781402207500,8.36220751953125,0.14354199171066284,0.18069201707839966,0.21033672988414764
1782846781412211500,8.37221142578125,0.13397137820720673,0.1858457624912262,0.10610752552747726
1782846781422216400,8.382216552734375,0.1210302859544754,0.19416867196559906,-0.02882339246571064
1782846781432221400,8.392221435546874,0.13193300366401672,0.17412492632865906,-0.18524175882339478
1782846781442225200,8.40222509765625,0.17882274091243744,0.12790682911872864,-0.28871461749076843
1782846781452230100,8.412230224609376,0.26115089654922485,0.06112247705459595,-0.2966684103012085
1782846781462235100,8.422235107421875,0.36041516065597534,-0.044795967638492584,-0.24460868537425995
1782846781472239400,8.4322392578125,0.44617509841918945,-0.16815412044525146,-0.17139838635921478
1782846781482244400,8.442244384765624,0.5014082193374634,-0.3129291534423828,-0.09194989502429962
1782846781492249300,8.452249267578125,0.5317792296409607,-0.42727968096733093,-0.03321707621216774
1782846781502253300,8.46225341796875,0.5496764183044434,-0.49121180176734924,0.006473612040281296
1782846781512258300,8.47225830078125,0.5576257109642029,-0.477559894323349,0.03352360427379608
1782846781522263300,8.48226318359375,0.5534621477127075,-0.39449137449264526,0.06161356344819069
1782846781532267300,8.492267333984374,0.531171977519989,-0.28195950388908386,0.0876757875084877
1782846781542272300,8.502272216796875,0.5009331107139587,-0.15061667561531067,0.1257219761610031
1782846781552277200,8.51227734375,0.48042812943458557,-0.010522682219743729,0.20307721197605133
1782846781562281500,8.522281494140625,0.45413634181022644,0.10977549850940704,0.31844189763069153
1782846781572286500,8.532286376953126,0.4261566400527954,0.16051137447357178,0.4756331145763397
1782846781582291500,8.54229150390625,0.40440845489501953,0.08633861690759659,0.645925760269165
1782846781592295400,8.55229541015625,0.348748117685318,-0.025143703445792198,0.8004679083824158
1782846781602300400,8.562300537109374,0.2697606384754181,-0.08020136505365372,0.9276083111763
1782846781612305400,8.572305419921875,0.20458297431468964,-0.10104485601186752,0.9892455339431763
1782846781622309000,8.58230908203125,0.1656387597322464,-0.10634827613830566,0.947645902633667
1782846781632314000,8.592314208984375,0.16526032984256744,-0.09556940197944641,0.8048104643821716
1782846781642319000,8.602319091796875,0.18542338907718658,-0.06655345857143402,0.5976956486701965
1782846781652323300,8.6123232421875,0.21354344487190247,0.05811869725584984,0.4096495807170868
1782846781662328300,8.622328369140625,0.23928235471248627,0.3134703040122986,0.2816300690174103
1782846781672333300,8.632333251953124,0.26137566566467285,0.518692672252655,0.19259901344776154
1782846781682337300,8.642337158203125,0.24872353672981262,0.7583516240119934,0.32963916659355164
1782846781692342300,8.65234228515625,0.27148982882499695,0.43047869205474854,0.19824731349945068
1782846781702347300,8.66234716796875,0.3042200803756714,0.07327794283628464,-0.02533411793410778
1782846781712351200,8.672351318359375,0.35017478466033936,-0.1495567411184311,-0.17950451374053955
1782846781722356200,8.682356201171874,0.3580966293811798,-0.28398510813713074,-0.1542670726776123
