time,seconds_elapsed,z,y,x
1782846015706376200,0.065376220703125,-0.9768524169921875,-0.118438720703125,0.10015869140625
1782846015716382500,0.075382568359375,-0.9817962646484375,-0.1178131103515625,0.1033935546875
1782846015726387500,0.085387451171875,-0.9855804443359375,-0.1207427978515625,0.1041259765625
1782846015736392400,0.095392333984375,-0.9788055419921875,-0.1190948486328125,0.1063995361328125
1782846015746398500,0.1053984375,-0.970245361328125,-0.1198577880859375,0.1045074462890625
1782846015756403500,0.115403564453125,-0.967315673828125,-0.122955322265625,0.099761962890625
1782846015766409500,0.125409423828125,-0.971405029296875,-0.1201629638671875,0.0960235595703125
1782846015776414500,0.13541455078125,-0.976470947265625,-0.1186065673828125,0.09210205078125
1782846015786419500,0.14541943359375,-0.98406982421875,-0.11773681640625,0.0899810791015625
1782846015796425200,0.15542529296875,-0.9847869873046875,-0.118438720703125,0.09051513671875
1782846015806430500,0.165430419921875,-0.97650146484375,-0.121246337890625,0.089599609375
1782846015816435500,0.175435546875,-0.9730224609375,-0.1197357177734375,0.085235595703125
1782846015826441200,0.185441162109375,-0.974517822265625,-0.12298583984375,0.08441162109375
1782846015836446500,0.195446533203125,-0.9807586669921875,-0.121429443359375,0.0871734619140625
1782846015846452500,0.205452392578125,-0.984649658203125,-0.12042236328125,0.092864990234375
1782846015856457500,0.21545751953125,-0.9803924560546875,-0.12060546875,0.094146728515625
1782846015866462500,0.22546240234375,-0.97906494140625,-0.121124267578125,0.0921173095703125
1782846015876468500,0.235468505859375,-0.9786834716796875,-0.120208740234375,0.0909271240234375
1782846015886473500,0.245473388671875,-0.98675537109375,-0.1193389892578125,0.09027099609375
1782846015896478500,0.255478515625,-0.989654541015625,-0.116363525390625,0.0954437255859375
1782846015906484500,0.265484375,-0.9864654541015625,-0.116455078125,0.0976104736328125
1782846015916489500,0.275489501953125,-0.9777679443359375,-0.1161651611328125,0.0955810546875
1782846015926495200,0.2854951171875,-0.9734039306640625,-0.118072509765625,0.0951995849609375
1782846015936500200,0.295500244140625,-0.973175048828125,-0.1180572509765625,0.0956268310546875
1782846015946505200,0.305505126953125,-0.9712066650390625,-0.1191253662109375,0.09375
1782846015956511500,0.315511474609375,-0.9751129150390625,-0.1188812255859375,0.096649169921875
1782846015966516500,0.3255166015625,-0.97906494140625,-0.119964599609375,0.0977630615234375
1782846015976521500,0.335521484375,-0.98114013671875,-0.119781494140625,0.1015167236328125
1782846015986527500,0.345527587890625,-0.987548828125,-0.119720458984375,0.0973663330078125
1782846015996532500,0.355532470703125,-0.9884185791015625,-0.1182098388671875,0.097808837890625
1782846016006538500,0.36553857421875,-0.989532470703125,-0.1201171875,0.0966644287109375
1782846016016543500,0.37554345703125,-0.9918365478515625,-0.119171142578125,0.095062255859375
1782846016026548500,0.385548583984375,-0.9895172119140625,-0.1183929443359375,0.0955963134765625
1782846016036554200,0.39555419921875,-0.98468017578125,-0.1220703125,0.0954437255859375
1782846016046559200,0.405559326171875,-0.9790191650390625,-0.1205596923828125,0.0976104736328125
1782846016056564200,0.415564208984375,-0.977630615234375,-0.1196441650390625,0.0983428955078125
1782846016066570500,0.425570556640625,-0.9795684814453125,-0.1174774169921875,0.0971832275390625
1782846016076575500,0.435575439453125,-0.982208251953125,-0.1168060302734375,0.0980682373046875
1782846016086581500,0.44558154296875,-0.97711181640625,-0.1170654296875,0.09783935546875
1782846016096586500,0.45558642578125,-0.9690704345703125,-0.117706298828125,0.09539794921875
1782846016106591500,0.465591552734375,-0.967376708984375,-0.120513916015625,0.0948028564453125
1782846016116597500,0.475597412109375,-0.9686126708984375,-0.1211700439453125,0.0948028564453125
1782846016126602500,0.4856025390625,-0.9696197509765625,-0.1204376220703125,0.09503173828125
1782846016136607500,0.495607421875,-0.9734954833984375,-0.1222381591796875,0.0936431884765625
1782846016146613200,0.50561328125,-0.9759979248046875,-0.1218109130859375,0.0908050537109375
1782846016156618200,0.5156181640625,-0.977203369140625,-0.124237060546875,0.0888519287109375
1782846016166624300,0.525624267578125,-0.98004150390625,-0.12469482421875,0.0874481201171875
1782846016176629200,0.535629150390625,-0.985443115234375,-0.12353515625,0.0921173095703125
1782846016186634200,0.54563427734375,-0.9846343994140625,-0.124664306640625,0.09130859375
1782846016196640500,0.555640625,-0.9870452880859375,-0.1243896484375,0.0863037109375
1782846016206645500,0.5656455078125,-0.985595703125,-0.126434326171875,0.08282470703125
1782846016216650500,0.575650390625,-0.9807891845703125,-0.1249237060546875,0.08203125
1782846016226656500,0.585656494140625,-0.9799957275390625,-0.123565673828125,0.08160400390625
1782846016236661500,0.59566162109375,-0.9820709228515625,-0.1228790283203125,0.0818939208984375
1782846016246667300,0.605667236328125,-0.9876861572265625,-0.1237030029296875,0.0828399658203125
1782846016256672300,0.61567236328125,-0.991302490234375,-0.122772216796875,0.08453369140625
1782846016266677500,0.625677490234375,-0.9913330078125,-0.11968994140625,0.08721923828125
1782846016276683300,0.635683349609375,-0.9876708984375,-0.1201324462890625,0.0921173095703125
1782846016286688300,0.645688232421875,-0.9808502197265625,-0.123565673828125,0.0919952392578125
1782846016296693200,0.655693359375,-0.9712066650390625,-0.1207275390625,0.088714599609375
1782846016306699500,0.665699462890625,-0.9665374755859375,-0.1218719482421875,0.0890655517578125
1782846016316704000,0.6757041015625,-0.96392822265625,-0.124786376953125,0.0927734375
1782846016326709000,0.685708984375,-0.9639434814453125,-0.1277008056640625,0.0986175537109375
1782846016336715000,0.695715087890625,-0.967803955078125,-0.125457763671875,0.095428466796875
1782846016346720000,0.705719970703125,-0.9722137451171875,-0.1223297119140625,0.0923004150390625
1782846016356726000,0.71572607421875,-0.9759368896484375,-0.1240234375,0.0876007080078125
1782846016366731000,0.72573095703125,-0.981201171875,-0.1255035400390625,0.0846099853515625
1782846016376736000,0.735736083984375,-0.98492431640625,-0.1267242431640625,0.079620361328125
1782846016386741800,0.74574169921875,-0.9906463623046875,-0.1262969970703125,0.0795745849609375
1782846016396746800,0.755746826171875,-0.991241455078125,-0.124359130859375,0.08160400390625
1782846016406751700,0.765751708984375,-0.9908294677734375,-0.1249237060546875,0.08203125
1782846016416758000,0.775758056640625,-0.9876708984375,-0.1233673095703125,0.0805206298828125
1782846016426763000,0.785762939453125,-0.9833221435546875,-0.1235198974609375,0.078643798828125
1782846016436769000,0.79576904296875,-0.9761810302734375,-0.1256256103515625,0.0802764892578125
1782846016446774000,0.80577392578125,-0.971649169921875,-0.1258087158203125,0.0853424072265625
1782846016456779000,0.815779052734375,-0.9736175537109375,-0.12506103515625,0.0877227783203125
1782846016466785000,0.825784912109375,-0.974029541015625,-0.124359130859375,0.0821075439453125
1782846016476790000,0.8357900390625,-0.9782562255859375,-0.121246337890625,0.084564208984375
1782846016486795000,0.845794921875,-0.9764404296875,-0.1216278076171875,0.0860137939453125
1782846016496801000,0.855801025390625,-0.9753265380859375,-0.1219329833984375,0.085113525390625
1782846016506806000,0.865805908203125,-0.9770050048828125,-0.1212158203125,0.08837890625
1782846016516812000,0.87581201171875,-0.974945068359375,-0.1199798583984375,0.09259033203125
1782846016526817000,0.885817138671875,-0.973663330078125,-0.1157379150390625,0.0914306640625
1782846016536822000,0.895822021484375,-0.975006103515625,-0.1188201904296875,0.0852203369140625
1782846016546828000,0.905828125,-0.9809112548828125,-0.1230316162109375,0.0857696533203125
1782846016556833000,0.9158330078125,-0.9902496337890625,-0.1231536865234375,0.09307861328125
1782846016566838000,0.925838134765625,-0.99481201171875,-0.1241455078125,0.0938720703125
1782846016576844000,0.935843994140625,-0.993316650390625,-0.1256256103515625,0.0904693603515625
1782846016586849000,0.94584912109375,-0.989898681640625,-0.1251983642578125,0.084503173828125
1782846016596854000,0.95585400390625,-0.9848175048828125,-0.126495361328125,0.0847625732421875
1782846016606860000,0.965860107421875,-0.9796905517578125,-0.1258697509765625,0.082763671875
1782846016616865000,0.975864990234375,-0.9792633056640625,-0.1252593994140625,0.081207275390625
1782846016626870800,0.985870849609375,-0.9783172607421875,-0.1259765625,0.079071044921875
1782846016636876000,0.9958759765625,-0.97442626953125,-0.125732421875,0.078704833984375
1782846016646881000,1.005881103515625,-0.976470947265625,-0.12664794921875,0.0807647705078125
1782846016656887000,1.015886962890625,-0.9759368896484375,-0.12811279296875,0.0839996337890625
1782846016666892000,1.02589208984375,-0.977752685546875,-0.128143310546875,0.082366943359375
1782846016676897000,1.03589697265625,-0.9804229736328125,-0.123992919921875,0.08538818359375
1782846016686903000,1.045903076171875,-0.9781494140625,-0.1226654052734375,0.0902252197265625
1782846016696908000,1.055907958984375,-0.977203369140625,-0.125457763671875,0.0927886962890625
1782846016706913000,1.0659130859375,-0.9801025390625,-0.124114990234375,0.0935821533203125
1782846016716919000,1.0759189453125,-0.9852142333984375,-0.123016357421875,0.0963897705078125
1782846016726924000,1.085924072265625,-0.97552490234375,-0.1255035400390625,0.0854034423828125
1782846016736929800,1.0959296875,-0.97186279296875,-0.1280364990234375,0.08203125
1782846016746934800,1.105934814453125,-0.97271728515625,-0.1297607421875,0.081939697265625
1782846016756939800,1.115939697265625,-0.9757232666015625,-0.1292572021484375,0.0819244384765625
1782846016766946000,1.125946044921875,-0.9760589599609375,-0.1272735595703125,0.0816497802734375
1782846016776951000,1.135950927734375,-0.9771270751953125,-0.1280364990234375,0.0824432373046875
1782846016786956000,1.1459560546875,-0.9827423095703125,-0.12982177734375,0.0833587646484375
1782846016796962000,1.155962158203125,-0.9884796142578125,-0.1311798095703125,0.0839080810546875
1782846016806967000,1.165967041015625,-0.985015869140625,-0.1324920654296875,0.0814056396484375
1782846016816972000,1.175971923828125,-0.9812774658203125,-0.13116455078125,0.07769775390625
1782846016826978000,1.18597802734375,-0.9783172607421875,-0.132171630859375,0.078277587890625
1782846016836983000,1.195983154296875,-0.976715087890625,-0.1312713623046875,0.0768280029296875
1782846016846988800,1.20598876953125,-0.9754486083984375,-0.1294403076171875,0.0765228271484375
1782846016856993800,1.215993896484375,-0.9769439697265625,-0.1302032470703125,0.077484130859375
1782846016866998800,1.225998779296875,-0.98388671875,-0.1282806396484375,0.0753021240234375
1782846016877005000,1.236005126953125,-0.9931488037109375,-0.1269073486328125,0.079315185546875
1782846016887010000,1.246010009765625,-0.988525390625,-0.1277618408203125,0.0811309814453125
1782846016897015000,1.25601513671875,-0.9812469482421875,-0.1260833740234375,0.0784759521484375
1782846016907021000,1.26602099609375,-0.9775238037109375,-0.1224517822265625,0.082672119140625
1782846016917026000,1.276026123046875,-0.9713287353515625,-0.1241302490234375,0.089263916015625
1782846016927031000,1.286031005859375,-0.9671783447265625,-0.1244049072265625,0.0928497314453125
1782846016937037000,1.296037109375,-0.9663238525390625,-0.1237030029296875,0.091522216796875
1782846016947042000,1.3060419921875,-0.9644775390625,-0.1258392333984375,0.0877227783203125
1782846016957048000,1.316048095703125,-0.9655609130859375,-0.128387451171875,0.0889129638671875
1782846016967053000,1.326052978515625,-0.9660491943359375,-0.1271820068359375,0.0901336669921875
1782846016977058000,1.33605810546875,-0.96600341796875,-0.1286468505859375,0.0912017822265625
1782846016987063800,1.346063720703125,-0.97296142578125,-0.126617431640625,0.09442138671875
1782846016997068800,1.35606884765625,-0.9832000732421875,-0.126800537109375,0.09564208984375
1782846017007073800,1.36607373046875,-0.9885101318359375,-0.1294403076171875,0.0890045166015625
1782846017017080000,1.376080078125,-0.9889373779296875,-0.1306304931640625,0.0892333984375
1782846017027085000,1.3860849609375,-0.9886474609375,-0.1336822509765625,0.089630126953125
1782846017037091000,1.396091064453125,-0.9893951416015625,-0.1340484619140625,0.08758544921875
1782846017047096000,1.406095947265625,-0.986541748046875,-0.1303558349609375,0.0830078125
1782846017057101000,1.41610107421875,-0.98583984375,-0.1261749267578125,0.0818328857421875
1782846017067107000,1.426107177734375,-0.9818115234375,-0.125396728515625,0.0833587646484375
1782846017077112000,1.436112060546875,-0.9818115234375,-0.1255645751953125,0.0857696533203125
1782846017087117000,1.446116943359375,-0.9864349365234375,-0.1234130859375,0.0864715576171875
1782846017097122800,1.456122802734375,-0.987945556640625,-0.1216278076171875,0.0888214111328125
1782846017107127800,1.4661279296875,-0.9811553955078125,-0.1244354248046875,0.090423583984375
1782846017117132800,1.4761328125,-0.974853515625,-0.1269073486328125,0.090057373046875
1782846017127139000,1.48613916015625,-0.966522216796875,-0.1275787353515625,0.0905609130859375
1782846017137144000,1.49614404296875,-0.962646484375,-0.1258697509765625,0.0880279541015625
1782846017147149000,1.506149169921875,-0.967132568359375,-0.1251373291015625,0.0857086181640625
1782846017157155000,1.516155029296875,-0.974517822265625,-0.124542236328125,0.092041015625
1782846017167160000,1.52616015625,-0.9794921875,-0.128082275390625,0.0941162109375
1782846017177166000,1.536166015625,-0.983734130859375,-0.126220703125,0.09429931640625
1782846017187171000,1.546171142578125,-0.9857177734375,-0.12713623046875,0.0947265625
1782846017197176000,1.556176025390625,-0.9855194091796875,-0.1307373046875,0.09503173828125
1782846017207181800,1.566181884765625,-0.982818603515625,-0.131072998046875,0.09197998046875
1782846017217186800,1.576186767578125,-0.9815216064453125,-0.1305999755859375,0.08990478515625
1782846017227191800,1.58619189453125,-0.98040771484375,-0.1309356689453125,0.0883331298828125
1782846017237197800,1.59619775390625,-0.9745635986328125,-0.131256103515625,0.089080810546875
1782846017247202800,1.606202880859375,-0.9713287353515625,-0.1302032470703125,0.0876312255859375
1782846017257207800,1.616207763671875,-0.9702301025390625,-0.130462646484375,0.087982177734375
1782846017267214000,1.626214111328125,-0.9722900390625,-0.12969970703125,0.0892486572265625
1782846017277219000,1.636218994140625,-0.9736785888671875,-0.1311798095703125,0.0898284912109375
1782846017287224000,1.64622412109375,-0.9765472412109375,-0.1316375732421875,0.091949462890625
1782846017297230000,1.65622998046875,-0.98150634765625,-0.12872314453125,0.095489501953125
1782846017307235000,1.666235107421875,-0.9854888916015625,-0.126556396484375,0.0933990478515625
1782846017317241000,1.676240966796875,-0.988800048828125,-0.12469482421875,0.090179443359375
1782846017327246000,1.68624609375,-0.992279052734375,-0.12677001953125,0.0925750732421875
1782846017337251000,1.6962509765625,-0.985076904296875,-0.127227783203125,0.094085693359375
1782846017347257000,1.706257080078125,-0.98187255859375,-0.1272735595703125,0.093170166015625
1782846017357262000,1.716261962890625,-0.9787750244140625,-0.127166748046875,0.092987060546875
1782846017367267000,1.72626708984375,-0.9750518798828125,-0.129730224609375,0.0908050537109375
1782846017377273300,1.7362734375,-0.9729461669921875,-0.1301116943359375,0.0936431884765625
1782846017387278300,1.7462783203125,-0.9726409912109375,-0.1320343017578125,0.0934906005859375
1782846017397283300,1.756283447265625,-0.9740447998046875,-0.1307525634765625,0.0937042236328125
1782846017407289300,1.766289306640625,-0.97943115234375,-0.132354736328125,0.09405517578125
1782846017417294300,1.77629443359375,-0.978851318359375,-0.1313934326171875,0.0928955078125
1782846017427300000,1.786300048828125,-0.9795074462890625,-0.1296234130859375,0.093231201171875
1782846017437305000,1.79630517578125,-0.97998046875,-0.1296234130859375,0.09027099609375
1782846017447310300,1.806310302734375,-0.9839324951171875,-0.131317138671875,0.0889739990234375
1782846017457316000,1.816316162109375,-0.981842041015625,-0.13055419921875,0.0915069580078125
1782846017467321000,1.826321044921875,-0.9774017333984375,-0.132232666015625,0.0948486328125
1782846017477326000,1.836326171875,-0.974822998046875,-0.1321258544921875,0.091522216796875
1782846017487332400,1.846332275390625,-0.9688873291015625,-0.1273345947265625,0.0919036865234375
1782846017497337300,1.85633740234375,-0.964599609375,-0.128204345703125,0.089019775390625
1782846017507342300,1.86634228515625,-0.967376708984375,-0.127410888671875,0.0887451171875
1782846017517348400,1.876348388671875,-0.97222900390625,-0.1274566650390625,0.091400146484375
1782846017527353300,1.886353271484375,-0.978057861328125,-0.1261749267578125,0.0980072021484375
1782846017537359400,1.896359375,-0.9827728271484375,-0.1263275146484375,0.099395751953125
1782846017547364400,1.9063642578125,-0.9844970703125,-0.12823486328125,0.0967254638671875
1782846017557369300,1.916369384765625,-0.9783477783203125,-0.127166748046875,0.0947418212890625
1782846017567375000,1.926375,-0.9817047119140625,-0.1270904541015625,0.097259521484375
1782846017577380000,1.936380126953125,-0.9841156005859375,-0.128387451171875,0.1017913818359375
1782846017587385000,1.946385009765625,-0.9786376953125,-0.1302490234375,0.1011505126953125
1782846017597391000,1.95639111328125,-0.973785400390625,-0.1270751953125,0.1040802001953125
1782846017607396000,1.96639599609375,-0.96893310546875,-0.1287078857421875,0.1013031005859375
1782846017617401000,1.976401123046875,-0.96868896484375,-0.1276092529296875,0.0993499755859375
1782846017627407400,1.986407470703125,-0.96978759765625,-0.126007080078125,0.0963287353515625
1782846017637412400,1.996412353515625,-0.9740753173828125,-0.12811279296875,0.0972137451171875
1782846017647417300,2.006417236328125,-0.9785919189453125,-0.1302337646484375,0.0943603515625
1782846017657423400,2.01642333984375,-0.9790496826171875,-0.1319732666015625,0.0962677001953125
1782846017667428400,2.026428466796875,-0.9788360595703125,-0.132843017578125,0.0942230224609375
1782846017677434000,2.03643408203125,-0.9828948974609375,-0.1319732666015625,0.0912933349609375
1782846017687439000,2.046439208984375,-0.98272705078125,-0.133209228515625,0.0904693603515625
1782846017697444000,2.056444091796875,-0.9772796630859375,-0.1327667236328125,0.0929412841796875
1782846017707450000,2.0664501953125,-0.97808837890625,-0.131500244140625,0.0960235595703125
1782846017717455000,2.076455078125,-0.9787750244140625,-0.1295928955078125,0.0990447998046875
1782846017727460000,2.086460205078125,-0.981109619140625,-0.1280364990234375,0.0928497314453125
1782846017737466400,2.09646630859375,-0.985198974609375,-0.12799072265625,0.08966064453125
1782846017747471400,2.106471435546875,-0.988677978515625,-0.1268768310546875,0.0899505615234375
1782846017757476400,2.116476318359375,-0.9887542724609375,-0.1268310546875,0.0910797119140625
1782846017767482400,2.126482421875,-0.9876861572265625,-0.1281280517578125,0.094085693359375
1782846017777487400,2.1364873046875,-0.9838409423828125,-0.1281890869140625,0.095916748046875
1782846017787492400,2.146492431640625,-0.980804443359375,-0.128875732421875,0.0970001220703125
1782846017797498000,2.156498046875,-0.9773712158203125,-0.12890625,0.101165771484375
1782846017807503000,2.166503173828125,-0.9745330810546875,-0.13409423828125,0.101715087890625
1782846017817509000,2.176509033203125,-0.970733642578125,-0.130462646484375,0.1048126220703125
1782846017827514000,2.18651416015625,-0.968536376953125,-0.1279449462890625,0.1036529541015625
1782846017837519000,2.19651904296875,-0.9691009521484375,-0.130218505859375,0.1005859375
1782846017847525000,2.206525146484375,-0.9729461669921875,-0.1286468505859375,0.1012725830078125
1782846017857530400,2.2165302734375,-0.9798583984375,-0.127593994140625,0.102020263671875
1782846017867535400,2.226535400390625,-0.98284912109375,-0.1324462890625,0.1001434326171875
1782846017877541400,2.236541259765625,-0.982757568359375,-0.1264190673828125,0.0994415283203125
1782846017887546400,2.24654638671875,-0.9841766357421875,-0.1261749267578125,0.097442626953125
1782846017897551400,2.25655126953125,-0.980224609375,-0.12847900390625,0.0991058349609375
1782846017907557400,2.266557373046875,-0.978118896484375,-0.130340576171875,0.1007843017578125
1782846017917562400,2.276562255859375,-0.975128173828125,-0.1291656494140625,0.10186767578125
1782846017927567400,2.2865673828125,-0.9777069091796875,-0.122314453125,0.0992431640625
1782846017937573000,2.296572998046875,-0.9784088134765625,-0.121429443359375,0.09796142578125
1782846017947578000,2.306578125,-0.97808837890625,-0.121795654296875,0.1012115478515625
1782846017957583000,2.3165830078125,-0.9783782958984375,-0.1202392578125,0.102325439453125
1782846017967589000,2.326589111328125,-0.975982666015625,-0.12017822265625,0.103424072265625
1782846017977594000,2.336593994140625,-0.9731597900390625,-0.1231842041015625,0.1010589599609375
1782846017987600400,2.346600341796875,-0.97381591796875,-0.124755859375,0.0990447998046875
1782846017997605400,2.35660546875,-0.9709625244140625,-0.127655029296875,0.094146728515625
1782846018007610400,2.3666103515625,-0.963165283203125,-0.13079833984375,0.09259033203125
1782846018017616400,2.376616455078125,-0.963104248046875,-0.1309051513671875,0.0900726318359375
1782846018027621400,2.386621337890625,-0.967132568359375,-0.130279541015625,0.0886077880859375
1782846018037626400,2.39662646484375,-0.9697418212890625,-0.1281585693359375,0.087371826171875
1782846018047632100,2.406632080078125,-0.9766998291015625,-0.128814697265625,0.09130859375
1782846018057637000,2.41663720703125,-0.9828338623046875,-0.130279541015625,0.0972900390625
1782846018067642000,2.42664208984375,-0.982666015625,-0.1289825439453125,0.09735107421875
1782846018077648100,2.436648193359375,-0.9844970703125,-0.1291656494140625,0.0926055908203125
1782846018087653000,2.446653076171875,-0.9859771728515625,-0.1302337646484375,0.0921630859375
1782846018097658000,2.456658203125,-0.9849395751953125,-0.1313629150390625,0.0932769775390625
1782846018107664400,2.466664306640625,-0.9825897216796875,-0.1319122314453125,0.093231201171875
1782846018117669400,2.47666943359375,-0.9837799072265625,-0.1309661865234375,0.0915679931640625
1782846018127675400,2.48667529296875,-0.9834747314453125,-0.1287841796875,0.0926971435546875
1782846018137680400,2.496680419921875,-0.9805450439453125,-0.1296234130859375,0.096588134765625
1782846018147685400,2.506685302734375,-0.97869873046875,-0.1306610107421875,0.0988311767578125
1782846018157691100,2.516691162109375,-0.9749755859375,-0.1298675537109375,0.097320556640625
1782846018167696100,2.526696044921875,-0.973297119140625,-0.130462646484375,0.097076416015625
1782846018177701000,2.536701171875,-0.977508544921875,-0.1301116943359375,0.09710693359375
1782846018187707100,2.54670703125,-0.98284912109375,-0.1284332275390625,0.0965423583984375
1782846018197712100,2.556712158203125,-0.9840087890625,-0.1290435791015625,0.1034088134765625
1782846018207717000,2.566717041015625,-0.9810943603515625,-0.13323974609375,0.1051025390625
1782846018217723100,2.57672314453125,-0.9803314208984375,-0.1323699951171875,0.101226806640625
1782846018227728100,2.58672802734375,-0.9798583984375,-0.1316986083984375,0.097991943359375
1782846018237733000,2.596733154296875,-0.9756622314453125,-0.1322479248046875,0.096771240234375
1782846018247739400,2.606739501953125,-0.973175048828125,-0.1318511962890625,0.096435546875
1782846018257744400,2.616744384765625,-0.981292724609375,-0.131561279296875,0.0944976806640625
1782846018267749400,2.626749267578125,-0.986572265625,-0.1309356689453125,0.089447021484375
1782846018277755100,2.636755126953125,-0.9864959716796875,-0.1331787109375,0.089691162109375
1782846018287760400,2.646760498046875,-0.9864654541015625,-0.1319122314453125,0.0959320068359375
1782846018297766100,2.65676611328125,-0.9866485595703125,-0.1317901611328125,0.0946044921875
1782846018307771100,2.666771240234375,-0.990386962890625,-0.13372802734375,0.0908355712890625
1782846018317775600,2.676775634765625,-0.9868621826171875,-0.1325531005859375,0.0930938720703125
1782846018327781600,2.68678173828125,-0.98065185546875,-0.1336517333984375,0.09112548828125
1782846018337786600,2.69678662109375,-0.975128173828125,-0.133880615234375,0.08624267578125
1782846018347791600,2.70679150390625,-0.97418212890625,-0.132476806640625,0.0839996337890625
1782846018357798000,2.7167978515625,-0.9733428955078125,-0.13299560546875,0.0829925537109375
1782846018367803000,2.726802978515625,-0.9732513427734375,-0.133819580078125,0.0815277099609375
1782846018377808000,2.736807861328125,-0.9734649658203125,-0.13287353515625,0.083282470703125
1782846018387814000,2.74681396484375,-0.973602294921875,-0.1312255859375,0.0859222412109375
1782846018397819000,2.75681884765625,-0.976837158203125,-0.1300811767578125,0.088348388671875
1782846018407824000,2.766823974609375,-0.97314453125,-0.1321258544921875,0.086639404296875
1782846018417829600,2.77682958984375,-0.9702606201171875,-0.129730224609375,0.0851287841796875
1782846018427834600,2.786834716796875,-0.96673583984375,-0.1331787109375,0.0869293212890625
1782846018437840000,2.79683984375,-0.9673614501953125,-0.13519287109375,0.08502197265625
1782846018447845600,2.806845703125,-0.97357177734375,-0.133148193359375,0.091461181640625
1782846018457850600,2.8168505859375,-0.978240966796875,-0.1337127685546875,0.100921630859375
1782846018467855600,2.826855712890625,-0.9804534912109375,-0.1346893310546875,0.0907745361328125
1782846018477862000,2.83686181640625,-0.98687744140625,-0.130279541015625,0.0871734619140625
1782846018487867000,2.846866943359375,-0.9887237548828125,-0.131134033203125,0.08837890625
1782846018497873000,2.856872802734375,-0.9865875244140625,-0.13470458984375,0.090667724609375
1782846018507878000,2.8668779296875,-0.979644775390625,-0.1332244873046875,0.09503173828125
1782846018517883000,2.8768828125,-0.978729248046875,-0.134765625,0.09521484375
1782846018527889000,2.886888916015625,-0.9764862060546875,-0.13482666015625,0.092987060546875
1782846018537894000,2.896893798828125,-0.9785919189453125,-0.1324462890625,0.09246826171875
1782846018547899000,2.90689892578125,-0.9795074462890625,-0.1336669921875,0.0940093994140625
1782846018557904600,2.916904541015625,-0.97857666015625,-0.13592529296875,0.0935516357421875
1782846018567909600,2.92690966796875,-0.97412109375,-0.13623046875,0.0928192138671875
1782846018577914600,2.93691455078125,-0.9735107421875,-0.13299560546875,0.0955352783203125
1782846018587920600,2.946920654296875,-0.977874755859375,-0.132568359375,0.0960693359375
1782846018597925600,2.956925537109375,-0.975372314453125,-0.135894775390625,0.0941925048828125
1782846018607931000,2.966930908203125,-0.972381591796875,-0.1364288330078125,0.092803955078125
1782846018617937000,2.97693701171875,-0.969970703125,-0.13641357421875,0.0926513671875
1782846018627942000,2.98694189453125,-0.9684600830078125,-0.137542724609375,0.0908355712890625
1782846018637947000,2.99694677734375,-0.9704742431640625,-0.1381683349609375,0.090911865234375
1782846018647953000,3.006952880859375,-0.9716033935546875,-0.1395263671875,0.087158203125
1782846018657958000,3.0169580078125,-0.973236083984375,-0.13946533203125,0.0838165283203125
1782846018667963600,3.026963623046875,-0.9756622314453125,-0.1389007568359375,0.086578369140625
1782846018677968600,3.03696875,-0.978851318359375,-0.13751220703125,0.090057373046875
1782846018687973600,3.0469736328125,-0.98590087890625,-0.138916015625,0.0936737060546875
1782846018697979600,3.056979736328125,-0.98968505859375,-0.1415557861328125,0.0926666259765625
1782846018707984600,3.066984619140625,-0.9893951416015625,-0.140655517578125,0.0910797119140625
1782846018717989600,3.07698974609375,-0.9881744384765625,-0.1404571533203125,0.0950927734375
1782846018727996000,3.086995849609375,-0.9830169677734375,-0.1385345458984375,0.0931854248046875
1782846018738001000,3.0970009765625,-0.978851318359375,-0.138824462890625,0.0895843505859375
1782846018748006000,3.107005859375,-0.9730377197265625,-0.1371917724609375,0.088653564453125
1782846018758012000,3.117011962890625,-0.96844482421875,-0.1365966796875,0.0884857177734375
1782846018768017000,3.127016845703125,-0.9668426513671875,-0.1382598876953125,0.090118408203125
1782846018778022000,3.13702197265625,-0.9700164794921875,-0.1389617919921875,0.0933837890625
1782846018788027600,3.147027587890625,-0.975372314453125,-0.1390533447265625,0.0948944091796875
1782846018798032600,3.15703271484375,-0.976043701171875,-0.136077880859375,0.0982513427734375
1782846018808037600,3.16703759765625,-0.9755706787109375,-0.13623046875,0.098846435546875
1782846018818043600,3.177043701171875,-0.977020263671875,-0.1363525390625,0.096588134765625
1782846018828048600,3.187048583984375,-0.9772186279296875,-0.137359619140625,0.0947418212890625
1782846018838053600,3.1970537109375,-0.9766387939453125,-0.1377105712890625,0.0910797119140625
1782846018848060000,3.207059814453125,-0.9766693115234375,-0.13739013671875,0.090423583984375
1782846018858065000,3.21706494140625,-0.9733734130859375,-0.1393585205078125,0.087677001953125
1782846018868071000,3.22707080078125,-0.9720306396484375,-0.1380157470703125,0.0840606689453125
1782846018878076000,3.237075927734375,-0.9734039306640625,-0.1376953125,0.0869293212890625
1782846018888081000,3.247080810546875,-0.9761810302734375,-0.1349639892578125,0.0900726318359375
1782846018898087000,3.2570869140625,-0.9820709228515625,-0.1353912353515625,0.0873565673828125
1782846018908092000,3.267091796875,-0.9811859130859375,-0.1373138427734375,0.0902099609375
1782846018918097000,3.277096923828125,-0.981658935546875,-0.13494873046875,0.089691162109375
1782846018928102700,3.2871025390625,-0.9844818115234375,-0.1349334716796875,0.09368896484375
1782846018938107600,3.297107666015625,-0.984466552734375,-0.133697509765625,0.09283447265625
1782846018948112600,3.307112548828125,-0.9804534912109375,-0.1329498291015625,0.0896148681640625
1782846018958118700,3.31711865234375,-0.975189208984375,-0.1336212158203125,0.0905609130859375
1782846018968123600,3.32712353515625,-0.9740142822265625,-0.135955810546875,0.096160888671875
1782846018978128600,3.337128662109375,-0.9764862060546875,-0.1349639892578125,0.09619140625
1782846018988135000,3.347135009765625,-0.9768829345703125,-0.1351776123046875,0.097198486328125
1782846018998140000,3.357139892578125,-0.9727020263671875,-0.1363983154296875,0.0936431884765625
1782846019008145000,3.367144775390625,-0.9715576171875,-0.136962890625,0.0933685302734375
1782846019018151000,3.37715087890625,-0.97076416015625,-0.1377410888671875,0.0923919677734375
1782846019028156000,3.387156005859375,-0.973388671875,-0.135711669921875,0.0941925048828125
1782846019038161000,3.397160888671875,-0.9777069091796875,-0.136505126953125,0.09295654296875
1782846019048166700,3.407166748046875,-0.97845458984375,-0.1380157470703125,0.091796875
1782846019058171600,3.417171630859375,-0.976654052734375,-0.13671875,0.09002685546875
1782846019068177700,3.427177734375,-0.974090576171875,-0.1361846923828125,0.0888214111328125
1782846019078182700,3.4371826171875,-0.9738311767578125,-0.1370849609375,0.0863494873046875
1782846019088187600,3.447187744140625,-0.9750518798828125,-0.136871337890625,0.087066650390625
1782846019098192600,3.457192626953125,-0.9778594970703125,-0.1370086669921875,0.0869293212890625
1782846019108199000,3.467198974609375,-0.9770660400390625,-0.1361236572265625,0.087921142578125
1782846019118204000,3.477203857421875,-0.9776763916015625,-0.1375732421875,0.09075927734375
1782846019128210000,3.4872099609375,-0.9808349609375,-0.1357879638671875,0.09405517578125
1782846019138215000,3.49721484375,-0.97808837890625,-0.1332244873046875,0.0959320068359375
1782846019148220000,3.507219970703125,-0.980499267578125,-0.132049560546875,0.095703125
1782846019158225700,3.5172255859375,-0.9821319580078125,-0.1346435546875,0.0963134765625
1782846019168230700,3.527230712890625,-0.9807891845703125,-0.1385498046875,0.097198486328125
1782846019178235600,3.537235595703125,-0.981719970703125,-0.13958740234375,0.0945281982421875
1782846019188241700,3.54724169921875,-0.9820709228515625,-0.1391754150390625,0.09375
1782846019198246700,3.55724658203125,-0.97613525390625,-0.1369781494140625,0.09637451171875
1782846019208251600,3.567251708984375,-0.975921630859375,-0.1373443603515625,0.0937957763671875
1782846019218257700,3.577257568359375,-0.9753570556640625,-0.138275146484375,0.091766357421875
1782846019228262700,3.5872626953125,-0.977447509765625,-0.1351318359375,0.089508056640625
1782846019238268000,3.597267822265625,-0.976837158203125,-0.1345672607421875,0.089324951171875
1782846019248274000,3.60727392578125,-0.975341796875,-0.1337890625,0.09075927734375
1782846019258279000,3.61727880859375,-0.9808197021484375,-0.1345672607421875,0.0904693603515625
1782846019268284000,3.627283935546875,-0.9826507568359375,-0.1367950439453125,0.0913543701171875
1782846019278290000,3.6372900390625,-0.9774322509765625,-0.1339111328125,0.0947113037109375
1782846019288295000,3.647294921875,-0.974212646484375,-0.13616943359375,0.09429931640625
1782846019298300000,3.6572998046875,-0.9721221923828125,-0.1370086669921875,0.0916595458984375
1782846019308305700,3.6673056640625,-0.972320556640625,-0.1362762451171875,0.0943450927734375
1782846019318311200,3.677311279296875,-0.97393798828125,-0.134857177734375,0.096649169921875
1782846019328316200,3.687316162109375,-0.9796905517578125,-0.133575439453125,0.09771728515625
1782846019338322200,3.697322265625,-0.9799652099609375,-0.1325531005859375,0.09161376953125
1782846019348327400,3.707327392578125,-0.9825439453125,-0.1327362060546875,0.093902587890625
1782846019358332400,3.71733251953125,-0.9875946044921875,-0.134490966796875,0.0960693359375
1782846019368338400,3.72733837890625,-0.9842529296875,-0.1351165771484375,0.09918212890625
1782846019378343400,3.737343505859375,-0.979888916015625,-0.1362457275390625,0.100189208984375
1782846019388349200,3.74734912109375,-0.9779052734375,-0.1326904296875,0.100128173828125
1782846019398354200,3.757354248046875,-0.9721832275390625,-0.132568359375,0.1017913818359375
1782846019408359200,3.767359130859375,-0.9687347412109375,-0.1363372802734375,0.0959625244140625
1782846019418365200,3.777365234375,-0.9684295654296875,-0.1333160400390625,0.0930023193359375
1782846019428370200,3.7873701171875,-0.968536376953125,-0.13482666015625,0.0941925048828125
1782846019438375200,3.797375244140625,-0.9655609130859375,-0.136505126953125,0.09320068359375
1782846019448381200,3.807381103515625,-0.9700775146484375,-0.1358184814453125,0.09100341796875
1782846019458386200,3.81738623046875,-0.9786529541015625,-0.1341400146484375,0.0915374755859375
1782846019468391200,3.82739111328125,-0.9823760986328125,-0.13372802734375,0.092437744140625
1782846019478397400,3.8373974609375,-0.9846649169921875,-0.13214111328125,0.0933074951171875
1782846019488402400,3.84740234375,-0.9880523681640625,-0.1323089599609375,0.0940093994140625
1782846019498407400,3.857407470703125,-0.985260009765625,-0.1375885009765625,0.0922393798828125
1782846019508413400,3.867413330078125,-0.978057861328125,-0.1345062255859375,0.096466064453125
1782846019518418400,3.87741845703125,-0.9741973876953125,-0.135040283203125,0.0952301025390625
1782846019528423400,3.88742333984375,-0.9760284423828125,-0.1333160400390625,0.0946807861328125
1782846019538429200,3.89742919921875,-0.9770965576171875,-0.1334228515625,0.0960540771484375
1782846019548434200,3.90743408203125,-0.976593017578125,-0.132720947265625,0.0951995849609375
1782846019558439200,3.917439208984375,-0.9766845703125,-0.1310882568359375,0.0994415283203125
1782846019568445200,3.927445068359375,-0.97802734375,-0.1326751708984375,0.1001434326171875
1782846019578450200,3.9374501953125,-0.976531982421875,-0.13134765625,0.0965118408203125
1782846019588455200,3.947455078125,-0.9778594970703125,-0.1300506591796875,0.0942840576171875
1782846019598461400,3.95746142578125,-0.9835052490234375,-0.1303253173828125,0.0955352783203125
1782846019608466400,3.967466552734375,-0.9850311279296875,-0.1327972412109375,0.09375
1782846019618471400,3.977471435546875,-0.9784088134765625,-0.1345062255859375,0.0922698974609375
1782846019628477400,3.9874775390625,-0.972320556640625,-0.1376953125,0.090576171875
1782846019638482400,3.997482421875,-0.9705657958984375,-0.137939453125,0.083953857421875
1782846019648488200,4.00748828125,-0.9712371826171875,-0.1358795166015625,0.0827789306640625
1782846019658493200,4.0174931640625,-0.975982666015625,-0.1358795166015625,0.085784912109375
1782846019668498200,4.027498291015625,-0.97747802734375,-0.134307861328125,0.089752197265625
1782846019678504200,4.037504150390625,-0.9803924560546875,-0.13330078125,0.0888214111328125
1782846019688509200,4.04750927734375,-0.983489990234375,-0.1313018798828125,0.09124755859375
1782846019698514200,4.05751416015625,-0.9866790771484375,-0.131378173828125,0.0887908935546875
1782846019708520200,4.067520263671875,-0.9882659912109375,-0.1324005126953125,0.0936431884765625
1782846019718525200,4.077525146484375,-0.988189697265625,-0.1330413818359375,0.097015380859375
1782846019728530200,4.0875302734375,-0.984100341796875,-0.134368896484375,0.0975799560546875
1782846019738536400,4.097536376953125,-0.98101806640625,-0.133941650390625,0.0941619873046875
1782846019748541400,4.10754150390625,-0.974609375,-0.132904052734375,0.0926666259765625
1782846019758546400,4.11754638671875,-0.9697265625,-0.132537841796875,0.09320068359375
1782846019768552200,4.12755224609375,-0.9665374755859375,-0.13299560546875,0.0934295654296875
1782846019778557200,4.13755712890625,-0.9669952392578125,-0.13409423828125,0.091156005859375
1782846019788562200,4.147562255859375,-0.9656829833984375,-0.1354522705078125,0.09112548828125
1782846019798568200,4.157568115234375,-0.9693450927734375,-0.1349639892578125,0.09002685546875
1782846019808573200,4.1675732421875,-0.973419189453125,-0.134368896484375,0.088531494140625
1782846019818578200,4.177578125,-0.9806060791015625,-0.13507080078125,0.0900421142578125
1782846019828584200,4.187584228515625,-0.9860382080078125,-0.134613037109375,0.091888427734375
1782846019838589200,4.197589111328125,-0.98626708984375,-0.1352386474609375,0.094482421875
1782846019848594200,4.20759423828125,-0.9853668212890625,-0.13482666015625,0.0917816162109375
1782846019858600400,4.217600341796875,-0.9853515625,-0.1347198486328125,0.09088134765625
1782846019868605400,4.22760546875,-0.98626708984375,-0.1333465576171875,0.0906829833984375
1782846019878610400,4.2376103515625,-0.98553466796875,-0.1328582763671875,0.087158203125
1782846019888616400,4.247616455078125,-0.9822845458984375,-0.13116455078125,0.0879058837890625
1782846019898621400,4.257621337890625,-0.98175048828125,-0.1322174072265625,0.09100341796875
1782846019908626400,4.26762646484375,-0.981170654296875,-0.130126953125,0.0921630859375
1782846019918632200,4.277632080078125,-0.9810791015625,-0.1290130615234375,0.0945892333984375
1782846019928637200,4.28763720703125,-0.9776763916015625,-0.13037109375,0.095550537109375
1782846019938642200,4.29764208984375,-0.975738525390625,-0.1331329345703125,0.0958251953125
1782846019948648200,4.307648193359375,-0.9779815673828125,-0.1339263916015625,0.0988616943359375
1782846019958653200,4.317653076171875,-0.976593017578125,-0.1350860595703125,0.1043701171875
1782846019968658200,4.327658203125,-0.96539306640625,-0.13507080078125,0.1004791259765625
1782846019978664400,4.33766455078125,-0.9646148681640625,-0.13525390625,0.098114013671875
1782846019988669400,4.34766943359375,-0.9658660888671875,-0.1320037841796875,0.099761962890625
1782846019998674400,4.35767431640625,-0.96588134765625,-0.1338043212890625,0.1006317138671875
1782846020008680400,4.367680419921875,-0.9641876220703125,-0.135467529296875,0.1009674072265625
1782846020018685400,4.377685546875,-0.9672088623046875,-0.1370391845703125,0.0930938720703125
1782846020028690400,4.3876904296875,-0.9726104736328125,-0.1365203857421875,0.089874267578125
1782846020038696200,4.3976962890625,-0.9793243408203125,-0.13909912109375,0.090728759765625
1782846020048701200,4.407701171875,-0.98779296875,-0.13800048828125,0.089935302734375
1782846020058706200,4.4177060546875,-0.9926300048828125,-0.136322021484375,0.08917236328125
1782846020068712200,4.427712158203125,-0.989776611328125,-0.1366424560546875,0.0901641845703125
1782846020078717200,4.43771728515625,-0.98468017578125,-0.138275146484375,0.0902557373046875
1782846020088723200,4.44772314453125,-0.982086181640625,-0.1394805908203125,0.09149169921875
1782846020098728200,4.457728271484375,-0.9804534912109375,-0.1385498046875,0.0914154052734375
1782846020108733200,4.467733154296875,-0.9805908203125,-0.13897705078125,0.093353271484375
1782846020118738200,4.47773828125,-0.9770050048828125,-0.140045166015625,0.0899505615234375
1782846020128744400,4.487744384765625,-0.975830078125,-0.13970947265625,0.0865631103515625
1782846020138749400,4.49774951171875,-0.9770050048828125,-0.140777587890625,0.0836639404296875
1782846020148754400,4.50775439453125,-0.9790802001953125,-0.1395721435546875,0.0827484130859375
1782846020158760200,4.51776025390625,-0.9786834716796875,-0.1377410888671875,0.0893096923828125
1782846020168765200,4.52776513671875,-0.9815521240234375,-0.13836669921875,0.0918426513671875
1782846020178771200,4.537771240234375,-0.9844970703125,-0.1364898681640625,0.0931396484375
1782846020188776200,4.547776123046875,-0.97991943359375,-0.1373291015625,0.093536376953125
1782846020198781200,4.55778125,-0.9736480712890625,-0.1395111083984375,0.0923309326171875
1782846020208787200,4.567787109375,-0.9694976806640625,-0.1397552490234375,0.090301513671875
1782846020218792200,4.577792236328125,-0.9668121337890625,-0.1390838623046875,0.0874176025390625
1782846020228797200,4.587797119140625,-0.9653472900390625,-0.1414794921875,0.0858154296875
1782846020238803500,4.597803466796875,-0.9716949462890625,-0.138519287109375,0.0841827392578125
1782846020248808400,4.607808349609375,-0.9792022705078125,-0.13800048828125,0.08868408203125
1782846020258813400,4.6178134765625,-0.9810333251953125,-0.139923095703125,0.0902557373046875
1782846020268819500,4.6278193359375,-0.9800262451171875,-0.13739013671875,0.0892791748046875
1782846020278824400,4.637824462890625,-0.981781005859375,-0.1386566162109375,0.0891571044921875
1782846020288829400,4.647829345703125,-0.984527587890625,-0.1383819580078125,0.0902252197265625
1782846020298835200,4.657835205078125,-0.9836273193359375,-0.1384735107421875,0.0939178466796875
1782846020308840200,4.667840087890625,-0.9805450439453125,-0.13983154296875,0.093353271484375
1782846020318845000,4.677844970703125,-0.97967529296875,-0.1370849609375,0.0916595458984375
1782846020328851200,4.687851318359375,-0.972991943359375,-0.137237548828125,0.0962371826171875
1782846020338856200,4.697856201171875,-0.9662322998046875,-0.1375274658203125,0.095001220703125
1782846020348861200,4.707861083984375,-0.9663848876953125,-0.1363983154296875,0.09478759765625
1782846020358867200,4.7178671875,-0.97412109375,-0.1392059326171875,0.09783935546875
1782846020368872200,4.7278720703125,-0.97845458984375,-0.1391448974609375,0.097991943359375
1782846020378877200,4.737877197265625,-0.9786834716796875,-0.13763427734375,0.0951995849609375
1782846020388883200,4.74788330078125,-0.9773712158203125,-0.139251708984375,0.0935821533203125
1782846020398888200,4.75788818359375,-0.977447509765625,-0.13861083984375,0.092987060546875
1782846020408893200,4.76789306640625,-0.9784698486328125,-0.1410675048828125,0.0901641845703125
1782846020418899000,4.77789892578125,-0.9771270751953125,-0.1417388916015625,0.0889892578125
1782846020428904000,4.787904052734375,-0.975189208984375,-0.141265869140625,0.0882720947265625
1782846020438909000,4.797908935546875,-0.97406005859375,-0.1425933837890625,0.08770751953125
1782846020448915000,4.8079150390625,-0.9744110107421875,-0.1431884765625,0.0881195068359375
1782846020458920000,4.817919921875,-0.9735107421875,-0.1457061767578125,0.08551025390625
1782846020468925000,4.827925048828125,-0.9749908447265625,-0.1423492431640625,0.0872802734375
1782846020478931200,4.83793115234375,-0.9775238037109375,-0.1416015625,0.0876617431640625
1782846020488936200,4.847936279296875,-0.981536865234375,-0.1409454345703125,0.0883636474609375
1782846020498941200,4.857941162109375,-0.9831390380859375,-0.1411895751953125,0.0898895263671875
1782846020508947200,4.867947265625,-0.9856719970703125,-0.1424407958984375,0.0920562744140625
1782846020518952200,4.8779521484375,-0.985565185546875,-0.1407470703125,0.0944061279296875
1782846020528957200,4.887957275390625,-0.9793701171875,-0.1400909423828125,0.092498779296875
1782846020538963200,4.897963134765625,-0.972198486328125,-0.1387939453125,0.09478759765625
1782846020548968200,4.90796826171875,-0.9730224609375,-0.138336181640625,0.0947723388671875
1782846020558973200,4.91797314453125,-0.9720001220703125,-0.1385650634765625,0.094268798828125
1782846020568979000,4.92797900390625,-0.96209716796875,-0.13848876953125,0.0952606201171875
1782846020578984000,4.93798388671875,-0.962005615234375,-0.13922119140625,0.1029510498046875
1782846020588989000,4.947989013671875,-0.968505859375,-0.1392974853515625,0.10540771484375
1782846020598995200,4.9579951171875,-0.9739837646484375,-0.140777587890625,0.104644775390625
1782846020609000200,4.968000244140625,-0.9777679443359375,-0.1406402587890625,0.1032257080078125
1782846020619005200,4.978005126953125,-0.9771575927734375,-0.142364501953125,0.0983428955078125
1782846020629011200,4.98801123046875,-0.97979736328125,-0.14227294921875,0.0968017578125
1782846020639016200,4.99801611328125,-0.9842681884765625,-0.142364501953125,0.093353271484375
1782846020649021200,5.008021240234375,-0.9879913330078125,-0.1413421630859375,0.0895538330078125
1782846020659027200,5.018027099609375,-0.990447998046875,-0.141265869140625,0.0876922607421875
1782846020669032200,5.0280322265625,-0.9849700927734375,-0.140533447265625,0.09228515625
1782846020679037200,5.038037109375,-0.9809417724609375,-0.1416473388671875,0.09674072265625
1782846020689043000,5.04804296875,-0.974334716796875,-0.1432342529296875,0.08868408203125
1782846020699048000,5.0580478515625,-0.9739837646484375,-0.1396026611328125,0.0915374755859375
1782846020709053000,5.068052978515625,-0.97265625,-0.140960693359375,0.0958709716796875
1782846020719059200,5.07805908203125,-0.9727325439453125,-0.1407928466796875,0.093780517578125
1782846020729064200,5.088064208984375,-0.96917724609375,-0.13922119140625,0.0898590087890625
1782846020739069200,5.098069091796875,-0.96624755859375,-0.1409454345703125,0.0919952392578125
1782846020749075200,5.1080751953125,-0.967559814453125,-0.1414031982421875,0.0967254638671875
1782846020759080200,5.118080078125,-0.970428466796875,-0.1421661376953125,0.0965728759765625
1782846020769085200,5.128085205078125,-0.97393798828125,-0.1396942138671875,0.096588134765625
1782846020779091200,5.13809130859375,-0.9774017333984375,-0.1399993896484375,0.0966949462890625
1782846020789096200,5.14809619140625,-0.978515625,-0.139739990234375,0.099609375
1782846020799101200,5.15810107421875,-0.981475830078125,-0.1398468017578125,0.0977020263671875
1782846020809107000,5.16810693359375,-0.9813232421875,-0.1400299072265625,0.0980377197265625
1782846020819112000,5.17811181640625,-0.976593017578125,-0.1412200927734375,0.0959320068359375
1782846020829117200,5.1881171875,-0.9728546142578125,-0.144622802734375,0.09429931640625
1782846020839123000,5.198123046875,-0.9712066650390625,-0.1473388671875,0.092132568359375
1782846020849128000,5.2081279296875,-0.970672607421875,-0.14593505859375,0.089019775390625
1782846020859133000,5.2181328125,-0.9693756103515625,-0.144012451171875,0.084686279296875
1782846020869139200,5.22813916015625,-0.971099853515625,-0.1443634033203125,0.0854644775390625
1782846020879144200,5.238144287109375,-0.9698944091796875,-0.1439208984375,0.0846710205078125
1782846020889149200,5.248149169921875,-0.97418212890625,-0.1434783935546875,0.087554931640625
1782846020899155200,5.2581552734375,-0.9779052734375,-0.144317626953125,0.0909271240234375
1782846020909160200,5.26816015625,-0.9798736572265625,-0.143341064453125,0.090972900390625
1782846020919165200,5.278165283203125,-0.9826202392578125,-0.14447021484375,0.0940399169921875
1782846020929171200,5.288171142578125,-0.982879638671875,-0.142730712890625,0.093994140625
1782846020939176200,5.29817626953125,-0.9789886474609375,-0.1407623291015625,0.0929412841796875
1782846020949181200,5.30818115234375,-0.9800872802734375,-0.1410369873046875,0.09356689453125
1782846020959187000,5.31818701171875,-0.97882080078125,-0.1413421630859375,0.093994140625
1782846020969192000,5.32819189453125,-0.9754180908203125,-0.1412200927734375,0.091949462890625
1782846020979197000,5.338197021484375,-0.974853515625,-0.1408538818359375,0.09112548828125
1782846020989203200,5.348203125,-0.9739837646484375,-0.1412200927734375,0.09161376953125
1782846020999208200,5.358208251953125,-0.9750518798828125,-0.1422119140625,0.0923919677734375
1782846021009213200,5.368213134765625,-0.980010986328125,-0.140411376953125,0.091644287109375
1782846021019219200,5.37821923828125,-0.98052978515625,-0.142242431640625,0.0950775146484375
1782846021029224200,5.38822412109375,-0.9785614013671875,-0.141571044921875,0.096527099609375
1782846021039229200,5.398229248046875,-0.976531982421875,-0.1428070068359375,0.0962371826171875
1782846021049235200,5.408235107421875,-0.9781494140625,-0.1416778564453125,0.0938568115234375
1782846021059240200,5.418240234375,-0.97900390625,-0.1414031982421875,0.09307861328125
1782846021069245200,5.4282451171875,-0.981658935546875,-0.1414031982421875,0.0929718017578125
1782846021079251000,5.4382509765625,-0.978363037109375,-0.142547607421875,0.0942535400390625
1782846021089256000,5.448255859375,-0.9754486083984375,-0.144012451171875,0.0935516357421875
1782846021099261000,5.458260986328125,-0.9709625244140625,-0.143402099609375,0.0898284912109375
1782846021109267000,5.468266845703125,-0.966156005859375,-0.140869140625,0.0896759033203125
1782846021119272200,5.478272216796875,-0.9616241455078125,-0.14276123046875,0.0872650146484375
1782846021129277200,5.488277099609375,-0.9635467529296875,-0.143524169921875,0.088958740234375
1782846021139283200,5.498283203125,-0.968017578125,-0.1433563232421875,0.0934295654296875
1782846021149288200,5.5082880859375,-0.9750518798828125,-0.1439208984375,0.0974273681640625
1782846021159293200,5.518293212890625,-0.979949951171875,-0.14154052734375,0.09893798828125
1782846021169299200,5.52829931640625,-0.9845123291015625,-0.1399993896484375,0.1004180908203125
1782846021179304200,5.53830419921875,-0.9881591796875,-0.140716552734375,0.10186767578125
1782846021189309200,5.54830908203125,-0.99285888671875,-0.13800048828125,0.1024932861328125
1782846021199314200,5.558314208984375,-0.99041748046875,-0.13934326171875,0.098876953125
1782846021209320200,5.5683203125,-0.9855499267578125,-0.1403045654296875,0.09698486328125
1782846021219325200,5.5783251953125,-0.975830078125,-0.1431121826171875,0.0939788818359375
1782846021229330200,5.588330078125,-0.964569091796875,-0.1460418701171875,0.0935516357421875
1782846021239336000,5.5983359375,-0.9571533203125,-0.1439971923828125,0.0917816162109375
1782846021249341000,5.6083408203125,-0.955780029296875,-0.144989013671875,0.0886077880859375
1782846021259346000,5.618345947265625,-0.96014404296875,-0.1455841064453125,0.0867767333984375
1782846021269352200,5.628352294921875,-0.969451904296875,-0.14459228515625,0.0867156982421875
1782846021279357200,5.638357177734375,-0.98004150390625,-0.1473541259765625,0.08624267578125
1782846021289362200,5.648362060546875,-0.9896240234375,-0.14556884765625,0.090911865234375
1782846021299368200,5.6583681640625,-0.9944000244140625,-0.145233154296875,0.0878448486328125
1782846021309373200,5.668373291015625,-0.9952239990234375,-0.14501953125,0.0869598388671875
1782846021319377700,5.678377685546875,-0.9891815185546875,-0.144500732421875,0.0877685546875
1782846021329384000,5.688384033203125,-0.98388671875,-0.1431732177734375,0.087890625
1782846021339389000,5.698388916015625,-0.97601318359375,-0.1420440673828125,0.089508056640625
1782846021349394000,5.708393798828125,-0.9726715087890625,-0.1416473388671875,0.090118408203125
1782846021359399700,5.718399658203125,-0.9722442626953125,-0.1393890380859375,0.0904388427734375
1782846021369404700,5.72840478515625,-0.97064208984375,-0.1400146484375,0.0911712646484375
1782846021379409700,5.73840966796875,-0.9723663330078125,-0.139678955078125,0.09393310546875
1782846021389415700,5.748415771484375,-0.9773406982421875,-0.1378936767578125,0.0944671630859375
1782846021399420700,5.758420654296875,-0.98284912109375,-0.138671875,0.0939788818359375
1782846021409425700,5.76842578125,-0.9833526611328125,-0.139190673828125,0.0955352783203125
1782846021419431700,5.778431640625,-0.9760589599609375,-0.1397705078125,0.09381103515625
1782846021429436700,5.788436767578125,-0.9642333984375,-0.1395721435546875,0.09698486328125
1782846021439441700,5.798441650390625,-0.9534759521484375,-0.1397247314453125,0.0979156494140625
1782846021449447700,5.80844775390625,-0.9500885009765625,-0.1408538818359375,0.09417724609375
1782846021459452700,5.81845263671875,-0.9533233642578125,-0.14178466796875,0.0935211181640625
1782846021469457700,5.828457763671875,-0.961029052734375,-0.1422271728515625,0.0927581787109375
1782846021479464000,5.8384638671875,-0.9740142822265625,-0.1416015625,0.0942230224609375
1782846021489469000,5.848468994140625,-0.988189697265625,-0.1415557861328125,0.092803955078125
1782846021499474000,5.858473876953125,-0.9951324462890625,-0.1403045654296875,0.0926513671875
1782846021509479700,5.868479736328125,-0.9967803955078125,-0.1403045654296875,0.0931396484375
1782846021519484700,5.878484619140625,-0.99737548828125,-0.1372528076171875,0.09130859375
1782846021529489700,5.88848974609375,-0.991241455078125,-0.1385498046875,0.0869598388671875
1782846021539495700,5.89849560546875,-0.979339599609375,-0.139739990234375,0.08538818359375
1782846021549500700,5.908500732421875,-0.9711151123046875,-0.13958740234375,0.0860748291015625
1782846021559505700,5.918505615234375,-0.961639404296875,-0.1419525146484375,0.0851898193359375
1782846021569511700,5.92851171875,-0.9599151611328125,-0.1429290771484375,0.0874481201171875
1782846021579516700,5.9385166015625,-0.9669342041015625,-0.1445465087890625,0.0897064208984375
1782846021589521700,5.948521728515625,-0.9737396240234375,-0.1420135498046875,0.092620849609375
1782846021599528000,5.95852783203125,-0.978179931640625,-0.1419677734375,0.0940399169921875
1782846021609533000,5.968532958984375,-0.9850006103515625,-0.1398468017578125,0.094024658203125
1782846021619538000,5.978537841796875,-0.9902801513671875,-0.1407318115234375,0.094390869140625
1782846021629543700,5.988543701171875,-0.989166259765625,-0.139801025390625,0.09588623046875
1782846021639548700,5.998548583984375,-0.9813079833984375,-0.140594482421875,0.091705322265625
1782846021649553700,6.0085537109375,-0.9778289794921875,-0.1411590576171875,0.084564208984375
1782846021659559700,6.0185595703125,-0.975341796875,-0.143218994140625,0.083648681640625
1782846021669564700,6.028564697265625,-0.974884033203125,-0.1436004638671875,0.0818939208984375
1782846021679569700,6.038569580078125,-0.9712066650390625,-0.144287109375,0.082183837890625
1782846021689575700,6.04857568359375,-0.9686431884765625,-0.1438751220703125,0.0850372314453125
1782846021699580700,6.05858056640625,-0.9672393798828125,-0.1421051025390625,0.086273193359375
1782846021709585700,6.068585693359375,-0.97161865234375,-0.1424713134765625,0.0878753662109375
1782846021719590700,6.078590576171875,-0.9757537841796875,-0.1431732177734375,0.0904998779296875
1782846021729597000,6.088596923828125,-0.9805145263671875,-0.1399688720703125,0.09136962890625
1782846021739602000,6.098601806640625,-0.9805755615234375,-0.14068603515625,0.090057373046875
1782846021749607000,6.10860693359375,-0.980712890625,-0.1406707763671875,0.0890350341796875
1782846021759612700,6.11861279296875,-0.9767303466796875,-0.1399993896484375,0.0867767333984375
1782846021769618000,6.128617919921875,-0.9704437255859375,-0.1385650634765625,0.0823211669921875
1782846021779623000,6.138622802734375,-0.9644622802734375,-0.139404296875,0.081024169921875
1782846021789628700,6.148628662109375,-0.96734619140625,-0.140869140625,0.0843963623046875
1782846021799633700,6.158633544921875,-0.979156494140625,-0.1391143798828125,0.0900421142578125
1782846021809638700,6.168638671875,-0.9861297607421875,-0.137237548828125,0.0930633544921875
1782846021819644700,6.178644775390625,-0.99224853515625,-0.136322021484375,0.09088134765625
1782846021829649700,6.188649658203125,-0.9981842041015625,-0.134674072265625,0.09130859375
1782846021839654700,6.198654541015625,-0.994293212890625,-0.1340789794921875,0.091064453125
1782846021849660700,6.20866064453125,-0.98309326171875,-0.13623046875,0.088287353515625
1782846021859665700,6.218665771484375,-0.9757080078125,-0.136444091796875,0.0893096923828125
1782846021869670700,6.228670654296875,-0.96905517578125,-0.1389923095703125,0.090972900390625
1782846021879677000,6.238677001953125,-0.9657135009765625,-0.1383056640625,0.089630126953125
1782846021889682000,6.248681884765625,-0.9651641845703125,-0.13714599609375,0.0869903564453125
1782846021899687000,6.25868701171875,-0.96697998046875,-0.1370697021484375,0.084564208984375
1782846021909692700,6.268692626953125,-0.971466064453125,-0.1379547119140625,0.085662841796875
1782846021919697700,6.27869775390625,-0.977020263671875,-0.1400909423828125,0.0844573974609375
1782846021929702700,6.28870263671875,-0.9817047119140625,-0.138885498046875,0.08367919921875
1782846021939708700,6.298708740234375,-0.9856109619140625,-0.1390380859375,0.0815277099609375
1782846021949713700,6.308713623046875,-0.989044189453125,-0.1387481689453125,0.08026123046875
1782846021959718700,6.31871875,-0.986083984375,-0.13812255859375,0.0800323486328125
1782846021969724700,6.328724609375,-0.979339599609375,-0.13690185546875,0.0806732177734375
1782846021979729700,6.338729736328125,-0.9753875732421875,-0.1359405517578125,0.081573486328125
1782846021989734700,6.348734619140625,-0.9757080078125,-0.1373443603515625,0.0821380615234375
1782846021999739600,6.35873974609375,-0.9736480712890625,-0.1378021240234375,0.0835113525390625
1782846022009746000,6.368745849609375,-0.9722137451171875,-0.134490966796875,0.087982177734375
1782846022019751000,6.3787509765625,-0.972198486328125,-0.1339263916015625,0.08746337890625
1782846022029756000,6.388755859375,-0.976593017578125,-0.1340484619140625,0.0869293212890625
1782846022039761700,6.39876171875,-0.9765472412109375,-0.1335906982421875,0.087188720703125
1782846022049766700,6.4087666015625,-0.98016357421875,-0.1342010498046875,0.0861358642578125
1782846022059772000,6.41877197265625,-0.980712890625,-0.1331787109375,0.086883544921875
1782846022069777700,6.428777587890625,-0.9786834716796875,-0.134521484375,0.0885009765625
1782846022079782700,6.43878271484375,-0.9782562255859375,-0.138031005859375,0.08990478515625
1782846022089787600,6.44878759765625,-0.9762420654296875,-0.136627197265625,0.0902557373046875
1782846022099793700,6.458793701171875,-0.9715118408203125,-0.1378021240234375,0.0901031494140625
1782846022109798700,6.468798583984375,-0.9682159423828125,-0.1375579833984375,0.0867462158203125
1782846022119803600,6.4788037109375,-0.9747467041015625,-0.138153076171875,0.082122802734375
1782846022129810000,6.488809814453125,-0.9795989990234375,-0.13836669921875,0.0802154541015625
1782846022139815000,6.49881494140625,-0.9814300537109375,-0.138275146484375,0.0790557861328125
1782846022149820000,6.50881982421875,-0.9844818115234375,-0.1399993896484375,0.08111572265625
1782846022159826000,6.518825927734375,-0.9860382080078125,-0.1395721435546875,0.0850372314453125
1782846022169831000,6.528830810546875,-0.984130859375,-0.138641357421875,0.0847015380859375
1782846022179836000,6.5388359375,-0.986724853515625,-0.1380157470703125,0.084930419921875
1782846022189841700,6.548841552734375,-0.9825286865234375,-0.1367340087890625,0.082122802734375
1782846022199846700,6.5588466796875,-0.9774169921875,-0.137481689453125,0.0798187255859375
1782846022209851600,6.5688515625,-0.9751434326171875,-0.1365814208984375,0.08209228515625
1782846022219857700,6.578857666015625,-0.9742889404296875,-0.134185791015625,0.0823974609375
1782846022229862700,6.588862548828125,-0.9767303466796875,-0.1339569091796875,0.084259033203125
1782846022239867600,6.59886767578125,-0.9726409912109375,-0.1356658935546875,0.0879669189453125
1782846022249873700,6.608873779296875,-0.9696502685546875,-0.135528564453125,0.0876312255859375
1782846022259878700,6.618878662109375,-0.9743499755859375,-0.1341705322265625,0.089080810546875
1782846022269883600,6.628883544921875,-0.976348876953125,-0.1363677978515625,0.0891876220703125
1782846022279888600,6.638888671875,-0.974151611328125,-0.137542724609375,0.08880615234375
1782846022289895000,6.64889501953125,-0.974822998046875,-0.13592529296875,0.08953857421875
1782846022299900000,6.65889990234375,-0.98284912109375,-0.1367340087890625,0.0789642333984375
1782846022309905000,6.66890478515625,-0.9824371337890625,-0.1357879638671875,0.0832672119140625
1782846022319911000,6.678910888671875,-0.9787139892578125,-0.13787841796875,0.085296630859375
1782846022329916000,6.688916015625,-0.981353759765625,-0.135711669921875,0.085113525390625
1782846022339921000,6.6989208984375,-0.982879638671875,-0.1355133056640625,0.0835113525390625
1782846022349927000,6.708927001953125,-0.983184814453125,-0.1361846923828125,0.0832366943359375
1782846022359932000,6.718931884765625,-0.9784393310546875,-0.1360015869140625,0.0864410400390625
1782846022369937000,6.72893701171875,-0.980133056640625,-0.135284423828125,0.0839691162109375
1782846022379943000,6.73894287109375,-0.9832611083984375,-0.1349029541015625,0.0812225341796875
1782846022389948000,6.748947998046875,-0.981658935546875,-0.13623046875,0.084197998046875
1782846022399953000,6.758952880859375,-0.974578857421875,-0.1360626220703125,0.086029052734375
1782846022409959200,6.768959228515625,-0.9715118408203125,-0.1355133056640625,0.0833282470703125
1782846022419964200,6.778964111328125,-0.9705047607421875,-0.134857177734375,0.0818328857421875
1782846022429969200,6.78896923828125,-0.9754180908203125,-0.1345367431640625,0.08428955078125
1782846022439975000,6.798974853515625,-0.9828643798828125,-0.1322479248046875,0.0833740234375
1782846022449980000,6.80897998046875,-0.9862060546875,-0.13336181640625,0.084381103515625
1782846022459985000,6.81898486328125,-0.986358642578125,-0.1331787109375,0.0853729248046875
1782846022469991000,6.828990966796875,-0.9837493896484375,-0.1334228515625,0.0857391357421875
1782846022479996000,6.838995849609375,-0.978607177734375,-0.1317901611328125,0.08575439453125
1782846022490001000,6.8490009765625,-0.971588134765625,-0.1314849853515625,0.0880279541015625
1782846022500006000,6.859005859375,-0.9670562744140625,-0.1305389404296875,0.0896759033203125
1782846022510012000,6.869011962890625,-0.9631195068359375,-0.1342315673828125,0.086883544921875
1782846022520017000,6.879016845703125,-0.9649505615234375,-0.134002685546875,0.088897705078125
1782846022530022000,6.88902197265625,-0.9707183837890625,-0.135040283203125,0.09173583984375
1782846022540028200,6.899028076171875,-0.9766845703125,-0.1372222900390625,0.09393310546875
1782846022550033200,6.909033203125,-0.98126220703125,-0.135467529296875,0.0929412841796875
1782846022560038100,6.9190380859375,-0.9876556396484375,-0.13409423828125,0.092041015625
1782846022570044200,6.929044189453125,-0.99151611328125,-0.133575439453125,0.092010498046875
1782846022580049200,6.939049072265625,-0.992095947265625,-0.13153076171875,0.0894927978515625
1782846022590054100,6.94905419921875,-0.9905242919921875,-0.133056640625,0.0890045166015625
1782846022600060000,6.959059814453125,-0.984588623046875,-0.134765625,0.085357666015625
1782846022610065000,6.96906494140625,-0.9780120849609375,-0.134918212890625,0.0863494873046875
1782846022620070000,6.97906982421875,-0.9715118408203125,-0.1347808837890625,0.08477783203125
1782846022630076000,6.989075927734375,-0.9672698974609375,-0.134765625,0.08319091796875
1782846022640081000,6.999080810546875,-0.9671478271484375,-0.13616943359375,0.08306884765625
1782846022650086000,7.0090859375,-0.968505859375,-0.1373291015625,0.0839385986328125
1782846022660092000,7.019091796875,-0.9730224609375,-0.1391143798828125,0.0862579345703125
1782846022670097000,7.029096923828125,-0.9755096435546875,-0.138153076171875,0.0884857177734375
1782846022680102000,7.039101806640625,-0.979400634765625,-0.137603759765625,0.0863189697265625
1782846022690107100,7.049107177734375,-0.984130859375,-0.137908935546875,0.0854034423828125
1782846022700113200,7.059113037109375,-0.9822845458984375,-0.1373291015625,0.0831451416015625
1782846022710118100,7.0691181640625,-0.9805450439453125,-0.135528564453125,0.0838165283203125
1782846022720123100,7.079123046875,-0.9765472412109375,-0.134002685546875,0.08380126953125
1782846022730129000,7.08912890625,-0.976806640625,-0.1362152099609375,0.086669921875
1782846022740134000,7.0991337890625,-0.9765167236328125,-0.1363067626953125,0.089202880859375
1782846022750139000,7.109138916015625,-0.97528076171875,-0.134552001953125,0.090667724609375
1782846022760145000,7.119144775390625,-0.97637939453125,-0.135284423828125,0.0919036865234375
1782846022770150000,7.12914990234375,-0.9800567626953125,-0.1338958740234375,0.0961761474609375
1782846022780155000,7.13915478515625,-0.983856201171875,-0.1355438232421875,0.09375
1782846022790161000,7.149160888671875,-0.990386962890625,-0.134552001953125,0.094268798828125
1782846022800166000,7.159165771484375,-0.9936370849609375,-0.1346282958984375,0.093841552734375
1782846022810171000,7.1691708984375,-0.993438720703125,-0.134613037109375,0.09246826171875
1782846022820177200,7.17917724609375,-0.9854583740234375,-0.136627197265625,0.08837890625
1782846022830182100,7.18918212890625,-0.977203369140625,-0.1369781494140625,0.0843658447265625
1782846022840187100,7.199187255859375,-0.971435546875,-0.13824462890625,0.081756591796875
1782846022850193000,7.20919287109375,-0.9661407470703125,-0.138763427734375,0.081451416015625
1782846022860198100,7.2191982421875,-0.9615325927734375,-0.1392822265625,0.0824432373046875
1782846022870203100,7.229203125,-0.961029052734375,-0.1385650634765625,0.0859527587890625
1782846022880209000,7.239208984375,-0.9619293212890625,-0.1383056640625,0.0865936279296875
1782846022890214000,7.2492138671875,-0.9713592529296875,-0.1350555419921875,0.08819580078125
1782846022900219000,7.259218994140625,-0.981414794921875,-0.1340789794921875,0.0892181396484375
1782846022910224000,7.269223876953125,-0.9841156005859375,-0.1349639892578125,0.0881805419921875
1782846022920230000,7.27922998046875,-0.9841156005859375,-0.1349029541015625,0.0906982421875
1782846022930235000,7.28923486328125,-0.9836273193359375,-0.13427734375,0.0875244140625
1782846022940240000,7.299239990234375,-0.9828033447265625,-0.135589599609375,0.087615966796875
1782846022950246100,7.30924609375,-0.9813995361328125,-0.134033203125,0.0865936279296875
1782846022960251100,7.319251220703125,-0.97998046875,-0.1333160400390625,0.089263916015625
1782846022970256100,7.329256103515625,-0.98028564453125,-0.13311767578125,0.091033935546875
1782846022980262100,7.33926220703125,-0.9783477783203125,-0.13153076171875,0.0881805419921875
1782846022990267100,7.34926708984375,-0.975189208984375,-0.1313018798828125,0.088134765625
1782846023000272100,7.359272216796875,-0.9726715087890625,-0.1307830810546875,0.0902252197265625
1782846023010278000,7.36927783203125,-0.9755706787109375,-0.1304931640625,0.0916748046875
1782846023020283000,7.379282958984375,-0.9787750244140625,-0.1311187744140625,0.091278076171875
1782846023030288000,7.389287841796875,-0.9785614013671875,-0.1319732666015625,0.090118408203125
1782846023040292900,7.39929296875,-0.9770965576171875,-0.13397216796875,0.092681884765625
1782846023050299000,7.409298828125,-0.9749603271484375,-0.13629150390625,0.0941619873046875
1782846023060304000,7.419303955078125,-0.9777069091796875,-0.136077880859375,0.0935821533203125
1782846023070308900,7.429308837890625,-0.9755706787109375,-0.1317596435546875,0.0945587158203125
1782846023080315000,7.43931494140625,-0.97540283203125,-0.1311187744140625,0.0946502685546875
1782846023090320000,7.44931982421875,-0.983001708984375,-0.1349334716796875,0.0924072265625
1782846023100325000,7.4593251953125,-0.9864501953125,-0.13446044921875,0.0924530029296875
1782846023110331100,7.4693310546875,-0.989593505859375,-0.1321258544921875,0.0918426513671875
1782846023120336100,7.479336181640625,-0.9887542724609375,-0.1320037841796875,0.0898284912109375
1782846023130341000,7.489341064453125,-0.981475830078125,-0.1304473876953125,0.08721923828125
1782846023140347000,7.499346923828125,-0.9757537841796875,-0.1338348388671875,0.0872039794921875
1782846023150352100,7.50935205078125,-0.967529296875,-0.1336822509765625,0.087310791015625
1782846023160357000,7.519357177734375,-0.965789794921875,-0.1333770751953125,0.0895538330078125
1782846023170363000,7.52936279296875,-0.9636383056640625,-0.1339111328125,0.0896759033203125
1782846023180368000,7.539367919921875,-0.9695587158203125,-0.1335601806640625,0.09368896484375
1782846023190372900,7.549372802734375,-0.9740753173828125,-0.135711669921875,0.0966949462890625
1782846023200379000,7.55937890625,-0.98199462890625,-0.1339111328125,0.0974578857421875
1782846023210384000,7.5693837890625,-0.99139404296875,-0.13714599609375,0.0974273681640625
1782846023220388900,7.579388916015625,-0.9914398193359375,-0.1334686279296875,0.0971221923828125
1782846023230393900,7.589393798828125,-0.9897308349609375,-0.1323089599609375,0.095794677734375
1782846023240400100,7.599400146484375,-0.9869384765625,-0.1346435546875,0.09375
1782846023250405000,7.609405029296875,-0.9784088134765625,-0.13531494140625,0.092987060546875
1782846023260410000,7.61941015625,-0.9726715087890625,-0.1334228515625,0.0928955078125
1782846023270416100,7.629416015625,-0.96954345703125,-0.1362762451171875,0.0908660888671875
1782846023280421000,7.639421142578125,-0.9680633544921875,-0.13922119140625,0.0911865234375
1782846023290426000,7.649426025390625,-0.968414306640625,-0.1383514404296875,0.0908355712890625
1782846023300432000,7.659431884765625,-0.9674835205078125,-0.1367645263671875,0.0837554931640625
1782846023310436900,7.669436767578125,-0.9707183837890625,-0.134521484375,0.0862579345703125
1782846023320442400,7.6794423828125,-0.97662353515625,-0.1378173828125,0.0906219482421875
1782846023330448400,7.689448486328125,-0.9809417724609375,-0.1360931396484375,0.0894012451171875
1782846023340453400,7.699453369140625,-0.987823486328125,-0.1347503662109375,0.088531494140625
1782846023350458400,7.709458251953125,-0.992584228515625,-0.1352996826171875,0.088653564453125
1782846023360463400,7.71946337890625,-0.9897918701171875,-0.1368255615234375,0.084625244140625
1782846023370469600,7.7294697265625,-0.98736572265625,-0.1368865966796875,0.0815277099609375
1782846023380474600,7.739474609375,-0.9842681884765625,-0.138671875,0.0769195556640625
1782846023390479600,7.749479736328125,-0.9762115478515625,-0.1349639892578125,0.0821380615234375
1782846023400485600,7.759485595703125,-0.975555419921875,-0.1379241943359375,0.0874481201171875
1782846023410490600,7.76949072265625,-0.9782562255859375,-0.1386566162109375,0.0916290283203125
1782846023420495600,7.77949560546875,-0.9747772216796875,-0.138427734375,0.09442138671875
1782846023430501400,7.78950146484375,-0.974090576171875,-0.1383514404296875,0.093536376953125
1782846023440506400,7.79950634765625,-0.970947265625,-0.1383514404296875,0.0950164794921875
1782846023450511400,7.809511474609375,-0.963134765625,-0.1373748779296875,0.0937042236328125
1782846023460517400,7.819517333984375,-0.9569854736328125,-0.137847900390625,0.088531494140625
1782846023470522400,7.8295224609375,-0.955963134765625,-0.1378326416015625,0.0894622802734375
1782846023480527400,7.83952734375,-0.962371826171875,-0.138275146484375,0.0911102294921875
1782846023490532400,7.849532470703125,-0.967498779296875,-0.1409759521484375,0.0912628173828125
1782846023500538600,7.85953857421875,-0.970458984375,-0.140106201171875,0.0953521728515625
1782846023510543600,7.869543701171875,-0.9736328125,-0.138031005859375,0.0999603271484375
1782846023520548600,7.879548583984375,-0.9752655029296875,-0.1385955810546875,0.099517822265625
1782846023530554600,7.8895546875,-0.979095458984375,-0.1383209228515625,0.1020355224609375
1782846023540559600,7.8995595703125,-0.9815826416015625,-0.1367645263671875,0.104156494140625
1782846023550564600,7.909564697265625,-0.9813079833984375,-0.13818359375,0.102264404296875
1782846023560570400,7.9195703125,-0.982330322265625,-0.138916015625,0.0996551513671875
1782846023570575400,7.929575439453125,-0.9792633056640625,-0.137115478515625,0.0973663330078125
1782846023580580400,7.939580322265625,-0.9764404296875,-0.1394805908203125,0.0930023193359375
1782846023590586400,7.94958642578125,-0.9741668701171875,-0.1399078369140625,0.0901336669921875
1782846023600591400,7.95959130859375,-0.97174072265625,-0.1416168212890625,0.0904998779296875
1782846023610596400,7.969596435546875,-0.9724273681640625,-0.1415557861328125,0.0912933349609375
1782846023620601300,7.979601318359375,-0.9748077392578125,-0.1417999267578125,0.08984375
1782846023630607600,7.989607666015625,-0.97998046875,-0.1436614990234375,0.09027099609375
1782846023640612600,7.999612548828125,-0.9820098876953125,-0.14276123046875,0.091400146484375
1782846023650617600,8.00961767578125,-0.9822845458984375,-0.1407623291015625,0.090301513671875
1782846023660623600,8.01962353515625,-0.9774169921875,-0.143341064453125,0.0880889892578125
1782846023670628600,8.029628662109374,-0.975311279296875,-0.1445465087890625,0.09014892578125
1782846023680633600,8.039633544921875,-0.9693603515625,-0.1444091796875,0.0906524658203125
1782846023690639600,8.0496396484375,-0.96136474609375,-0.1456451416015625,0.0895233154296875
1782846023700644600,8.05964453125,-0.9598541259765625,-0.14617919921875,0.0888519287109375
1782846023710649600,8.069649658203126,-0.964263916015625,-0.1446075439453125,0.0912933349609375
1782846023720655400,8.0796552734375,-0.9699249267578125,-0.1417694091796875,0.089935302734375
1782846023730660400,8.089660400390626,-0.978424072265625,-0.1404571533203125,0.0871429443359375
1782846023740665300,8.099665283203125,-0.98797607421875,-0.1381683349609375,0.08966064453125
1782846023750670300,8.10967041015625,-0.99755859375,-0.1378631591796875,0.090850830078125
1782846023760676400,8.11967626953125,-1.0058746337890625,-0.13702392578125,0.090850830078125
1782846023770681300,8.129681396484376,-1.0059967041015625,-0.13702392578125,0.0915069580078125
1782846023780686300,8.139686279296875,-0.9991607666015625,-0.134552001953125,0.0940399169921875
1782846023790692600,8.149692626953126,-0.9873046875,-0.134674072265625,0.0950927734375
1782846023800697600,8.159697509765625,-0.9789886474609375,-0.13372802734375,0.0961456298828125
1782846023810702600,8.16970263671875,-0.9698486328125,-0.1338043212890625,0.097412109375
1782846023820708600,8.17970849609375,-0.9682159423828125,-0.1360931396484375,0.0974578857421875
1782846023830713600,8.189713623046876,-0.9700164794921875,-0.1336212158203125,0.1016387939453125
1782846023840718600,8.199718505859375,-0.9764404296875,-0.13311767578125,0.1030120849609375
1782846023850724400,8.209724365234376,-0.988525390625,-0.1328887939453125,0.09893798828125
1782846023860729300,8.219729248046875,-1.00042724609375,-0.133209228515625,0.0971221923828125
1782846023870734300,8.229734375,-1.00164794921875,-0.1372833251953125,0.097747802734375
1782846023880739300,8.2397392578125,-0.9967041015625,-0.1376495361328125,0.094482421875
1782846023890745300,8.249745361328126,-0.9856719970703125,-0.1383819580078125,0.0870513916015625
1782846023900750300,8.259750244140625,-0.972412109375,-0.141387939453125,0.0822296142578125
1782846023910755300,8.26975537109375,-0.963836669921875,-0.143157958984375,0.0831756591796875
1782846023920761600,8.27976171875,-0.95916748046875,-0.1428375244140625,0.0820465087890625
1782846023930766600,8.2897666015625,-0.9605865478515625,-0.1416778564453125,0.0782928466796875
1782846023940771600,8.299771484375,-0.964935302734375,-0.1399688720703125,0.078857421875
1782846023950777600,8.309777587890625,-0.97357177734375,-0.1370391845703125,0.0802459716796875
1782846023960782600,8.319782470703124,-0.9822845458984375,-0.13824462890625,0.080322265625
1782846023970787600,8.32978759765625,-0.9853057861328125,-0.13848876953125,0.0795745849609375
1782846023980792600,8.33979248046875,-0.9842376708984375,-0.138153076171875,0.08154296875
1782846023990798600,8.349798583984375,-0.9799957275390625,-0.1401519775390625,0.0833587646484375
1782846024000803600,8.359803466796874,-0.9776153564453125,-0.1407623291015625,0.0826263427734375
1782846024010808600,8.36980859375,-0.9774017333984375,-0.13873291015625,0.0791778564453125
1782846024020814300,8.379814453125,-0.9765472412109375,-0.1407928466796875,0.0785369873046875
1782846024030819300,8.3898193359375,-0.978363037109375,-0.1375579833984375,0.0782928466796875
1782846024040824300,8.39982421875,-0.983062744140625,-0.137115478515625,0.0811614990234375
1782846024050830600,8.40983056640625,-0.9836883544921875,-0.13690185546875,0.0819244384765625
1782846024060835600,8.419835693359374,-0.9800262451171875,-0.1361541748046875,0.08563232421875
1782846024070840600,8.429840576171875,-0.973358154296875,-0.1386871337890625,0.0854339599609375
1782846024080846600,8.4398466796875,-0.9694366455078125,-0.1408843994140625,0.083648681640625
1782846024090851600,8.4498515625,-0.96722412109375,-0.1414794921875,0.08306884765625
1782846024100856600,8.459856689453124,-0.966033935546875,-0.1440277099609375,0.0837249755859375
1782846024110861600,8.469861572265625,-0.9677276611328125,-0.14361572265625,0.0831146240234375
1782846024120867600,8.47986767578125,-0.9724273681640625,-0.14495849609375,0.083709716796875
1782846024130872600,8.48987255859375,-0.975494384765625,-0.1437530517578125,0.080841064453125
1782846024140877600,8.499877685546876,-0.98028564453125,-0.1419219970703125,0.085968017578125
1782846024150883300,8.50988330078125,-0.9841461181640625,-0.1414031982421875,0.088653564453125
1782846024160888300,8.519888427734376,-0.9826507568359375,-0.1402130126953125,0.091461181640625
1782846024170893300,8.529893310546875,-0.9806365966796875,-0.1419830322265625,0.0891876220703125
1782846024180899300,8.5398994140625,-0.97796630859375,-0.1400909423828125,0.089080810546875
1782846024190904300,8.549904296875,-0.975067138671875,-0.1392822265625,0.092193603515625
1782846024200909300,8.559909423828126,-0.9698638916015625,-0.1387786865234375,0.0919036865234375
1782846024210914300,8.569914306640625,-0.96160888671875,-0.138946533203125,0.090545654296875
1782846024220920600,8.579920654296876,-0.956573486328125,-0.1388702392578125,0.0921173095703125
1782846024230925600,8.589925537109375,-0.9617767333984375,-0.1387176513671875,0.0954437255859375
1782846024240930600,8.5999306640625,-0.968719482421875,-0.140594482421875,0.10113525390625
1782846024250936600,8.6099365234375,-0.9766693115234375,-0.1401214599609375,0.104705810546875
1782846024260941600,8.619941650390626,-0.9866943359375,-0.1371002197265625,0.10797119140625
1782846024270946600,8.629946533203125,-0.9820709228515625,-0.141998291015625,0.10546875
1782846024280952600,8.63995263671875,-0.9772186279296875,-0.1365509033203125,0.108551025390625
1782846024290957600,8.64995751953125,-0.978271484375,-0.1392059326171875,0.1064605712890625
1782846024300962600,8.659962646484376,-0.972808837890625,-0.141754150390625,0.1052093505859375
1782846024310968300,8.66996826171875,-0.97320556640625,-0.14044189453125,0.097808837890625
1782846024320973600,8.6799736328125,-0.9503631591796875,-0.12908935546875,0.1046142578125
1782846024330978600,8.689978515625,-0.9881744384765625,-0.1339874267578125,0.1155853271484375
1782846024340983600,8.699983642578125,-0.9824981689453125,-0.1605987548828125,0.1033172607421875
1782846024350989600,8.709989501953125,-0.979156494140625,-0.149749755859375,0.102081298828125
1782846024360994600,8.71999462890625,-0.9687347412109375,-0.1397247314453125,0.0810546875
1782846024370999600,8.72999951171875,-0.981964111328125,-0.1405487060546875,0.079132080078125
1782846024381005600,8.740005615234375,-1.007659912109375,-0.1389617919921875,0.0802001953125
