time,seconds_elapsed,z,y,x
1782846015713879300,0.07287939453125,0.10601473513245582,0.07630202617496251,0.07328720839843153
1782846015723884300,0.08288427734375,0.05712707784473896,0.08282967437803745,0.10123312687911093
1782846015733890300,0.092890380859375,0.019774375528097153,0.054463557723909616,0.10633761041127145
1782846015743895300,0.102895263671875,0.08621347159743309,0.07059285474792122,0.12858853212073446
1782846015753900300,0.112900390625,0.17037936301529408,0.062244859249889845,0.11118366220295428
1782846015763906600,0.122906494140625,0.19944997467696665,0.030422903053462503,0.06629771483726798
1782846015773911600,0.13291162109375,0.15973989557921886,0.05644289497286081,0.03196720988601446
1782846015783917300,0.142917236328125,0.11044131940305232,0.07061404366642236,-0.003908624811097979
1782846015793922300,0.15292236328125,0.036165538358688354,0.07883505178391934,-0.022529300259426236
1782846015803927300,0.16292724609375,0.02929974424242973,0.07170476151257753,-0.015836013165861366
1782846015813933300,0.172933349609375,0.11068331146538257,0.04351137107685208,-0.02431749885044992
1782846015823938300,0.182938232421875,0.1449497382044792,0.056745092789828776,-0.0676662267114967
1782846015833944300,0.1929443359375,0.13041384785175322,0.023186375928670167,-0.07666428361609577
1782846015843949300,0.20294921875,0.06937105786800384,0.03701777127385139,-0.04982537652924657
1782846015853954300,0.212954345703125,0.03145312288403511,0.045633477797359226,0.00685154639519751
1782846015863960600,0.222960693359375,0.0734597884863615,0.04251176558025181,0.020384981707110998
1782846015873965600,0.232965576171875,0.08672200564146042,0.03571392213366926,0.0007788754180073738
1782846015883970600,0.242970458984375,0.090574004894495,0.043423765858635305,-0.011419292702153324
1782846015893976600,0.2529765625,0.011397007805109024,0.051813335476070636,-0.018245704656094312
1782846015903981600,0.262981689453125,-0.017100772404670714,0.08181414065994322,0.03287774885967373
1782846015913986600,0.272986572265625,0.014119710767269134,0.08201295116767286,0.05503872726336121
1782846015923992300,0.282992431640625,0.09940788421332836,0.08567264271900057,0.036188042451441284
1782846015933997300,0.292997314453125,0.1423439396202564,0.06672660777382552,0.0336254984870553
1782846015944003300,0.30300341796875,0.144884856274724,0.06575104073993861,0.039472909341007466
1782846015954008300,0.31300830078125,0.16455460238456726,0.053744741930067536,0.022935542972758412
1782846015964013300,0.323013427734375,0.12665771018862723,0.05471314857080579,0.05386456891745329
1782846015974019300,0.333019287109375,0.08829904569983482,0.0431874728847295,0.06787044404670596
1782846015984024300,0.3430244140625,0.06823299374878405,0.04437923995256424,0.10695625376626848
1782846015994030600,0.353030517578125,0.005486906978487968,0.0450905300270766,0.06751914639100431
1782846016004035600,0.36303564453125,-0.003099135059118271,0.06064714172966778,0.07226159167774021
1782846016014040600,0.37304052734375,-0.014254150801897049,0.04332695442065596,0.06041128714717924
1782846016024046300,0.38304638671875,-0.03719780401587486,0.054469256812334055,0.043467531935125585
1782846016034051300,0.39305126953125,-0.014862638089060782,0.06421046023443341,0.04714249412082135
1782846016044056300,0.403056396484375,0.032197219249606134,0.030075697050988674,0.044223610999435184
1782846016054062300,0.413062255859375,0.08742693904042244,0.04646656762063503,0.06453611199222505
1782846016064067300,0.4230673828125,0.10082710336148738,0.05678966258391738,0.07121822010464966
1782846016074073300,0.4330732421875,0.08163140450417995,0.07956453510224819,0.059865489832684395
1782846016084078300,0.443078369140625,0.055582186490297315,0.08776508495360612,0.06902282895222306
1782846016094083300,0.453083251953125,0.10544131915867327,0.0861433289706707,0.06675181528031826
1782846016104089600,0.463089599609375,0.18417992483079432,0.08014598825201391,0.041898748248443
1782846016114094600,0.473094482421875,0.20074585970640182,0.052281975901126855,0.03513246898390353
1782846016124099600,0.483099609375,0.18874504078924656,0.0449123239159584,0.0351417482689023
1782846016134105300,0.493105224609375,0.1791004296094179,0.050792760256677866,0.0380986253131181
1782846016144110300,0.5031103515625,0.14137246423959732,0.032075200305134055,0.02605404031947255
1782846016154116400,0.513116455078125,0.11720832931995391,0.03489785651043057,0.00042509354427456853
1782846016164121300,0.523121337890625,0.10581249055862427,0.009524053540080785,-0.016271701169386504
1782846016174126300,0.533126220703125,0.07838555445075035,0.0037934009335935112,-0.02732530236430466
1782846016184132400,0.54313232421875,0.025754618981480598,0.014498627082258462,0.021279154067859053
1782846016194137300,0.553137451171875,0.03394435517787933,0.0032429274439811705,0.01594108097553253
1782846016204142300,0.563142333984375,0.010481646525859832,0.006501198587566614,-0.030366862017288804
1782846016214148600,0.573148681640625,0.02484159578979015,-0.012607406508177517,-0.061565571748837825
1782846016224153600,0.583153564453125,0.0721264940559864,0.0028849077865481373,-0.06673376816697418
1782846016234159400,0.593159423828125,0.07997896112203598,0.016840075641870497,-0.0692330376368016
1782846016244164400,0.603164306640625,0.05961714109480381,0.024251374811679122,-0.06555274168886244
1782846016254169300,0.61316943359375,0.0044137247890233995,0.017232289829850197,-0.056300490827485915
1782846016264175400,0.62317529296875,-0.031362521991133686,0.028326076904684302,-0.04038220620565116
1782846016274180400,0.633180419921875,-0.03207914582788944,0.06147825879156589,-0.014545973355323075
1782846016284185300,0.643185302734375,0.0034089316606521606,0.060426850042492146,0.03342931832782924
1782846016294191400,0.65319140625,0.06993687505722046,0.02955795678719878,0.03221124777495861
1782846016304196400,0.6631962890625,0.16427870805263517,0.05927797226831317,0.00018149404674768448
1782846016314200800,0.673200927734375,0.2100268982708454,0.04903758715242147,0.004569280676916241
1782846016324207000,0.68320703125,0.235781517252326,0.020615502527356146,0.043025487256050106
1782846016334212000,0.693212158203125,0.23598493086993694,-0.008707476460188627,0.10321925919502974
1782846016344218000,0.703218017578125,0.1985556561857462,0.011961655950546263,0.0748483933005482
1782846016354223000,0.71322314453125,0.15577859073281286,0.04126622249856591,0.04747786355502903
1782846016364228000,0.72322802734375,0.1196966390043497,0.0234931037902832,0.0045682577636092896
1782846016374233900,0.73323388671875,0.06843056214749813,0.00784486828148365,-0.02233538512252271
1782846016384238800,0.74323876953125,0.032170915764570235,-0.004818798458576202,-0.0694045217461884
1782846016394243800,0.753243896484375,-0.023819851526618002,-0.0005228548303246498,-0.06829612211287021
1782846016404249900,0.763249755859375,-0.029718261915445326,0.01958776691481471,-0.047489042536169285
1782846016414254800,0.7732548828125,-0.025863340052962303,0.015899872182309628,-0.0427115259360522
1782846016424259800,0.783259765625,0.004867313775420189,0.033277123440802095,-0.057221989586576816
1782846016434266000,0.79326611328125,0.04730301844477653,0.033935733480006454,-0.07487623115554451
1782846016444271000,0.80327099609375,0.11724749228656291,0.015139847595244645,-0.05711787162497639
1782846016454277000,0.813277099609375,0.16175006635785102,0.014712708224356174,-0.0047153380841016765
1782846016464282000,0.8232822265625,0.14257774837613105,0.022976678700745105,0.02151946562975645
1782846016474287000,0.833287109375,0.13872516460120676,0.030344869381189344,-0.03065422759130597
1782846016484292900,0.84329296875,0.09742635500729084,0.061383566245436665,-0.004040507562458515
1782846016494297900,0.8532978515625,0.11534253544807434,0.05785626890212297,0.011768982922658324
1782846016504303000,0.86330322265625,0.12631751844882963,0.054714171484112735,0.0033139468535780905
1782846016514308900,0.873308837890625,0.10994681388437748,0.06128653561174869,0.03568681493103504
1782846016524313900,0.88331396484375,0.1303320147871971,0.07224617491289972,0.07738426845371722
1782846016534319900,0.89331982421875,0.14310557164251803,0.11217676489353179,0.06588569997027516
1782846016544324900,0.903324951171875,0.1301367844760418,0.08005860222950577,0.004472834565117955
1782846016554329900,0.913329833984375,0.07240414195358753,0.03765226978510618,0.01026756538376212
1782846016564336000,0.923336181640625,-0.019082886132597923,0.036703590758144854,0.083380220932886
1782846016574341000,0.933341064453125,-0.06383972722589969,0.02831234064027667,0.09299531375728547
1782846016584346000,0.94334619140625,-0.04932663322687149,0.01604395682811737,0.06123838562108576
1782846016594352000,0.95335205078125,-0.016032266390323638,0.022764497254788876,0.003921849618852139
1782846016604357000,0.963357177734375,0.03353285176753998,0.012622896338254213,0.007270940851047634
1782846016614362000,0.973362060546875,0.08353168516755104,0.02088496711850166,-0.012371259664744137
1782846016624367900,0.983367919921875,0.08742693904042244,0.02879734767824411,-0.028166575494036075
1782846016634372900,0.993372802734375,0.0964513724952936,0.023159487921744583,-0.04996083947718143
1782846016644379000,1.00337890625,0.1343406659066677,0.026791122422367333,-0.054813467140123244
1782846016654383900,1.0133837890625,0.11401917788982391,0.018895839127898214,-0.03612747137062251
1782846016664388900,1.023388916015625,0.11897124733924865,0.005873860469460487,-0.005691928031295538
1782846016674395100,1.03339501953125,0.10085808302164077,0.007275251699984073,-0.022691066692396997
1782846016684400000,1.043400146484375,0.07436813550293445,0.05010886964574456,0.006641264645382761
1782846016694405000,1.053405029296875,0.09644260466694832,0.06490063445568084,0.05419716187268495
1782846016704411100,1.0634111328125,0.10560323172211647,0.039633068338781594,0.08121149859167635
1782846016714416000,1.073416015625,0.07713117047548293,0.055815556854754686,0.09315116190612316
1782846016724422000,1.083421875,0.027057518273591992,0.06942834101319313,0.1257305854063481
1782846016734427000,1.093427001953125,0.12220774504244326,0.04693476965427398,0.022499416577816008
1782846016744431900,1.103431884765625,0.1582616397202015,0.023185937537252902,-0.007174787000194191
1782846016754438000,1.11343798828125,0.14997662645578383,0.007028875723481178,-0.005755787047743797
1782846016764443000,1.12344287109375,0.12049977208077907,0.012447539771348238,-0.0051240650154650205
1782846016774447900,1.13344775390625,0.11710954512059688,0.032037644773721695,-0.008773673564195632
1782846016784454100,1.1434541015625,0.10644026706814766,0.025115152034163472,-0.0024352643229067325
1782846016794459100,1.153459228515625,0.05114449630379676,0.00878945565521717,0.0056716889608651394
1782846016804464000,1.163464111328125,-0.005341945549845695,-0.0031366905905306336,0.010594605381041764
1782846016814470100,1.17347021484375,0.02843582088947296,-0.01494680924117565,-0.014533260004222393
1782846016824475100,1.18347509765625,0.06490823324024676,-0.001416734930127859,-0.05233268317505717
1782846016834481000,1.19348095703125,0.09373919092714786,-0.011282003123313188,-0.048997620468214154
1782846016844486000,1.20348583984375,0.10921908413171767,-0.002678133168071508,-0.06630728638321161
1782846016854491000,1.213490966796875,0.12134732882082462,0.014811200162768363,-0.07347367088124156
1782846016864497000,1.223496826171875,0.10632570077776908,0.007107786178588866,-0.06857588890232146
1782846016874502000,1.233501953125,0.03773731772005558,0.027406623972207306,-0.09360979239381849
1782846016884507000,1.2435068359375,-0.053670799911022186,0.04358677440062165,-0.056784474952146405
1782846016894513000,1.253512939453125,-0.008959551525115966,0.038055589888989924,-0.04186908376254141
1782846016904518000,1.263517822265625,0.061759998342394824,0.05705737360939383,-0.07158391161188483
1782846016914523000,1.27352294921875,0.09765373402237891,0.09497866959422827,-0.0339866599496454
1782846016924529200,1.283529052734375,0.15793547650575637,0.08018588187098502,0.02781980788297951
1782846016934534100,1.2935341796875,0.19829028324782846,0.07836451166272163,0.06036496378742158
1782846016944540000,1.303539794921875,0.20645605404675005,0.08523045190945268,0.044885435909032816
1782846016954545000,1.313544921875,0.2244967376500368,0.06290522285476327,0.00479198351688683
1782846016964550100,1.323550048828125,0.2139256592750549,0.03526581303998828,0.013057561428472399
1782846016974556000,1.333555908203125,0.2092904006898403,0.043658378332108255,0.02160575567372143
1782846016984561000,1.343560791015625,0.21003741966485975,0.0256499895632267,0.029983707918599247
1782846016994566000,1.35356591796875,0.1422147602826357,0.04227510728016495,0.06129807991907
1782846017004572000,1.363572021484375,0.04220423400104046,0.038107904598116873,0.07418817582614719
1782846017014577000,1.373576904296875,-0.009554010286927223,0.010756225683540106,0.010464768456295131
1782846017024582000,1.383581787109375,-0.013523498439788818,-0.001759849279373884,0.013930837131664157
1782846017034588200,1.393588134765625,-0.010597966381907463,-0.031868425686657424,0.018483824260905383
1782846017044593200,1.40359326171875,-0.017966449323296545,-0.03500423949435353,-0.001297054073214531
1782846017054599200,1.41359912109375,0.00985737714767456,0.0020215689554810524,-0.04676036293543875
1782846017064604200,1.423604248046875,0.016495207726955414,0.04349573511630297,-0.060339464019984
1782846017074609200,1.433609130859375,0.05562368754446506,0.051453416122496126,-0.04910488023497164
1782846017084615000,1.443614990234375,0.055123921328783035,0.050735477111488576,-0.029663974444940684
1782846017094620000,1.453619873046875,0.009162380620837211,0.07381386262103914,-0.02676226165406406
1782846017104625000,1.463625,-0.006276011529564857,0.09419628704488277,-0.006395327060297131
1782846017114631000,1.473630859375,0.059768532264232635,0.06973053883016109,0.007816007513180375
1782846017124636000,1.483635986328125,0.12123568513989448,0.047730450076609844,0.0038433044899255035
1782846017134641000,1.493640869140625,0.20282383502423762,0.04196107289493084,0.008723843073099851
1782846017144647000,1.50364697265625,0.24082418759465216,0.058049599517136806,-0.017181290294975043
1782846017154652000,1.51365185546875,0.1968470987021923,0.06379705712795257,-0.04185490910671651
1782846017164658200,1.523658203125,0.12443886509537697,0.0679335724107921,0.017948036883771418
1782846017174663200,1.5336630859375,0.07558744816482067,0.03206058725789189,0.035854426582902665
1782846017184668200,1.543668212890625,0.033873043507337566,0.04960135851502418,0.03535787523761391
1782846017194674000,1.553673828125,0.014285130462050438,0.040747167060524225,0.03826112239845097
1782846017204679000,1.563678955078125,0.016150339812040327,0.0060879416115581985,0.04132409016564488
1782846017214684000,1.573683837890625,0.042593525579571724,0.003815320504456758,0.01241319911032915
1782846017224690000,1.58368994140625,0.05526537562608719,0.009610416649281977,-0.006776654528081416
1782846017234695000,1.59369482421875,0.06609305911064148,0.007818126405030488,-0.021057328010722992
1782846017244700000,1.603699951171875,0.12331892115473747,0.005706102687120437,-0.013151157996058463
1782846017254706000,1.613705810546875,0.1549327875584364,0.01646481258869171,-0.027925679410248993
1782846017264711000,1.6237109375,0.1656464892745018,0.013370792096108197,-0.025938889507204292
1782846017274716000,1.6337158203125,0.14541852476000786,0.0196045719191432,-0.015626096742227674
1782846017284722200,1.64372216796875,0.1317833826392889,0.003810059807449579,-0.011987228783220052
1782846017294727200,1.65372705078125,0.10361351920962333,-0.0015995441511273383,0.007067161907255649
1782846017304733000,1.66373291015625,0.054905310142040246,0.026471827340126035,0.0402305958405137
1782846017314738200,1.67373828125,0.015616671326756476,0.04828077743574977,0.018019860010966657
1782846017324743200,1.6837431640625,-0.01717325311899185,0.06772182935625315,-0.015287950829043984
1782846017334749200,1.693749267578125,-0.05167407313585281,0.04911620534658432,0.006590922697633505
1782846017344754200,1.703754150390625,0.018543956950306893,0.04651829780787229,0.01970145642235875
1782846017354759200,1.71375927734375,0.04958966807723045,0.04771642155125737,0.009035027914121746
1782846017364765200,1.72376513671875,0.07965221338570118,0.04979746560901403,0.005365180294960737
1782846017374770200,1.733770263671875,0.1159890166580677,0.02482800565585494,-0.017651318959519265
1782846017384775200,1.743775146484375,0.13656477169692516,0.020877806725353002,0.009094503016397356
1782846017394781400,1.753781494140625,0.13955401664078235,0.0016183949820697307,0.006980871863290667
1782846017404786400,1.763786376953125,0.12577625117897986,0.013839870912581681,0.008460369831323623
1782846017414792200,1.773792236328125,0.07288987964391708,-0.0016989128723740577,0.011461743604391813
1782846017424797200,1.783797119140625,0.07847206369042396,0.008151888404041529,-0.00040770401805639264
1782846017434802200,1.79380224609375,0.07187164251208306,0.0262022166185081,0.0021040596071630717
1782846017444808200,1.80380810546875,0.06698913116753101,0.027114801418781278,-0.0282139948323369
1782846017454813200,1.813813232421875,0.027967618855834004,0.011648936739563942,-0.042115532804280514
1782846017464818200,1.823818115234375,0.04822890111804008,0.02037161076888442,-0.01803966068997979
1782846017474824200,1.83382421875,0.09156593854129313,0.005030395382642746,0.014128478595614433
1782846017484829200,1.8438291015625,0.11671382380127907,0.006535393118113279,-0.019331088740006087
1782846017494834200,1.853834228515625,0.17486966017186642,0.05293064906820655,-0.01699022470228374
1782846017504840200,1.863840087890625,0.21690379830300807,0.04295271428078413,-0.047468292009085415
1782846017514845200,1.87384521484375,0.1896755996376276,0.048561786334216595,-0.05315824727900326
1782846017524850200,1.88385009765625,0.1420487560659647,0.04598915936723351,-0.030539442105218768
1782846017534856200,1.893856201171875,0.084714172950387,0.0569343317516148,0.030181860839202997
1782846017544861400,1.903861328125,0.038140637823939325,0.05435381373912096,0.038823505521565674
1782846017554867200,1.9138671875,0.020768062740564346,0.03475581769123673,0.006630524055659771
1782846017564872200,1.9238720703125,0.08058978649675845,0.044550650996714826,-0.018693302293121813
1782846017574877200,1.933877197265625,0.047241059124469756,0.04496946093067527,0.0011914748068898916
1782846017584883200,1.94388330078125,0.02332885313928127,0.0320963892236352,0.042691359930858014
1782846017594888200,1.95388818359375,0.07699614591896534,0.01356806823387742,0.035505759275704624
1782846017604893200,1.96389306640625,0.12463175731897354,0.044496582721918816,0.06448606230542063
1782846017614899200,1.973899169921875,0.17237082909345625,0.027714520877599715,0.03777151225060224
1782846017624904200,1.983904296875,0.17494623253941535,0.03758665720298886,0.01923719991147518
1782846017634909200,1.9939091796875,0.1643821684271097,0.0523335599578917,-0.009571107552200555
1782846017644915500,2.00391552734375,0.12251812616586684,0.03072612378373742,-0.00031169629767537115
1782846017654920400,2.01392041015625,0.07835223670303822,0.008801146093010902,-0.028526202586665748
1782846017664925400,2.023925537109375,0.0739700760960579,-0.00938420667797327,-0.010253902184590697
1782846017674931200,2.03393115234375,0.07614449752569198,-0.01881020667105913,-0.030705957778543232
1782846017684936200,2.043936279296875,0.03645779930353164,-0.011107231078296899,-0.05936630813889205
1782846017694942200,2.053942138671875,0.03833703717887401,-0.02423354689404368,-0.06643244713284074
1782846017704947200,2.063947265625,0.09206336666941642,-0.0205064891949296,-0.03991268899776041
1782846017714952200,2.0739521484375,0.08453121759891509,-0.00828165226355195,-0.005881093927845358
1782846017724958200,2.083958251953125,0.07820727527439594,0.0105853991612792,0.02816051107943058
1782846017734963200,2.093963134765625,0.05553893187046051,0.02683686126023531,-0.028922873754054307
1782846017744968200,2.10396826171875,0.015453005197644233,0.028745471360534427,-0.058027679946273565
1782846017754974200,2.11397412109375,-0.018830957198143004,0.04145239272043109,-0.05445924687497317
1782846017764979200,2.123979248046875,-0.019932196438312528,0.04392404353097081,-0.044254079202935094
1782846017774984200,2.133984130859375,-0.009956161347031593,0.03362593687847257,-0.01659194609969854
1782846017784990200,2.143990234375,0.027197803527116773,0.0355481371127069,-0.0008827741838991641
1782846017794995200,2.1539951171875,0.056422728967666626,0.03171688838675618,0.008053980987519025
1782846017805000200,2.164000244140625,0.08963117108643054,0.03422711764201522,0.04805369068160653
1782846017815006200,2.174006103515625,0.11725859820246695,-0.014884265398979185,0.053760670151561496
1782846017825011200,2.18401123046875,0.15454232693612574,0.021836276493966578,0.08591010473668574
1782846017835017200,2.194017333984375,0.17622165930271147,0.04736117837280035,0.07704685319289564
1782846017845022200,2.204022216796875,0.17088965062499045,0.02548573891222477,0.04966404848769307
1782846017855027200,2.214027099609375,0.13329203363656997,0.041982261813431974,0.05905293134078383
1782846017865033200,2.224033203125,0.06546235999166965,0.054133302856236694,0.06848821061886846
1782846017875038200,2.2340380859375,0.036027591192722315,0.008054857770353556,0.05109605405218899
1782846017885043200,2.244043212890625,0.03671908058822155,0.06904299495741724,0.0447118329077959
1782846017895049200,2.25404931640625,0.022524551019072532,0.07339476042613387,0.02497194417119026
1782846017905054200,2.26405419921875,0.061001873451471324,0.052314416866004465,0.040520007241144775
1782846017915059500,2.2740595703125,0.08138824339807033,0.03531491287872195,0.056014805753901595
1782846017925065200,2.284065185546875,0.11046586932241916,0.04783566401675343,0.06544029429033399
1782846017935070200,2.2940703125,0.08498305301964282,0.11550663996860384,0.038371670100837946
1782846017945075200,2.3040751953125,0.07790624650120735,0.12502382537648082,0.02498078506477177
1782846017955081200,2.314081298828125,0.08085399039089679,0.1226433599807322,0.056544455651193856
1782846017965086200,2.324086181640625,0.07788578823506832,0.13918079941421746,0.06797032422460615
1782846017975092200,2.33409228515625,0.10131751722693443,0.14114099357128143,0.08002382317706942
1782846017985097200,2.34409716796875,0.12900982627272606,0.11290507916808128,0.05868972405157983
1782846017995102200,2.354102294921875,0.12262801628112792,0.09840849791243672,0.04078589163571596
1782846018005108500,2.3641083984375,0.15077800596654414,0.07003083695098758,-0.005427066550031304
1782846018015113500,2.374113525390625,0.227594119143486,0.037857875359803436,-0.018950857250764966
1782846018025118500,2.384118408203125,0.2286836679458618,0.03430953522846102,-0.04207183979302644
1782846018035124200,2.394124267578125,0.18973346730470655,0.03735226392522454,-0.055044207156077024
1782846018045129200,2.404129150390625,0.16473755773603915,0.05475362671166658,-0.06579334551170468
1782846018055134200,2.41413427734375,0.09706219787001609,0.04538052594959736,-0.025491364935413003
1782846018065140200,2.42414013671875,0.03738660458624363,0.028918197578936815,0.03522000113688409
1782846018075145200,2.434145263671875,0.03937631709873676,0.04026186776161193,0.03748261230662465
1782846018085150200,2.444150146484375,0.021653028881549834,0.03777355807721615,-0.007577595647424459
1782846018095156200,2.45415625,0.007307108142971992,0.027356793481111526,-0.010047127566114068
1782846018105161200,2.4641611328125,0.017639701586961744,0.01671425730511546,0.0031595600094646214
1782846018115166200,2.474166259765625,0.04084522060751915,0.011575433111935853,0.004781242927163839
1782846018125172200,2.484172119140625,0.029300913286209106,0.021041765115410088,-0.00990260452888906
1782846018135177200,2.49417724609375,0.032408816173672673,0.04240720922723412,0.0023540157802402974
1782846018145183200,2.504183349609375,0.06121405489742755,0.0342006680265069,0.041345498279854655
1782846018155188200,2.514188232421875,0.0793856714040041,0.02395882160589099,0.06394311453513801
1782846018165193200,2.524193115234375,0.11599895353019236,0.03103796621188521,0.049203226042911406
1782846018175199200,2.53419921875,0.13249474577903747,0.024199498493969438,0.04574592519588768
1782846018185204200,2.544204345703125,0.09118366122543811,0.027054011142253875,0.04508592691719532
1782846018195209200,2.554209228515625,0.03879121068716049,0.04379442580193281,0.039740912627428765
1782846018205215200,2.56421533203125,0.02740530879795551,0.03882219034731388,0.10839330083206296
1782846018215220200,2.57422021484375,0.05597381615638732,-0.0010841419748961925,0.12666662414744495
1782846018225225200,2.58422509765625,0.06348901409208774,0.008566898945719003,0.09063983667232095
1782846018235231200,2.594231201171875,0.0682049366980791,0.016099778668582438,0.06112250415645539
1782846018245236200,2.604236328125,0.10946282975971698,0.011205723016709088,0.05102605755589902
1782846018255241200,2.6142412109375,0.13390402805507182,0.015461773025989532,0.04881071959398687
1782846018265247200,2.624247314453125,0.05427227293550968,0.018963059145212173,0.030499548486247658
1782846018275252200,2.634252197265625,0.0023655600875616073,0.026309914776682854,-0.018683657681941985
1782846018285258200,2.64425830078125,0.002838438296318054,0.005772884313017129,-0.017126710563525556
1782846018295263200,2.65426318359375,0.0026829554736614225,0.020451982528716325,0.04247691346257925
1782846018305268200,2.664268310546875,0.0002624503284692764,0.02511661333888769,0.027809724880382417
1782846018315273700,2.674273681640625,-0.03701192605495453,0.010298398913443087,-0.009606909517943858
1782846018325278700,2.68427880859375,-0.002955342674255371,0.026273089897632596,0.013609350092336535
1782846018335283700,2.69428369140625,0.05758417396247387,0.0195458274692297,-0.003619578736647963
1782846018345289700,2.704289794921875,0.11152210037708282,0.020447598614543674,-0.049318157659471035
1782846018355294700,2.714294677734375,0.12061200028359889,0.036602468471229076,-0.06978511856161057
1782846018365299700,2.7242998046875,0.1286287180006504,0.03348316740691662,-0.07902290250621735
1782846018375306000,2.734305908203125,0.12922142319679258,0.027331366778910158,-0.09380473044402897
1782846018385311000,2.74431103515625,0.12680384066104888,0.038364071316272015,-0.07745389962382614
1782846018395316000,2.75431591796875,0.12511574144363402,0.056359308342635625,-0.05250665150247514
1782846018405321700,2.76432177734375,0.09309095615148544,0.06944120049476624,-0.0291807209726423
1782846018415326700,2.77432666015625,0.12906067967712878,0.051287411905825135,-0.04570727368593216
1782846018425331700,2.784331787109375,0.15720190153419972,0.07611819404065609,-0.06002258009053767
1782846018435337700,2.794337646484375,0.1917325321674347,0.0425529013082385,-0.04236863078251481
1782846018445342700,2.8043427734375,0.18571371026933192,0.022415829947590827,-0.060399012187495826
1782846018455347700,2.81434765625,0.12501754176616667,0.042188159649074075,0.00455934380479157
1782846018465353700,2.824353759765625,0.07945406046509743,0.036399200984090566,0.09940276964679359
1782846018475358700,2.834358642578125,0.057926703789830204,0.026466420512646437,0.0012000965047627686
1782846018485364700,2.84436474609375,-0.005064297652244568,0.07005100295618176,-0.033526202831044793
1782846018495369700,2.85436962890625,-0.02335164949297905,0.06292918825224042,-0.021770225520431993
1782846018505374700,2.864374755859375,-0.002649637725949287,0.029461072283983227,0.0003369038041681051
1782846018515380700,2.874380615234375,0.06509352667927741,0.045843613416701554,0.042250557360798115
1782846018525386000,2.884385986328125,0.07372749951183795,0.032501170632243156,0.04300013361908495
1782846018535391000,2.894390869140625,0.09543255084156989,0.03343114495873451,0.020311258883774278
1782846018545396700,2.904396728515625,0.07447276492118834,0.05855535708218813,0.014575564775988458
1782846018555401700,2.914401611328125,0.06522329053878784,0.04821837972402572,0.029233401007950303
1782846018565406700,2.92440673828125,0.07416413736343383,0.027143881382793188,0.024348989967256783
1782846018575412700,2.934412841796875,0.11771101814508438,0.02482376787215471,0.016596037752926347
1782846018585417700,2.944417724609375,0.1235439620822668,0.057470484454929825,0.04298573976755142
1782846018595422700,2.954422607421875,0.08062076615691184,0.06273118146210908,0.04848455637954175
1782846018605428700,2.9644287109375,0.10507365489006042,0.031037381689995525,0.03054616410695016
1782846018615433700,2.974433837890625,0.1342968267649412,0.026614158420264718,0.017023980841413138
1782846018625438700,2.984438720703125,0.15790683493316174,0.02693637611195445,0.01543853828087449
1782846018635445000,2.994445068359375,0.17273966240584848,0.015604688628017902,-0.002563055421039462
1782846018645450000,3.004449951171875,0.1530114641070366,0.00893865486755967,-0.002361468434333801
1782846018655455700,3.014455810546875,0.1419657539576292,-0.005256897614896297,-0.040216275054216384
1782846018665460700,3.024460693359375,0.12602467298209666,-0.00615910715162754,-0.07450695945173502
1782846018675465700,3.0344658203125,0.10230243661105633,-0.0022312661834061145,-0.049109556410089135
1782846018685471700,3.0444716796875,0.0711029962271452,0.010136194089055061,-0.016076178597286342
1782846018695476700,3.054476806640625,0.0020195231288671492,-0.004190145166218281,0.01907053810767829
1782846018705481700,3.064481689453125,-0.035136779832839964,-0.029874475390464065,0.00900514423251152
1782846018715487700,3.07448779296875,-0.032492987325787544,-0.019660832151025532,-0.006608385289087891
1782846018725492700,3.08449267578125,-0.020819500666856765,-0.015509703820943832,0.032880379208177324
1782846018735497700,3.094497802734375,0.029408465313911437,0.005780190836638212,0.014111892786994576
1782846018745503700,3.104503662109375,0.06988835974037647,0.004979688108712434,-0.02208776703700423
1782846018755508700,3.1145087890625,0.12654548198580742,0.022408523423969744,-0.032873218815028665
1782846018765514000,3.124513916015625,0.1713011540353298,0.02876768319234252,-0.03678198975659907
1782846018775519700,3.134519775390625,0.18676351158320903,0.012575257804244755,-0.023251988510787486
1782846018785524700,3.144524658203125,0.15551438683867452,0.0053417994193732735,0.006913432650268078
1782846018795529700,3.15452978515625,0.10297229869663714,0.003981763112545013,0.020823153928667307
1782846018805535700,3.16453564453125,0.09644202014505862,0.03279635418653488,0.05377111848033964
1782846018815540700,3.174540771484375,0.10116320344805717,0.03120046329721808,0.06033164603970945
1782846018825545700,3.184545654296875,0.08702478798031807,0.03028130262568593,0.0394245401546359
1782846018835551700,3.1945517578125,0.08513210610151291,0.02090001855716109,0.022625600240752098
1782846018845556700,3.204556640625,0.09083879331052302,0.018230799347907303,-0.01190006195642054
1782846018855561700,3.214561767578125,0.09057108228504657,0.021893851900100708,-0.017208397497609256
1782846018865567700,3.224567626953125,0.12298632819950579,0.002699322086572647,-0.042976752743497486
1782846018875572700,3.23457275390625,0.13629179997444152,0.015512188038975,-0.07750869855098426
1782846018885578800,3.244578857421875,0.12301964594721794,0.017613690362870693,-0.04886325349882245
1782846018895583700,3.254583740234375,0.09593231705725193,0.04361059366762638,-0.017660671309754253
1782846018905589000,3.264589111328125,0.038276831424236296,0.03877762055322528,-0.04414594265334308
1782846018915594800,3.2745947265625,0.04698971471190452,0.01958776691481471,-0.016310644940286875
1782846018925599700,3.284599853515625,0.04228606706559658,0.04288198713213205,-0.021943536260724067
1782846018935604700,3.294604736328125,0.014422493106126784,0.04390723852664232,0.01665412461571395
1782846018945610800,3.30461083984375,0.01430325064063072,0.05723009982779622,0.00721636111959815
1782846018955615700,3.31461572265625,0.05340367340743542,0.06541048367395996,-0.025794366469979284
1782846018965620700,3.324620849609375,0.10480769743025302,0.059370326726883645,-0.018051570323482154
1782846018975626800,3.334626708984375,0.11618716957867145,0.036829116833955046,0.03587517710998654
1782846018985631700,3.3446318359375,0.09193710994124411,0.04661065226644277,0.03616166590116918
1782846018995636700,3.35463671875,0.08812485817670822,0.04439867530539632,0.04669584633186459
1782846019005643000,3.36464306640625,0.12921499345600604,0.03190715026184916,0.01200220715664327
1782846019015648000,3.37464794921875,0.14053776698112486,0.02555968093127012,0.009148717421665788
1782846019025653000,3.384653076171875,0.14847557424306868,0.016748159574717283,-0.0005432400312274695
1782846019035658800,3.39465869140625,0.12288579043447971,0.03567220188379287,0.017222426022961736
1782846019045663700,3.404663818359375,0.08070961348414421,0.026956249856203793,0.005521320704743266
1782846019055668700,3.414668701171875,0.07349602884352206,0.011936083117872476,-0.004897781978920102
1782846019065674800,3.4246748046875,0.09131634769439696,0.02422273323908448,-0.021166049082204697
1782846019075679700,3.4346796875,0.11666589300632477,0.02852466821670532,-0.0321477540846914
1782846019085685800,3.444685791015625,0.11946867546737193,0.01819938129633665,-0.05587386291325092
1782846019095690800,3.454690673828125,0.10774258183836936,0.018609423401951788,-0.04875942779816687
1782846019105695700,3.46469580078125,0.0804050775796175,0.01569163625910878,-0.05037526549696922
1782846019115701800,3.47470166015625,0.08830605996251106,0.022860651105642317,-0.04164236233457923
1782846019125706800,3.484706787109375,0.08236673304140567,0.007464636792242527,-0.01508526786379516
1782846019135711700,3.494711669921875,0.05143967985808849,0.02392155833542347,0.016175766514241696
1782846019145717800,3.5047177734375,0.07843816142082213,0.04832885436117649,0.03417071127966046
1782846019155722800,3.51472265625,0.054829322296380996,0.05954056872725486,0.03181793760843575
1782846019165727700,3.524727783203125,0.03883388078510761,0.03416296636462211,0.03806311560831964
1782846019175733800,3.534733642578125,0.051991468521952626,-0.003937339448928833,0.0469436836130917
1782846019185738800,3.54473876953125,0.042809798678755756,-0.013644932862371206,0.02088292129188776
1782846019195743700,3.55474365234375,0.03937631709873676,-0.00949599648937583,0.01349872932471335
1782846019205749800,3.564749755859375,0.09761924723088741,0.011829115612059831,0.03926598859205842
1782846019215754800,3.574754638671875,0.09977905561327934,0.00768061763048172,0.013838409607857465
1782846019225759700,3.584759765625,0.1053665003567934,-0.00212079154625535,-0.006526259963586926
1782846019235765800,3.594765869140625,0.08493103057146072,0.0279047827526927,-0.029176775449886918
1782846019245770800,3.604770751953125,0.09091945733129977,0.03275543765425682,-0.03196538325510919
1782846019255775700,3.614775634765625,0.10547229881882667,0.04004924792423844,-0.019590616459026933
1782846019265781800,3.62478173828125,0.05154489379823207,0.03291676569581031,-0.02389320902377367
1782846019275786800,3.634786865234375,0.033385552251338955,0.011922492983937263,-0.016102189821377396
1782846019285792000,3.6447919921875,0.08442015843987465,0.040640345685184,0.015965557829663156
1782846019295797800,3.6547978515625,0.11592413472831249,0.01841068595945835,0.01106828730739653
1782846019305802800,3.664802734375,0.13644552923142908,0.009455810609459877,-0.01567088573202491
1782846019315808300,3.674808349609375,0.13463175780773162,0.015156360338628291,0.009860153626650572
1782846019325814300,3.684814208984375,0.11890578088760376,0.027482173426449298,0.031544527494534846
1782846019335819300,3.6948193359375,0.06257365281283855,0.038815760606527326,0.041055356226861475
1782846019345824300,3.70482421875,0.05988076046705246,0.04775923777967691,-0.02038154764100909
1782846019355830300,3.714830322265625,0.03438274659514427,0.04572729356065392,-0.0004806961890310049
1782846019365835300,3.724835205078125,-0.0154500825881958,0.028989363119006156,0.01827763416431844
1782846019375841300,3.73484130859375,0.016993220376968383,0.023875965628027913,0.046877048117667436
1782846019385846300,3.74484619140625,0.0595171878516674,0.013977087426185607,0.05562164171785116
1782846019395851300,3.754851318359375,0.07880699473321437,0.049828737530112265,0.054754868820682166
1782846019405857300,3.764857177734375,0.13488836291730402,0.051405631458014245,0.07127908344641327
1782846019415862300,3.7748623046875,0.16879881582558154,0.014178601347655057,0.01469108091443777
1782846019425867300,3.7848671875,0.17203180639743804,0.042526451692730186,-0.013693594309687614
1782846019435873300,3.794873291015625,0.17134382413327692,0.025621347990632055,-0.001315977969393134
1782846019445878300,3.804878173828125,0.2009510268896818,0.006334463718533516,-0.010685936926305293
1782846019455883300,3.81488330078125,0.15703998897075652,0.010365472800284624,-0.03216580119803548
1782846019465889300,3.82488916015625,0.07326514269709587,0.02460603346824646,-0.02679192613996565
1782846019475894300,3.834894287109375,0.03695698099732399,0.027238866189867258,-0.017868907232955096
1782846019485899300,3.844899169921875,0.014550503399968146,0.04244008858352899,-0.009451353630051016
1782846019495905300,3.8549052734375,-0.018700608816742896,0.04100596412718296,-0.00259659236446023
1782846019505910300,3.86491015625,0.008657938230037689,-0.010586860466003418,-0.019948563051223753
1782846019515915500,3.87491552734375,0.0793155287772417,0.0195249308116734,0.021632716745883226
1782846019525921300,3.88492138671875,0.11730652899742126,0.013494272345304488,0.009747560097649693
1782846019535926300,3.89492626953125,0.09959960739314555,0.02909194671064615,0.005076426481455564
1782846019545931300,3.90493115234375,0.08940437659323215,0.026549861012399194,0.01931172645241022
1782846019555937300,3.914937255859375,0.09461655828356742,0.031904666043817996,0.011592530377209186
1782846019565942300,3.9249423828125,0.0939554640263319,0.046654929799586534,0.05385309767536819
1782846019575947300,3.934947265625,0.08095043650269508,0.03006839052736759,0.06096585229001939
1782846019585953300,3.944953369140625,0.09569909282326698,0.0425245519965887,0.025427286723256108
1782846019595958300,3.954958251953125,0.08272387591600418,0.05505275578871369,0.0037566491197794675
1782846019605963300,3.96496337890625,0.027384266009926793,0.052974780470877884,0.01719093490615487
1782846019615969300,3.97496923828125,0.012501169654726982,0.029543343739956617,0.0017059271350502968
1782846019625974300,3.984974365234375,0.07758359041810035,0.013414338976889848,-0.01041311133429408
1782846019635979300,3.994979248046875,0.13748890080451964,-0.01783624707236886,-0.024875717255100606
1782846019645985300,4.0049853515625,0.15492460425198076,-0.02090878638550639,-0.08839534568116068
1782846019655990300,4.014990234375,0.14851707529723643,-0.0015935528017580508,-0.09933978741317986
1782846019665996300,4.024996337890625,0.10212824908792972,-0.002359860999137163,-0.06939955331012607
1782846019676001300,4.035001220703125,0.08757482307851314,0.012677256873995065,-0.029865853692591187
1782846019686006300,4.04500634765625,0.059042556077241896,0.02240004785656929,-0.03870068285949528
1782846019696012300,4.05501220703125,0.02867021416723728,0.04230594080984592,-0.01442563491128385
1782846019706017300,4.065017333984375,-0.0026952304333448408,0.04277779610529542,-0.03770107736289501
1782846019716022300,4.075022216796875,-0.01840542526245117,0.03463160678967833,0.01106463404558599
1782846019726028300,4.0850283203125,-0.017882862693071364,0.03093026805371046,0.04553447440229356
1782846019736033300,4.095033203125,0.021971008789539337,0.020503420455008744,0.052232072344794864
1782846019746038300,4.105038330078125,0.05197042573392391,0.02706424027532339,0.019795418316125867
1782846019756044300,4.115044189453125,0.11464636987745762,0.03904971549287438,0.005981631692871451
1782846019766049300,4.12504931640625,0.16245090810358523,0.04377572110146284,0.012058248192816971
1782846019776054300,4.13505419921875,0.1937579005151987,0.03971154040247202,0.015285393545776604
1782846019786060300,4.145060302734375,0.1893137805879116,0.029291853196918963,-0.005998144436255097
1782846019796065300,4.155065185546875,0.20224282026588916,0.016031097346544263,-0.005566255825012922
1782846019806070300,4.1650703125,0.16640987486243247,0.020704349854588508,-0.015652327162027357
1782846019816076300,4.175076171875,0.12652619276344776,0.026728432449698445,-0.029286884760856627
1782846019826081300,4.185081298828125,0.05608312174975872,0.02061784061491489,-0.012921660089120268
1782846019836086300,4.195086181640625,0.002883446481823921,0.02602627552971244,0.0073408642821013925
1782846019846092300,4.20509228515625,0.000671031129360199,0.020957447832822797,0.034731340837106106
1782846019856097300,4.21509716796875,0.00948445218205452,0.026056086146086455,0.009683408820256591
1782846019866102300,4.225102294921875,0.009554594808816909,0.028219547790288922,0.001681888672336936
1782846019876108300,4.2351083984375,0.00038519992530345915,0.043149552027136086,-0.00012260346636176108
1782846019886113300,4.24511328125,0.00730067840218544,0.04943155490607023,-0.03532017357572913
1782846019896118300,4.2551181640625,0.038787119033932685,0.06766703042909503,-0.029716581415012478
1782846019906124300,4.265124267578125,0.04357318426668644,0.05898804941102862,-0.0017270429883152246
1782846019916129300,4.27512939453125,0.04869125793278217,0.08165931542441249,0.006798647164180874
1782846019926134300,4.28513427734375,0.04899579383730888,0.09493307688683271,0.027757117910310623
1782846019936140300,4.295140380859375,0.08171382209062576,0.08427519701123237,0.03421447735615074
1782846019946145300,4.305145263671875,0.10011047952473164,0.05972673894912004,0.03423953873217106
1782846019956150300,4.315150390625,0.0775771606773138,0.05470452687293291,0.062453971955925225
1782846019966156300,4.32515625,0.09084054687619209,0.04530950654000043,0.11569076436385511
1782846019976161300,4.335161376953125,0.20043138692975043,0.04658551782518625,0.0766428024366498
1782846019986166300,4.345166259765625,0.20802081914544104,0.04486600055620074,0.05311923044286668
1782846019996172300,4.35517236328125,0.19592998385727403,0.07597615522146224,0.07003733975701033
1782846020006177300,4.36517724609375,0.19617314496338367,0.05671703573912382,0.08033223153911531
1782846020016182300,4.375182373046875,0.21325930432081222,0.038151305348426104,0.08530037534050643
1782846020026188300,4.385188232421875,0.18407997158765793,0.020204291377961633,0.00906461933478713
1782846020036193300,4.395193359375,0.1314747550815344,0.02285904367044568,-0.02225559788458049
1782846020046198300,4.4051982421875,0.06585574322342873,-0.004178162467479705,-0.014136808032542466
1782846020056204300,4.415204345703125,-0.017122984236478806,0.005971475625038147,-0.022107567716017365
1782846020066209300,4.425209228515625,-0.06461012707650661,0.022741700901091098,-0.029683482863008974
1782846020076214300,4.43521435546875,-0.03674070789813995,0.0204923145391047,-0.019816972560808062
1782846020086220300,4.44522021484375,0.013138298514485358,0.0055320612944662565,-0.018404694610089062
1782846020096225300,4.455225341796875,0.03850713304877281,-0.0051480304129421705,-0.005309723780676723
1782846020106230300,4.465230224609375,0.05448971507847309,0.005151829805225133,-0.004593319139629602
1782846020116236300,4.475236328125,0.0531383004695177,0.0021919570863246918,0.016228154288604853
1782846020126241300,4.4852412109375,0.08831424326896667,-0.007137450664490461,-0.015281521088257432
1782846020136247300,4.495247314453125,0.09981588049232959,-0.0029101883582770822,-0.04729848840013146
1782846020146252300,4.505252197265625,0.08822305785417556,-0.01261456690132618,-0.07531886035650968
1782846020156257300,4.51525732421875,0.0677040014386177,0.00028510055169463154,-0.08446487436443567
1782846020166263300,4.52526318359375,0.07132745263278484,0.019592004698514937,-0.020938597001880405
1782846020176268300,4.535268310546875,0.04279986180663108,0.015467033722996711,0.0027119623724371194
1782846020186273300,4.545273193359375,0.01353168174624443,0.03597688391879201,0.01446472481265664
1782846020196279300,4.555279296875,0.05810322940051555,0.02991290770471096,0.01823671763204038
1782846020206284300,4.5652841796875,0.11943594224154948,0.010159867225587368,0.007126125552877783
1782846020216289300,4.575289306640625,0.1601081443697214,0.0086323653973639,-0.0117640875518322
1782846020226295300,4.58529541015625,0.18651275169253348,0.01545636619850993,-0.038936683572456235
1782846020236300300,4.59530029296875,0.2009592101961374,-0.008149550316482781,-0.05394406389445066
1782846020246305300,4.60530517578125,0.13873100982010364,0.02102422945871949,-0.06950958955585956
1782846020256311300,4.615311279296875,0.06506546962857246,0.026588293326646088,-0.02510689566247165
1782846020266316300,4.62531640625,0.04696808740198612,0.008666559927910565,-0.009774521169811487
1782846020276321300,4.6353212890625,0.05667290433645248,0.034312457837909455,-0.019958426858112215
1782846020286327300,4.645327392578125,0.039218496188521385,0.02290346733406186,-0.022252967536076904
1782846020296332300,4.655332275390625,0.011978022563457489,0.026928192805498838,-0.013017156352847814
1782846020306337300,4.665337158203125,0.020478724405169485,0.027621581897139546,0.022121084784716367
1782846020316343000,4.675343017578125,0.05035831436216831,0.016067629964649676,0.015567717618495226
1782846020326348000,4.68534814453125,0.058631052666902536,0.04460135827064514,-0.0013286182552576064
1782846020336353000,4.69535302734375,0.12404723542928695,0.04401815155521035,0.043630905803292985
1782846020346359000,4.705359130859375,0.19033026415407656,0.041377135527133936,0.031753786331042644
1782846020356364000,4.715364013671875,0.18888766413033006,0.05229629668742418,0.029996421269699928
1782846020366369000,4.725369140625,0.11302432163357734,0.02504822427779436,0.06039857379607856
1782846020376375300,4.735375244140625,0.07044190196990967,0.02646320564225316,0.06223704126961529
1782846020386380300,4.74538037109375,0.068074588316679,0.042336482078582045,0.03517703877799213
1782846020396385300,4.75538525390625,0.08082417977452278,0.02729322672560811,0.019299086166545746
1782846020406391000,4.76539111328125,0.07998889799416065,0.03411927335336804,0.013366919638589023
1782846020416396000,4.77539599609375,0.06983107659518718,0.01083119061589241,-0.014495193016156553
1782846020426401000,4.785401123046875,0.08291793718338013,0.004824059155583382,-0.02599639184810221
1782846020436407000,4.795406982421875,0.10183423457741737,0.009834873054921627,-0.03339285877496004
1782846020446412000,4.805412109375,0.11285714837312698,-0.0032106326095759866,-0.0395109032638371
1782846020456417000,4.8154169921875,0.10938158121705055,-0.009167495187371968,-0.03602386486567557
1782846020466423000,4.825423095703125,0.11817279043793677,-0.03393383378386497,-0.06212941617667675
1782846020476428000,4.835427978515625,0.10357435624301432,-0.0008417115211486816,-0.045398865323886275
1782846020486433000,4.84543310546875,0.07867138565480708,0.006534954726696014,-0.04226889673508703
1782846020496439300,4.855439208984375,0.039132571470737454,0.013597440458834171,-0.036384222610667344
1782846020506444300,4.8654443359375,0.023161095356941223,0.012172083830833434,-0.022700857434049246
1782846020516449300,4.87544921875,-0.002057517051696777,0.0014250643670558928,-0.003146042940765619
1782846020526455000,4.885455078125,-0.0014554595053195953,0.01985752376690507,0.017964622692391276
1782846020536460300,4.895460205078125,0.0587982259273529,0.028319208772480488,-0.0029224633179605005
1782846020546465300,4.90546533203125,0.12856032893955707,0.04299523824825883,0.016516469710692764
1782846020556471000,4.915470947265625,0.11993337036967276,0.048899201595038175,0.012771145702525973
1782846020566476000,4.92547607421875,0.12948504256904125,0.04768821837007999,0.004430383662879467
1782846020576481000,4.93548095703125,0.22632395307719705,0.04851283262595534,0.011377937778457999
1782846020586487000,4.945487060546875,0.22710078266859055,0.04117036090865731,0.08528678520657122
1782846020596492000,4.955491943359375,0.16344284175038337,0.039936727460473775,0.10955518421828746
1782846020606497000,4.9654970703125,0.1099807161539793,0.024692542707920075,0.10366152306981384
1782846020616503000,4.9755029296875,0.07321019763946533,0.025294454123824833,0.09216960352286696
1782846020626508000,4.985508056640625,0.07953238639831542,0.0075670742534101,0.04657214688695967
1782846020636513000,4.995512939453125,0.053825113689899444,0.00809445912837982,0.03278751329295337
1782846020646519300,5.005519287109375,0.009990063616633415,0.0073643912881612775,-0.0006772416744381189
1782846020656524300,5.015524169921875,-0.026771687069535255,0.01880845310539007,-0.038403088152408595
1782846020666529300,5.025529296875,-0.05129822556078434,0.022175153059512377,-0.057226519631221884
1782846020676535000,5.03553515625,0.001925415104627609,0.032561230256408454,-0.012490575195476411
1782846020686540000,5.0455400390625,0.04093640602231025,0.024961715038120745,0.031126886604353785
1782846020696545000,5.055544921875,0.10529577320814132,0.012349778485298156,-0.04789857318513095
1782846020706551000,5.065551025390625,0.10834990008175373,0.05081862535029649,-0.019576880194619298
1782846020716556000,5.07555615234375,0.12106383570432662,0.04005991544872522,0.023674378641322255
1782846020726561000,5.08556103515625,0.1201671791255474,0.04324409844279289,0.003998787312582135
1782846020736567000,5.095567138671875,0.1550450157612562,0.05919350885525346,-0.03349156990908086
1782846020746572000,5.105572021484375,0.18388649484217165,0.04210954145491123,-0.011644260564446448
1782846020756577000,5.115576904296875,0.17118132704794406,0.036803105609863995,0.03520034658834338
1782846020766583300,5.125583251953125,0.1431909118384123,0.028581805231422185,0.03405161494463682
1782846020776588300,5.13558837890625,0.10884557464420795,0.05251198526471853,0.03446889050863683
1782846020786593300,5.14559326171875,0.0748491970181465,0.04969152101650834,0.03548172081299126
1782846020796599000,5.15559912109375,0.06383914270401,0.052753246674686664,0.06395232075490057
1782846020806604000,5.16560400390625,0.034706571722030635,0.052798108729720114,0.045859833899140355
1782846020816609000,5.175609130859375,0.036214638197422024,0.05207110962942242,0.0509496313188225
1782846020826615000,5.185614990234375,0.08269114269018173,0.04118292812928557,0.032469021928310395
1782846020836620000,5.1956201171875,0.11953414191901683,0.008010434106737374,0.01870543112233281
1782846020846625000,5.205625,0.13592998092472552,-0.018801000451296568,-0.00030848142728209495
1782846020856631000,5.215631103515625,0.14139350702762604,-0.005475070410221815,-0.029117081151902674
1782846020866636000,5.225635986328125,0.15433131453394888,0.012518266920000314,-0.07063019108362495
1782846020876641000,5.23564111328125,0.13752689472734927,0.00801978645697236,-0.06354439754113554
1782846020886647300,5.245647216796875,0.14937515343129634,0.011251461854577064,-0.0727847387690097
1782846020896652300,5.25565234375,0.10728723928630352,0.014787088634818792,-0.04619169620200991
1782846020906657300,5.2656572265625,0.0707405926555395,0.005810439844429492,-0.014670257322117686
1782846020916663300,5.275663330078125,0.051443771511316294,0.014766922629624604,-0.015123480982333421
1782846020926668300,5.285668212890625,0.024597850161790846,0.0033243221171200274,0.01531703079305589
1782846020936673300,5.29567333984375,0.022257424515485763,0.019809592971950767,0.016144129266962407
1782846020946679000,5.305678955078125,0.060627194920182224,0.03861000890135765,0.007292422030493617
1782846020956684000,5.31568408203125,0.05005611654520035,0.03555193650498986,0.015022139499709009
1782846020966689000,5.32568896484375,0.06257073020339012,0.03245236305445433,0.020056845731288193
1782846020976695000,5.335695068359375,0.09594985271394252,0.033415362867712975,-0.00024929858595132827
1782846020986700000,5.345699951171875,0.10146773935258388,0.0367538596406579,-0.008928717995435
1782846020996705000,5.355705078125,0.1099368770122528,0.03292231865376234,-0.005163154916837811
1782846021006711000,5.3657109375,0.09938917951285839,0.02295855852216482,0.0013111556638032197
1782846021016716000,5.375716064453125,0.05067804783582687,0.040585546758025885,-0.0069050301481038325
1782846021026721000,5.385720947265625,0.045587446698546405,0.022529227194190024,0.02657594530172646
1782846021036727300,5.395727294921875,0.06495148786008358,0.028830957686901092,0.04100106875635683
1782846021046732300,5.405732177734375,0.08494213648736476,0.016417174054682255,0.03864310745336115
1782846021056737300,5.4157373046875,0.06923018809258938,0.027181290783733127,0.016410890444368123
1782846021066743000,5.425742919921875,0.06091185708045959,0.03007920418232679,0.009759908122569322
1782846021076748000,5.435748046875,0.034838673669099804,0.030886136651039123,0.009587766426056623
1782846021086753000,5.4457529296875,0.06701660369634628,0.020998072104156017,0.022714082241803407
1782846021096759000,5.455759033203125,0.09542729014456272,0.008083645473420619,0.016298223850131036
1782846021106764000,5.465763916015625,0.13918810593783854,0.015597820495814084,-0.020300518294051287
1782846021116769000,5.47576904296875,0.1861895110875368,0.041037089917808765,-0.02228898869752884
1782846021126775000,5.485775146484375,0.2306716268926859,0.02188274598419666,-0.04644990874677896
1782846021136780000,5.495780029296875,0.21203005478680131,0.012694208008795976,-0.03024856939986348
1782846021146785000,5.505784912109375,0.16855097854435444,0.01156184297800064,0.013126535011455416
1782846021156791300,5.515791259765625,0.09995967287719248,0.002943652236461639,0.05169621190242469
1782846021166796300,5.52579638671875,0.05223404510617256,0.02360913138538599,0.06561134000830351
1782846021176801300,5.53580126953125,0.007698153287172317,0.03694645960330963,0.07955985892713069
1782846021186807000,5.54580712890625,-0.028053543573617935,0.029582652837038037,0.09338394774869084
1782846021196812000,5.55581201171875,-0.07436345932781696,0.05756196213066578,0.09924407195374368
1782846021206817000,5.565817138671875,-0.05086977101564407,0.047236675210297105,0.06343034270741045
1782846021216823000,5.575822998046875,-0.0036684593796730038,0.041054479444026945,0.044265623510256404
1782846021226828000,5.585828125,0.09127718472778797,0.015948679760098457,0.014603256500512361
1782846021236833000,5.5958330078125,0.20158231053054332,-0.011712503495067358,0.010725903610512613
1782846021246838000,5.605838134765625,0.2744832960903644,0.007703852375596761,-0.005739858826249837
1782846021256844000,5.615843994140625,0.28838673375844953,-0.004175093727558851,-0.035584961991757154
1782846021266849000,5.62584912109375,0.2461515200972557,-0.013180530221015214,-0.05250760135054588
1782846021276854000,5.63585400390625,0.15543547638356683,-0.00652034167945385,-0.051878071275353425
1782846021286860300,5.6458603515625,0.0519710102558136,-0.03555500524491072,-0.05545322634838521
1782846021296865300,5.655865234375,-0.04182137216329574,-0.018769728530198336,-0.008861132651939987
1782846021306870300,5.665870361328125,-0.08872866928875446,-0.014870821395516395,-0.03874832139350474
1782846021316875800,5.675875732421875,-0.09704816934466362,-0.011188333490490913,-0.0475080394975841
1782846021326880800,5.685880859375,-0.03809329155087471,-0.00418298477306962,-0.03980236049108207
1782846021336885800,5.6958857421875,0.013585457760095596,0.01051876366585493,-0.03859963363781571
1782846021346891500,5.7058916015625,0.09067746526896953,0.022863865976035593,-0.022039105589687823
1782846021356896500,5.715896484375,0.12340484587252139,0.027821049991995094,-0.014837430582568048
1782846021366901800,5.72590185546875,0.12764087600708007,0.05061579625457525,-0.01017353042475879
1782846021376907800,5.73590771484375,0.14344576338231563,0.044577539003640414,-0.0018370792340487241
1782846021386912800,5.745912841796875,0.12659049017131327,0.04772080546543002,0.025591318178549406
1782846021396917800,5.755917724609375,0.0776952340990305,0.06590937310680747,0.03068520725145936
1782846021406923800,5.765923828125,0.02337912202179432,0.06012830548733473,0.02562237090393901
1782846021416928800,5.7759287109375,0.018065818044543266,0.05727949192747473,0.0403878322288394
1782846021426933800,5.785933837890625,0.08928747221529483,0.05359978050142526,0.023378975891321895
1782846021436939800,5.795939697265625,0.2051899796336889,0.05629895645752549,0.05498085959628224
1782846021446944800,5.80594482421875,0.31098318096995353,0.05347630025222897,0.06522204842977225
1782846021456949800,5.81594970703125,0.34486148517429827,0.03913271760120988,0.030483401069045065
1782846021466955800,5.825955810546875,0.31405835063159465,0.025210136841237542,0.026390213471278547
1782846021476960800,5.835960693359375,0.239518950214982,0.01535597456395626,0.0213118872936815
1782846021486965800,5.8459658203125,0.11310849278569221,0.016639730764180422,0.038127705277130004
1782846021496971800,5.8559716796875,-0.02521159814596176,0.013792524639517068,0.026552856687083837
1782846021506976800,5.865976806640625,-0.09284721052348613,0.024362580101191997,0.02728182854875922
1782846021516981800,5.875981689453125,-0.10888473761081695,0.02452960723116994,0.03368658102452755
1782846021526987800,5.88598779296875,-0.11487491793632507,0.05622063052430749,0.016848332013562322
1782846021536992800,5.89599267578125,-0.055039750176668165,0.04612301487997174,-0.025123992927744983
1782846021546997800,5.905997802734375,0.06140694712102413,0.03651785892769694,-0.04020926079154014
1782846021557003800,5.916003662109375,0.14200316335856913,0.038489889653027055,-0.0333541341997683
1782846021567008800,5.9260087890625,0.23510230281651018,0.01414864460080862,-0.04195318184942007
1782846021577013800,5.936013671875,0.2523544663906097,0.0023307810351252557,-0.019617650596424938
1782846021587019800,5.946019775390625,0.1839507922500372,-0.0160481946118176,0.003241904530674219
1782846021597024800,5.956024658203125,0.11768822179138659,0.0061757660254836075,0.03288878171034157
1782846021607029800,5.96602978515625,0.07455927416086197,0.004477145414054393,0.04796323591917753
1782846021617035500,5.976035400390625,0.007891630032658576,0.024442221208661793,0.04892185181826353
1782846021627040500,5.98604052734375,-0.0438186834603548,0.01650806720852852,0.05441372723281383
1782846021637045500,5.99604541015625,-0.03291092047691345,0.027036475485563278,0.07115750289335847
1782846021647051800,6.0060517578125,0.04415010737180709,0.020266542959213256,0.03175656281001866
1782846021657056800,6.016056884765625,0.07825169893801212,0.015483984857797622,-0.03723163322024047
1782846021667061800,6.026061767578125,0.10261164869070052,-0.004240121787786483,-0.04578464977107942
1782846021677067800,6.03606787109375,0.10712415767908096,-0.00805266581326723,-0.06284698986150324
1782846021687072800,6.04607275390625,0.1432990483880043,-0.01581497037783265,-0.0604143558871001
1782846021697077800,6.056077880859375,0.16864274848103522,-0.013501432738453148,-0.032936127983406185
1782846021707082800,6.066082763671875,0.18270634514689443,0.0017749007180333136,-0.02085303761027753
1782846021717088800,6.0760888671875,0.1401437992274761,-0.003871142344921827,-0.004172244183346629
1782846021727093800,6.08609375,0.09994447530806064,-0.012067600543051957,0.02338898582868278
1782846021737098800,6.0960986328125,0.05356441692709923,0.01876753657311201,0.03440788103640079
1782846021747104800,6.106104736328125,0.05317103369534015,0.011946312250941992,0.024191534383222458
1782846021757109800,6.11610986328125,0.05197451738715172,0.012091565940529108,0.015845584711804986
1782846021767114800,6.12611474609375,0.09115618869662284,0.018257248963415622,-0.005555880561470985
1782846021777120800,6.136120849609375,0.15304419733285904,0.03082213150411844,-0.04900448860041797
1782846021787125800,6.146125732421875,0.21207564749419688,0.019917729521542787,-0.061839712515100835
1782846021797130800,6.156130859375,0.18423486988842486,0.0023833880051970483,-0.02891980501413345
1782846021807136800,6.16613671875,0.06878653597831726,0.016962679108232258,0.02639510884210467
1782846021817141800,6.176141845703125,0.0006529109507799148,0.03363382792398333,0.0560566721342504
1782846021827146800,6.186146728515625,-0.059333647978305815,0.042431905277073384,0.034575346557796
1782846021837152800,6.19615283203125,-0.11774901206791401,0.0598776917271316,0.038502310743182895
1782846021847157800,6.20615771484375,-0.0799473969399929,0.06791165283992887,0.03563829961419105
1782846021857162800,6.216162841796875,0.029576223096251485,0.048560617290437216,0.007724018380790948
1782846021867168800,6.226168701171875,0.10184475597143172,0.04728738248422742,0.017313976763933897
1782846021877173800,6.236173828125,0.16711714634895325,0.02214461179077625,0.03371785294562578
1782846021887178800,6.2461787109375,0.20006839883625507,0.027891192618757485,0.020995514820888638
1782846021897184800,6.256184814453125,0.20582067875266075,0.03729848791137338,-0.00394150416739285
1782846021907189800,6.266189697265625,0.18848434402644634,0.03576382569000125,-0.02610116739682853
1782846021917194800,6.27619482421875,0.14495324533581733,0.025090455984324217,-0.013311974580958485
1782846021927200800,6.28620068359375,0.09085983609855175,0.002582125447690487,-0.02340053013600409
1782846021937205800,6.296205810546875,0.0451391184091568,0.01355827749222517,-0.02992291764207184
1782846021947210800,6.306210693359375,0.006840659675002097,0.012343056483566761,-0.050469958043098444
1782846021957216800,6.316216796875,-0.026976854252815246,0.016374796217679975,-0.0626577508997172
1782846021967221800,6.3262216796875,0.0018856676161289215,0.023573183289170265,-0.06507832911014556
1782846021977226800,6.336226806640625,0.06789630914032459,0.03623641163781285,-0.05914375142939388
1782846021987232800,6.346232666015625,0.10656301666498183,0.046053310644626616,-0.05069909062385559
1782846021997237800,6.35623779296875,0.10341302820146084,0.03241115426123142,-0.04505370514802635
1782846022007242800,6.36624267578125,0.12371464247405528,0.02749035673290491,-0.031134266193211076
1782846022017248500,6.37624853515625,0.13800211102366447,0.05893500404953956,0.013557985231280326
1782846022027253500,6.38625341796875,0.13843933339715003,0.06326908773109316,0.009800020937249064
1782846022037258800,6.3962587890625,0.09566986672878265,0.06075199034363031,0.006147124452888965
1782846022047263700,6.406263671875,0.09641454761624335,0.06388458928093314,0.009866364171728492
1782846022057269800,6.416269775390625,0.061169046711921686,0.05669891556054353,0.00009615385085344313
1782846022067274800,6.426274658203125,0.05588379978537559,0.0660736237578094,0.007534560223296284
1782846022077279700,6.43627978515625,0.07587620197832584,0.05240209514945745,0.023613880625739693
1782846022087285800,6.44628564453125,0.08022679840326309,0.017473989631235597,0.03839256675839424
1782846022097290800,6.456290771484375,0.1002729766100645,0.030303952848911284,0.043687312165647744
1782846022107295700,6.466295654296875,0.1471019478023052,0.016968524327129125,0.04431465028375387
1782846022117301800,6.4763017578125,0.17989245676994323,0.01698138380870223,0.01291924893632531
1782846022127306800,6.486306640625,0.11627367881834506,0.008771919998526573,-0.031364348622038955
1782846022137311700,6.496311767578125,0.06900923881828784,0.004569499872624874,-0.04979527365192771
1782846022147317800,6.50631787109375,0.05122457580268383,0.00407557887583971,-0.06144603702239692
1782846022157322800,6.51632275390625,0.021370120286941525,-0.013483897081762551,-0.041461014418303965
1782846022167327700,6.52632763671875,0.006149170279502869,-0.009426730645447969,-0.002729424963891506
1782846022177333800,6.536333740234375,0.024848025530576703,0.00003682487905025482,-0.005540025405213237
1782846022187338800,6.5463388671875,-0.0006558335602283477,0.006697013420611619,-0.003199745889380574
1782846022197343700,6.55634375,0.040430794587731356,0.019479045843333005,-0.031130612931400535
1782846022207349800,6.566349853515625,0.09048340400159359,0.012102671856433152,-0.054675446908921004
1782846022217354800,6.576354736328125,0.11267419302165507,0.020752134519070386,-0.03388232279233634
1782846022227359700,6.58635986328125,0.12092647306025027,0.04434957546666264,-0.032187136247009036
1782846022237365800,6.59636572265625,0.09689911626279353,0.04679857605397701,-0.01458813199661672
1782846022247370800,6.606370849609375,0.1370300511211157,0.029614070888608693,0.021414909276738763
1782846022257375700,6.616375732421875,0.16649287697076798,0.030173604467511175,0.018389204780012366
1782846022267381800,6.6263818359375,0.12058803488612174,0.04266176851019263,0.03337349648736417
1782846022277386800,6.63638671875,0.10124211390316486,0.020091917044669387,0.03572451659291982
1782846022287391700,6.646391845703125,0.12306582317650318,0.007581979561597108,0.03357325684316456
1782846022297396700,6.656396728515625,0.11670447145104408,0.022227321638166903,0.041358796152845025
1782846022307402800,6.66640283203125,0.03820902688503265,0.01322889940738678,-0.06159370186477899
1782846022317408000,6.676407958984375,0.04249707946777344,0.02125321590900421,-0.01855367462672293
1782846022327413000,6.6864130859375,0.07913958768844603,-0.00012026537880301475,0.0014486644383519887
1782846022337419000,6.6964189453125,0.05334580574035644,0.020503420455008744,-0.0002754559405148029
1782846022347424000,6.706424072265625,0.03847089269161224,0.021837007146328687,-0.01594539182446897
1782846022357429000,6.716428955078125,0.0355272404551506,0.01499737038463354,-0.01848433571755886
1782846022367435000,6.72643505859375,0.08210720532238483,0.016293109283596275,0.012628303165733814
1782846022377440000,6.73643994140625,0.06547229686379433,0.02318213814496994,-0.0121414694968611
1782846022387445000,6.746445068359375,0.03478314408957958,0.02704392813965678,-0.03903181451000273
1782846022397451000,6.756450927734375,0.050480479437112806,0.014138561598211526,-0.009845905905589461
1782846022407456000,6.7664560546875,0.11996142742037773,0.015463526591658592,0.00816620919033885
1782846022417461000,6.7764609375,0.1502390767842531,0.019729075081646442,-0.01780782469548285
1782846022427466800,6.786466796875,0.16034019955992698,0.024892449194192885,-0.031915041307359934
1782846022437472000,6.796471923828125,0.11232990962862968,0.027066286101937294,-0.0073863839242607355
1782846022447477000,6.80647705078125,0.03933890769779682,0.04911415951997041,-0.016627528869733215
1782846022457483000,6.81648291015625,0.00639700756072998,0.03861950738206506,-0.008045724615827202
1782846022467488000,6.826488037109375,0.004625321713089943,0.04110197184756398,-0.00039754795022308825
1782846022477493000,6.836492919921875,0.029877836391329765,0.039730537363886834,0.0009636574003845453
1782846022487499000,6.8464990234375,0.08000292651951313,0.05653700299710035,-0.0010963438693433998
1782846022497504000,6.85650390625,0.1486982770830393,0.05961056522354483,0.01974332280270755
1782846022507509000,6.866509033203125,0.19320318924188612,0.06780775407403707,0.03489866022802889
1782846022517514000,6.876513916015625,0.23201485819518564,0.02955254995971918,0.0066100657895207405
1782846022527520000,6.88652001953125,0.21438801608979702,0.02876607575714588,0.02531374334618449
1782846022537525000,6.89652490234375,0.1581570103019476,0.015487491989135741,0.0520263937048614
1782846022547530000,6.906530029296875,0.09998772992789745,-0.00907265651077032,0.07245002692192792
1782846022557536000,6.916535888671875,0.05534194799363613,0.005785159272700548,0.06182977564297616
1782846022567541000,6.926541015625,-0.007220598903298378,0.0179641112357378,0.05252024163641035
1782846022577546000,6.9365458984375,-0.04509644831120967,0.022919249425083398,0.0518123856279999
1782846022587552000,6.946552001953125,-0.05094985051453113,0.0437991019770503,0.026522534614056348
1782846022597557000,6.956556884765625,-0.03579728956818581,0.030190409471839666,0.020903452623263
1782846022607562000,6.96656201171875,0.022127076134085655,0.014593904150277375,-0.016277765583992004
1782846022617568000,6.976568115234375,0.08634966519773006,0.01377761933133006,-0.008550824593752622
1782846022627573000,6.986572998046875,0.14988134938776493,0.015267419497668742,-0.026159473455324767
1782846022637578000,6.996577880859375,0.19137538929283618,0.014813830511271952,-0.04385112442523241
1782846022647584000,7.006583984375,0.19261925187408924,-0.0001607435196638107,-0.046395255950093264
1782846022657589000,7.016589111328125,0.17949147475361824,-0.013219400926679371,-0.03834565887674689
1782846022667594000,7.026593994140625,0.1354477503657341,-0.03234042711257935,-0.015297741570696233
1782846022677599000,7.036598876953125,0.11124971317648887,-0.023800562304258345,0.007342252521589398
1782846022687605000,7.04660498046875,0.07323357851505279,-0.018931641093641517,-0.013111995029449462
1782846022697610000,7.05660986328125,0.02691606397628784,-0.022097119387239215,-0.02156644657664001
1782846022707616000,7.066615966796875,0.04502981281578541,-0.016341916861385107,-0.04352284231893718
1782846022717621000,7.07662109375,0.06207388659715652,0.0010983166307210921,-0.03744154964387417
1782846022727626000,7.0866259765625,0.10124795912206172,0.015466303070634603,-0.038858357639238235
1782846022737631000,7.096630859375,0.09868833776712417,-0.007109685874730348,-0.012261661810427904
1782846022747637000,7.106636962890625,0.101588735383749,-0.009218640852719544,0.011362886339798569
1782846022757642000,7.11664208984375,0.11386369506716727,0.00639700756072998,0.025008622919768093
1782846022767647000,7.12664697265625,0.10332768800556659,-0.002521627432107925,0.037131972238048906
1782846022777653000,7.136653076171875,0.06745499511361122,0.009985679702460766,0.07945398739986122
1782846022787658000,7.146657958984375,0.030308629024028776,-0.006743775171786546,0.05606427091881633
1782846022797663000,7.1566630859375,-0.03383154245316982,0.003777180451154709,0.061304655790328975
1782846022807669000,7.1666689453125,-0.0659790773421526,0.00505567595437169,0.057137453108280896
1782846022817674000,7.176674072265625,-0.06448679295778274,0.008232552424818277,0.04324570587798953
1782846022827679000,7.186678955078125,0.013200257834792136,-0.008366554068028926,0.0015763094060122966
1782846022837685000,7.19668505859375,0.09352876304686068,-0.008970803571492433,-0.04039996105805039
1782846022847690000,7.20668994140625,0.14953589695096015,-0.019311872582882642,-0.06897979352809488
1782846022857695000,7.216695068359375,0.2010381206512451,-0.023377076195180414,-0.0750900931019336
1782846022867700200,7.2267001953125,0.2459603814393282,-0.028293343678861854,-0.06806910842396319
1782846022877706000,7.2367060546875,0.25083354043364525,-0.022010902408510447,-0.0355124082121998
1782846022887711000,7.2467109375,0.24209201557338236,-0.020903233427554367,-0.03044913347326219
1782846022897716000,7.256716064453125,0.14975275457203388,0.00951923123449087,-0.015430208843946455
1782846022907722000,7.266721923828125,0.051261400681734084,0.018243658829480407,-0.005381766103580593
1782846022917727000,7.27672705078125,0.024810616129636764,0.009350158277899026,-0.01549903629645705
1782846022927732000,7.28673193359375,0.02477320672869682,0.009828589444607495,0.00860043588913977
1782846022937738000,7.296738037109375,0.029463410371541977,0.016125643762201068,-0.023359248277544972
1782846022947743000,7.306742919921875,0.03741173902750015,0.00376753583997488,-0.023133988154307006
1782846022957748000,7.316748046875,0.05102057766318321,0.019809446841478347,-0.03371076561771333
1782846022967754000,7.32675390625,0.06477846938073635,0.027707360484451053,-0.007958119397610425
1782846022977759000,7.336759033203125,0.06165478440225124,0.030429040533304214,0.00914097250662744
1782846022987764000,7.346763916015625,0.0805050308227539,0.04690948908254504,-0.01913512777648866
1782846022997770000,7.35677001953125,0.1113181022375822,0.049947249343246215,-0.0201595023881644
1782846023007775000,7.36677490234375,0.13585808473229408,0.0556799477763474,-0.000323313670232892
1782846023017780000,7.376780029296875,0.10727671789228915,0.05904606320858001,0.013042729185521603
1782846023027785000,7.386784912109375,0.07565875983536242,0.053785804592818016,0.00835537508688867
1782846023037791000,7.396791015625,0.07763152121305465,0.04596665527448058,-0.0035055239029228684
1782846023047796000,7.4067958984375,0.09196925864517688,0.026385610361397263,0.02137041254788637
1782846023057801000,7.416801025390625,0.11292495291233062,0.0034806817226111886,0.03571078032851219
1782846023067807000,7.426806884765625,0.0860299317240715,0.005445990446209907,0.030262597925215958
1782846023077812000,7.43681201171875,0.1070353103518486,0.047654462230950594,0.0402386330164969
1782846023087817000,7.44681689453125,0.10871288817524909,0.054040510006248946,0.041640974095091224
1782846023097823000,7.456822998046875,0.03415945923328399,0.017415099050849675,0.020457681617140767
1782846023107828000,7.466827880859375,0.00019230770170688627,0.02385609188377857,0.022004984124377368
1782846023117833000,7.4768330078125,-0.03091886987686157,0.0494327239498496,0.016970350958034394
1782846023127839000,7.4868388671875,-0.023054127851128578,0.05352335426434874,-0.002370309327915311
1782846023137844000,7.496843994140625,0.04789455459713936,0.07170081598982214,-0.02819784741513431
1782846023147849000,7.506848876953125,0.10358663120269775,0.04088116870373487,-0.029293095305934547
1782846023157855000,7.51685498046875,0.18392565780878065,0.04378536571264267,-0.02954385519661009
1782846023167860000,7.52685986328125,0.2008370451211929,0.04683203993216157,-0.009068272596597671
1782846023177865000,7.536864990234375,0.2219137354195118,0.040927784324437375,-0.009129866590723394
1782846023187871000,7.54687109375,0.16391513543725011,0.04356996939629316,0.02966200168356299
1782846023197876000,7.5568759765625,0.11971768179237842,0.021701251937448977,0.05900763089433312
1782846023207881000,7.566880859375,0.04200958821177482,0.03953033861666917,0.06625299891270697
1782846023217886000,7.576885986328125,-0.050400399938225746,0.009312602746486664,0.06570720159821213
1782846023227892000,7.58689208984375,-0.051288873210549354,0.04822656303048133,0.06227919991090893
1782846023237897000,7.59689697265625,-0.03517418923377991,0.06379705712795257,0.04866721947006881
1782846023247902000,7.60690185546875,-0.008401333120465279,0.044493952373415226,0.027479543077945708
1782846023257908200,7.616908203125,0.07477204012870788,0.04055091383606195,0.01890672584809363
1782846023267913200,7.626913330078125,0.13067396009266374,0.06128712013363838,0.017435630382224915
1782846023277918200,7.636918212890625,0.16108195783793924,0.034787235742807385,-0.003094458884000778
1782846023287924000,7.646924072265625,0.17541268100738525,0.006785714617371558,-0.0005921937394887209
1782846023297929000,7.656928955078125,0.17183832965195178,0.01565773398950696,-0.004940817403048276
1782846023307934000,7.666933837890625,0.18085984049737452,0.03133285750523209,-0.07535247036516667
1782846023317940500,7.6769404296875,0.14894436079859733,0.05405220044404268,-0.05177775270603597
1782846023327945500,7.686945556640625,0.0908791253209114,0.022377689894288778,-0.009660612466558813
1782846023337950500,7.696950439453125,0.0484328992575407,0.04022358157783747,-0.021264248759672044
1782846023347955500,7.70695556640625,-0.019207389295101164,0.055101271105557674,-0.028828546534106134
1782846023357961500,7.71696142578125,-0.0661532648652792,0.052108811291307205,-0.026743849214538932
1782846023367966500,7.726966552734375,-0.03917757965624332,0.0400618151448667,-0.06615640667043626
1782846023377971500,7.736971435546875,-0.01595160236954689,0.04203136165216565,-0.09867474763318895
1782846023387977700,7.746977783203125,0.013851415219902992,0.026465543729811906,-0.14703940396010876
1782846023397982700,7.756982666015625,0.09230652777552605,0.0644669192135334,-0.09926767202503979
1782846023407987700,7.76698779296875,0.09813654910326003,0.03752177527323365,-0.05044752701558172
1782846023417993500,7.776993408203125,0.07106675586998462,0.033051644121855496,-0.011498933809623121
1782846023427998500,7.78699853515625,0.1046428622573614,0.038678105701506135,0.015316300140693783
1782846023438003500,7.79700341796875,0.11093699396550655,0.04295739045590162,0.007393105925992131
1782846023448009500,7.807009521484375,0.14148586148619652,0.04612754492461681,0.023861060319840907
1782846023458014500,7.817014404296875,0.21802315772175787,0.0576546088501811,0.013181626199558377
1782846023468019500,7.82701953125,0.2784188819736242,0.05349705077931285,-0.035817163312435146
1782846023478025500,7.837025390625,0.28866555069983,0.05278890250995755,-0.02565364282503724
1782846023488030500,7.847030517578125,0.226068517011404,0.047101650653779505,-0.008905556315556168
1782846023498035500,7.857035400390625,0.1760550705641508,0.019016689028590918,-0.0070595631226897234
1782846023508040400,7.86704052734375,0.1473071149855852,0.02599120421633124,0.033648221775516865
1782846023518046500,7.87704638671875,0.11647592339217662,0.04483852802738547,0.07964958303719759
1782846023528051500,7.887051513671875,0.10077741900086402,0.03795622116774321,0.0765806969858706
1782846023538056400,7.897056396484375,0.06349018313586711,0.04001636856794357,0.10321144121475517
1782846023548062500,7.9070625,0.039293314990401264,0.05549100107550621,0.12643055036924777
1782846023558067500,7.9170673828125,0.04212240093648433,0.042161563903093335,0.11026040987819433
1782846023568072400,7.927072509765625,0.032279052314162254,0.03519917754456401,0.08699307766780257
1782846023578078500,7.937078369140625,0.0625935265570879,0.052539896184951064,0.06662760437875986
1782846023588083500,7.94708349609375,0.09058803341984749,0.028496611166000364,0.025891470168903467
1782846023598088400,7.95708837890625,0.11327215891480445,0.022810820614546538,-0.00036437633298337457
1782846023608094500,7.967094482421875,0.1375520291686058,0.003963642933964729,0.005273191162571311
1782846023618099500,7.977099365234375,0.13133622339367865,0.00237111304551363,0.015270634368062018
1782846023628104400,7.9871044921875,0.10843757836520672,-0.0016775778234004973,0.003333163010701537
1782846023638109400,7.997109375,0.058059974780678744,-0.021002163757383823,0.00968874258249998
1782846023648115500,8.007115478515624,0.038404841718077655,-0.012371990317106247,0.023171251424774525
1782846023658120400,8.017120361328125,0.03593991290926933,0.007175152326375246,0.014842472083866595
1782846023668125400,8.02712548828125,0.08390168752372264,-0.018237813610583544,-0.0045204000338912005
1782846023678131500,8.03713134765625,0.1048784245789051,-0.03053454673439264,0.0185642690859735
1782846023688136700,8.04713671875,0.16376666687726973,-0.03069792060256004,0.02700111191123724
1782846023698141700,8.0571416015625,0.24294541753232476,-0.04576689491868019,0.019830781890451905
1782846023708147500,8.0671474609375,0.2587380299478769,-0.05507029144540429,0.01774213904812932
1782846023718152400,8.07715234375,0.21659809335470198,-0.044277094752341505,0.046780163614451885
1782846023728157400,8.087157470703126,0.16216741498708723,-0.02111278452500701,0.03829663210324943
1782846023738163500,8.09716357421875,0.07980418907701968,-0.012697861270606518,0.015005626756325363
1782846023748168400,8.10716845703125,-0.013154665127396582,0.0063201429322361944,0.042364027672633524
1782846023758173400,8.11717333984375,-0.10680500872731208,0.007493132234364748,0.05480053459331393
1782846023768178400,8.127178466796876,-0.18842180018424987,0.015502981819212436,0.05369900309219956
1782846023778184400,8.137184326171875,-0.19000059380829334,0.016676847904175517,0.05763597721494734
1782846023788189400,8.147189453125,-0.12350596815943717,0.0428418012522161,0.0793431474365294
1782846023798194400,8.1571943359375,-0.0077402388632297515,0.043199820909649134,0.0864208307377994
1782846023808200700,8.16720068359375,0.0734814157962799,0.05313026329353451,0.09401661962904036
1782846023818205700,8.177205810546875,0.1630056193768978,0.051882162928581235,0.10439465964995324
1782846023828210700,8.187210693359376,0.17897534192502498,0.02839592727050185,0.10270824093297123
1782846023838216400,8.197216552734375,0.16128244884610174,0.05142258259281516,0.14137063760869203
1782846023848221400,8.207221435546876,0.09813128840625286,0.05576733379885554,0.15215682003907857
1782846023858226400,8.217226318359375,-0.020770400828123092,0.05873875082507729,0.10898147598356007
1782846023868231400,8.2272314453125,-0.13814181175529955,0.058161243198066946,0.08788944198563695
1782846023878237400,8.237237548828125,-0.15099661715328694,0.02229088839367032,0.09060578827224672
1782846023888242400,8.247242431640625,-0.10352934805750846,0.02372369767576456,0.05520780021995306
1782846023898247400,8.257247314453124,0.0036211131066083905,0.021368220590800045,-0.021544234744831917
1782846023908253400,8.26725341796875,0.13274725923538208,-0.004357318426668644,-0.0729467243976891
1782846023918258400,8.277258544921875,0.21610767948925494,-0.019189707507938147,-0.067776189891994
1782846023928263400,8.287263427734375,0.2613689629733562,-0.014786650243401527,-0.08264036235101521
1782846023938269400,8.29726953125,0.24701076727509497,-0.0028195874653756618,-0.1233306115925312
1782846023948274400,8.3072744140625,0.20396774436235426,0.014172025476396084,-0.12172573367916047
1782846023958279400,8.317279541015624,0.1188122573852539,0.04357318426668644,-0.11202815020307898
1782846023968285400,8.327285400390625,0.03278349470496177,0.03326952465623617,-0.11522431589588522
1782846023978290400,8.33729052734375,0.0025268881291151046,0.032937077831476924,-0.12610292585007846
1782846023988295700,8.347295654296875,0.012400047367811202,0.038661008436232804,-0.10947517778463661
1782846023998300700,8.35730078125,0.05356032527387142,0.020944442220777272,-0.09344539561234413
1782846024008306400,8.367306396484375,0.07656769137382508,0.016407821704447267,-0.10196867461204528
1782846024018311400,8.3773115234375,0.07834697600603104,0.03766337570101023,-0.13705635460615156
1782846024028316400,8.38731640625,0.08637070798575877,0.018579758916050196,-0.14539302499257029
1782846024038322400,8.397322509765624,0.06806172883510589,0.051881578406691546,-0.15066804278604684
1782846024048327400,8.407327392578125,0.021348492977023122,0.05853080716282129,-0.12558116699829697
1782846024058332400,8.41733251953125,0.014514847564697266,0.06362637673616409,-0.12084127899482845
1782846024068338400,8.42733837890625,0.04977963769137859,0.07390124864354729,-0.08677176306731998
1782846024078343400,8.437343505859374,0.11463117230832576,0.051527358141541475,-0.09059029844217002
1782846024088348400,8.447348388671875,0.15266308906078338,0.03210457253009081,-0.1092834546048194
1782846024098353400,8.457353515625,0.17412381024062631,0.02756327583864331,-0.11546207017451524
1782846024108359700,8.467359619140625,0.18566577947437762,0.0032461423143744467,-0.10935418175347149
1782846024118364700,8.47736474609375,0.16903846980035303,0.00708148269355297,-0.115829003790766
1782846024128369700,8.48736962890625,0.12290975583195686,-0.006596914047002792,-0.11118819224759936
1782846024138375400,8.49737548828125,0.09266717778146266,0.005041501298546791,-0.1413143043115735
1782846024148380400,8.50738037109375,0.04540975204408169,0.02339548863470554,-0.09323087607882917
1782846024158385400,8.517385498046876,0.00720832394361496,0.029464433284848927,-0.06894786401987076
1782846024168391400,8.527391357421875,0.021482933011651037,0.042670390208065505,-0.04311097358241677
1782846024178396400,8.537396484375,0.0408557420015335,0.027129414466023443,-0.06656352616660297
1782846024188401400,8.5474013671875,0.06667232030332088,0.04776332943290472,-0.0682663114964962
1782846024198407400,8.557407470703126,0.094770287540555,0.05769698668718338,-0.03813245451748371
1782846024208412400,8.567412353515625,0.14554945766329763,0.06400251657217741,-0.041447789610549804
1782846024218417400,8.57741748046875,0.22643267414867876,0.062196051672101016,-0.055725832744687794
1782846024228422400,8.58742236328125,0.2758849795818329,0.06145692374259233,-0.041823198794201016
1782846024238428700,8.5974287109375,0.22506956910192966,0.060450815439969295,-0.010812266719713807
1782846024248433700,8.60743359375,0.15732523565292358,0.03911225933507085,0.04408391026780009
1782846024258438700,8.617438720703126,0.07967968591451645,0.04112579111456871,0.07839300710484386
1782846024268444400,8.6274443359375,-0.018604747226834296,0.0695746176160872,0.10893763684183358
1782846024278449400,8.637449462890626,0.026599837633967397,0.021360037284344432,0.08275229829289019
1782846024288454700,8.64745458984375,0.07389876442551613,0.07599032987728714,0.11187675903365016
1782846024298460400,8.65746044921875,0.0631073212981224,0.052299949949234724,0.09013773236908018
1782846024308465400,8.66746533203125,0.11543722799420356,0.033193536810576914,0.0740760937537998
1782846024318470700,8.677470703125,0.11125322030782699,0.049330871010571715,0.003409077791124582
1782846024328475600,8.6874755859375,0.336137495970726,0.15937486165910958,0.07710713201276957
1782846024338481700,8.697481689453125,-0.03302665581107139,0.10789514205157756,0.19627083318419752
1782846024348486700,8.707486572265625,0.024430092379450798,-0.1571127619460225,0.08838679704852402
1782846024358491600,8.71749169921875,0.058816346105933184,-0.05579685215428471,0.08541801037080586
1782846024368497700,8.72749755859375,0.1623439405977726,0.03763984869495034,-0.1142864505238831
1782846024378502700,8.737502685546875,0.033035423639416694,0.02827157023847103,-0.13059168863669038
1782846024388507600,8.747507568359374,-0.21924773108065126,0.045363720945268866,-0.12086378308758139
