time,seconds_elapsed,z,y,x
1782846015713879300,0.07287939453125,-0.02807820402085781,0.041825149208307266,0.00502841966226697
1782846015723884300,0.08288427734375,-0.024277159944176674,0.028762973845005035,0.0059283715672791
1782846015733890300,0.092890380859375,-0.017840832471847534,0.009684354066848755,0.004548055585473776
1782846015743895300,0.102895263671875,-0.013038216158747673,-0.008469203487038612,-0.004510581959038973
1782846015753900300,0.112900390625,-0.010317264124751091,-0.017515694722533226,-0.013928583823144436
1782846015763906600,0.122906494140625,-0.007100655697286129,-0.021171465516090393,-0.013869496993720531
1782846015773911600,0.13291162109375,-0.008374445140361786,-0.028414998203516006,-0.01428628247231245
1782846015783917300,0.142917236328125,-0.004783620126545429,-0.02657458372414112,-0.00466301990672946
1782846015793922300,0.15292236328125,-0.004461643751710653,-0.021499399095773697,-0.0007471076096408069
1782846015803927300,0.16292724609375,-0.008125895634293556,-0.012441480532288551,-0.0012085774214938283
1782846015813933300,0.172933349609375,-0.009430577978491783,-0.0018929666839540005,-0.010578377172350883
1782846015823938300,0.182938232421875,-0.014087270013988018,0.006592729594558477,-0.015666073188185692
1782846015833944300,0.1929443359375,-0.017285194247961044,0.0052238646894693375,-0.015218928456306458
1782846015843949300,0.20294921875,-0.018347639590501785,-0.008355660364031792,-0.01353688258677721
1782846015853954300,0.212954345703125,-0.020202266052365303,-0.01334109716117382,-0.011758956126868725
1782846015863960600,0.222960693359375,-0.018588390201330185,-0.012158388271927834,-0.01293713878840208
1782846015873965600,0.232965576171875,-0.01922621577978134,-0.0003533933777362108,-0.014121180400252342
1782846015883970600,0.242970458984375,-0.021050946786999702,0.0068010371178388596,-0.004927372559905052
1782846015893976600,0.2529765625,-0.01778111793100834,-0.0014315922744572163,0.0037079269532114267
1782846015903981600,0.262981689453125,-0.013573787175118923,-0.007555233780294657,0.014167288318276405
1782846015913986600,0.272986572265625,-0.0116584412753582,-0.009853541851043701,0.008974391035735607
1782846015923992300,0.282992431640625,-0.011700863018631935,-0.013120848685503006,0.007102468516677618
1782846015933997300,0.292997314453125,-0.012431368231773376,-0.016485488042235374,-0.004825563170015812
1782846015944003300,0.30300341796875,-0.014301628805696964,-0.02163137122988701,-0.011881089769303799
1782846015954008300,0.31300830078125,-0.010323665104806423,-0.0226761307567358,-0.014934937469661236
1782846015964013300,0.323013427734375,-0.005881555378437042,-0.03245813772082329,-0.012182259000837803
1782846015974019300,0.333019287109375,-0.0019379465375095606,-0.031128421425819397,-0.006749410182237625
1782846015984024300,0.3430244140625,0.0030284111853688955,-0.016555141657590866,-0.00215078960172832
1782846015994030600,0.353030517578125,0.009805889800190926,-0.008287358097732067,0.0057729133404791355
1782846016004035600,0.36303564453125,0.012724224478006363,0.003074703039601445,0.009139646776020527
1782846016014040600,0.37304052734375,0.01510828547179699,0.013544920831918716,0.018864179030060768
1782846016024046300,0.38304638671875,0.01736038364470005,0.016042819246649742,0.019482193514704704
1782846016034051300,0.39305126953125,0.01880807802081108,0.018241791054606438,0.021300332620739937
1782846016044056300,0.403056396484375,0.023535970598459244,0.015551146119832993,0.015625782310962677
1782846016054062300,0.413062255859375,0.024462217465043068,0.010469835251569748,0.012601496651768684
1782846016064067300,0.4230673828125,0.027688782662153244,0.0021857130341231823,0.012584234587848186
1782846016074073300,0.4330732421875,0.03171601518988609,0.0010440158657729626,0.01577550172805786
1782846016084078300,0.443078369140625,0.0334564708173275,-0.002393183996900916,0.011541061103343964
1782846016094083300,0.453083251953125,0.03822006657719612,0.009886384941637516,0.0021909689530730247
1782846016104089600,0.463089599609375,0.04162593558430672,0.017547816038131714,-0.002752621890977025
1782846016114094600,0.473094482421875,0.04217241704463959,0.011107494123280048,-0.011161553673446178
1782846016124099600,0.483099609375,0.0440123975276947,0.00006416346877813339,-0.018463674932718277
1782846016134105300,0.493105224609375,0.04220224544405937,-0.008015334606170654,-0.014071589335799217
1782846016144110300,0.5031103515625,0.03770524263381958,-0.013798894360661507,-0.014039953239262104
1782846016154116400,0.513116455078125,0.03335469961166382,-0.023039797320961952,-0.016240790486335754
1782846016164121300,0.523121337890625,0.030521167442202568,-0.022333946079015732,-0.017903093248605728
1782846016174126300,0.533126220703125,0.027501141652464867,-0.027480769902467728,-0.011768234893679619
1782846016184132400,0.54313232421875,0.025634361431002617,-0.025051504373550415,-0.007233263924717903
1782846016194137300,0.553137451171875,0.02420264482498169,-0.025611568242311478,0.0006446326151490211
1782846016204142300,0.563142333984375,0.019756214693188667,-0.027514265850186348,0.0071961418725550175
1782846016214148600,0.573148681640625,0.013086061924695969,-0.02844158001244068,0.008610812947154045
1782846016224153600,0.583153564453125,0.006991615518927574,-0.022758692502975464,0.003743822919204831
1782846016234159400,0.593159423828125,-0.0009850848000496626,-0.012573432177305222,0.005277537275105715
1782846016244164400,0.603164306640625,-0.008729197084903717,-0.003942997194826603,0.0077429660595953465
1782846016254169300,0.61316943359375,-0.008608821779489517,0.003522641956806183,0.01611701026558876
1782846016264175400,0.62317529296875,-0.009380623698234558,0.005214761011302471,0.026657912880182266
1782846016274180400,0.633180419921875,-0.005054584704339504,0.0017579778796061873,0.0343501903116703
1782846016284185300,0.643185302734375,-0.0006577911553904414,0.0020073475316166878,0.03166099637746811
1782846016294191400,0.65319140625,0.00256596552208066,0.0011503424029797316,0.02451813407242298
1782846016304196400,0.6631962890625,0.005396115593612194,-0.00387634732760489,0.014329621568322182
1782846016314200800,0.673200927734375,0.00858897902071476,-0.011443452909588814,0.003909738268703222
1782846016324207000,0.68320703125,0.015157366171479225,-0.02303079143166542,-0.002623283537104726
1782846016334212000,0.693212158203125,0.017703881487250328,-0.028884686529636383,-0.013508155941963196
1782846016344218000,0.703218017578125,0.014977816492319107,-0.028430594131350517,-0.015932606533169746
1782846016354223000,0.71322314453125,0.01234448328614235,-0.032451435923576355,-0.013893423601984978
1782846016364228000,0.72322802734375,0.011926143430173397,-0.030877823010087013,-0.014032742008566856
1782846016374233900,0.73323388671875,0.007985464297235012,-0.020759940147399902,-0.012016994878649712
1782846016384238800,0.74323876953125,0.0027143980842083693,-0.019163787364959717,-0.0022403697948902845
1782846016394243800,0.753243896484375,0.00010023918002843857,-0.012407614849507809,0.0037136594764888287
1782846016404249900,0.763249755859375,0.00012818467803299427,-0.008502142503857613,0.015779489651322365
1782846016414254800,0.7732548828125,-0.0011165767209604383,-0.006078133825212717,0.0182756707072258
1782846016424259800,0.783259765625,-0.0061079589650034904,-0.003126188414171338,0.02350672148168087
1782846016434266000,0.79326611328125,-0.012325907126069069,-0.013896545395255089,0.021421998739242554
1782846016444271000,0.80327099609375,-0.013625264167785645,-0.027166543528437614,0.01597929745912552
1782846016454277000,0.813277099609375,-0.015189871191978455,-0.03263134881854057,0.014131063595414162
1782846016464282000,0.8232822265625,-0.019908595830202103,-0.032106321305036545,0.006934298202395439
1782846016474287000,0.833287109375,-0.021617546677589417,-0.030939321964979172,0.006552667357027531
1782846016484292900,0.84329296875,-0.021983077749609947,-0.025714991614222527,0.005704154726117849
1782846016494297900,0.8532978515625,-0.021365758031606674,-0.011054555885493755,0.0029344672802835703
1782846016504303000,0.86330322265625,-0.017114941030740738,-0.0028975694440305233,-0.004964172840118408
1782846016514308900,0.873308837890625,-0.009448765777051449,-0.005069376900792122,-0.006253409199416637
1782846016524313900,0.88331396484375,-0.005005273036658764,-0.0005246661603450775,-0.015092230401933193
1782846016534319900,0.89331982421875,-0.0032984530553221703,0.003998180385679007,-0.01997273974120617
1782846016544324900,0.903324951171875,0.003296727780252695,0.003118125256150961,-0.019470572471618652
1782846016554329900,0.913329833984375,0.010418819263577461,-0.008925221860408783,-0.0044636595994234085
1782846016564336000,0.923336181640625,0.011974509805440903,-0.018517781049013138,0.008360364474356174
1782846016574341000,0.933341064453125,0.01228663232177496,-0.018553467467427254,0.018856948241591454
1782846016584346000,0.94334619140625,0.011834908276796341,-0.013324327766895294,0.02520601637661457
1782846016594352000,0.95335205078125,0.012509486638009548,-0.011147461831569672,0.025405487045645714
1782846016604357000,0.963357177734375,0.012114102020859718,-0.0031548533588647842,0.022618627175688744
1782846016614362000,0.973362060546875,0.007565156556665897,0.004767784848809242,0.02193605899810791
1782846016624367900,0.983367919921875,0.005523542873561382,0.0038903490640223026,0.017567122355103493
1782846016634372900,0.993372802734375,0.0024489236529916525,0.011940019205212593,0.013238686136901379
1782846016644379000,1.00337890625,0.0009262571111321449,0.01224560383707285,0.012805817648768425
1782846016654383900,1.0133837890625,-0.0034644966945052147,0.013429645448923111,0.013872680254280567
1782846016664388900,1.023388916015625,-0.003569433931261301,0.01070600375533104,0.016624847427010536
1782846016674395100,1.03339501953125,-0.004329499788582325,0.006666521076112986,0.021301090717315674
1782846016684400000,1.043400146484375,0.0012836873065680265,0.0007129756268113852,0.022129833698272705
1782846016694405000,1.053405029296875,0.007533860392868519,-0.004540376365184784,0.01609138213098049
1782846016704411100,1.0634111328125,0.01390135008841753,-0.030357182025909424,0.0268155038356781
1782846016714416000,1.073416015625,0.019918760284781456,-0.048662684857845306,0.028987044468522072
1782846016724422000,1.083421875,0.02336493507027626,-0.0467417947947979,0.024401845410466194
1782846016734427000,1.093427001953125,0.025139132514595985,-0.03789690509438515,0.012522016651928425
1782846016744431900,1.103431884765625,0.02391285076737404,-0.025518041104078293,0.008942811749875546
1782846016754438000,1.11343798828125,0.02542526088654995,-0.016067547723650932,0.004555786028504372
1782846016764443000,1.12344287109375,0.02255568653345108,0.004503452684730291,0.0008216147543862462
1782846016774447900,1.13344775390625,0.023257963359355927,0.017848819494247437,0.001341730123385787
1782846016784454100,1.1434541015625,0.02381311170756817,0.014191939495503902,0.005753571167588234
1782846016794459100,1.153459228515625,0.024804072454571724,0.006643475964665413,0.012812811881303787
1782846016804464000,1.163464111328125,0.0206402987241745,0.004825477488338947,0.012986970134079456
1782846016814470100,1.17347021484375,0.018144916743040085,0.013402453623712063,0.007263037376105785
1782846016824475100,1.18347509765625,0.014827673323452473,0.0205767173320055,0.0004150418972130865
1782846016834481000,1.19348095703125,0.00755990669131279,0.027805602177977562,-0.0016659522661939263
1782846016844486000,1.20348583984375,0.002978798234835267,0.03947504609823227,-0.003095153020694852
1782846016854491000,1.213490966796875,0.0018879675772041082,0.0463515967130661,-0.0056661684066057205
1782846016864497000,1.223496826171875,-0.006167742423713207,0.04343479871749878,0.004561897832900286
1782846016874502000,1.233501953125,-0.008574441075325012,0.028537612408399582,0.026852557435631752
1782846016884507000,1.2435068359375,-0.015036515891551971,0.02376299723982811,0.029289012774825096
1782846016894513000,1.253512939453125,-0.019350837916135788,0.03367475047707558,0.02823599800467491
1782846016904518000,1.263517822265625,-0.02179248258471489,0.035593289881944656,0.02696049213409424
1782846016914523000,1.27352294921875,-0.020626550540328026,0.03159162029623985,0.0221036858856678
1782846016924529200,1.283529052734375,-0.014521485194563866,0.02810751460492611,0.014440213330090046
1782846016934534100,1.2935341796875,-0.010036456398665905,0.024040868505835533,0.004722604528069496
1782846016944540000,1.303539794921875,-0.008745073340833187,0.027750523760914803,-0.00416875584051013
1782846016954545000,1.313544921875,-0.0053830984979867935,0.03284674882888794,-0.020155178382992744
1782846016964550100,1.323550048828125,-0.0031403128523379564,0.03710688650608063,-0.030629819259047508
1782846016974556000,1.333555908203125,-0.0029408419504761696,0.032337430864572525,-0.03636067733168602
1782846016984561000,1.343560791015625,0.0016420113388448954,0.011818477883934975,-0.03528749197721481
1782846016994566000,1.35356591796875,0.006013856269419193,-0.003017194103449583,-0.03127836808562279
1782846017004572000,1.363572021484375,0.003921349998563528,-0.013520174659788609,-0.021089233458042145
1782846017014577000,1.373576904296875,0.0002797436900436878,-0.014327378012239933,-0.010301832109689713
1782846017024582000,1.383581787109375,0.003188328118994832,-0.010248573496937752,-0.0036204461939632893
1782846017034588200,1.393588134765625,0.0043220361694693565,-0.0035656369291245937,0.002429989632219076
1782846017044593200,1.40359326171875,-0.0032930157613009214,-0.00008544488810002804,0.008343596011400223
1782846017054599200,1.41359912109375,-0.004794772248715162,0.009180491790175438,0.008348922245204449
1782846017064604200,1.423604248046875,-0.008187079802155495,0.030605968087911606,0.00353908259421587
1782846017074609200,1.433609130859375,-0.007952189072966576,0.0420844592154026,0.0057657514698803425
1782846017084615000,1.443614990234375,-0.009725640527904034,0.041721224784851074,0.01702888309955597
1782846017094620000,1.453619873046875,-0.014898297376930714,0.0323258601129055,0.028454642742872238
1782846017104625000,1.463625,-0.013738010078668594,0.02021116204559803,0.03250327333807945
1782846017114631000,1.473630859375,-0.013067159801721573,0.007692708168178797,0.03110511228442192
1782846017124636000,1.483635986328125,-0.012810997664928436,-0.003716198494657874,0.018323516473174095
1782846017134641000,1.493640869140625,-0.013119658455252647,0.0035755366552621126,0.0011586443288251758
1782846017144647000,1.50364697265625,-0.01754895970225334,0.015260004438459873,-0.008496868424117565
1782846017154652000,1.51365185546875,-0.013201350346207619,0.01966221071779728,-0.01721206307411194
1782846017164658200,1.523658203125,-0.008302506990730762,0.023968057706952095,-0.01166120171546936
1782846017174663200,1.5336630859375,-0.007407684810459614,0.02477792464196682,-0.009239322505891323
1782846017184668200,1.543668212890625,-0.005952499806880951,0.01988881826400757,0.0005092006176710129
1782846017194674000,1.553673828125,-0.00223099859431386,0.005181510932743549,0.002294317353516817
1782846017204679000,1.563678955078125,-0.003510492155328393,-0.008565792813897133,0.012799945659935474
1782846017214684000,1.573683837890625,-0.005101464688777924,-0.013162674382328987,0.013270259834825993
1782846017224690000,1.58368994140625,-0.00552937388420105,-0.013015398755669594,0.014092229306697845
1782846017234695000,1.59369482421875,-0.009101738221943378,-0.01184547133743763,0.0134567990899086
1782846017244700000,1.603699951171875,-0.01147540658712387,-0.0013354616239666939,0.008781545795500278
1782846017254706000,1.613705810546875,-0.013143077492713928,0.006228448357433081,0.0028134023305028677
1782846017264711000,1.6237109375,-0.012348913587629795,0.01792001910507679,-0.007984175346791744
1782846017274716000,1.6337158203125,-0.0097600556910038,0.019228164106607437,-0.012997309677302837
1782846017284722200,1.64372216796875,-0.00802772119641304,0.0168268121778965,-0.012420376762747765
1782846017294727200,1.65372705078125,-0.005001038312911987,0.0164803359657526,-0.005815736949443817
1782846017304733000,1.66373291015625,-0.0044173505157232285,0.014637286774814129,0.0025439378805458546
1782846017314738200,1.67373828125,-0.007379584480077028,0.018182486295700073,0.009993597865104675
1782846017324743200,1.6837431640625,-0.0050222743302583694,0.016766924411058426,0.017339710146188736
1782846017334749200,1.693749267578125,-0.007788499817252159,0.018012218177318573,0.019879300147294998
1782846017344754200,1.703754150390625,-0.006372385658323765,0.015696931630373,0.019640423357486725
1782846017354759200,1.71375927734375,-0.006693296600133181,0.017587509006261826,0.012377717532217503
1782846017364765200,1.72376513671875,-0.005097812972962856,0.02033868432044983,0.0036892846692353487
1782846017374770200,1.733770263671875,-0.003920962568372488,0.012864788994193077,0.0008141361176967621
1782846017384775200,1.743775146484375,-0.001044714474119246,0.008634015917778015,-0.0033118773717433214
1782846017394781400,1.753781494140625,-0.00210358714684844,0.006408678367733955,-0.0017185083124786615
1782846017404786400,1.763786376953125,-0.0007258572150021791,0.0063166748732328415,-0.0026109463069587946
1782846017414792200,1.773792236328125,-0.00005580577999353409,0.004447401966899633,0.004113269038498402
1782846017424797200,1.783797119140625,-0.0013736755354329944,0.005677902139723301,0.003485191147774458
1782846017434802200,1.79380224609375,-0.0038512141909450293,0.009545611217617989,0.0118437884375453
1782846017444808200,1.80380810546875,-0.005194246303290129,0.014248487539589405,0.012771633453667164
1782846017454813200,1.813813232421875,-0.007259794510900974,0.009765321388840675,0.010533512569963932
1782846017464818200,1.823818115234375,-0.006192527711391449,0.004763253033161163,0.01327614113688469
1782846017474824200,1.83382421875,-0.008022385649383068,0.0034782777074724436,0.010476360097527504
1782846017484829200,1.8438291015625,-0.010012746788561344,0.009943801909685135,0.0012449747882783413
1782846017494834200,1.853834228515625,-0.012999748811125755,0.015223252587020397,-0.009575980715453625
1782846017504840200,1.863840087890625,-0.014529064297676086,0.027152229100465775,-0.02002665400505066
1782846017514845200,1.87384521484375,-0.014814553782343864,0.03158985450863838,-0.022756393998861313
1782846017524850200,1.88385009765625,-0.011391997337341309,0.03754933178424835,-0.018502898514270782
1782846017534856200,1.893856201171875,-0.01098080538213253,0.0434437058866024,-0.011853782460093498
1782846017544861400,1.903861328125,-0.010071284137666225,0.05450112745165825,-0.007797613739967346
1782846017554867200,1.9138671875,-0.013581330887973309,0.06308236718177795,-0.00597388157621026
1782846017564872200,1.9238720703125,-0.007877210155129433,0.05575605109333992,-0.0044525000266730785
1782846017574877200,1.933877197265625,-0.006941907573491335,0.04036804288625717,-0.0037590130232274532
1782846017584883200,1.94388330078125,-0.007053390145301819,0.018980152904987335,0.0005268946406431496
1782846017594888200,1.95388818359375,-0.0026208250783383846,0.002348178531974554,-0.0011548915645107627
1782846017604893200,1.96389306640625,-0.0039584022015333176,-0.006082470528781414,-0.005764395464211702
1782846017614899200,1.973899169921875,-0.005147503688931465,-0.005883532576262951,-0.008127417415380478
1782846017624904200,1.983904296875,-0.005341372452676296,-0.010024188086390495,-0.010667332448065281
1782846017634909200,1.9939091796875,-0.007362978532910347,-0.009938967414200306,-0.008407373912632465
1782846017644915500,2.00391552734375,-0.006448680534958839,-0.003128275042399764,-0.009561032988131046
1782846017654920400,2.01392041015625,-0.003527725813910365,0.004068918060511351,-0.011007129214704037
1782846017664925400,2.023925537109375,-0.004738750867545605,0.0023281071335077286,-0.00973859615623951
1782846017674931200,2.03393115234375,-0.008691148832440376,0.0007730876095592976,-0.008735116571187973
1782846017684936200,2.043936279296875,-0.010827235877513885,-0.00763032678514719,-0.007268224842846394
1782846017694942200,2.053942138671875,-0.015232370235025883,-0.017124494537711143,-0.009462935850024223
1782846017704947200,2.063947265625,-0.018366601318120956,-0.033918704837560654,-0.0008194157271645963
1782846017714952200,2.0739521484375,-0.020583949983119965,-0.04751414433121681,0.0014503964921459556
1782846017724958200,2.083958251953125,-0.019970495253801346,-0.04715103283524513,0.008471982553601265
1782846017734963200,2.093963134765625,-0.02481292188167572,-0.03335665911436081,0.015124824829399586
1782846017744968200,2.10396826171875,-0.028607459738850594,-0.019471850246191025,0.019201815128326416
1782846017754974200,2.11397412109375,-0.031984347850084305,-0.0024798172526061535,0.021732084453105927
1782846017764979200,2.123979248046875,-0.031400155276060104,0.011368131265044212,0.026255644857883453
1782846017774984200,2.133984130859375,-0.027540702372789383,0.018786367028951645,0.027486825361847878
1782846017784990200,2.143990234375,-0.026923613622784615,0.018235815688967705,0.030285032466053963
1782846017794995200,2.1539951171875,-0.01847446896135807,0.00779622420668602,0.03146001696586609
1782846017805000200,2.164000244140625,-0.01444217748939991,0.00195990689098835,0.02582743391394615
1782846017815006200,2.174006103515625,-0.012492476031184196,-0.014429187402129173,0.013948402367532253
1782846017825011200,2.18401123046875,-0.010822029784321785,-0.024943895637989044,0.01155717484652996
1782846017835017200,2.194017333984375,-0.008507209829986095,-0.028854748234152794,0.007210896350443363
1782846017845022200,2.204022216796875,-0.008716139942407608,-0.029600847512483597,0.0060166302137076855
1782846017855027200,2.214027099609375,0.0006073212716728449,-0.02575843781232834,0.01749299094080925
1782846017865033200,2.224033203125,0.002319999970495701,-0.017297308892011642,0.017806710675358772
1782846017875038200,2.2340380859375,0.0018169288523495197,-0.007106722332537174,0.016868479549884796
1782846017885043200,2.244043212890625,0.0025082253850996494,-0.004339969251304865,0.021339543163776398
1782846017895049200,2.25404931640625,0.005909881088882685,0.003383730538189411,0.017353856936097145
1782846017905054200,2.26405419921875,0.011235043406486511,0.008615847676992416,0.015510808676481247
1782846017915059500,2.2740595703125,0.013763714581727982,0.012652400881052017,0.01176400762051344
1782846017925065200,2.284065185546875,0.021347297355532646,0.015029613859951496,0.0040781027637422085
1782846017935070200,2.2940703125,0.02124476619064808,0.015554789453744888,0.0067106373608112335
1782846017945075200,2.3040751953125,0.021542156115174294,0.009015494957566261,0.008434304967522621
1782846017955081200,2.314081298828125,0.019799916073679924,0.0005463764537125826,0.013084184378385544
1782846017965086200,2.324086181640625,0.02126815915107727,-0.009772622026503086,0.013258319348096848
1782846017975092200,2.33409228515625,0.02276778407394886,-0.013353775255382061,0.01384421531111002
1782846017985097200,2.34409716796875,0.022962205111980438,-0.018278198316693306,0.010673132725059986
1782846017995102200,2.354102294921875,0.020879879593849182,-0.019062234088778496,0.006437374744564295
1782846018005108500,2.3641083984375,0.02150421030819416,-0.01717175357043743,-0.005653712898492813
1782846018015113500,2.374113525390625,0.016484150663018227,-0.0158484298735857,-0.022984765470027924
1782846018025118500,2.384118408203125,0.011018930934369564,-0.012493285350501537,-0.028633112087845802
1782846018035124200,2.394124267578125,0.008161892183125019,-0.015779094770550728,-0.03711314871907234
1782846018045129200,2.404129150390625,0.005822743754833937,-0.015509777702391148,-0.03195687755942345
1782846018055134200,2.41413427734375,0.008077908307313919,-0.019748466089367867,-0.025331197306513786
1782846018065140200,2.42414013671875,0.010089634917676449,-0.020214948803186417,-0.01615109294652939
1782846018075145200,2.434145263671875,0.004509779624640942,-0.014147733338177204,-0.012111878022551537
1782846018085150200,2.444150146484375,0.004377359990030527,-0.016469482332468033,-0.004777383059263229
1782846018095156200,2.45415625,0.0032409895211458206,-0.021098056808114052,0.0032784128561615944
1782846018105161200,2.4641611328125,-0.0025210350286215544,-0.02447151020169258,0.004922439809888601
1782846018115166200,2.474166259765625,-0.007067849859595299,-0.01988315023481846,0.002939449856057763
1782846018125172200,2.484172119140625,-0.006593084894120693,-0.01651732251048088,0.0004326284979470074
1782846018135177200,2.49417724609375,-0.006748347543179989,-0.011119892820715904,-0.00020173651864752173
1782846018145183200,2.504183349609375,0.00002086651511490345,-0.009954786859452724,-0.0006474921829067171
1782846018155188200,2.514188232421875,0.0029799046460539103,-0.003907547332346439,-0.0015865226741880178
1782846018165193200,2.524193115234375,0.00561505975201726,0.004990388639271259,-0.009708063676953316
1782846018175199200,2.53419921875,0.0067405118606984615,0.014079757034778595,-0.012058569118380547
1782846018185204200,2.544204345703125,0.011760398745536804,0.00745081203058362,-0.003263607621192932
1782846018195209200,2.554209228515625,0.015085088089108467,-0.006994705647230148,0.005902992561459541
1782846018205215200,2.56421533203125,0.020198805257678032,-0.013512161560356617,0.012585466727614403
1782846018215220200,2.57422021484375,0.023351188749074936,-0.015195279382169247,0.009032011032104492
1782846018225225200,2.58422509765625,0.024525728076696396,-0.02132118120789528,0.008913963101804256
1782846018235231200,2.594231201171875,0.027395017445087433,-0.019905976951122284,0.006485692225396633
1782846018245236200,2.604236328125,0.03390444815158844,-0.015187534503638744,-0.0009558167075738311
1782846018255241200,2.6142412109375,0.03484826907515526,-0.003754051635041833,0.0003294248890597373
1782846018265247200,2.624247314453125,0.035237185657024384,-0.00347662135027349,0.009415736421942711
1782846018275252200,2.634252197265625,0.03655225783586502,0.003963451832532883,0.012559331953525543
1782846018285258200,2.64425830078125,0.039133381098508835,0.016622761264443398,0.014714153483510017
1782846018295263200,2.65426318359375,0.042446088045835495,0.02247798629105091,0.027379082515835762
1782846018305268200,2.664268310546875,0.03787826746702194,0.019185977056622505,0.03799712657928467
1782846018315273700,2.674273681640625,0.039581891149282455,0.0007571694441139698,0.04469524323940277
1782846018325278700,2.68427880859375,0.036291446536779404,-0.013068164698779583,0.04166269302368164
1782846018335283700,2.69428369140625,0.034252531826496124,-0.02023233287036419,0.03623303771018982
1782846018345289700,2.704289794921875,0.02762306109070778,-0.016791002824902534,0.026520641520619392
1782846018355294700,2.714294677734375,0.025006506592035294,-0.008410833775997162,0.019662467762827873
1782846018365299700,2.7242998046875,0.020359255373477936,0.0022922204807400703,0.01977962628006935
1782846018375306000,2.734305908203125,0.014993252232670784,0.009851337410509586,0.018470682203769684
1782846018385311000,2.74431103515625,0.013132158666849136,0.012420346029102802,0.01672632247209549
1782846018395316000,2.75431591796875,0.013459460809826851,0.010677307844161987,0.020363135263323784
1782846018405321700,2.76432177734375,0.009062487632036209,0.0019762986339628696,0.021341176703572273
1782846018415326700,2.77432666015625,0.006133809685707092,-0.004088518209755421,0.01686094142496586
1782846018425331700,2.784331787109375,0.002709388267248869,-0.004454822279512882,0.009163176640868187
1782846018435337700,2.794337646484375,-0.0022986859548836946,0.002546095522120595,-0.00543680414557457
1782846018445342700,2.8043427734375,0.001754146534949541,-0.014504069462418556,-0.005753964651376009
1782846018455347700,2.81434765625,0.0010979436337947845,-0.021518835797905922,0.0010773101821541786
1782846018465353700,2.824353759765625,0.0027431249618530273,-0.017562003806233406,-0.004633525386452675
1782846018475358700,2.834358642578125,0.0004967483691871166,-0.008014039136469364,-0.0007799312006682158
1782846018485364700,2.84436474609375,-0.0020016576163470745,-0.003084457479417324,0.011542908847332
1782846018495369700,2.85436962890625,0.0004825389478355646,0.0045007579028606415,0.015522736124694347
1782846018505374700,2.864374755859375,-0.0004422821803018451,0.005997383967041969,0.019387388601899147
1782846018515380700,2.874380615234375,0.0034224973060190678,0.010856853798031807,0.017969787120819092
1782846018525386000,2.884385986328125,0.0016843290068209171,0.011811738833785057,0.019716011360287666
1782846018535391000,2.894390869140625,0.002487804740667343,0.006391140632331371,0.016384929418563843
1782846018545396700,2.904396728515625,0.0031979407649487257,0.004859170410782099,0.01771182008087635
1782846018555401700,2.914401611328125,-0.000335274962708354,0.004741192329674959,0.01711820252239704
1782846018565406700,2.92440673828125,0.003772522322833538,0.006754955276846886,0.009125093929469585
1782846018575412700,2.934412841796875,0.005021810997277498,0.006071588024497032,0.007667546160519123
1782846018585417700,2.944417724609375,0.007982403971254826,0.001964776311069727,0.011243673972785473
1782846018595422700,2.954422607421875,0.010621863417327404,-0.004693659022450447,0.0114087900146842
1782846018605428700,2.9644287109375,0.010419340804219246,-0.0018856320530176163,0.008462301455438137
1782846018615433700,2.974433837890625,0.008685624226927757,0.00099617475643754,0.004345320630818605
1782846018625438700,2.984438720703125,0.0071217818185687065,0.0017587135080248117,-0.0016100628999993205
1782846018635445000,2.994445068359375,0.009694395586848259,0.004574207589030266,-0.0023818472400307655
1782846018645450000,3.004449951171875,0.004412144422531128,0.006643337197601795,-0.008884325623512268
1782846018655455700,3.014455810546875,0.001584932440891862,0.012800564989447594,-0.009738135151565075
1782846018665460700,3.024460693359375,-0.00018455786630511284,0.01497806329280138,-0.013983676210045815
1782846018675465700,3.0344658203125,0.0013041491620242596,0.013746085576713085,-0.013912303373217583
1782846018685471700,3.0444716796875,0.003890096442773938,0.007004879415035248,-0.009949369356036186
1782846018695476700,3.054476806640625,0.00446720328181982,0.002375772688537836,-0.0037657751236110926
1782846018705481700,3.064481689453125,0.0037806404288858175,0.0016705675516277552,0.00543411448597908
1782846018715487700,3.07448779296875,0.0041364384815096855,-0.000061019789427518845,0.01920984871685505
1782846018725492700,3.08449267578125,0.0026172681245952845,-0.00039786542765796185,0.025970200076699257
1782846018735497700,3.094497802734375,0.001945885131135583,0.005880003795027733,0.021876921877264977
1782846018745503700,3.104503662109375,0.0015623040962964296,0.012530813924968243,0.017842302098870277
1782846018755508700,3.1145087890625,-0.0015581216430291533,0.021489687263965607,0.010470672510564327
1782846018765514000,3.124513916015625,-0.002329691080376506,0.02529723197221756,0.001272473018616438
1782846018775519700,3.134519775390625,0.0031550892163068056,0.026716696098446846,-0.0013858943711966276
1782846018785524700,3.144524658203125,0.005764419678598642,0.016528582200407982,-0.006151377689093351
1782846018795529700,3.15452978515625,0.010924560949206352,0.003759790910407901,-0.006203309167176485
1782846018805535700,3.16453564453125,0.013095664791762829,-0.0011612686794251204,-0.002804976422339678
1782846018815540700,3.174540771484375,0.015008613467216492,-0.008021305315196514,-0.0020188111811876297
1782846018825545700,3.184545654296875,0.015357469208538532,-0.011675748974084854,0.0032514333724975586
1782846018835551700,3.1945517578125,0.015333767049014568,-0.013016118668019772,0.009132757782936096
1782846018845556700,3.204556640625,0.015060526318848133,-0.00906132347881794,0.005878908094018698
1782846018855561700,3.214561767578125,0.012983794324100018,-0.009670921601355076,0.0021118666045367718
1782846018865567700,3.224567626953125,0.004931203089654446,-0.011685042642056942,-0.0018879924900829792
1782846018875572700,3.23457275390625,0.004183653742074966,-0.008074595592916012,-0.007729370146989822
1782846018885578800,3.244578857421875,0.0005279663018882275,-0.006344948895275593,-0.009637235663831234
1782846018895583700,3.254583740234375,-0.0013231970369815826,-0.005715377628803253,-0.0072686197236180305
1782846018905589000,3.264589111328125,-0.0033005510922521353,-0.0024815495125949383,-0.004143169149756432
1782846018915594800,3.2745947265625,-0.00380282336845994,0.0024530217051506042,0.0002838033251464367
1782846018925599700,3.284599853515625,-0.0036647766828536987,0.006031174212694168,0.0030557604040950537
1782846018935604700,3.294604736328125,-0.001996572595089674,0.0074280016124248505,0.01294354535639286
1782846018945610800,3.30461083984375,-0.0062410240061581135,0.01287169847637415,0.009895163588225842
1782846018955615700,3.31461572265625,-0.004470288287848234,0.016497857868671417,0.006718811113387346
1782846018965620700,3.324620849609375,0.0002720453776419163,0.015961982309818268,0.007865799590945244
1782846018975626800,3.334626708984375,0.0017956399824470282,0.007710976526141167,0.0017831402365118265
1782846018985631700,3.3446318359375,0.005089120008051395,-0.003206364344805479,-0.00027112988755106926
1782846018995636700,3.35463671875,0.003100803354755044,-0.006501759402453899,-0.00308795552700758
1782846019005643000,3.36464306640625,-0.00244686147198081,0.002681161742657423,-0.005964192096143961
1782846019015648000,3.37464794921875,0.0010538636706769466,0.0006736710201948881,-0.008668897673487663
1782846019025653000,3.384653076171875,0.002311090473085642,0.0017994109075516462,-0.010081079788506031
1782846019035658800,3.39465869140625,0.0024572978727519512,0.00023001013323664665,-0.01143023744225502
1782846019045663700,3.404663818359375,0.004279347136616707,-0.007487200200557709,-0.006937948055565357
1782846019055668700,3.414668701171875,0.0020470849703997374,-0.011391926556825638,-0.001538122771307826
1782846019065674800,3.4246748046875,0.0006682293023914099,-0.012730578891932964,-0.0044527905993163586
1782846019075679700,3.4346796875,-0.0054826075211167336,-0.00882531888782978,-0.011518956162035465
1782846019085685800,3.444685791015625,-0.007094567641615868,-0.004534455947577953,-0.018686147406697273
1782846019095690800,3.454690673828125,-0.010588368400931358,-0.0011101632844656706,-0.016168395057320595
1782846019105695700,3.46469580078125,-0.014576984569430351,0.003666482400149107,-0.013986733742058277
1782846019115701800,3.47470166015625,-0.011084781028330326,0.010842636227607727,-0.01430125255137682
1782846019125706800,3.484706787109375,-0.005913265980780125,0.012081663124263287,-0.011460446752607822
1782846019135711700,3.494711669921875,-0.004534813575446606,0.006882906425744295,-0.008980510756373405
1782846019145717800,3.5047177734375,-0.005092068575322628,0.0038775193970650434,-0.003433911595493555
1782846019155722800,3.51472265625,-0.004320017993450165,0.0012545720674097538,-0.002768121426925063
1782846019165727700,3.524727783203125,-0.00123419554438442,-0.001949156867340207,0.002219331217929721
1782846019175733800,3.534733642578125,-0.002671503694728017,0.0018559677992016077,0.00458554970100522
1782846019185738800,3.54473876953125,-0.000494060106575489,-0.0010565139818936586,0.004723200108855963
1782846019195743700,3.55474365234375,0.0033371634781360626,-0.001805661479011178,-0.002451355569064617
1782846019205749800,3.564749755859375,-0.0005451251054182649,-0.0005591870285570621,-0.004806076642125845
1782846019215754800,3.574754638671875,0.000209880992770195,0.0006911670789122581,-0.00891107227653265
1782846019225759700,3.584759765625,-0.003574177622795105,0.0037304472643882036,-0.005870715249329805
1782846019235765800,3.594765869140625,-0.0025517900940030813,0.005076408851891756,-0.007487520109862089
1782846019245770800,3.604770751953125,-0.004167762119323015,0.011664194986224174,-0.004829396493732929
1782846019255775700,3.614775634765625,-0.009192082099616528,0.014443202875554562,0.002564870286732912
1782846019265781800,3.62478173828125,-0.005382129922509193,0.012063593603670597,0.00638599693775177
1782846019275786800,3.634786865234375,-0.00779761653393507,0.004012590739876032,0.006623817142099142
1782846019285792000,3.6447919921875,-0.008220646530389786,0.005172304343432188,0.0032283333130180836
1782846019295797800,3.6547978515625,-0.01011495292186737,0.007709231227636337,-0.003708136035129428
1782846019305802800,3.664802734375,-0.0092703178524971,0.009285730309784412,-0.010737502947449684
1782846019315808300,3.674808349609375,-0.006177589297294617,0.01005032379180193,-0.015955965965986252
1782846019325814300,3.684814208984375,-0.004003487527370453,0.009421861730515957,-0.014492109417915344
1782846019335819300,3.6948193359375,-0.0030245096422731876,0.011293265037238598,-0.010831328108906746
1782846019345824300,3.70482421875,-0.0011492067715153098,0.02372630313038826,-0.006030320189893246
1782846019355830300,3.714830322265625,-0.0016288419719785452,0.025864290073513985,0.0010395736899226904
1782846019365835300,3.724835205078125,0.002227510092779994,0.024081498384475708,0.008769004605710506
1782846019375841300,3.73484130859375,0.00283524370752275,0.01662944070994854,0.011608733795583248
1782846019385846300,3.74484619140625,0.004633684642612934,0.005323550198227167,0.011586039327085018
1782846019395851300,3.754851318359375,0.0056696548126637936,0.0015051098307594657,0.00801713764667511
1782846019405857300,3.764857177734375,0.0076864915899932384,-0.004397623240947723,-0.00009583611972630024
1782846019415862300,3.7748623046875,0.005620411131531,-0.007673843763768673,-0.006565719842910767
1782846019425867300,3.7848671875,0.008301552385091782,-0.0066225482150912285,-0.018691521137952805
1782846019435873300,3.794873291015625,0.006349721923470497,-0.005193762481212616,-0.026895655319094658
1782846019445878300,3.804878173828125,0.005874081514775753,-0.001517800847068429,-0.028800614178180695
1782846019455883300,3.81488330078125,0.0062317438423633575,0.0013733269879594445,-0.028256796300411224
1782846019465889300,3.82488916015625,0.0024579931050539017,-0.0037883897311985493,-0.020940467715263367
1782846019475894300,3.834894287109375,0.002336020115762949,0.0007086240220814943,-0.008878211490809917
1782846019485899300,3.844899169921875,-0.002302587730810046,0.0002707026433199644,-0.000504770374391228
1782846019495905300,3.8549052734375,-0.005644588731229305,0.001367392367683351,0.0041403151117265224
1782846019505910300,3.86491015625,-0.006894856691360474,-0.002961407182738185,0.0017857449129223824
1782846019515915500,3.87491552734375,-0.006171542219817638,0.00012066913768649101,-0.0029674649704247713
1782846019525921300,3.88492138671875,-0.004708555527031422,-0.007078937254846096,-0.011311125010251999
1782846019535926300,3.89492626953125,-0.00318629271350801,-0.008706661872565746,-0.01508402545005083
1782846019545931300,3.90493115234375,0.00023110955953598022,-0.007002314552664757,-0.01516815833747387
1782846019555937300,3.914937255859375,0.003626640187576413,-0.006999651901423931,-0.014263482764363289
1782846019565942300,3.9249423828125,0.009346062317490578,-0.0036275028251111507,-0.010142622515559196
1782846019575947300,3.934947265625,0.008123937994241714,-0.0011225338093936443,-0.009241142310202122
1782846019585953300,3.944953369140625,0.011037889868021011,0.002263350412249565,-0.004919098690152168
1782846019595958300,3.954958251953125,0.010475430637598038,-0.004517323803156614,-0.00038267014315351844
1782846019605963300,3.96496337890625,0.008886435069143772,-0.01687786914408207,0.00944734737277031
1782846019615969300,3.97496923828125,0.006938332691788673,-0.02313922718167305,0.006039033643901348
1782846019625974300,3.984974365234375,0.007337617222219706,-0.02254600077867508,0.003627263242378831
1782846019635979300,3.994979248046875,0.0023127649910748005,-0.018241534009575844,-0.0024138514418154955
1782846019645985300,4.0049853515625,-0.0032525372225791216,-0.012160667218267918,-0.009926501661539078
1782846019655990300,4.014990234375,-0.003862933721393347,-0.005403694696724415,-0.005716576706618071
1782846019665996300,4.024996337890625,-0.006459163501858711,-0.0073002297431230545,-0.00678936718031764
1782846019676001300,4.035001220703125,-0.010855509899556637,-0.004995263181626797,-0.001196462893858552
1782846019686006300,4.04500634765625,-0.011646684259176254,-0.005437103100121021,0.0022197477519512177
1782846019696012300,4.05501220703125,-0.015085889026522636,-0.009921333752572536,0.008033694699406624
1782846019706017300,4.065017333984375,-0.017945891246199608,-0.013341023586690426,0.01691211760044098
1782846019716022300,4.075022216796875,-0.015994060784578323,-0.01552774477750063,0.026518939062952995
1782846019726028300,4.0850283203125,-0.01652470976114273,-0.01677028462290764,0.02859269641339779
1782846019736033300,4.095033203125,-0.015707120299339294,-0.012887661345303059,0.024491693824529648
1782846019746038300,4.105038330078125,-0.013326510787010193,-0.013038902543485165,0.02316271886229515
1782846019756044300,4.115044189453125,-0.012035410851240158,-0.009203949943184853,0.01660574972629547
1782846019766049300,4.12504931640625,-0.008684131316840649,-0.010669704526662827,0.007957967929542065
1782846019776054300,4.13505419921875,-0.008430864661931992,-0.011555206030607224,0.005005055572837591
1782846019786060300,4.145060302734375,-0.00706596951931715,-0.009585900232195854,0.0022239971440285444
1782846019796065300,4.155065185546875,-0.005147694610059261,-0.00791077222675085,0.00033208756940439343
1782846019806070300,4.1650703125,-0.009599820710718632,-0.009673877619206905,0.0005462520057335496
1782846019816076300,4.175076171875,-0.010477598756551743,-0.014537874609231949,0.008792730048298836
1782846019826081300,4.185081298828125,-0.01507515087723732,-0.02009524032473564,0.0128273144364357
1782846019836086300,4.195086181640625,-0.016779040917754173,-0.025364836677908897,0.01102914847433567
1782846019846092300,4.20509228515625,-0.018738139420747757,-0.02001495473086834,0.012505616992712021
1782846019856097300,4.21509716796875,-0.017626803368330002,-0.014589829370379448,0.012425189837813377
1782846019866102300,4.225102294921875,-0.015133998356759548,-0.007039599120616913,0.015065643936395645
1782846019876108300,4.2351083984375,-0.016571572050452232,-0.0011643993202596903,0.016704553738236427
1782846019886113300,4.24511328125,-0.017428843304514885,0.010664297267794609,0.0182875357568264
1782846019896118300,4.2551181640625,-0.016303392127156258,0.018467625603079796,0.016704820096492767
1782846019906124300,4.265124267578125,-0.014105374924838543,0.025893382728099823,0.020145634189248085
1782846019916129300,4.27512939453125,-0.015433226712048054,0.027889423072338104,0.02552628517150879
1782846019926134300,4.28513427734375,-0.01607559062540531,0.02695489302277565,0.028189506381750107
1782846019936140300,4.295140380859375,-0.016766414046287537,0.028378618881106377,0.026064835488796234
1782846019946145300,4.305145263671875,-0.011620241217315197,0.022488413378596306,0.03125378489494324
1782846019956150300,4.315150390625,-0.007929366081953049,0.00885489210486412,0.027101648971438408
1782846019966156300,4.32515625,-0.005397808272391558,0.008481565862894058,0.01739020086824894
1782846019976161300,4.335161376953125,0.0005828526336699724,0.0103529691696167,0.005629682447761297
1782846019986166300,4.345166259765625,0.009500456973910332,-0.00013293488882482052,-0.004548710770905018
1782846019996172300,4.35517236328125,0.01484115980565548,-0.011409024707973003,-0.011541638523340225
1782846020006177300,4.36517724609375,0.02252712845802307,-0.01791682280600071,-0.020542128011584282
1782846020016182300,4.375182373046875,0.023386530578136444,-0.01169008668512106,-0.026777388527989388
1782846020026188300,4.385188232421875,0.021555393934249878,-0.0033237880561500788,-0.028863798826932907
1782846020036193300,4.395193359375,0.02156071923673153,0.0009923973120748997,-0.022400572896003723
1782846020046198300,4.4051982421875,0.021211665123701096,0.006809708662331104,-0.01636139489710331
1782846020056204300,4.415204345703125,0.016624635085463524,0.0011624759063124657,0.00001225341111421585
1782846020066209300,4.425209228515625,0.01459086500108242,0.0018984758062288165,0.007458382286131382
1782846020076214300,4.43521435546875,0.01392907090485096,-0.0014856031630188227,0.008898885920643806
1782846020086220300,4.44522021484375,0.010634868405759335,-0.007180653512477875,0.014272774569690228
1782846020096225300,4.455225341796875,0.01183941587805748,-0.010767398402094841,0.007804755587130785
1782846020106230300,4.465230224609375,0.018042312934994698,-0.013970796018838882,0.014097699895501137
1782846020116236300,4.475236328125,0.016957607120275497,-0.018629463389515877,0.010081920772790909
1782846020126241300,4.4852412109375,0.017155203968286514,-0.01245175488293171,0.006980993784964085
1782846020136247300,4.495247314453125,0.01207708939909935,-0.0068580517545342445,0.009036688134074211
1782846020146252300,4.505252197265625,0.0070099541917443275,-0.000050474656745791435,0.008926281705498695
1782846020156257300,4.51525732421875,0.004468499682843685,0.004328561015427113,0.015491773374378681
1782846020166263300,4.52526318359375,0.0031900531612336636,0.009601500816643238,0.013594374991953373
1782846020176268300,4.535268310546875,0.004113637376576662,0.013251896016299725,0.021099694073200226
1782846020186273300,4.545273193359375,0.006321784108877182,0.005521364510059357,0.020792853087186813
1782846020196279300,4.555279296875,0.005924972705543041,-0.004455369897186756,0.020372606813907623
1782846020206284300,4.5652841796875,0.007177646737545729,-0.007341313175857067,0.013936556875705719
1782846020216289300,4.575289306640625,0.005115561652928591,-0.011137914843857288,0.004017612896859646
1782846020226295300,4.58529541015625,0.002484658733010292,-0.007789598777890205,-0.0009283865801990032
1782846020236300300,4.59530029296875,-0.0024544398766011,-0.0058276476338505745,-0.00015820038970559835
1782846020246305300,4.60530517578125,-0.002804783172905445,-0.004738561809062958,0.003699550637975335
1782846020256311300,4.615311279296875,-0.0034186418633908033,-0.0022863231133669615,0.008946510963141918
1782846020266316300,4.62531640625,-0.00672810897231102,0.0013517724582925439,0.011340124532580376
1782846020276321300,4.6353212890625,-0.010950817726552486,0.006444002501666546,0.0087467385455966
1782846020286327300,4.645327392578125,-0.008445220068097115,0.013102633878588676,0.0122609194368124
1782846020296332300,4.655332275390625,-0.006916299927979708,0.011846421286463737,0.015173085033893585
1782846020306337300,4.665337158203125,-0.0064292168244719505,0.010695641860365868,0.01841900311410427
1782846020316343000,4.675343017578125,-0.003984168637543917,0.00634669978171587,0.02045339159667492
1782846020326348000,4.68534814453125,-0.0022213796619325876,-0.00024786870926618576,0.014984557405114174
1782846020336353000,4.69535302734375,0.0011051748879253864,0.00006025913171470165,0.003967059310525656
1782846020346359000,4.705359130859375,0.0038862712681293488,-0.0034787666518241167,-0.0017903936095535755
1782846020356364000,4.715364013671875,0.007276741787791252,-0.002674225950613618,-0.0007613482302986085
1782846020366369000,4.725369140625,0.00907629169523716,-0.0036478994879871607,0.004208549857139587
1782846020376375300,4.735375244140625,0.008059230633080006,-0.004105430096387863,0.008849107660353184
1782846020386380300,4.74538037109375,0.009362452663481236,-0.0006745997816324234,0.00996454432606697
1782846020396385300,4.75538525390625,0.012145722284913063,0.0025355746038258076,0.0036736251786351204
1782846020406391000,4.76539111328125,0.012873735278844833,0.003037384944036603,0.0074671595357358456
1782846020416396000,4.77539599609375,0.013063618913292885,0.0009942078031599522,0.00577551918104291
1782846020426401000,4.785401123046875,0.012393301352858543,0.0030238027684390545,0.005715065635740757
1782846020436407000,4.795406982421875,0.008094693534076214,0.007957308553159237,0.0027770663145929575
1782846020446412000,4.805412109375,0.00552517082542181,0.00375275406986475,-0.0022827540524303913
1782846020456417000,4.8154169921875,-0.003427843563258648,0.004505629651248455,-0.0001993631012737751
1782846020466423000,4.825423095703125,-0.007929565384984016,0.005868537351489067,0.004545255564153194
1782846020476428000,4.835427978515625,-0.014049243181943893,0.0036714295856654644,0.0032629433553665876
1782846020486433000,4.84543310546875,-0.01509484276175499,0.005440350156277418,0.004313594661653042
1782846020496439300,4.855439208984375,-0.01871008425951004,0.009712593629956245,0.011797343380749226
1782846020506444300,4.8654443359375,-0.016398143023252487,0.015171518549323082,0.014109939336776733
1782846020516449300,4.87544921875,-0.019030943512916565,0.017296453937888145,0.01859390363097191
1782846020526455000,4.885455078125,-0.01633560098707676,0.01943342387676239,0.020364142954349518
1782846020536460300,4.895460205078125,-0.014913738705217838,0.024897964671254158,0.022094398736953735
1782846020546465300,4.90546533203125,-0.012850835919380188,0.03497222438454628,0.019333647564053535
1782846020556471000,4.915470947265625,-0.015826918184757233,0.033443838357925415,0.014023305848240852
1782846020566476000,4.92547607421875,-0.009463983587920666,0.03248409926891327,0.007627470418810844
1782846020576481000,4.93548095703125,-0.0060205161571502686,0.02358567714691162,-0.000016600883100181818
1782846020586487000,4.945487060546875,-0.004033128265291452,0.006396451964974403,-0.0002636381541378796
1782846020596492000,4.955491943359375,0.0001685412134975195,-0.008439485915005207,-0.006347096990793943
1782846020606497000,4.9654970703125,0.005696559324860573,-0.022103438153862953,-0.010140098631381989
1782846020616503000,4.9755029296875,0.010038843378424644,-0.024895494803786278,-0.008621031418442726
1782846020626508000,4.985508056640625,0.009920332580804825,-0.01732865534722805,-0.008480150252580643
1782846020636513000,4.995512939453125,0.012582695111632347,-0.007099187932908535,-0.0023112038616091013
1782846020646519300,5.005519287109375,0.011548889800906181,0.0028100924100726843,0.007586457766592503
1782846020656524300,5.015524169921875,0.007392494007945061,0.0068927183747291565,0.020677492022514343
1782846020666529300,5.025529296875,0.007435310166329145,0.005352341569960117,0.03151324763894081
1782846020676535000,5.03553515625,0.0035641388967633247,-0.0006695985794067383,0.03581877797842026
1782846020686540000,5.0455400390625,0.0008375181350857019,-0.0012713484466075897,0.03230421990156174
1782846020696545000,5.055544921875,0.0023480632808059454,-0.0004268600605428219,0.030184872448444366
1782846020706551000,5.065551025390625,-0.00020973151549696922,-0.008088704198598862,0.026399584487080574
1782846020716556000,5.07555615234375,0.0005362199153751135,-0.008391505107283592,0.022147314622998238
1782846020726561000,5.08556103515625,-0.0003643909003585577,-0.010933726094663143,0.010971415787935257
1782846020736567000,5.095567138671875,-0.000850684242323041,-0.011471951380372047,0.002221866510808468
1782846020746572000,5.105572021484375,0.0011579913552850485,-0.006244339980185032,-0.0076433271169662476
1782846020756577000,5.115576904296875,0.004314369522035122,-0.0029846306424587965,-0.009687303565442562
1782846020766583300,5.125583251953125,0.005278563126921654,-0.0015442734584212303,-0.0069797709584236145
1782846020776588300,5.13558837890625,0.005901209078729153,-0.0003173551522195339,-0.0012217506300657988
1782846020786593300,5.14559326171875,0.010829484090209007,0.0037494872231036425,0.0032485041301697493
1782846020796599000,5.15559912109375,0.010535471141338348,0.0008764690719544888,0.007643518969416618
1782846020806604000,5.16560400390625,0.009311620146036148,-0.0115576833486557,0.011239422485232353
1782846020816609000,5.175609130859375,0.009828539565205574,-0.019025186076760292,0.010824768804013729
1782846020826615000,5.185614990234375,0.012161665596067905,-0.021113935858011246,0.006657397840172052
1782846020836620000,5.1956201171875,0.01345489639788866,-0.02481706067919731,-0.001155518228188157
1782846020846625000,5.205625,0.012765792198479176,-0.02045106515288353,-0.004130038898438215
1782846020856631000,5.215631103515625,0.009045888669788837,-0.01563766784965992,-0.004758811090141535
1782846020866636000,5.225635986328125,0.004681628663092852,-0.0022394515108317137,-0.012600325979292393
1782846020876641000,5.23564111328125,0.0031963838264346123,0.011996742337942123,-0.0112900510430336
1782846020886647300,5.245647216796875,-0.001761898398399353,0.015231390483677387,-0.008402328006923199
1782846020896652300,5.25565234375,-0.00019942177459597588,0.017223969101905823,-0.007809774950146675
1782846020906657300,5.2656572265625,-0.003860855009406805,0.014521033503115177,-0.008100012317299843
1782846020916663300,5.275663330078125,-0.005435582250356674,0.0008731316775083542,-0.006970299873501062
1782846020926668300,5.285668212890625,-0.005873966030776501,-0.011258979327976704,-0.004381000529974699
1782846020936673300,5.29567333984375,-0.0040222699753940105,-0.011853929609060287,-0.004581802524626255
1782846020946679000,5.305678955078125,-0.002691255882382393,-0.018154093995690346,-0.0037117714527994394
1782846020956684000,5.31568408203125,0.00005819159559905529,-0.013859480619430542,-0.00299351685680449
1782846020966689000,5.32568896484375,0.0018789181485772133,-0.0014436987694352865,-0.0011428750585764647
1782846020976695000,5.335695068359375,0.001026706537231803,0.0064621614292263985,-0.001454198732972145
1782846020986700000,5.345699951171875,0.0044808173552155495,0.007247766479849815,-0.0014924901770427823
1782846020996705000,5.355705078125,0.0001957912463694811,0.01259699184447527,-0.0039332774467766285
1782846021006711000,5.3657109375,-0.0016369195654988289,0.00888761691749096,0.0021368549205362797
1782846021016716000,5.375716064453125,-0.0002307705581188202,0.0058867670595645905,-0.0002562616718932986
1782846021026721000,5.385720947265625,-0.0009450212819501758,-0.00307554192841053,-0.0009420840069651604
1782846021036727300,5.395727294921875,0.004253735765814781,-0.0054367003031075,-0.0046071261167526245
1782846021046732300,5.405732177734375,0.005211262032389641,-0.008747450076043606,-0.003345366334542632
1782846021056737300,5.4157373046875,0.0052386922761797905,-0.009834552183747292,0.0004360561433713883
1782846021066743000,5.425742919921875,0.005445662420243025,-0.010857520624995232,0.006122136488556862
1782846021076748000,5.435748046875,0.004612891934812069,-0.00826014019548893,0.014151566661894321
1782846021086753000,5.4457529296875,-0.0004808229859918356,-0.0028219826053828,0.017701849341392517
1782846021096759000,5.455759033203125,-0.0035530454479157925,-0.004579402506351471,0.018539413809776306
1782846021106764000,5.465763916015625,-0.009361565113067627,-0.0006085904315114021,0.014901872724294662
1782846021116769000,5.47576904296875,-0.014747807756066322,0.004043153021484613,-0.0007258226978592575
1782846021126775000,5.485775146484375,-0.013285130262374878,0.0007469905540347099,-0.01286418829113245
1782846021136780000,5.495780029296875,-0.014623369090259075,0.0012058531865477562,-0.020146867260336876
1782846021146785000,5.505784912109375,-0.008452867157757282,0.004768678918480873,-0.03055846318602562
1782846021156791300,5.515791259765625,-0.005661342293024063,0.007477646693587303,-0.026605265215039253
1782846021166796300,5.52579638671875,0.000007591443136334419,0.009720946662127972,-0.022652972489595413
1782846021176801300,5.53580126953125,0.007523298263549805,0.005170137155801058,-0.014537254348397255
1782846021186807000,5.54580712890625,0.010079613886773586,0.005022087600082159,0.0035393100697547197
1782846021196812000,5.55581201171875,0.013629341498017311,0.00466735428199172,0.02296493947505951
1782846021206817000,5.565817138671875,0.01623879186809063,0.0076393443159759045,0.032032135874032974
1782846021216823000,5.575822998046875,0.017468374222517014,0.00835413672029972,0.029974842444062233
1782846021226828000,5.585828125,0.014789852313697338,0.0014308852842077613,0.017127685248851776
1782846021236833000,5.5958330078125,0.020864788442850113,-0.004844054579734802,0.0006424511084333062
1782846021246838000,5.605838134765625,0.015133890323340893,-0.010984456166625023,-0.013391041196882725
1782846021256844000,5.615843994140625,0.0156004773452878,-0.010651027783751488,-0.029545510187745094
1782846021266849000,5.62584912109375,0.013401144184172153,-0.01000886969268322,-0.03420591354370117
1782846021276854000,5.63585400390625,0.009016248397529125,-0.011368680745363235,-0.02787185274064541
1782846021286860300,5.6458603515625,0.007406119257211685,-0.010954238474369049,-0.015126080252230167
1782846021296865300,5.655865234375,0.003620702074840665,-0.003979951608926058,-0.002869680058211088
1782846021306870300,5.665870361328125,0.00043653184548020363,0.00012964289635419846,0.011027088388800621
1782846021316875800,5.675875732421875,0.0013361475430428982,0.0009128786623477936,0.01801096275448799
1782846021326880800,5.685880859375,0.0005403433460742235,0.0004484450910240412,0.019956227391958237
1782846021336885800,5.6958857421875,0.0012165200896561146,-0.002572644967585802,0.015207812190055847
1782846021346891500,5.7058916015625,0.001206503715366125,-0.010042056441307068,0.012559112161397934
1782846021356896500,5.715896484375,-0.0017690460663288832,-0.015026162378489971,0.008898330852389336
1782846021366901800,5.72590185546875,-0.004426675848662853,-0.017693854868412018,0.004035816062241793
1782846021376907800,5.73590771484375,-0.007828065194189548,-0.009387988597154617,0.00003734620986506343
1782846021386912800,5.745912841796875,-0.006982588209211826,-0.00198001554235816,0.003178555751219392
1782846021396917800,5.755917724609375,-0.0033289974089711905,0.002830452285706997,0.015028556808829308
1782846021406923800,5.765923828125,-0.00351742934435606,0.004668392241001129,0.020622216165065765
1782846021416928800,5.7759287109375,0.0012938373256474733,0.004424180369824171,0.022557001560926437
1782846021426933800,5.785933837890625,0.003096573753282428,-0.0027019549161195755,0.01773557998239994
1782846021436939800,5.795939697265625,0.0063166022300720215,-0.007064745295792818,-0.004724455066025257
1782846021446944800,5.80594482421875,0.004740019794553518,-0.014662982895970345,-0.024214856326580048
1782846021456949800,5.81594970703125,0.005352546460926533,-0.02010328881442547,-0.04312223568558693
1782846021466955800,5.825955810546875,0.006036575883626938,-0.02504120208323002,-0.058225128799676895
1782846021476960800,5.835960693359375,0.007101839408278465,-0.024653978645801544,-0.05567142367362976
1782846021486965800,5.8459658203125,0.006030459422618151,-0.025242242962121964,-0.04401429370045662
1782846021496971800,5.8559716796875,0.008993491530418396,-0.022783081978559494,-0.025925833731889725
1782846021506976800,5.865976806640625,0.014802196994423866,-0.017632093280553818,-0.010253200307488441
1782846021516981800,5.875981689453125,0.016660019755363464,-0.013217370957136154,0.008649117313325405
1782846021526987800,5.88598779296875,0.014189010486006737,-0.008819280192255974,0.023195406422019005
1782846021536992800,5.89599267578125,0.013677949085831642,-0.0024266275577247143,0.026381079107522964
1782846021546997800,5.905997802734375,0.013504654169082642,-0.0022717562969774008,0.013267929665744305
1782846021557003800,5.916003662109375,0.011243630200624466,-0.0000623979140073061,-0.0030567143112421036
1782846021567008800,5.9260087890625,0.009429166093468666,-0.0009705140255391598,-0.02068142220377922
1782846021577013800,5.936013671875,0.008838742971420288,-0.005730648525059223,-0.025035157799720764
1782846021587019800,5.946019775390625,0.013345516286790371,-0.0070669520646333694,-0.02901539020240307
1782846021597024800,5.956024658203125,0.014792411588132381,-0.010571938008069992,-0.02463502250611782
1782846021607029800,5.96602978515625,0.015670089051127434,-0.007471791468560696,-0.015987541526556015
1782846021617035500,5.976035400390625,0.01812019571661949,-0.01144416257739067,-0.0003060518065467477
1782846021627040500,5.98604052734375,0.0212433859705925,-0.02001230977475643,0.009294449351727962
1782846021637045500,5.99604541015625,0.015370051376521587,-0.018602965399622917,0.013876151293516159
1782846021647051800,6.0060517578125,0.017857462167739868,-0.00972846057265997,0.005505186039954424
1782846021657056800,6.016056884765625,0.013159645721316338,-0.006289521232247353,0.0038218023255467415
1782846021667061800,6.026061767578125,0.009078067727386951,-0.002214139560237527,0.003845621133223176
1782846021677067800,6.03606787109375,0.00744235422462225,0.0009494295809417963,-0.00793513748794794
1782846021687072800,6.04607275390625,0.0026839892379939556,0.006351722404360771,-0.01625152863562107
1782846021697077800,6.056077880859375,0.002731925807893276,0.0069024646654725075,-0.018436651676893234
1782846021707082800,6.066082763671875,0.004493160173296928,-0.004380115307867527,-0.01991557702422142
1782846021717088800,6.0760888671875,0.005114475265145302,-0.015668455511331558,-0.019710779190063477
1782846021727093800,6.08609375,0.0024838480167090893,-0.022989533841609955,-0.008903706446290016
1782846021737098800,6.0960986328125,0.007335328496992588,-0.02650650590658188,-0.0042136129923164845
1782846021747104800,6.106104736328125,0.005107526667416096,-0.02313585765659809,0.0015166630037128925
1782846021757109800,6.11610986328125,0.004639609716832638,-0.01241583563387394,-0.0015393142821267247
1782846021767114800,6.12611474609375,-0.0017796402098610997,-0.0028777990955859423,-0.010408948175609112
1782846021777120800,6.136120849609375,-0.0019394299015402794,-0.0014791067223995924,-0.02094867452979088
1782846021787125800,6.146125732421875,-0.0047502159141004086,0.002375650219619274,-0.032451331615448
1782846021797130800,6.156130859375,-0.0010998210636898875,0.0015162480995059013,-0.031164757907390594
1782846021807136800,6.16613671875,-0.00050264538731426,0.00010044081136584282,-0.02297486737370491
1782846021817141800,6.176141845703125,-0.0008214258123189211,-0.0012087691575288773,-0.010440698824822903
1782846021827146800,6.186146728515625,0.003805137239396572,0.001561543671414256,0.004248719662427902
1782846021837152800,6.19615283203125,0.0052994368597865105,0.005044958554208279,0.01910622976720333
1782846021847157800,6.20615771484375,0.009950870648026466,0.007378202863037586,0.019691893830895424
1782846021857162800,6.216162841796875,0.012968765571713448,0.01059130672365427,0.01470086257904768
1782846021867168800,6.226168701171875,0.01493613701313734,0.004568230826407671,0.0016882636118680239
1782846021877173800,6.236173828125,0.01641232706606388,-0.00143267004750669,-0.007785133086144924
1782846021887178800,6.2461787109375,0.020524246618151665,-0.004876137711107731,-0.01970251277089119
1782846021897184800,6.256184814453125,0.019872039556503296,-0.010630962438881397,-0.024838151410222054
1782846021907189800,6.266189697265625,0.020004207268357277,-0.01610920950770378,-0.023970505222678185
1782846021917194800,6.27619482421875,0.017650241032242775,-0.018494602292776108,-0.018371475860476494
1782846021927200800,6.28620068359375,0.017322637140750885,-0.013749837875366211,-0.012747968547046185
1782846021937205800,6.296205810546875,0.013854936696588993,-0.005692178383469582,-0.003962998744100332
1782846021947210800,6.306210693359375,0.008362123742699623,-0.0031741110142320395,0.00848411861807108
1782846021957216800,6.316216796875,0.0019947721157222986,0.001066173892468214,0.013938005082309246
1782846021967221800,6.3262216796875,-0.0004493911983445287,0.002532146405428648,0.011485697701573372
1782846021977226800,6.336226806640625,-0.0005234271520748734,0.005578536540269852,0.006606786511838436
1782846021987232800,6.346232666015625,0.0011985390447080135,0.0005705375224351883,0.004569977056235075
1782846021997237800,6.35623779296875,-0.0033320304937660694,-0.004496659152209759,0.0006034650723449886
1782846022007242800,6.36624267578125,-0.001253785565495491,-0.0072228386998176575,-0.006055966019630432
1782846022017248500,6.37624853515625,-0.005086873658001423,-0.01036536879837513,-0.013349832035601139
1782846022027253500,6.38625341796875,-0.009262960404157639,-0.018184274435043335,-0.011341135017573833
1782846022037258800,6.3962587890625,-0.008522069081664085,-0.013376735150814056,-0.014230931177735329
1782846022047263700,6.406263671875,-0.0051031275652348995,-0.010594427585601807,-0.011667454615235329
1782846022057269800,6.416269775390625,-0.008495994843542576,-0.003954102285206318,-0.010095656849443913
1782846022067274800,6.426274658203125,-0.005510144867002964,-0.00023543275892734528,-0.0037812329828739166
1782846022077279700,6.43627978515625,-0.000013113720342516899,-0.0067780208773911,-0.005227861925959587
1782846022087285800,6.44628564453125,0.0025315703824162483,-0.015355072915554047,-0.007763966452330351
1782846022097290800,6.456290771484375,0.008096246048808098,-0.022520573809742928,-0.012432487681508064
1782846022107295700,6.466295654296875,0.007976075634360313,-0.018596412613987923,-0.024349715560674667
1782846022117301800,6.4763017578125,0.0032337848097085953,-0.013104439713060856,-0.022159531712532043
1782846022127306800,6.486306640625,-0.0017976120579987764,-0.00893447920680046,-0.020717674866318703
1782846022137311700,6.496311767578125,-0.0021222515497356653,-0.0002653577830642462,-0.01678285375237465
1782846022147317800,6.50631787109375,-0.0025307130999863148,0.0059913210570812225,-0.007802627049386501
1782846022157322800,6.51632275390625,-0.0041496483609080315,-0.0019113433081656694,-0.004919755272567272
1782846022167327700,6.52632763671875,-0.0024854117073118687,-0.005177363287657499,0.002018136205151677
1782846022177333800,6.536333740234375,-0.0015272062737494707,-0.004461505450308323,0.006253893952816725
1782846022187338800,6.5463388671875,-0.004070415161550045,-0.0010853500571101904,0.006118086166679859
1782846022197343700,6.55634375,-0.0063388957642018795,0.004812220111489296,0.0010777871357277036
1782846022207349800,6.566349853515625,-0.0064505585469305515,0.012664408423006535,-0.002357679884880781
1782846022217354800,6.576354736328125,-0.010823202319443226,0.015165116637945175,0.0011070925975218415
1782846022227359700,6.58635986328125,-0.007640415802598,0.007970805279910564,0.004240000620484352
1782846022237365800,6.59636572265625,-0.008104871027171612,0.004885000176727772,-0.00031240686075761914
1782846022247370800,6.606370849609375,-0.00525049539282918,0.0011983863078057766,-0.00792744942009449
1782846022257375700,6.616375732421875,-0.0035247670020908117,-0.006597218103706837,-0.007938368245959282
1782846022267381800,6.6263818359375,-0.0017906969878822565,-0.011307649314403534,-0.009282003156840801
1782846022277386800,6.63638671875,0.0007438333705067635,-0.014735404402017593,-0.008781062439084053
1782846022287391700,6.646391845703125,0.00015563610941171646,-0.012103739194571972,-0.013164753094315529
1782846022297396700,6.656396728515625,0.0012611143756657839,-0.0024511117953807116,-0.010302387177944183
1782846022307402800,6.66640283203125,0.0026916784700006247,-0.010519326664507389,-0.01353912428021431
1782846022317408000,6.676407958984375,0.0011955145746469498,-0.005148530006408691,-0.009766756556928158
1782846022327413000,6.6864130859375,0.00495548453181982,-0.00048391055315732956,-0.007541464176028967
1782846022337419000,6.6964189453125,0.003291541477665305,-0.00011319853365421295,-0.007835476659238338
1782846022347424000,6.706424072265625,0.005155840422958136,-0.001200398663058877,-0.004058651626110077
1782846022357429000,6.716428955078125,0.004987794905900955,0.00006353738717734814,-0.0022788611240684986
1782846022367435000,6.72643505859375,0.004516277462244034,0.006420089863240719,-0.004932272247970104
1782846022377440000,6.73643994140625,0.0006903803441673517,0.0033286926336586475,-0.0011963900178670883
1782846022387445000,6.746445068359375,0.0002845574636012316,-0.0002804722171276808,0.002502440009266138
1782846022397451000,6.756450927734375,0.0014108081813901663,0.0009222112130373716,-0.0010456894524395466
1782846022407456000,6.7664560546875,0.0004810374230146408,-0.0032222047448158264,-0.011255297809839249
1782846022417461000,6.7764609375,0.0009004853200167418,-0.0052922796458005905,-0.013839363120496273
1782846022427466800,6.786466796875,-0.0020239988807588816,-0.005538736470043659,-0.012515287846326828
1782846022437472000,6.796471923828125,-0.0025979101192206144,-0.0027594619896262884,-0.007694966159760952
1782846022447477000,6.80647705078125,-0.0028865449130535126,0.007928580045700073,0.00229818606749177
1782846022457483000,6.81648291015625,-0.0064005861058831215,0.018276026472449303,0.006753921043127775
1782846022467488000,6.826488037109375,-0.00820933748036623,0.021653028205037117,0.009074115194380283
1782846022477493000,6.836492919921875,-0.006578950211405754,0.022682340815663338,0.009637107141315937
1782846022487499000,6.8464990234375,-0.003887489438056946,0.01862717792391777,0.006608083378523588
1782846022497504000,6.85650390625,-0.001321001211181283,0.013078215532004833,-0.0031129871495068073
1782846022507509000,6.866509033203125,0.0012155035510659218,0.008314418606460094,-0.01751801185309887
1782846022517514000,6.876513916015625,0.002786502242088318,0.013112368993461132,-0.02571255713701248
1782846022527520000,6.88652001953125,0.003867978462949395,0.011612819507718086,-0.03338328376412392
1782846022537525000,6.89652490234375,0.008026503957808018,0.01425520796328783,-0.031995244324207306
1782846022547530000,6.906530029296875,0.012166621163487434,0.012011037208139896,-0.030734527856111526
1782846022557536000,6.916535888671875,0.012756777927279472,0.00875718705356121,-0.019955383613705635
1782846022567541000,6.926541015625,0.01942603662610054,0.006644572596997023,-0.009037095122039318
1782846022577546000,6.9365458984375,0.019762925803661346,0.00613164808601141,0.0030025229789316654
1782846022587552000,6.946552001953125,0.021514778956770897,0.011009124107658863,0.010734561830759048
1782846022597557000,6.956556884765625,0.023236779496073723,0.01264377310872078,0.012253895401954651
1782846022607562000,6.96656201171875,0.024774231016635895,0.02137390710413456,0.007389306090772152
1782846022617568000,6.976568115234375,0.02546212449669838,0.024161703884601593,0.004130661953240633
1782846022627573000,6.986572998046875,0.020551171153783798,0.026779957115650177,-0.004014546982944012
1782846022637578000,6.996577880859375,0.020104292780160904,0.02233753725886345,-0.012415221892297268
1782846022647584000,7.006583984375,0.0187079980969429,0.011730699799954891,-0.014861867763102055
1782846022657589000,7.016589111328125,0.01983531191945076,0.0015712726162746549,-0.021760521456599236
1782846022667594000,7.026593994140625,0.017785485833883286,-0.003955292049795389,-0.014250464737415314
1782846022677599000,7.036598876953125,0.01393242459744215,-0.007725263014435768,-0.008136113174259663
1782846022687605000,7.04660498046875,0.010156096890568733,-0.006032368168234825,-0.00201374851167202
1782846022697610000,7.05660986328125,0.007737413980066776,-0.0030464313458651304,0.00013702025171369314
1782846022707616000,7.066615966796875,0.0016424604691565037,0.0013121470110490918,-0.0006869271746836603
1782846022717621000,7.07662109375,-0.0005429296288639307,0.010218290612101555,-0.0031948259565979242
1782846022727626000,7.0866259765625,0.0011414005421102047,0.013391886837780476,-0.007906978018581867
1782846022737631000,7.096630859375,0.0035587516613304615,0.016289671882987022,-0.010148027911782265
1782846022747637000,7.106636962890625,0.005435815081000328,0.011121123097836971,-0.017202692106366158
1782846022757642000,7.11664208984375,0.004518622066825628,0.004339383915066719,-0.01842029020190239
1782846022767647000,7.12664697265625,0.008506225422024727,-0.0027004375588148832,-0.01519582886248827
1782846022777653000,7.136653076171875,0.013060763478279114,-0.0008761726785451174,-0.011211739853024483
1782846022787658000,7.146657958984375,0.018363263458013535,-0.0013524380046874285,-0.0018509498331695795
1782846022797663000,7.1566630859375,0.021304991096258163,0.0007495947647839785,0.013009754940867424
1782846022807669000,7.1666689453125,0.024779558181762695,0.0031155420001596212,0.027411749586462975
1782846022817674000,7.176674072265625,0.023492716252803802,0.014137567020952702,0.02798113226890564
1782846022827679000,7.186678955078125,0.022379346191883087,0.025522243231534958,0.029991161078214645
1782846022837685000,7.19668505859375,0.015575234778225422,0.031029393896460533,0.02508295513689518
1782846022847690000,7.20668994140625,0.011146311648190022,0.03187158331274986,0.013895349577069283
1782846022857695000,7.216695068359375,0.009507136419415474,0.030903257429599762,0.005347135476768017
1782846022867700200,7.2267001953125,0.007597768679261208,0.024543190374970436,-0.003685553092509508
1782846022877706000,7.2367060546875,0.007088040001690388,0.016421880573034286,-0.012210864573717117
1782846022887711000,7.2467109375,0.008715051226317883,0.01394450943917036,-0.019391082227230072
1782846022897716000,7.256716064453125,0.0062886448577046394,0.005796568002551794,-0.01630634255707264
1782846022907722000,7.266721923828125,0.003960010129958391,-0.001147434115409851,-0.00408054469153285
1782846022917727000,7.27672705078125,0.0037003522738814354,0.002997776260599494,-0.0033138208091259003
1782846022927732000,7.28673193359375,0.003749363822862506,0.009447180666029453,-0.0018166503868997097
1782846022937738000,7.296738037109375,-0.0005593645619228482,0.007691624574363232,0.002162112155929208
1782846022947743000,7.306742919921875,-0.001900342758744955,0.006902921013534069,0.006291087716817856
1782846022957748000,7.316748046875,-0.005235419608652592,0.00370526360347867,0.008059159852564335
1782846022967754000,7.32675390625,-0.0023364063818007708,0.003943127579987049,0.007743495982140303
1782846022977759000,7.336759033203125,-0.004080777056515217,0.0032887891866266727,0.009160296991467476
1782846022987764000,7.346763916015625,-0.0077537475153803825,0.0019545506220310926,0.011106916703283787
1782846022997770000,7.35677001953125,-0.006505523808300495,0.006926672533154488,0.005895642563700676
1782846023007775000,7.36677490234375,-0.005602549761533737,0.008387992158532143,0.004981566220521927
1782846023017780000,7.376780029296875,-0.008319772779941559,0.006929911673069,0.008204789832234383
1782846023027785000,7.386784912109375,-0.007259516976773739,0.006946401204913855,0.007743703201413155
1782846023037791000,7.396791015625,-0.004876786842942238,0.0005476241931319237,0.0036714638117700815
1782846023047796000,7.4067958984375,-0.002465303521603346,0.0014541373820975423,0.0007207401213236153
1782846023057801000,7.416801025390625,-0.004966810345649719,0.0005800880026072264,-0.0013312253868207335
1782846023067807000,7.426806884765625,-0.0038581795524805784,-0.00503087742254138,0.0004379470192361623
1782846023077812000,7.43681201171875,-0.0006506684003397822,-0.002570649143308401,0.001301077427342534
1782846023087817000,7.44681689453125,0.000784209230914712,-0.006439879536628723,0.005761315580457449
1782846023097823000,7.456822998046875,0.00044838455505669117,-0.011300148442387581,0.014244282618165016
1782846023107828000,7.466827880859375,-0.0005308934487402439,-0.011640691198408604,0.024413805454969406
1782846023117833000,7.4768330078125,-0.0020531562622636557,-0.009015347808599472,0.029764894396066666
1782846023127839000,7.4868388671875,-0.0051377518102526665,-0.0028091268613934517,0.03140783682465553
1782846023137844000,7.496843994140625,-0.010669137351214886,0.00494972663000226,0.03041793964803219
1782846023147849000,7.506848876953125,-0.009678184986114502,0.008074119687080383,0.0216029342263937
1782846023157855000,7.51685498046875,-0.008783895522356033,0.012602824717760086,0.008652250282466412
1782846023167860000,7.52685986328125,-0.004766602069139481,0.014504952356219292,-0.004896513186395168
1782846023177865000,7.536864990234375,-0.0050028245896101,0.011049501597881317,-0.006588952150195837
1782846023187871000,7.54687109375,-0.0024264641106128693,0.002168978564441204,-0.007135283667594194
1782846023197876000,7.5568759765625,-0.0014213871909305453,0.0014936011284589767,-0.0039781066589057446
1782846023207881000,7.566880859375,-0.0023777708411216736,0.00039296550676226616,0.010855202563107014
1782846023217886000,7.576885986328125,0.0017104477155953646,0.004028180614113808,0.022098002955317497
1782846023227892000,7.58689208984375,0.004257313907146454,0.00647579412907362,0.03662547469139099
1782846023237897000,7.59689697265625,0.008074688725173473,0.007865697145462036,0.04340561851859093
1782846023247902000,7.60690185546875,0.006356090307235718,0.014030644670128822,0.032523829489946365
1782846023257908200,7.616908203125,0.005908412858843803,0.009346144273877144,0.024319162592291832
1782846023267913200,7.626913330078125,0.00206344504840672,0.0034107130486518145,0.018453363329172134
1782846023277918200,7.636918212890625,0.0033212557900696993,0.00894156564027071,0.011427411809563637
1782846023287924000,7.646924072265625,0.004598559811711311,0.006380914710462093,0.00787519384175539
1782846023297929000,7.656928955078125,-0.0034146253019571304,0.011384994722902775,0.0001056882319971919
1782846023307934000,7.666933837890625,-0.0017869011498987675,0.0109911123290658,0.006045869085937738
1782846023317940500,7.6769404296875,-0.005665529053658247,0.009730372577905655,0.008680800907313824
1782846023327945500,7.686945556640625,-0.0064696939662098885,-0.001173608936369419,0.00599847873672843
1782846023337950500,7.696950439453125,-0.01315316278487444,-0.010318636894226074,0.01570330373942852
1782846023347955500,7.70695556640625,-0.015547102317214012,-0.012633619830012321,0.024981407448649406
1782846023357961500,7.71696142578125,-0.012512430548667908,-0.010190170258283615,0.027069592848420143
1782846023367966500,7.726966552734375,-0.017818041145801544,0.0060761459171772,0.0322975292801857
1782846023377971500,7.736971435546875,-0.028276007622480392,0.028906892985105515,0.024826830253005028
1782846023387977700,7.746977783203125,-0.03198131546378136,0.028105570003390312,0.021210351958870888
1782846023397982700,7.756982666015625,-0.032391976565122604,0.03392377868294716,0.02175576612353325
1782846023407987700,7.76698779296875,-0.03628900274634361,0.024114126339554787,0.02932225540280342
1782846023417993500,7.776993408203125,-0.03350093960762024,0.009535716846585274,0.03751014545559883
1782846023427998500,7.78699853515625,-0.02530248463153839,-0.005143262911587954,0.03850357607007027
1782846023438003500,7.79700341796875,-0.024563990533351898,-0.016941064968705177,0.03930145874619484
1782846023448009500,7.807009521484375,-0.02078017219901085,-0.027114607393741608,0.030353501439094543
1782846023458014500,7.817014404296875,-0.02066405862569809,-0.023806162178516388,0.014939391985535622
1782846023468019500,7.82701953125,-0.017646629363298416,-0.01649380661547184,0.00040523859206587076
1782846023478025500,7.837025390625,-0.015599190257489681,-0.010040169581770897,-0.009764840826392174
1782846023488030500,7.847030517578125,-0.010379153303802013,-0.004755555652081966,-0.016775429248809814
1782846023498035500,7.857035400390625,-0.0022290810011327267,-0.004961417987942696,-0.01607554964721203
1782846023508040400,7.86704052734375,0.001424491172656417,-0.00635137502104044,-0.017510076984763145
1782846023518046500,7.87704638671875,0.007027781568467617,-0.011436414904892445,-0.01748744025826454
1782846023528051500,7.887051513671875,0.012464386411011219,-0.016133084893226624,-0.010982846841216087
1782846023538056400,7.897056396484375,0.020119111984968185,-0.01948387362062931,-0.005647735670208931
1782846023548062500,7.9070625,0.022772984579205513,-0.020834706723690033,0.002825668081641197
1782846023558067500,7.9170673828125,0.03188285976648331,-0.02124243602156639,0.0006163096404634416
1782846023568072400,7.927072509765625,0.037224989384412766,-0.017064806073904037,-0.0029157025273889303
1782846023578078500,7.937078369140625,0.037936318665742874,-0.017397169023752213,-0.009161880239844322
1782846023588083500,7.94708349609375,0.0409916527569294,-0.014161411672830582,-0.01431804709136486
1782846023598088400,7.95708837890625,0.03891332074999809,-0.016213642433285713,-0.022671585902571678
1782846023608094500,7.967094482421875,0.034518346190452576,-0.01902252808213234,-0.024527309462428093
1782846023618099500,7.977099365234375,0.03272390738129616,-0.0199210774153471,-0.023528890684247017
1782846023628104400,7.9871044921875,0.030917026102542877,-0.019619310274720192,-0.016878923401236534
1782846023638109400,7.997109375,0.02786664105951786,-0.01919480226933956,-0.008150145411491394
1782846023648115500,8.007115478515624,0.020919587463140488,-0.022173965349793434,-0.0011308036046102643
1782846023658120400,8.017120361328125,0.020676173269748688,-0.021699123084545135,-0.0037396359257400036
1782846023668125400,8.02712548828125,0.020699644461274147,-0.023753829300403595,-0.002546781674027443
1782846023678131500,8.03713134765625,0.016604766249656677,-0.030916135758161545,-0.012724851258099079
1782846023688136700,8.04713671875,0.014114719815552235,-0.03546798229217529,-0.022669153288006783
1782846023698141700,8.0571416015625,0.00966191478073597,-0.043349605053663254,-0.03830030933022499
1782846023708147500,8.0671474609375,0.006491026841104031,-0.050216421484947205,-0.04644095525145531
1782846023718152400,8.07715234375,0.001376958331093192,-0.05284389480948448,-0.04899226501584053
1782846023728157400,8.087157470703126,-0.00362558476626873,-0.04941960796713829,-0.04625624790787697
1782846023738163500,8.09716357421875,-0.00588154885917902,-0.0363091304898262,-0.04121328517794609
1782846023748168400,8.10716845703125,-0.009585325606167316,-0.019299881532788277,-0.028149638324975967
1782846023758173400,8.11717333984375,-0.010874029248952866,0.0007065827958285809,-0.009452383033931255
1782846023768178400,8.127178466796876,-0.00650432426482439,0.01707354560494423,0.005270162597298622
1782846023778184400,8.137184326171875,-0.0030033322982490063,0.031004274263978004,0.01808129996061325
1782846023788189400,8.147189453125,0.004584812559187412,0.03254677727818489,0.021097062155604362
1782846023798194400,8.1571943359375,0.005586959421634674,0.03343014791607857,0.009927499108016491
1782846023808200700,8.16720068359375,0.009304209612309933,0.024616442620754242,0.0015496680280193686
1782846023818205700,8.177205810546875,0.01804230734705925,0.02322014793753624,-0.01017756201326847
1782846023828210700,8.187210693359376,0.022498860955238342,0.024358170107007027,-0.012277849018573761
1782846023838216400,8.197216552734375,0.03137411177158356,0.02902243100106716,-0.01359105296432972
1782846023848221400,8.207221435546876,0.037911251187324524,0.035457417368888855,-0.0014571200590580702
1782846023858226400,8.217226318359375,0.04287458211183548,0.041587747633457184,0.011157741770148277
1782846023868231400,8.2272314453125,0.05118507146835327,0.03999137878417969,0.030931318178772926
1782846023878237400,8.237237548828125,0.054640255868434906,0.04392806068062782,0.04329584538936615
1782846023888242400,8.247242431640625,0.04951000213623047,0.045045264065265656,0.04660253971815109
1782846023898247400,8.257247314453124,0.04953929781913757,0.04944799840450287,0.03991507366299629
1782846023908253400,8.26725341796875,0.05546398088335991,0.048577435314655304,0.028988748788833618
1782846023918258400,8.277258544921875,0.05596785247325897,0.04895400628447533,0.014326715841889381
1782846023928263400,8.287263427734375,0.05033789575099945,0.04613912105560303,0.005451973993331194
1782846023938269400,8.29726953125,0.04660360887646675,0.045344170182943344,-0.0022075437009334564
1782846023948274400,8.3072744140625,0.043219033628702164,0.04688659682869911,-0.0012703532120212913
1782846023958279400,8.317279541015624,0.041348960250616074,0.048831235617399216,0.008004903793334961
1782846023968285400,8.327285400390625,0.03704196587204933,0.04513011872768402,0.017063217237591743
1782846023978290400,8.33729052734375,0.03433113545179367,0.03848846256732941,0.020063268020749092
1782846023988295700,8.347295654296875,0.033545512706041336,0.026041140779852867,0.02045576088130474
1782846023998300700,8.35730078125,0.02840028703212738,0.019246086478233337,0.013779747299849987
1782846024008306400,8.367306396484375,0.02540675550699234,0.014638671651482582,0.014729327522218227
1782846024018311400,8.3773115234375,0.01612723618745804,0.017131390050053596,0.011751647107303143
1782846024028316400,8.38731640625,0.012273823842406273,0.02701421268284321,0.014578394591808319
1782846024038322400,8.397322509765624,0.006268927827477455,0.03157487511634827,0.02005385421216488
1782846024048327400,8.407327392578125,0.007804085034877062,0.031047368422150612,0.02611042931675911
1782846024058332400,8.41733251953125,0.006896745879203081,0.027509892359375954,0.03025936894118786
1782846024068338400,8.42733837890625,0.0012730855960398912,0.020962657406926155,0.027522539719939232
1782846024078343400,8.437343505859374,-0.0012811521301046014,0.019343188032507896,0.02473367750644684
1782846024088348400,8.447348388671875,-0.0053336843848228455,0.0066548241302371025,0.02047688141465187
1782846024098353400,8.457353515625,-0.011146832257509232,0.004256114829331636,0.01066313311457634
1782846024108359700,8.467359619140625,-0.014233564026653767,0.00201814086176455,0.0028780181892216206
1782846024118364700,8.47736474609375,-0.01874069683253765,0.00563577888533473,-0.0021082181483507156
1782846024128369700,8.48736962890625,-0.021084193140268326,0.014816928654909134,-0.0026164185255765915
1782846024138375400,8.49737548828125,-0.0236930251121521,0.01984577625989914,0.0046228524297475815
1782846024148380400,8.50738037109375,-0.024438660591840744,0.018244395032525063,0.009358392097055912
1782846024158385400,8.517385498046876,-0.023827463388442993,0.017238786444067955,0.016401121392846107
1782846024168391400,8.527391357421875,-0.025922229513525963,0.01088089682161808,0.018392622470855713
1782846024178396400,8.537396484375,-0.022995149716734886,0.00683395704254508,0.020995596423745155
1782846024188401400,8.5474013671875,-0.026963338255882263,0.0020044390112161636,0.024332014843821526
1782846024198407400,8.557407470703126,-0.031836122274398804,-0.0014672577381134033,0.022092564031481743
1782846024208412400,8.567412353515625,-0.03589474782347679,0.0022067632526159286,0.012759272940456867
1782846024218417400,8.57741748046875,-0.03179241344332695,0.010805045254528522,-0.007901264354586601
1782846024228422400,8.58742236328125,-0.03107799030840397,0.012750794179737568,-0.0167640782892704
1782846024238428700,8.5974287109375,-0.03257548809051514,0.010376053862273693,-0.02457939088344574
1782846024248433700,8.60743359375,-0.023846380412578583,0.002627858193591237,-0.02862009033560753
1782846024258438700,8.617438720703126,-0.012830216437578201,0.008432217873632908,-0.017759187147021294
1782846024268444400,8.6274443359375,-0.01188029907643795,0.01542895007878542,-0.006152356043457985
1782846024278449400,8.637449462890626,0.0011489493772387505,0.01224008109420538,0.005519479513168335
1782846024288454700,8.64745458984375,0.01079575065523386,0.012166236527264118,0.01674605906009674
1782846024298460400,8.65746044921875,0.025710519403219223,0.03229307383298874,0.035010818392038345
1782846024308465400,8.66746533203125,0.005497324280440807,0.02106214314699173,0.062021613121032715
1782846024318470700,8.677470703125,-0.001884957542642951,-0.0507180355489254,0.005157265812158585
1782846024328475600,8.6874755859375,0.011011699214577675,-0.09698787331581116,-0.02857271023094654
1782846024338481700,8.697481689453125,0.01934153586626053,-0.13448438048362732,-0.04216388612985611
1782846024348486700,8.707486572265625,0.021975211799144745,-0.1108420267701149,-0.04713628441095352
1782846024358491600,8.71749169921875,0.00810573436319828,-0.07843747735023499,-0.06017884984612465
1782846024368497700,8.72749755859375,-0.004274278879165649,-0.05031205713748932,-0.03337063640356064
1782846024378502700,8.737502685546875,-0.014978322200477123,-0.008489240892231464,0.008181866258382797
1782846024388507600,8.747507568359374,-0.03353319317102432,0.017871329560875893,0.02873307466506958
