time,seconds_elapsed,z,y,x
1782846792176813800,0.066813720703125,-0.90142822265625,-0.9928436279296875,0.1292877197265625
1782846792186818800,0.07681884765625,-0.8486480712890625,-0.8027801513671875,0.1514434814453125
1782846792196822800,0.08682275390625,-0.9657745361328125,-0.6208648681640625,0.1295928955078125
1782846792206827800,0.096827880859375,-1.0742950439453125,-0.4609832763671875,0.1107177734375
1782846792216832800,0.106832763671875,-1.10028076171875,-0.2930145263671875,0.123565673828125
1782846792226836700,0.116836669921875,-1.156494140625,-0.1617889404296875,0.1777496337890625
1782846792236842000,0.126842041015625,-1.2080078125,-0.0771636962890625,0.170806884765625
1782846792246847000,0.136846923828125,-1.12371826171875,-0.0415191650390625,0.107421875
1782846792256850700,0.1468505859375,-0.967132568359375,-0.0513916015625,0.06195068359375
1782846792266855700,0.156855712890625,-0.7863922119140625,-0.0935516357421875,0.03076171875
1782846792276859600,0.166859619140625,-0.6182708740234375,-0.112274169921875,-0.009063720703125
1782846792286864600,0.17686474609375,-0.4817352294921875,-0.126373291015625,-0.0473175048828125
1782846792296869600,0.18686962890625,-0.407135009765625,-0.1300811767578125,-0.0734710693359375
1782846792306873900,0.196873779296875,-0.34918212890625,-0.1317901611328125,-0.066680908203125
1782846792316878800,0.20687890625,-0.2868499755859375,-0.1194000244140625,-0.0561981201171875
1782846792326883800,0.2168837890625,-0.2384490966796875,-0.1184234619140625,-0.075469970703125
1782846792336887800,0.2268876953125,-0.2057952880859375,-0.0932464599609375,-0.073883056640625
1782846792346892800,0.236892822265625,-0.1966400146484375,-0.066009521484375,-0.067657470703125
1782846792356897800,0.246897705078125,-0.20074462890625,-0.051361083984375,-0.05426025390625
1782846792366901800,0.25690185546875,-0.222015380859375,-0.0338592529296875,-0.03985595703125
1782846792376906800,0.26690673828125,-0.2660369873046875,0.000152587890625,-0.0139617919921875
1782846792386911000,0.276910888671875,-0.323455810546875,0.074249267578125,0.04052734375
1782846792396916000,0.286916015625,-0.4281768798828125,0.1438140869140625,0.090179443359375
1782846792406921000,0.2969208984375,-0.5138397216796875,0.165740966796875,0.1093902587890625
1782846792416924700,0.306924560546875,-0.5990753173828125,0.1664276123046875,0.1140594482421875
1782846792426929700,0.3169296875,-0.684844970703125,0.1428680419921875,0.1014251708984375
1782846792436934700,0.3269345703125,-0.7480010986328125,0.0985565185546875,0.088958740234375
1782846792446939000,0.33693896484375,-0.81500244140625,0.042938232421875,0.0780029296875
1782846792456943900,0.34694384765625,-0.9295654296875,-0.0260772705078125,0.0826873779296875
1782846792466948900,0.356948974609375,-1.0704498291015625,-0.0978546142578125,0.10455322265625
1782846792476952800,0.366952880859375,-1.2109222412109375,-0.2036590576171875,0.1308441162109375
1782846792486957800,0.376957763671875,-1.35540771484375,-0.3380584716796875,0.1368865966796875
1782846792496961800,0.3869619140625,-1.495330810546875,-0.44683837890625,0.146240234375
1782846792506966800,0.396966796875,-1.67999267578125,-0.5099334716796875,0.17547607421875
1782846792516971800,0.4069716796875,-1.896728515625,-0.524749755859375,0.2196502685546875
1782846792526975700,0.416975830078125,-2.123138427734375,-0.49053955078125,0.316436767578125
1782846792536981000,0.42698095703125,-2.379730224609375,-0.4022216796875,0.4604644775390625
1782846792546986000,0.436986083984375,-2.6143798828125,-0.3300628662109375,0.57330322265625
1782846792556990000,0.446989990234375,-2.76947021484375,-0.3443603515625,0.5574798583984375
1782846792566995000,0.456994873046875,-2.8505859375,-0.412078857421875,0.444305419921875
1782846792577000000,0.467,-2.829376220703125,-0.5120086669921875,0.30303955078125
1782846792587003600,0.477003662109375,-2.7053680419921875,-0.6046142578125,0.201263427734375
1782846792597008600,0.487008544921875,-2.523468017578125,-0.68231201171875,0.1685028076171875
1782846792607013600,0.497013671875,-2.3069610595703125,-0.764007568359375,0.1298065185546875
1782846792617017900,0.507017822265625,-2.0752410888671875,-0.8162078857421875,0.049163818359375
1782846792627022800,0.51702294921875,-1.8663482666015625,-0.8033294677734375,-0.018890380859375
1782846792637026800,0.52702685546875,-1.742767333984375,-0.7455902099609375,-0.0141143798828125
1782846792647031800,0.53703173828125,-1.680084228515625,-0.6220550537109375,0.0574951171875
1782846792657036800,0.547036865234375,-1.5753631591796875,-0.4660491943359375,0.147979736328125
1782846792667040800,0.557040771484375,-1.4051513671875,-0.29681396484375,0.2527008056640625
1782846792677045800,0.567045654296875,-1.2181854248046875,-0.1665496826171875,0.3287200927734375
1782846792687050800,0.57705078125,-1.02203369140625,-0.11456298828125,0.35174560546875
1782846792697055000,0.587054931640625,-0.7714385986328125,-0.1128387451171875,0.3445281982421875
1782846792707060000,0.59706005859375,-0.4785919189453125,-0.1305694580078125,0.3077239990234375
1782846792717065000,0.60706494140625,-0.2010345458984375,-0.1307525634765625,0.2549285888671875
1782846792727069000,0.61706884765625,0.0113677978515625,-0.097503662109375,0.167388916015625
1782846792737074000,0.627073974609375,0.115875244140625,-0.0739898681640625,0.04022216796875
1782846792747077600,0.63707763671875,0.1441802978515625,-0.0474090576171875,-0.0826416015625
1782846792757082600,0.64708251953125,0.144134521484375,0.0073394775390625,-0.1749420166015625
1782846792767087600,0.657087646484375,0.088958740234375,0.0695648193359375,-0.255950927734375
1782846792777091800,0.667091796875,0.039459228515625,0.143890380859375,-0.29046630859375
1782846792787096800,0.677096923828125,0.0538482666015625,0.2011871337890625,-0.285552978515625
1782846792797101800,0.687101806640625,0.1123199462890625,0.2108612060546875,-0.2509613037109375
1782846792807105800,0.697105712890625,0.160125732421875,0.187042236328125,-0.20916748046875
1782846792817111300,0.707111328125,0.194580078125,0.143829345703125,-0.163726806640625
1782846792827116300,0.7171162109375,0.212799072265625,0.0990753173828125,-0.128204345703125
1782846792837120300,0.727120361328125,0.228424072265625,0.067413330078125,-0.0890045166015625
1782846792847125200,0.737125244140625,0.23583984375,0.04254150390625,-0.04937744140625
1782846792857130200,0.747130126953125,0.2380523681640625,0.018707275390625,-0.0047760009765625
1782846792867134200,0.75713427734375,0.2298736572265625,-0.003021240234375,0.04345703125
1782846792877139500,0.767139404296875,0.21392822265625,-0.0121307373046875,0.08477783203125
1782846792887143400,0.777143310546875,0.1954193115234375,-0.0105133056640625,0.1241302490234375
1782846792897148400,0.7871484375,0.1771697998046875,-0.0126953125,0.1485137939453125
1782846792907153400,0.7971533203125,0.1646881103515625,-0.011810302734375,0.162933349609375
1782846792917157400,0.807157470703125,0.1374359130859375,-0.0092620849609375,0.167083740234375
1782846792927162400,0.817162353515625,0.107086181640625,-0.00201416015625,0.1575775146484375
1782846792937167400,0.82716748046875,0.064453125,0.006988525390625,0.1335906982421875
1782846792947171300,0.83717138671875,0.0076904296875,0.001312255859375,0.101837158203125
1782846792957176300,0.84717626953125,-0.0723419189453125,-0.01593017578125,0.055023193359375
1782846792967181300,0.857181396484375,-0.164337158203125,-0.033203125,0.003387451171875
1782846792977185300,0.867185302734375,-0.2657928466796875,-0.0603790283203125,-0.023895263671875
1782846792987190300,0.877190185546875,-0.447845458984375,-0.1181488037109375,-0.066497802734375
1782846792997194200,0.8871943359375,-0.66949462890625,-0.2277679443359375,-0.0963287353515625
1782846793007199200,0.89719921875,-0.8795013427734375,-0.3515777587890625,-0.0793304443359375
1782846793017204200,0.907204345703125,-1.1083526611328125,-0.4989013671875,-0.0298614501953125
1782846793027208400,0.91720849609375,-1.299468994140625,-0.661407470703125,-0.0103912353515625
1782846793037213400,0.92721337890625,-1.457550048828125,-0.7617034912109375,0.044036865234375
1782846793047218400,0.937218505859375,-1.631866455078125,-0.75946044921875,0.1960601806640625
1782846793057222400,0.947222412109375,-1.8357391357421875,-0.5692901611328125,0.4001617431640625
1782846793067227400,0.957227294921875,-2.102081298828125,-0.424072265625,0.4937286376953125
1782846793077232400,0.967232421875,-2.4598846435546875,-0.4717559814453125,0.4738006591796875
1782846793087236400,0.977236328125,-2.7377166748046875,-0.571929931640625,0.3631439208984375
1782846793097241300,0.987241455078125,-2.7932891845703125,-0.610504150390625,0.27056884765625
1782846793107246300,0.997246337890625,-2.7337493896484375,-0.59722900390625,0.2526397705078125
1782846793117250300,1.007250244140625,-2.6279754638671875,-0.560516357421875,0.28997802734375
1782846793127255300,1.01725537109375,-2.475372314453125,-0.5207061767578125,0.3565521240234375
1782846793137259300,1.02725927734375,-2.30889892578125,-0.5000762939453125,0.38262939453125
1782846793147264300,1.03726416015625,-2.1238250732421875,-0.4926910400390625,0.358917236328125
1782846793157269200,1.047269287109375,-1.90533447265625,-0.5219268798828125,0.293243408203125
1782846793167273200,1.057273193359375,-1.659881591796875,-0.5661163330078125,0.224090576171875
1782846793177278200,1.0672783203125,-1.3997039794921875,-0.573760986328125,0.1894683837890625
1782846793187283200,1.077283203125,-1.1779327392578125,-0.5168304443359375,0.1871490478515625
1782846793197287400,1.087287353515625,-1.0586700439453125,-0.4280242919921875,0.1804962158203125
1782846793207292400,1.09729248046875,-1.0272216796875,-0.3473663330078125,0.1476898193359375
1782846793217297400,1.10729736328125,-1.003448486328125,-0.2483673095703125,0.1167449951171875
1782846793227301400,1.11730126953125,-0.9573974609375,-0.1498565673828125,0.08770751953125
1782846793237306400,1.127306396484375,-0.908721923828125,-0.0896759033203125,0.0489349365234375
1782846793247310300,1.137310302734375,-0.850494384765625,-0.0310516357421875,0.0125885009765625
1782846793257315300,1.1473154296875,-0.76617431640625,0.0176544189453125,-0.0200042724609375
1782846793267320300,1.1573203125,-0.65179443359375,0.0379486083984375,-0.0487213134765625
1782846793277324300,1.16732421875,-0.5311279296875,0.0402069091796875,-0.071075439453125
1782846793287329300,1.177329345703125,-0.416534423828125,0.032196044921875,-0.0882415771484375
1782846793297334300,1.187334228515625,-0.327911376953125,0.0177764892578125,-0.1140594482421875
1782846793307338200,1.197338134765625,-0.2722625732421875,0.0030975341796875,-0.13067626953125
1782846793317343200,1.20734326171875,-0.2332305908203125,-0.017425537109375,-0.1340484619140625
1782846793327348200,1.21734814453125,-0.2108612060546875,-0.0374908447265625,-0.120697021484375
1782846793337352200,1.227352294921875,-0.21234130859375,-0.0513763427734375,-0.1042938232421875
1782846793347357200,1.237357177734375,-0.2324066162109375,-0.046661376953125,-0.0873260498046875
1782846793357361400,1.247361328125,-0.24945068359375,-0.031829833984375,-0.061187744140625
1782846793367366400,1.257366455078125,-0.2639312744140625,-0.037445068359375,-0.03521728515625
1782846793377371400,1.267371337890625,-0.28955078125,-0.0426025390625,0.0128021240234375
1782846793387375400,1.277375244140625,-0.3331298828125,-0.0432891845703125,0.06549072265625
1782846793397380400,1.28738037109375,-0.3863677978515625,-0.0373687744140625,0.086883544921875
1782846793407385300,1.29738525390625,-0.4513702392578125,-0.02288818359375,0.09698486328125
1782846793417389300,1.307389404296875,-0.5173492431640625,-0.0101776123046875,0.08917236328125
1782846793427394300,1.317394287109375,-0.5760040283203125,0.01092529296875,0.077392578125
1782846793437399300,1.3273994140625,-0.6390380859375,0.026519775390625,0.0995635986328125
1782846793447403300,1.3374033203125,-0.6976470947265625,0.0275421142578125,0.1260528564453125
1782846793457408300,1.347408203125,-0.752197265625,0.025726318359375,0.1708526611328125
1782846793467413200,1.357413330078125,-0.795013427734375,0.0112457275390625,0.209564208984375
1782846793477417200,1.367417236328125,-0.8383941650390625,-0.0211944580078125,0.2298126220703125
1782846793487422200,1.377422119140625,-0.8936004638671875,-0.0734710693359375,0.216033935546875
1782846793497427200,1.38742724609375,-0.979888916015625,-0.142547607421875,0.1667327880859375
1782846793507431200,1.39743115234375,-1.092681884765625,-0.2211151123046875,0.0937042236328125
1782846793517436200,1.407436279296875,-1.2400970458984375,-0.31060791015625,0.0079345703125
1782846793527440400,1.4174404296875,-1.4771728515625,-0.38671875,-0.07220458984375
1782846793537445400,1.4274453125,-1.80767822265625,-0.419647216796875,-0.0948486328125
1782846793547450400,1.437450439453125,-2.10595703125,-0.4399261474609375,-0.03240966796875
1782846793557454300,1.447454345703125,-2.2983551025390625,-0.4707489013671875,0.085205078125
1782846793567459300,1.457459228515625,-2.4346923828125,-0.48760986328125,0.2481689453125
1782846793577464300,1.46746435546875,-2.5451812744140625,-0.53912353515625,0.3803558349609375
1782846793587468300,1.47746826171875,-2.6616058349609375,-0.667205810546875,0.4362335205078125
1782846793597473300,1.487473388671875,-2.7398681640625,-0.7337646484375,0.43865966796875
1782846793607478300,1.497478271484375,-2.7636566162109375,-0.7139892578125,0.3889923095703125
1782846793617482200,1.507482177734375,-2.718902587890625,-0.6895751953125,0.2737274169921875
1782846793627487200,1.5174873046875,-2.6198883056640625,-0.6584320068359375,0.132781982421875
1782846793637491200,1.5274912109375,-2.5045318603515625,-0.6213836669921875,-0.016326904296875
1782846793647496200,1.53749609375,-2.343475341796875,-0.598846435546875,-0.148162841796875
1782846793657501200,1.547501220703125,-2.1689605712890625,-0.5690765380859375,-0.204193115234375
1782846793667505200,1.557505126953125,-1.9718170166015625,-0.4998779296875,-0.16021728515625
1782846793677510100,1.56751025390625,-1.750732421875,-0.3727264404296875,-0.041534423828125
1782846793687515100,1.57751513671875,-1.588836669921875,-0.2235870361328125,0.0727996826171875
1782846793697519400,1.587519287109375,-1.427703857421875,-0.1038970947265625,0.1294403076171875
1782846793707524400,1.5975244140625,-1.1923675537109375,-0.024169921875,0.1501312255859375
1782846793717529300,1.607529296875,-0.93292236328125,-0.0174407958984375,0.1412353515625
1782846793727533300,1.617533203125,-0.661102294921875,-0.0613555908203125,0.1369781494140625
1782846793737538300,1.627538330078125,-0.38763427734375,-0.1054534912109375,0.142852783203125
1782846793747542300,1.637542236328125,-0.1453094482421875,-0.106903076171875,0.1395721435546875
1782846793757547300,1.64754736328125,0.037872314453125,-0.071380615234375,0.11248779296875
1782846793767552300,1.65755224609375,0.1574859619140625,-0.02349853515625,0.0697479248046875
1782846793777556200,1.66755615234375,0.2286224365234375,0.014495849609375,0.0144195556640625
1782846793787561500,1.6775615234375,0.2536773681640625,0.0411529541015625,-0.041534423828125
1782846793797566500,1.68756640625,0.218353271484375,0.0870513916015625,-0.086273193359375
1782846793807570200,1.697570068359375,0.1727294921875,0.1454315185546875,-0.114776611328125
1782846793817574700,1.70757470703125,0.1598052978515625,0.16522216796875,-0.118011474609375
1782846793827579600,1.71757958984375,0.18487548828125,0.152496337890625,-0.1007080078125
1782846793837584000,1.727583984375,0.22955322265625,0.107757568359375,-0.0823974609375
1782846793847588900,1.7375888671875,0.2782135009765625,0.0520477294921875,-0.062530517578125
1782846793857593900,1.74759375,0.3122406005859375,0.00830078125,-0.0237884521484375
1782846793867597800,1.757597900390625,0.3272857666015625,-0.024566650390625,0.0152435302734375
1782846793877602800,1.767602783203125,0.3339385986328125,-0.050323486328125,0.041107177734375
1782846793887606800,1.777606689453125,0.31317138671875,-0.063079833984375,0.0465850830078125
1782846793897611800,1.78761181640625,0.2673797607421875,-0.0564422607421875,0.043792724609375
1782846793907616800,1.79761669921875,0.2126922607421875,-0.044281005859375,0.03302001953125
1782846793917621000,1.80762109375,0.146270751953125,-0.0329437255859375,0.02581787109375
1782846793927626000,1.8176259765625,0.0926971435546875,-0.01873779296875,0.037200927734375
1782846793937631000,1.827630859375,0.0519256591796875,-0.0042266845703125,0.0546112060546875
1782846793947634700,1.837634765625,0.0014801025390625,0.014678955078125,0.077117919921875
1782846793957639700,1.8476396484375,-0.0494384765625,0.0251617431640625,0.092498779296875
1782846793967644700,1.857644775390625,-0.1000213623046875,0.040802001953125,0.10516357421875
1782846793977648600,1.867648681640625,-0.1608428955078125,0.05743408203125,0.099884033203125
1782846793987653600,1.877653564453125,-0.2357940673828125,0.04296875,0.073699951171875
1782846793997658600,1.88765869140625,-0.3482208251953125,0.0143280029296875,0.0330963134765625
1782846794007662800,1.897662841796875,-0.4907379150390625,-0.0514678955078125,-0.0102996826171875
1782846794017667800,1.907667724609375,-0.6532135009765625,-0.133636474609375,-0.0400238037109375
1782846794027671800,1.917671875,-0.87286376953125,-0.22088623046875,-0.046417236328125
1782846794037676800,1.9276767578125,-1.119598388671875,-0.3226470947265625,0.003265380859375
1782846794047681800,1.937681884765625,-1.3134307861328125,-0.4191131591796875,0.075347900390625
1782846794057685800,1.947685791015625,-1.4932403564453125,-0.5131072998046875,0.1230316162109375
1782846794067690800,1.957690673828125,-1.671630859375,-0.6241912841796875,0.200408935546875
1782846794077695700,1.96769580078125,-1.76080322265625,-0.69940185546875,0.31243896484375
1782846794087700000,1.977699951171875,-1.8213043212890625,-0.582366943359375,0.4140625
1782846794097705000,1.987705078125,-2.06842041015625,-0.6786651611328125,0.3271484375
1782846794107710000,1.9977099609375,-2.392242431640625,-0.8804779052734375,0.215911865234375
1782846794117713700,2.007713623046875,-2.60284423828125,-0.7891998291015625,0.22216796875
1782846794127718700,2.01771875,-2.751312255859375,-0.4717864990234375,0.3078155517578125
1782846794137722600,2.02772265625,-2.8997344970703125,-0.18646240234375,0.4117889404296875
1782846794147727600,2.0377275390625,-2.87249755859375,0.0135345458984375,0.48785400390625
1782846794157732600,2.047732666015625,-2.65948486328125,0.08502197265625,0.4791107177734375
1782846794167736800,2.05773681640625,-2.3502655029296875,-0.0703277587890625,0.3325347900390625
1782846794177741800,2.067741943359375,-1.956146240234375,-0.39617919921875,0.1737823486328125
1782846794187746800,2.077746826171875,-1.455291748046875,-0.73565673828125,0.0998687744140625
1782846794197750800,2.087750732421875,-0.9549407958984375,-0.841888427734375,0.0980224609375
1782846794207755800,2.097755859375,-0.677215576171875,-0.7662200927734375,0.07122802734375
1782846794217760800,2.1077607421875,-0.7085723876953125,-0.6561126708984375,-0.0259552001953125
1782846794227764700,2.1177646484375,-0.904266357421875,-0.518310546875,-0.1401519775390625
1782846794237769700,2.127769775390625,-1.0716094970703125,-0.344146728515625,-0.175018310546875
1782846794247774700,2.137774658203125,-1.20196533203125,-0.208099365234375,-0.17742919921875
1782846794257779000,2.147779052734375,-1.26556396484375,-0.0894927978515625,-0.1234283447265625
1782846794267784000,2.157783935546875,-1.24298095703125,0.0167694091796875,-0.026641845703125
1782846794277787600,2.16778759765625,-1.16168212890625,0.089569091796875,0.0658721923828125
1782846794287792600,2.177792724609375,-1.0532684326171875,0.1183929443359375,0.126312255859375
1782846794297797600,2.187797607421875,-0.9043121337890625,0.1144866943359375,0.1263427734375
1782846794307801600,2.197801513671875,-0.746490478515625,0.100555419921875,0.0906982421875
1782846794317806800,2.207806884765625,-0.598724365234375,0.0679931640625,0.0520782470703125
1782846794327811800,2.217811767578125,-0.444976806640625,0.021881103515625,0.013427734375
1782846794337815800,2.22781591796875,-0.3057708740234375,-0.0175933837890625,-0.012664794921875
1782846794347820800,2.23782080078125,-0.2000579833984375,-0.044219970703125,-0.02679443359375
1782846794357825800,2.24782568359375,-0.1298065185546875,-0.05291748046875,-0.0291900634765625
1782846794367829800,2.257829833984375,-0.0884857177734375,-0.055084228515625,-0.016876220703125
1782846794377834800,2.267834716796875,-0.0686187744140625,-0.0494842529296875,0.005279541015625
1782846794387839700,2.27783984375,-0.0688018798828125,-0.0428009033203125,0.026092529296875
1782846794397843700,2.28784375,-0.0911102294921875,-0.0472259521484375,0.04522705078125
1782846794407849000,2.297848876953125,-0.1301727294921875,-0.0567474365234375,0.0599212646484375
1782846794417853000,2.30785302734375,-0.1753082275390625,-0.05303955078125,0.0658111572265625
1782846794427858000,2.31785791015625,-0.220855712890625,-0.0324554443359375,0.0789642333984375
1782846794437863000,2.32786279296875,-0.27313232421875,-0.03204345703125,0.0944671630859375
1782846794447867000,2.337866943359375,-0.319244384765625,-0.0405731201171875,0.097137451171875
1782846794457872000,2.347871826171875,-0.3705291748046875,-0.0601806640625,0.1239013671875
1782846794467876900,2.357876953125,-0.4333953857421875,-0.071563720703125,0.1406707763671875
1782846794477880800,2.367880859375,-0.5201263427734375,-0.07086181640625,0.142669677734375
1782846794487885800,2.3778857421875,-0.640716552734375,-0.0719757080078125,0.1151123046875
1782846794497890800,2.387890869140625,-0.7709197998046875,-0.0882568359375,0.07391357421875
1782846794507894800,2.397894775390625,-0.88714599609375,-0.1163482666015625,0.0140838623046875
1782846794517899800,2.407899658203125,-1.000030517578125,-0.159149169921875,-0.0552520751953125
1782846794527903700,2.41790380859375,-1.1062774658203125,-0.201080322265625,-0.0888671875
1782846794537908700,2.42790869140625,-1.218902587890625,-0.2270050048828125,-0.0723419189453125
1782846794547913700,2.437913818359375,-1.3410797119140625,-0.24114990234375,-0.02410888671875
1782846794557918000,2.44791796875,-1.477569580078125,-0.2587432861328125,0.0238189697265625
1782846794567923000,2.4579228515625,-1.650848388671875,-0.2888946533203125,0.0652618408203125
1782846794577928000,2.467927978515625,-1.8831939697265625,-0.33026123046875,0.0997467041015625
1782846794587932000,2.477931884765625,-2.16241455078125,-0.3538360595703125,0.1356048583984375
1782846794597937000,2.48793701171875,-2.4181060791015625,-0.3472747802734375,0.1756439208984375
1782846794607942000,2.49794189453125,-2.6070098876953125,-0.357269287109375,0.228271484375
1782846794617945900,2.50794580078125,-2.7015533447265625,-0.434173583984375,0.2900543212890625
1782846794627950800,2.517950927734375,-2.6993865966796875,-0.5523529052734375,0.3483428955078125
1782846794637955800,2.527955810546875,-2.64013671875,-0.659423828125,0.3991546630859375
1782846794647959800,2.537959716796875,-2.58221435546875,-0.705352783203125,0.4250030517578125
1782846794657964800,2.54796484375,-2.5770721435546875,-0.687225341796875,0.423736572265625
1782846794667968800,2.55796875,-2.5960693359375,-0.6167755126953125,0.4075927734375
1782846794677973800,2.567973876953125,-2.614044189453125,-0.4951171875,0.42047119140625
1782846794687978800,2.577978759765625,-2.5733642578125,-0.342498779296875,0.4374847412109375
1782846794697982700,2.587982666015625,-2.454620361328125,-0.197052001953125,0.439788818359375
1782846794707987700,2.59798779296875,-2.2413787841796875,-0.0786590576171875,0.4223480224609375
1782846794717992700,2.60799267578125,-1.9391937255859375,-0.0118560791015625,0.3729248046875
1782846794727997000,2.617996826171875,-1.5807342529296875,0.0042572021484375,0.313507080078125
1782846794738002000,2.628001953125,-1.1883697509765625,-0.016510009765625,0.2711944580078125
1782846794748007000,2.6380068359375,-0.819610595703125,-0.045989990234375,0.2382354736328125
1782846794758011000,2.648010986328125,-0.5101470947265625,-0.053924560546875,0.198974609375
1782846794768016000,2.658015869140625,-0.2682342529296875,-0.0511627197265625,0.1392364501953125
1782846794778019800,2.668019775390625,-0.0882110595703125,-0.0373077392578125,0.04803466796875
1782846794788024800,2.67802490234375,0.0370330810546875,-0.0121917724609375,-0.0502777099609375
1782846794798029800,2.68802978515625,0.1367034912109375,0.007965087890625,-0.143798828125
1782846794808033800,2.69803369140625,0.189849853515625,0.038665771484375,-0.23724365234375
1782846794818039600,2.70803955078125,0.2094268798828125,0.0897216796875,-0.323944091796875
1782846794828044500,2.71804443359375,0.2237091064453125,0.1250152587890625,-0.37689208984375
1782846794838048800,2.728048828125,0.23577880859375,0.1474761962890625,-0.3996734619140625
1782846794848053800,2.7380537109375,0.253448486328125,0.157562255859375,-0.4018402099609375
1782846794858058800,2.748058837890625,0.2704315185546875,0.1435546875,-0.39593505859375
1782846794868062500,2.7580625,0.2889556884765625,0.126708984375,-0.3709564208984375
1782846794878067500,2.7680673828125,0.3038177490234375,0.103729248046875,-0.332733154296875
1782846794888072400,2.778072509765625,0.316497802734375,0.0794219970703125,-0.2693634033203125
1782846794898076400,2.788076416015625,0.323944091796875,0.0604400634765625,-0.179840087890625
1782846794908081400,2.798081298828125,0.324127197265625,0.04425048828125,-0.064117431640625
1782846794918085600,2.808085693359375,0.30572509765625,0.039947509765625,0.05560302734375
1782846794928090600,2.818090576171875,0.269256591796875,0.0375213623046875,0.1327972412109375
1782846794938095600,2.828095703125,0.2257843017578125,0.0509490966796875,0.17022705078125
1782846794948099600,2.838099609375,0.1918792724609375,0.0597381591796875,0.1616363525390625
1782846794958104600,2.8481044921875,0.140716552734375,0.036407470703125,0.123046875
1782846794968109600,2.858109619140625,0.0722808837890625,0.02252197265625,0.08709716796875
1782846794978113500,2.868113525390625,0.0012054443359375,0.0289306640625,0.0793304443359375
1782846794988118500,2.878118408203125,-0.0934906005859375,0.04754638671875,0.0753173828125
1782846794998123500,2.88812353515625,-0.2118377685546875,0.0458526611328125,0.0712738037109375
1782846795008127700,2.898127685546875,-0.3396453857421875,0.01947021484375,0.0945281982421875
1782846795018132700,2.9081328125,-0.4444122314453125,-0.03118896484375,0.1392974853515625
1782846795028136400,2.918136474609375,-0.5484466552734375,-0.0856170654296875,0.2040863037109375
1782846795038141400,2.928141357421875,-0.699371337890625,-0.1265869140625,0.27215576171875
1782846795048146400,2.938146484375,-0.897064208984375,-0.190704345703125,0.2917633056640625
1782846795058150700,2.948150634765625,-1.123046875,-0.2848052978515625,0.262237548828125
1782846795068155600,2.95815576171875,-1.351959228515625,-0.3703765869140625,0.2145538330078125
1782846795078160600,2.96816064453125,-1.5372467041015625,-0.422271728515625,0.1813812255859375
1782846795088164600,2.97816455078125,-1.6373443603515625,-0.45965576171875,0.2108917236328125
1782846795098169600,2.988169677734375,-1.696685791015625,-0.48193359375,0.3213958740234375
1782846795108174600,2.998174560546875,-1.821624755859375,-0.50897216796875,0.3923187255859375
1782846795118178600,3.008178466796875,-2.024627685546875,-0.6630401611328125,0.340850830078125
1782846795128183600,3.01818359375,-2.24395751953125,-0.8379669189453125,0.2275390625
1782846795138187500,3.0281875,-2.4645538330078125,-0.778564453125,0.18377685546875
1782846795148192800,3.03819287109375,-2.6925048828125,-0.5328826904296875,0.2423858642578125
1782846795158197800,3.04819775390625,-2.7914581298828125,-0.24700927734375,0.3625335693359375
1782846795168201700,3.05820166015625,-2.670196533203125,0.0101318359375,0.4437103271484375
1782846795178206700,3.068206787109375,-2.4650726318359375,0.11175537109375,0.3955078125
1782846795188211700,3.078211669921875,-2.2106781005859375,0.0084381103515625,0.2291259765625
1782846795198215400,3.08821533203125,-1.8956298828125,-0.235504150390625,0.0479736328125
1782846795208220400,3.098220458984375,-1.5043487548828125,-0.5630950927734375,-0.0455169677734375
1782846795218225400,3.108225341796875,-1.0594635009765625,-0.790496826171875,-0.0225982666015625
1782846795228229600,3.118229736328125,-0.742218017578125,-0.8118896484375,0.0657806396484375
1782846795238234600,3.128234619140625,-0.67327880859375,-0.7105712890625,0.1161956787109375
1782846795248239600,3.138239501953125,-0.77679443359375,-0.5455474853515625,0.1159515380859375
1782846795258243600,3.14824365234375,-0.920379638671875,-0.3718109130859375,0.0638580322265625
1782846795268248600,3.15824853515625,-0.988006591796875,-0.226348876953125,0.055389404296875
1782846795278252500,3.16825244140625,-1.02386474609375,-0.094024658203125,0.0701904296875
1782846795288257500,3.178257568359375,-1.0818023681640625,0.022613525390625,0.0811004638671875
1782846795298262500,3.188262451171875,-1.0727691650390625,0.102508544921875,0.0813446044921875
1782846795308266800,3.198266845703125,-0.9747314453125,0.1413116455078125,0.07562255859375
1782846795318271700,3.208271728515625,-0.842620849609375,0.14501953125,0.059326171875
1782846795328276700,3.21827685546875,-0.716949462890625,0.116241455078125,0.027008056640625
1782846795338280700,3.22828076171875,-0.6117095947265625,0.0904998779296875,-0.0006866455078125
1782846795348285700,3.23828564453125,-0.5022735595703125,0.057098388671875,-0.0270233154296875
1782846795358290700,3.248290771484375,-0.40716552734375,0.0111541748046875,-0.0473480224609375
1782846795368294400,3.25829443359375,-0.3240509033203125,-0.01824951171875,-0.066619873046875
1782846795378299400,3.26829931640625,-0.2676239013671875,-0.03369140625,-0.0709991455078125
1782846795388304400,3.278304443359375,-0.23175048828125,-0.0451202392578125,-0.0686187744140625
1782846795398308600,3.28830859375,-0.21795654296875,-0.048187255859375,-0.060455322265625
1782846795408313600,3.298313720703125,-0.228729248046875,-0.057861328125,-0.0600128173828125
1782846795418317600,3.308317626953125,-0.2552947998046875,-0.0600128173828125,-0.047760009765625
1782846795428322600,3.318322509765625,-0.2896728515625,-0.048126220703125,-0.0154571533203125
1782846795438327600,3.32832763671875,-0.322967529296875,-0.0352020263671875,0.0328216552734375
1782846795448331500,3.33833154296875,-0.3578948974609375,-0.03375244140625,0.0638580322265625
1782846795458336500,3.34833642578125,-0.3918609619140625,-0.02606201171875,0.0797119140625
1782846795468341500,3.358341552734375,-0.45654296875,0.000335693359375,0.097442626953125
1782846795478345700,3.368345703125,-0.5487823486328125,0.025238037109375,0.097442626953125
1782846795488350700,3.378350830078125,-0.61712646484375,0.0366058349609375,0.0777435302734375
1782846795498355700,3.388355712890625,-0.6692352294921875,0.0363922119140625,0.0416259765625
1782846795508359700,3.398359619140625,-0.7259368896484375,0.0289306640625,-0.0044708251953125
1782846795518364700,3.40836474609375,-0.780548095703125,0.001251220703125,-0.0461883544921875
1782846795528369700,3.41836962890625,-0.850921630859375,-0.035858154296875,-0.0871734619140625
1782846795538373600,3.42837353515625,-0.9594879150390625,-0.07525634765625,-0.1126861572265625
1782846795548378600,3.438378662109375,-1.0807647705078125,-0.1246185302734375,-0.11151123046875
1782846795558382600,3.448382568359375,-1.2088165283203125,-0.1698150634765625,-0.0768890380859375
1782846795568387600,3.4583876953125,-1.340545654296875,-0.2154693603515625,-0.0150146484375
1782846795578392600,3.468392578125,-1.478240966796875,-0.2803802490234375,0.02642822265625
1782846795588396500,3.478396484375,-1.634368896484375,-0.3316802978515625,0.053680419921875
1782846795598401500,3.488401611328125,-1.8387451171875,-0.342132568359375,0.0963592529296875
1782846795608406500,3.498406494140625,-2.0630645751953125,-0.326141357421875,0.1483306884765625
1782846795618410500,3.508410400390625,-2.263671875,-0.3324737548828125,0.19805908203125
1782846795628415500,3.51841552734375,-2.429595947265625,-0.372283935546875,0.24676513671875
1782846795638420500,3.52842041015625,-2.56011962890625,-0.4222412109375,0.2816162109375
1782846795648424700,3.5384248046875,-2.6207122802734375,-0.4754791259765625,0.272918701171875
1782846795658429700,3.5484296875,-2.64892578125,-0.516815185546875,0.2176361083984375
1782846795668433700,3.55843359375,-2.680419921875,-0.5077362060546875,0.1423797607421875
1782846795678438700,3.568438720703125,-2.7202301025390625,-0.432861328125,0.0650787353515625
1782846795688443600,3.578443603515625,-2.7499237060546875,-0.32379150390625,0.0068817138671875
1782846795698447600,3.588447509765625,-2.7086029052734375,-0.2047576904296875,-0.017181396484375
1782846795708452600,3.59845263671875,-2.5690460205078125,-0.0856475830078125,-0.00286865234375
1782846795718457600,3.60845751953125,-2.354095458984375,0.0030975341796875,0.03155517578125
1782846795728461600,3.618461669921875,-2.0809478759765625,0.0511322021484375,0.066680908203125
1782846795738466600,3.628466552734375,-1.752777099609375,0.0749664306640625,0.0974884033203125
1782846795748471600,3.638471435546875,-1.3872528076171875,0.062652587890625,0.113861083984375
1782846795758475500,3.6484755859375,-1.0381622314453125,0.030792236328125,0.1257171630859375
1782846795768480500,3.65848046875,-0.7413177490234375,-0.0231475830078125,0.125091552734375
1782846795778485500,3.668485595703125,-0.4947967529296875,-0.0830535888671875,0.10906982421875
1782846795788489500,3.678489501953125,-0.285125732421875,-0.1295928955078125,0.0746917724609375
1782846795798494500,3.688494384765625,-0.112823486328125,-0.1418304443359375,0.038360595703125
1782846795808498700,3.698498779296875,0.011138916015625,-0.109954833984375,-0.00128173828125
1782846795818502700,3.708502685546875,0.071807861328125,-0.0688323974609375,-0.0327606201171875
1782846795828507600,3.718507568359375,0.0895233154296875,-0.01812744140625,-0.04180908203125
1782846795838511600,3.72851171875,0.0830230712890625,0.0493927001953125,-0.0399932861328125
1782846795848516600,3.7385166015625,0.060302734375,0.1136474609375,-0.045928955078125
1782846795858521600,3.748521484375,0.0572357177734375,0.1584320068359375,-0.0352630615234375
1782846795868525800,3.75852587890625,0.0861053466796875,0.16656494140625,-0.016082763671875
1782846795878530800,3.76853076171875,0.12884521484375,0.1400146484375,0.0013885498046875
1782846795888535800,3.778535888671875,0.181243896484375,0.10443115234375,0.0308074951171875
1782846795898539800,3.788539794921875,0.233245849609375,0.062255859375,0.0517120361328125
1782846795908544800,3.798544677734375,0.2841339111328125,0.0116729736328125,0.0759735107421875
1782846795918549800,3.8085498046875,0.327392578125,-0.0316009521484375,0.09716796875
1782846795928553700,3.8185537109375,0.3560333251953125,-0.0601348876953125,0.1119842529296875
1782846795938558700,3.828558837890625,0.35321044921875,-0.074737548828125,0.1219024658203125
1782846795948562700,3.838562744140625,0.3226165771484375,-0.0726165771484375,0.1199493408203125
1782846795958567700,3.848567626953125,0.26788330078125,-0.05230712890625,0.110748291015625
1782846795968572700,3.85857275390625,0.19598388671875,-0.025177001953125,0.095458984375
1782846795978576600,3.86857666015625,0.1244354248046875,-0.00811767578125,0.0741119384765625
1782846795988581600,3.87858154296875,0.063568115234375,0.0226287841796875,0.064453125
1782846795998586600,3.888586669921875,0.0083770751953125,0.039581298828125,0.0447235107421875
1782846796008590600,3.898590576171875,-0.0801239013671875,0.03948974609375,0.015869140625
1782846796018595600,3.908595703125,-0.2119140625,0.0361328125,-0.0169830322265625
1782846796028600600,3.9186005859375,-0.3821868896484375,-0.0005035400390625,-0.041748046875
1782846796038604800,3.928604736328125,-0.579803466796875,-0.05755615234375,-0.04248046875
1782846796048609800,3.93860986328125,-0.8035888671875,-0.1285400390625,-0.0131072998046875
1782846796058614800,3.94861474609375,-1.028045654296875,-0.201202392578125,0.0511322021484375
1782846796068618800,3.95861865234375,-1.2218780517578125,-0.2899322509765625,0.147857666015625
1782846796078623700,3.968623779296875,-1.373443603515625,-0.439971923828125,0.2337493896484375
1782846796088627700,3.978627685546875,-1.4808807373046875,-0.6108856201171875,0.299285888671875
1782846796098632700,3.9886328125,-1.498870849609375,-0.7208251953125,0.3449554443359375
1782846796108637700,3.9986376953125,-1.462127685546875,-0.8121490478515625,0.338287353515625
1782846796118641700,4.0086416015625,-1.470855712890625,-0.9258880615234375,0.2616424560546875
1782846796128646700,4.018646728515625,-1.5595245361328125,-1.109619140625,0.09588623046875
1782846796138651600,4.028651611328125,-1.7868194580078125,-1.2634124755859375,-0.0155487060546875
1782846796148655600,4.038655517578125,-2.1380615234375,-1.16192626953125,0.006072998046875
1782846796158660600,4.04866064453125,-2.3865203857421875,-0.8436126708984375,0.1614227294921875
1782846796168665600,4.05866552734375,-2.4857025146484375,-0.4621734619140625,0.3492584228515625
1782846796178669600,4.068669677734375,-2.540740966796875,-0.137420654296875,0.457794189453125
1782846796188674800,4.0786748046875,-2.5240325927734375,0.01043701171875,0.397064208984375
1782846796198679800,4.0886796875,-2.41912841796875,-0.0216522216796875,0.2168121337890625
1782846796208683800,4.098683837890625,-2.1350250244140625,-0.19970703125,0.04498291015625
1782846796218688800,4.108688720703125,-1.7168731689453125,-0.4745330810546875,-0.0375213623046875
1782846796228693800,4.11869384765625,-1.283599853515625,-0.766845703125,-0.00732421875
1782846796238697700,4.12869775390625,-0.910308837890625,-0.8755645751953125,0.090423583984375
1782846796248702700,4.13870263671875,-0.693817138671875,-0.6965484619140625,0.155731201171875
1782846796258706700,4.148706787109375,-0.691375732421875,-0.4560699462890625,0.1239013671875
1782846796268711700,4.158711669921875,-0.8482818603515625,-0.323883056640625,0.0392913818359375
1782846796278717000,4.168717041015625,-0.9313507080078125,-0.20941162109375,0.0199432373046875
1782846796288720600,4.178720703125,-0.895172119140625,-0.0994415283203125,0.032379150390625
1782846796298725600,4.1887255859375,-0.8416900634765625,-0.0187225341796875,0.0461578369140625
1782846796308730600,4.198730712890625,-0.776580810546875,0.0290985107421875,0.051788330078125
1782846796318734600,4.208734619140625,-0.68438720703125,0.0438690185546875,0.03125
1782846796328739600,4.218739501953125,-0.58135986328125,0.037353515625,-0.001739501953125
1782846796338744600,4.22874462890625,-0.4814605712890625,0.0205230712890625,-0.0148773193359375
1782846796348748800,4.238748779296875,-0.396636962890625,-0.010406494140625,-0.020751953125
1782846796358753800,4.24875390625,-0.328887939453125,-0.047943115234375,-0.0338592529296875
1782846796368758800,4.2587587890625,-0.2827606201171875,-0.0796966552734375,-0.033294677734375
1782846796378762800,4.2687626953125,-0.2466583251953125,-0.1137847900390625,-0.0342254638671875
1782846796388767700,4.278767822265625,-0.2230377197265625,-0.1462554931640625,-0.037322998046875
1782846796398771700,4.288771728515625,-0.220001220703125,-0.15771484375,-0.0332489013671875
1782846796408776700,4.298776611328125,-0.253997802734375,-0.1571807861328125,-0.039154052734375
1782846796418781700,4.30878173828125,-0.306732177734375,-0.1617584228515625,-0.0426788330078125
1782846796428786000,4.318785888671875,-0.3762664794921875,-0.183013916015625,-0.04339599609375
1782846796438791000,4.328791015625,-0.4487762451171875,-0.2069091796875,-0.0233612060546875
1782846796448796000,4.3387958984375,-0.5113525390625,-0.2272796630859375,0.0150299072265625
1782846796458799600,4.348799560546875,-0.6052703857421875,-0.2323760986328125,0.0446014404296875
1782846796468804600,4.3588046875,-0.6986846923828125,-0.2142181396484375,0.07867431640625
1782846796478809900,4.368809814453125,-0.77667236328125,-0.1820068359375,0.1124114990234375
1782846796488813600,4.3788134765625,-0.85699462890625,-0.1280670166015625,0.1309661865234375
1782846796498818600,4.388818603515625,-0.926849365234375,-0.0527191162109375,0.143035888671875
1782846796508823600,4.398823486328125,-0.9801788330078125,0.0298309326171875,0.15447998046875
1782846796518827800,4.408827880859375,-1.0193634033203125,0.095703125,0.1559906005859375
1782846796528832800,4.418832763671875,-1.06134033203125,0.1310272216796875,0.136383056640625
1782846796538836700,4.428836669921875,-1.1054534912109375,0.131622314453125,0.1085968017578125
1782846796548841700,4.438841796875,-1.1166839599609375,0.0869293212890625,0.0716400146484375
1782846796558846700,4.4488466796875,-1.1077117919921875,0.003326416015625,0.06158447265625
1782846796568850700,4.4588505859375,-1.10113525390625,-0.0938720703125,0.0721282958984375
1782846796578855700,4.468855712890625,-1.1239166259765625,-0.2015533447265625,0.08489990234375
1782846796588860700,4.478860595703125,-1.1881256103515625,-0.332275390625,0.07940673828125
1782846796598865000,4.488864990234375,-1.2798004150390625,-0.4404449462890625,0.061065673828125
1782846796608870000,4.498869873046875,-1.462371826171875,-0.4909515380859375,0.0648956298828125
1782846796618875000,4.508875,-1.74969482421875,-0.4930877685546875,0.102783203125
1782846796628878800,4.51887890625,-2.019775390625,-0.4894561767578125,0.193084716796875
1782846796638883800,4.5288837890625,-2.2171630859375,-0.5189208984375,0.3391265869140625
1782846796648888800,4.538888916015625,-2.3056488037109375,-0.572998046875,0.50433349609375
1782846796658892500,4.548892578125,-2.34619140625,-0.6734619140625,0.6190643310546875
1782846796668897500,4.5588974609375,-2.336273193359375,-0.764068603515625,0.64251708984375
1782846796678902500,4.568902587890625,-2.255523681640625,-0.8066558837890625,0.5499725341796875
1782846796688906800,4.57890673828125,-2.1436614990234375,-0.7953338623046875,0.3687591552734375
1782846796698911700,4.588911865234375,-2.05560302734375,-0.775115966796875,0.1685333251953125
1782846796708916700,4.598916748046875,-1.9627838134765625,-0.798980712890625,-0.0040283203125
1782846796718920700,4.608920654296875,-1.8414764404296875,-0.806915283203125,-0.11431884765625
1782846796728925700,4.61892578125,-1.73779296875,-0.7404327392578125,-0.1394195556640625
1782846796738929700,4.6289296875,-1.65435791015625,-0.6143951416015625,-0.0864105224609375
1782846796748934700,4.6389345703125,-1.605621337890625,-0.4241790771484375,0.010955810546875
1782846796758939600,4.648939697265625,-1.5459442138671875,-0.226318359375,0.0791168212890625
1782846796768943900,4.65894384765625,-1.4580230712890625,-0.08111572265625,0.1160430908203125
1782846796778948900,4.668948974609375,-1.3174896240234375,-0.006500244140625,0.13299560546875
1782846796788953900,4.678953857421875,-1.0894012451171875,-0.016754150390625,0.1414337158203125
1782846796798957800,4.688957763671875,-0.8163909912109375,-0.1165008544921875,0.1444091796875
1782846796808962800,4.698962890625,-0.5370025634765625,-0.221832275390625,0.1561431884765625
1782846796818967600,4.708967529296875,-0.262664794921875,-0.26873779296875,0.1814727783203125
1782846796828971500,4.718971435546875,-0.0474395751953125,-0.24365234375,0.18499755859375
1782846796838976500,4.7289765625,0.049713134765625,-0.1615447998046875,0.1689605712890625
1782846796848981500,4.7389814453125,0.0632476806640625,-0.0785675048828125,0.114501953125
1782846796858985700,4.74898583984375,0.0543365478515625,-0.0316314697265625,0.028289794921875
1782846796868990700,4.75899072265625,0.06182861328125,0.0133514404296875,-0.0336151123046875
1782846796878995700,4.76899560546875,0.0374755859375,0.0517120361328125,-0.09088134765625
1782846796888999400,4.77899951171875,-0.00689697265625,0.0846405029296875,-0.137451171875
1782846796899004400,4.78900439453125,-0.016510009765625,0.10552978515625,-0.146240234375
1782846796909008400,4.79900830078125,0.0123443603515625,0.103668212890625,-0.1248931884765625
1782846796919013400,4.809013427734375,0.0506439208984375,0.0909423828125,-0.0872039794921875
1782846796929018600,4.8190185546875,0.0895233154296875,0.06854248046875,-0.048583984375
1782846796939022600,4.829022705078125,0.1531219482421875,0.0390472412109375,-0.015869140625
1782846796949027600,4.839027587890625,0.1940460205078125,0.0093841552734375,0.025848388671875
1782846796959032600,4.849032470703125,0.1959075927734375,-0.0261993408203125,0.0397491455078125
1782846796969036500,4.85903662109375,0.183563232421875,-0.0529327392578125,0.0305938720703125
1782846796979041500,4.86904150390625,0.1544342041015625,-0.052337646484375,0.024810791015625
1782846796989046500,4.879046630859375,0.0959625244140625,-0.035064697265625,0.0190887451171875
1782846796999050500,4.889050537109375,0.0269622802734375,-0.0274505615234375,0.0204315185546875
1782846797009055500,4.899055419921875,-0.0250396728515625,-0.017425537109375,0.035125732421875
1782846797019060700,4.909060791015625,-0.0810089111328125,0.0045623779296875,0.0543975830078125
1782846797029064700,4.919064697265625,-0.150726318359375,0.0279541015625,0.0655975341796875
1782846797039069700,4.929069580078125,-0.2268829345703125,0.019256591796875,0.05224609375
1782846797049074700,4.93907470703125,-0.292999267578125,-0.02667236328125,0.0320892333984375
1782846797059078400,4.949078369140625,-0.37451171875,-0.088897705078125,0.006500244140625
1782846797069083400,4.95908349609375,-0.4948883056640625,-0.1601715087890625,0.006134033203125
1782846797079088400,4.96908837890625,-0.68182373046875,-0.2238922119140625,0.0201416015625
1782846797089092600,4.979092529296875,-0.9526824951171875,-0.2688140869140625,0.040679931640625
1782846797099097600,4.98909765625,-1.25250244140625,-0.300140380859375,0.0582122802734375
1782846797109101600,4.9991015625,-1.517669677734375,-0.339599609375,0.094818115234375
1782846797119106600,5.0091064453125,-1.680511474609375,-0.382476806640625,0.1782684326171875
1782846797129111600,5.019111572265625,-1.767913818359375,-0.3875274658203125,0.2883758544921875
1782846797139115500,5.029115478515625,-1.8680877685546875,-0.38848876953125,0.36883544921875
1782846797149120500,5.03912060546875,-1.9810333251953125,-0.4732818603515625,0.3366241455078125
1782846797159125500,5.04912548828125,-2.0870208740234375,-0.6756591796875,0.2153778076171875
1782846797169129700,5.059129638671875,-2.1738433837890625,-0.8144989013671875,0.15191650390625
1782846797179134700,5.069134765625,-2.2376251220703125,-0.7356719970703125,0.2270965576171875
1782846797189139700,5.0791396484375,-2.2956390380859375,-0.5079498291015625,0.398773193359375
1782846797199143700,5.089143798828125,-2.273834228515625,-0.272216796875,0.539276123046875
1782846797209148700,5.099148681640625,-2.1694183349609375,-0.12615966796875,0.5621490478515625
1782846797219153700,5.109153564453125,-2.0444183349609375,-0.11224365234375,0.478668212890625
1782846797229157400,5.119157470703125,-1.876495361328125,-0.2196502685546875,0.34210205078125
1782846797239162400,5.129162353515625,-1.6405487060546875,-0.4035797119140625,0.2299041748046875
1782846797249167400,5.13916748046875,-1.3385009765625,-0.6201934814453125,0.1991729736328125
1782846797259171600,5.149171630859375,-1.0150146484375,-0.782073974609375,0.229888916015625
1782846797269176600,5.159176513671875,-0.7723388671875,-0.780059814453125,0.2891998291015625
1782846797279180500,5.1691806640625,-0.686065673828125,-0.6213226318359375,0.3130035400390625
1782846797289185500,5.179185546875,-0.7287139892578125,-0.422332763671875,0.271484375
1782846797299190500,5.1891904296875,-0.823486328125,-0.2793121337890625,0.1973724365234375
1782846797309194500,5.199194580078125,-0.928131103515625,-0.1536102294921875,0.1309814453125
1782846797319199500,5.209199462890625,-1.0184783935546875,-0.026275634765625,0.112335205078125
1782846797329204500,5.21920458984375,-1.03131103515625,0.04803466796875,0.1092529296875
1782846797339208700,5.229208740234375,-0.9549102783203125,0.0931396484375,0.109649658203125
1782846797349213700,5.239213623046875,-0.8521575927734375,0.1167144775390625,0.098419189453125
1782846797359218700,5.24921875,-0.7417755126953125,0.109100341796875,0.0613250732421875
1782846797369222700,5.25922265625,-0.638824462890625,0.0837860107421875,0.0126190185546875
1782846797379227600,5.2692275390625,-0.5502166748046875,0.049407958984375,-0.0190582275390625
1782846797389232600,5.279232666015625,-0.4598846435546875,0.01373291015625,-0.0399627685546875
1782846797399236400,5.289236328125,-0.3911285400390625,-0.02294921875,-0.0544891357421875
1782846797409241300,5.299241455078125,-0.35272216796875,-0.0611572265625,-0.0523223876953125
1782846797419246300,5.309246337890625,-0.32635498046875,-0.08306884765625,-0.036651611328125
1782846797429250600,5.31925048828125,-0.3319549560546875,-0.089996337890625,-0.0133819580078125
1782846797439255600,5.329255615234375,-0.365875244140625,-0.0890350341796875,0.014495849609375
1782846797449260500,5.339260498046875,-0.394805908203125,-0.10357666015625,0.0373382568359375
1782846797459264500,5.349264404296875,-0.4269561767578125,-0.10595703125,0.0614013671875
1782846797469269500,5.35926953125,-0.476898193359375,-0.0890045166015625,0.0970001220703125
1782846797479273500,5.3692734375,-0.5362701416015625,-0.0620880126953125,0.1396026611328125
1782846797489278500,5.379278564453125,-0.5993499755859375,-0.0327606201171875,0.1784210205078125
1782846797499283500,5.389283447265625,-0.669647216796875,-0.0057373046875,0.187042236328125
1782846797509287700,5.39928759765625,-0.736175537109375,0.0379180908203125,0.19451904296875
1782846797519292700,5.409292724609375,-0.778839111328125,0.072845458984375,0.2065582275390625
1782846797529297700,5.419297607421875,-0.8052520751953125,0.0741119384765625,0.2022247314453125
1782846797539301600,5.429301513671875,-0.8353424072265625,0.0613555908203125,0.1890716552734375
1782846797549306600,5.439306640625,-0.8725738525390625,0.0355377197265625,0.1645660400390625
1782846797559311600,5.4493115234375,-0.9387969970703125,-0.0193023681640625,0.1208648681640625
1782846797569315300,5.4593154296875,-1.0144805908203125,-0.09466552734375,0.09442138671875
1782846797579320300,5.4693203125,-1.072509765625,-0.1637725830078125,0.10491943359375
1782846797589325600,5.47932568359375,-1.11846923828125,-0.2347412109375,0.137939453125
1782846797599329500,5.48932958984375,-1.1929931640625,-0.306396484375,0.198516845703125
1782846797609334500,5.49933447265625,-1.31256103515625,-0.3689117431640625,0.2364654541015625
1782846797619339500,5.509339599609375,-1.4787445068359375,-0.4106903076171875,0.240264892578125
1782846797629343500,5.519343505859375,-1.684722900390625,-0.4405364990234375,0.2324981689453125
1782846797639348500,5.529348388671875,-1.92132568359375,-0.4545135498046875,0.2275848388671875
1782846797649352400,5.5393525390625,-2.150634765625,-0.4371490478515625,0.2694854736328125
1782846797659357400,5.549357421875,-2.357147216796875,-0.418487548828125,0.347412109375
1782846797669362400,5.559362548828125,-2.5391998291015625,-0.4312896728515625,0.39849853515625
1782846797679366700,5.56936669921875,-2.644439697265625,-0.480377197265625,0.40643310546875
1782846797689371600,5.57937158203125,-2.676727294921875,-0.5164031982421875,0.37042236328125
1782846797699376600,5.589376708984375,-2.58489990234375,-0.52734375,0.2948760986328125
1782846797709380600,5.599380615234375,-2.4145050048828125,-0.536224365234375,0.1977996826171875
1782846797719385600,5.609385498046875,-2.222747802734375,-0.5455474853515625,0.1301422119140625
1782846797729390600,5.619390625,-1.9741058349609375,-0.5543212890625,0.07843017578125
1782846797739394600,5.62939453125,-1.738861083984375,-0.5272674560546875,0.0421905517578125
1782846797749399600,5.639399658203125,-1.5499267578125,-0.460235595703125,0.0257720947265625
1782846797759404500,5.649404541015625,-1.392303466796875,-0.36737060546875,0.0293426513671875
1782846797769408500,5.659408447265625,-1.2557220458984375,-0.25726318359375,0.055816650390625
1782846797779413500,5.66941357421875,-1.13262939453125,-0.150726318359375,0.0958404541015625
1782846797789418500,5.67941845703125,-1.024932861328125,-0.064208984375,0.1341705322265625
1782846797799422500,5.68942236328125,-0.920928955078125,-0.00372314453125,0.1523895263671875
1782846797809427500,5.699427490234375,-0.80438232421875,0.0168914794921875,0.149658203125
1782846797819431700,5.709431640625,-0.6737060546875,0.0114288330078125,0.1391448974609375
1782846797829436700,5.719436767578125,-0.51806640625,-0.0043792724609375,0.123870849609375
1782846797839441700,5.729441650390625,-0.374420166015625,-0.0234222412109375,0.1052703857421875
1782846797849445600,5.739445556640625,-0.26312255859375,-0.030029296875,0.083709716796875
1782846797859450600,5.74945068359375,-0.16961669921875,-0.0213470458984375,0.0709381103515625
1782846797869455600,5.75945556640625,-0.098297119140625,-0.001190185546875,0.060272216796875
1782846797879459600,5.76945947265625,-0.0556488037109375,0.02801513671875,0.045654296875
1782846797889464600,5.779464599609375,-0.055206298828125,0.0684051513671875,0.032501220703125
1782846797899469600,5.789469482421875,-0.0665435791015625,0.1065673828125,0.0165557861328125
1782846797909473500,5.7994736328125,-0.07177734375,0.128143310546875,0.0041961669921875
1782846797919478500,5.809478515625,-0.04254150390625,0.109283447265625,-0.00714111328125
1782846797929483800,5.81948388671875,0.0077667236328125,0.072509765625,-0.0169219970703125
1782846797939487700,5.82948779296875,0.066864013671875,0.03887939453125,-0.0238800048828125
1782846797949492700,5.83949267578125,0.1387786865234375,0.0043182373046875,-0.0263519287109375
1782846797959497700,5.849497802734375,0.200958251953125,-0.0279388427734375,-0.031707763671875
1782846797969501700,5.859501708984375,0.23919677734375,-0.058990478515625,-0.0505828857421875
1782846797979506700,5.869506591796875,0.251220703125,-0.0793304443359375,-0.0788421630859375
1782846797989510700,5.8795107421875,0.2342376708984375,-0.0795440673828125,-0.1101837158203125
1782846797999515600,5.889515625,0.1928253173828125,-0.05889892578125,-0.134033203125
1782846798009521000,5.89952099609375,0.1248931884765625,-0.0247650146484375,-0.13800048828125
1782846798019524600,5.909524658203125,0.0446624755859375,0.006988525390625,-0.0971527099609375
1782846798029529600,5.919529541015625,-0.0322113037109375,0.0264739990234375,-0.0513153076171875
1782846798039534600,5.92953466796875,-0.1109161376953125,0.030853271484375,-0.0107879638671875
1782846798049538600,5.93953857421875,-0.1843109130859375,0.0118865966796875,0.014495849609375
1782846798059543600,5.94954345703125,-0.278656005859375,-0.0377960205078125,0.0250396728515625
1782846798069548500,5.959548583984375,-0.3964385986328125,-0.105682373046875,0.035369873046875
1782846798079552800,5.969552734375,-0.581390380859375,-0.187164306640625,0.0595703125
1782846798089557800,5.979557861328125,-0.8147735595703125,-0.265655517578125,0.07977294921875
1782846798099562800,5.989562744140625,-1.0316009521484375,-0.3241424560546875,0.0919342041015625
1782846798109566700,5.999566650390625,-1.2355804443359375,-0.3568572998046875,0.1191558837890625
1782846798119571700,6.00957177734375,-1.3878631591796875,-0.35968017578125,0.198486328125
1782846798129576700,6.01957666015625,-1.4987030029296875,-0.36846923828125,0.3135223388671875
1782846798139580700,6.02958056640625,-1.6056365966796875,-0.4203948974609375,0.3858489990234375
1782846798149585700,6.039585693359375,-1.708984375,-0.5599517822265625,0.324981689453125
1782846798159590700,6.049590576171875,-1.7971954345703125,-0.7275848388671875,0.1714630126953125
1782846798169595000,6.059594970703125,-1.881134033203125,-0.8284149169921875,0.0917816162109375
1782846798179600000,6.069599853515625,-2.0405426025390625,-0.8251495361328125,0.17742919921875
1782846798189603600,6.079603515625,-2.2497711181640625,-0.5938720703125,0.401123046875
1782846798199608600,6.089608642578125,-2.3856658935546875,-0.21405029296875,0.617095947265625
1782846798209613600,6.099613525390625,-2.4407806396484375,0.084564208984375,0.6857452392578125
1782846798219617500,6.109617431640625,-2.4329071044921875,0.1916961669921875,0.563018798828125
1782846798229622500,6.11962255859375,-2.30609130859375,0.1394805908203125,0.34893798828125
1782846798239627500,6.12962744140625,-2.062042236328125,-0.0273590087890625,0.159027099609375
1782846798249631700,6.1396318359375,-1.702392578125,-0.3094482421875,0.0512542724609375
1782846798259636700,6.14963671875,-1.20880126953125,-0.6443634033203125,0.0314178466796875
1782846798269641700,6.159641845703125,-0.763092041015625,-0.827423095703125,0.0927886962890625
1782846798279645700,6.169645751953125,-0.53179931640625,-0.7673797607421875,0.162872314453125
1782846798289650700,6.179650634765625,-0.531768798828125,-0.5752105712890625,0.169921875
1782846798299655700,6.18965576171875,-0.717864990234375,-0.399566650390625,0.098480224609375
1782846798309659600,6.19965966796875,-0.936431884765625,-0.2374420166015625,0.0767364501953125
1782846798319664600,6.20966455078125,-1.04595947265625,-0.07684326171875,0.0880584716796875
1782846798329669600,6.219669677734375,-1.1090087890625,0.050384521484375,0.097259521484375
1782846798339673900,6.229673828125,-1.113372802734375,0.1360015869140625,0.1105804443359375
1782846798349678800,6.239678955078125,-1.0395355224609375,0.1700439453125,0.09808349609375
1782846798359682600,6.2496826171875,-0.9234771728515625,0.1765289306640625,0.0687103271484375
1782846798369687600,6.2596875,-0.8188323974609375,0.185150146484375,0.04583740234375
1782846798379692500,6.269692626953125,-0.728912353515625,0.181396484375,0.020050048828125
1782846798389696500,6.279696533203125,-0.6359710693359375,0.155914306640625,-0.015472412109375
1782846798399701500,6.289701416015625,-0.540985107421875,0.12091064453125,-0.049346923828125
1782846798409706500,6.29970654296875,-0.4647064208984375,0.0784759521484375,-0.064605712890625
1782846798419710700,6.309710693359375,-0.4013671875,0.037353515625,-0.065032958984375
1782846798429715700,6.3197158203125,-0.3531494140625,-0.0074005126953125,-0.0475616455078125
1782846798439720700,6.329720703125,-0.317779541015625,-0.048736572265625,-0.018463134765625
1782846798449724700,6.339724609375,-0.302978515625,-0.0771636962890625,0.0141448974609375
1782846798459729700,6.349729736328125,-0.306060791015625,-0.0923004150390625,0.0633087158203125
1782846798469734700,6.359734619140625,-0.34637451171875,-0.0648651123046875,0.1147613525390625
1782846798479738600,6.369738525390625,-0.4253387451171875,-0.017120361328125,0.153411865234375
1782846798489743600,6.37974365234375,-0.51629638671875,0.01849365234375,0.1765594482421875
1782846798499748600,6.38974853515625,-0.59283447265625,0.033111572265625,0.172576904296875
1782846798509752800,6.3997529296875,-0.6438446044921875,0.0519866943359375,0.1614837646484375
1782846798519757800,6.4097578125,-0.679412841796875,0.067169189453125,0.15411376953125
1782846798529761800,6.41976171875,-0.7150726318359375,0.06158447265625,0.1487579345703125
1782846798539766800,6.429766845703125,-0.77001953125,0.054107666015625,0.1407623291015625
1782846798549771800,6.439771728515625,-0.85308837890625,0.046112060546875,0.1251983642578125
1782846798559775500,6.449775390625,-0.9257659912109375,0.0254364013671875,0.112701416015625
1782846798569780500,6.459780517578125,-1.0082550048828125,-0.01544189453125,0.0894317626953125
1782846798579785500,6.469785400390625,-1.1195526123046875,-0.0731201171875,0.0604248046875
1782846798589789700,6.479789794921875,-1.237701416015625,-0.147003173828125,0.050262451171875
1782846798599794700,6.489794677734375,-1.362945556640625,-0.2465362548828125,0.0475311279296875
1782846798609799700,6.499799560546875,-1.451446533203125,-0.35943603515625,0.0391082763671875
1782846798619803600,6.5098037109375,-1.5358734130859375,-0.4550323486328125,0.0392608642578125
1782846798629808600,6.51980859375,-1.660400390625,-0.502105712890625,0.0636444091796875
1782846798639813600,6.529813720703125,-1.8168487548828125,-0.5087738037109375,0.1237945556640625
1782846798649817600,6.539817626953125,-1.9849853515625,-0.481597900390625,0.20550537109375
1782846798659822600,6.549822509765625,-2.172332763671875,-0.4722747802734375,0.236724853515625
1782846798669827600,6.55982763671875,-2.3763885498046875,-0.4881439208984375,0.2348785400390625
1782846798679831800,6.569831787109375,-2.5225830078125,-0.5012969970703125,0.1969757080078125
1782846798689836800,6.5798369140625,-2.5293731689453125,-0.5362548828125,0.1419525146484375
1782846798699840800,6.5898408203125,-2.4228057861328125,-0.5709075927734375,0.11553955078125
1782846798709845800,6.599845703125,-2.2837371826171875,-0.599395751953125,0.1079864501953125
1782846798719850800,6.609850830078125,-2.1764068603515625,-0.6023712158203125,0.096832275390625
1782846798729854500,6.6198544921875,-2.11700439453125,-0.55206298828125,0.11175537109375
1782846798739859500,6.629859375,-2.0750885009765625,-0.435943603515625,0.16998291015625
1782846798749864700,6.63986474609375,-2.012542724609375,-0.2828521728515625,0.2349700927734375
1782846798759868700,6.64986865234375,-1.88433837890625,-0.129058837890625,0.2983551025390625
1782846798769873700,6.659873779296875,-1.7013702392578125,0.000885009765625,0.3332366943359375
1782846798779878700,6.669878662109375,-1.485748291015625,0.0894317626953125,0.3131103515625
1782846798789882600,6.679882568359375,-1.2499542236328125,0.1240386962890625,0.248291015625
1782846798799887600,6.6898876953125,-1.0233001708984375,0.1039886474609375,0.16693115234375
1782846798809892600,6.699892578125,-0.807342529296875,0.0650177001953125,0.08355712890625
1782846798819897300,6.7098974609375,-0.609832763671875,0.0295867919921875,0.0198974609375
1782846798829902300,6.71990234375,-0.4270782470703125,0.00079345703125,-0.027099609375
1782846798839907300,6.7299072265625,-0.26593017578125,-0.0240478515625,-0.0580902099609375
1782846798849911600,6.73991162109375,-0.134185791015625,-0.0367889404296875,-0.06231689453125
1782846798859916500,6.74991650390625,-0.02789306640625,-0.0385284423828125,-0.05194091796875
1782846798869921500,6.759921630859375,0.063201904296875,-0.02752685546875,-0.038787841796875
1782846798879925200,6.76992529296875,0.1273956298828125,-0.0134735107421875,-0.0322418212890625
1782846798889930200,6.77993017578125,0.15106201171875,0.0124053955078125,-0.03839111328125
1782846798899934200,6.789934326171875,0.1539764404296875,0.035003662109375,-0.0535125732421875
1782846798909939200,6.799939208984375,0.1768646240234375,0.034271240234375,-0.0309295654296875
1782846798919944200,6.809944091796875,0.2122344970703125,0.027252197265625,0.009307861328125
1782846798929948400,6.819948486328125,0.237762451171875,-0.003662109375,0.0224456787109375
1782846798939953400,6.829953369140625,0.262786865234375,-0.03515625,0.03857421875
1782846798949958400,6.83995849609375,0.2808380126953125,-0.0502166748046875,0.034576416015625
1782846798959962400,6.84996240234375,0.2980804443359375,-0.053955078125,0.028778076171875
1782846798969967400,6.85996728515625,0.2850799560546875,-0.061859130859375,0.0439910888671875
1782846798979972400,6.869972412109375,0.2382354736328125,-0.06329345703125,0.0535888671875
1782846798989976300,6.879976318359375,0.1988372802734375,-0.0473175048828125,0.0643157958984375
1782846798999981300,6.889981201171875,0.1535491943359375,-0.026336669921875,0.068603515625
1782846799009986300,6.899986328125,0.0841827392578125,0.0023193359375,0.0671234130859375
1782846799019990500,6.909990478515625,-0.014129638671875,0.0452117919921875,0.038238525390625
1782846799029995500,6.91999560546875,-0.1343841552734375,0.0932464599609375,-0.00811767578125
1782846799039999200,6.929999267578125,-0.241180419921875,0.1132965087890625,-0.0477447509765625
1782846799050004200,6.940004150390625,-0.3421630859375,0.0841827392578125,-0.073516845703125
1782846799060009200,6.95000927734375,-0.4572601318359375,0.018341064453125,-0.061279296875
1782846799070013200,6.96001318359375,-0.61016845703125,-0.031463623046875,-0.0095367431640625
1782846799080018200,6.97001806640625,-0.7896728515625,-0.0483245849609375,0.060455322265625
1782846799090023200,6.980023193359375,-0.98712158203125,-0.0806427001953125,0.1158599853515625
1782846799100027400,6.99002734375,-1.18414306640625,-0.1180419921875,0.16448974609375
1782846799110032400,7.000032470703125,-1.3700103759765625,-0.163818359375,0.201446533203125
1782846799120037400,7.010037353515625,-1.5125885009765625,-0.1965179443359375,0.2503509521484375
1782846799130041300,7.020041259765625,-1.610321044921875,-0.20660400390625,0.284942626953125
1782846799140046300,7.03004638671875,-1.69696044921875,-0.248443603515625,0.27001953125
1782846799150051300,7.04005126953125,-1.808685302734375,-0.3804473876953125,0.20489501953125
1782846799160055300,7.05005517578125,-1.847198486328125,-0.4937896728515625,0.1544036865234375
1782846799170060300,7.060060302734375,-1.8307342529296875,-0.5897674560546875,0.148406982421875
1782846799180065300,7.070065185546875,-1.9676361083984375,-0.697418212890625,0.189208984375
1782846799190069500,7.080069580078125,-2.1884002685546875,-0.6461944580078125,0.286224365234375
1782846799200074500,7.090074462890625,-2.3253021240234375,-0.4888916015625,0.3857574462890625
1782846799210078200,7.100078125,-2.38800048828125,-0.3280792236328125,0.43328857421875
1782846799220083200,7.110083251953125,-2.3843994140625,-0.1878204345703125,0.4207305908203125
1782846799230088200,7.120088134765625,-2.260650634765625,-0.119842529296875,0.3657684326171875
1782846799240092200,7.130092041015625,-2.0393829345703125,-0.1739044189453125,0.282623291015625
1782846799250097200,7.14009716796875,-1.77117919921875,-0.2974090576171875,0.2039794921875
1782846799260102400,7.150102294921875,-1.483642578125,-0.4369049072265625,0.161041259765625
1782846799270106400,7.1601064453125,-1.17822265625,-0.5539398193359375,0.1398773193359375
1782846799280111400,7.170111328125,-0.922149658203125,-0.5838623046875,0.1332855224609375
1782846799290116400,7.180116455078125,-0.7626495361328125,-0.5220947265625,0.116424560546875
1782846799300120300,7.190120361328125,-0.6978607177734375,-0.4172210693359375,0.0544891357421875
1782846799310125300,7.200125244140625,-0.7181243896484375,-0.3015289306640625,-0.0277862548828125
1782846799320130300,7.21013037109375,-0.7880859375,-0.2182464599609375,-0.0773468017578125
1782846799330134300,7.22013427734375,-0.8323516845703125,-0.0917205810546875,-0.0648193359375
1782846799340139300,7.23013916015625,-0.8538665771484375,-0.0232391357421875,-0.0553741455078125
1782846799350144500,7.24014453125,-0.8160247802734375,0.039093017578125,-0.0444793701171875
1782846799360148500,7.2501484375,-0.73858642578125,0.1048583984375,-0.0283660888671875
1782846799370153500,7.260153564453125,-0.65716552734375,0.128173828125,-0.0355072021484375
1782846799380157200,7.2701572265625,-0.5718841552734375,0.1279754638671875,-0.0608367919921875
1782846799390162200,7.280162109375,-0.4992828369140625,0.110321044921875,-0.10137939453125
1782846799400167200,7.290167236328125,-0.429962158203125,0.087188720703125,-0.1300201416015625
1782846799410171400,7.30017138671875,-0.373016357421875,0.064910888671875,-0.1358489990234375
1782846799420176400,7.31017626953125,-0.3275146484375,0.0378875732421875,-0.1372222900390625
1782846799430181400,7.320181396484375,-0.290252685546875,0.0072784423828125,-0.1283416748046875
1782846799440185300,7.330185302734375,-0.2685699462890625,-0.013916015625,-0.10516357421875
1782846799450190300,7.3401904296875,-0.2703094482421875,-0.0183258056640625,-0.0620574951171875
1782846799460195300,7.3501953125,-0.2941436767578125,-0.020233154296875,-0.0084991455078125
1782846799470199300,7.36019921875,-0.3327178955078125,-0.0209503173828125,0.0352325439453125
1782846799480204300,7.370204345703125,-0.3690643310546875,-0.00439453125,0.073944091796875
1782846799490209300,7.380209228515625,-0.4291229248046875,0.015625,0.118682861328125
1782846799500213500,7.390213623046875,-0.4863739013671875,0.024566650390625,0.14678955078125
1782846799510218500,7.400218505859375,-0.5438385009765625,0.0287017822265625,0.1625518798828125
1782846799520223500,7.410223388671875,-0.5958709716796875,0.025726318359375,0.174896240234375
1782846799530227500,7.4202275390625,-0.6616973876953125,0.0091400146484375,0.1599884033203125
1782846799540232400,7.430232421875,-0.7538604736328125,-0.03558349609375,0.1207275390625
1782846799550236200,7.440236083984375,-0.85174560546875,-0.0919189453125,0.071014404296875
1782846799560241200,7.4502412109375,-0.9648895263671875,-0.1654815673828125,0.0418853759765625
1782846799570246400,7.460246337890625,-1.1064910888671875,-0.2471923828125,0.0385284423828125
1782846799580250400,7.47025048828125,-1.2836456298828125,-0.291412353515625,0.0789794921875
1782846799590255400,7.48025537109375,-1.4615478515625,-0.3066558837890625,0.1534881591796875
1782846799600260400,7.49026025390625,-1.643463134765625,-0.31982421875,0.2198944091796875
1782846799610264300,7.500264404296875,-1.8230743408203125,-0.35546875,0.281646728515625
1782846799620269300,7.510269287109375,-1.9842987060546875,-0.4288330078125,0.319793701171875
1782846799630274300,7.5202744140625,-2.1068572998046875,-0.5044097900390625,0.3418731689453125
1782846799640278300,7.5302783203125,-2.2043304443359375,-0.6058807373046875,0.3535003662109375
1782846799650283300,7.540283203125,-2.3093109130859375,-0.7359466552734375,0.339019775390625
1782846799660288300,7.550288330078125,-2.418792724609375,-0.7856597900390625,0.3084564208984375
1782846799670292500,7.56029248046875,-2.5306854248046875,-0.753173828125,0.249847412109375
1782846799680297500,7.57029736328125,-2.590301513671875,-0.7061920166015625,0.179656982421875
1782846799690301400,7.580301513671875,-2.5633392333984375,-0.66937255859375,0.1190338134765625
1782846799700306400,7.590306396484375,-2.4628753662109375,-0.645660400390625,0.1042633056640625
1782846799710311400,7.6003115234375,-2.3148040771484375,-0.6071319580078125,0.14752197265625
1782846799720315400,7.6103154296875,-2.1417236328125,-0.5334014892578125,0.2216339111328125
1782846799730320400,7.6203203125,-1.965362548828125,-0.4551239013671875,0.290374755859375
1782846799740325400,7.630325439453125,-1.782989501953125,-0.3637542724609375,0.3411407470703125
1782846799750329300,7.640329345703125,-1.6074066162109375,-0.258209228515625,0.387603759765625
1782846799760334300,7.650334228515625,-1.41943359375,-0.16766357421875,0.4129486083984375
1782846799770339300,7.66033935546875,-1.2081298828125,-0.10626220703125,0.407196044921875
1782846799780343300,7.67034326171875,-0.9800872802734375,-0.092926025390625,0.3691253662109375
1782846799790348300,7.680348388671875,-0.748748779296875,-0.103851318359375,0.309814453125
1782846799800353300,7.690353271484375,-0.5396270751953125,-0.1158294677734375,0.238800048828125
1782846799810357200,7.700357177734375,-0.3626708984375,-0.1161651611328125,0.16363525390625
1782846799820362200,7.7103623046875,-0.225250244140625,-0.1016998291015625,0.078094482421875
1782846799830367200,7.7203671875,-0.1262359619140625,-0.0900726318359375,0.0028839111328125
1782846799840371500,7.730371337890625,-0.0482025146484375,-0.0682373046875,-0.058837890625
1782846799850376400,7.74037646484375,0.0202484130859375,-0.019134521484375,-0.103790283203125
1782846799860380400,7.75038037109375,0.0421905517578125,0.0529632568359375,-0.147857666015625
1782846799870385400,7.760385498046875,0.0359954833984375,0.13348388671875,-0.17926025390625
1782846799880390400,7.770390380859375,0.052764892578125,0.181549072265625,-0.1874847412109375
1782846799890394400,7.780394287109375,0.0852508544921875,0.20574951171875,-0.185821533203125
1782846799900399400,7.7903994140625,0.1088409423828125,0.2145843505859375,-0.1837158203125
1782846799910404400,7.800404296875,0.1485443115234375,0.20263671875,-0.1750640869140625
1782846799920408600,7.81040869140625,0.2218017578125,0.1741790771484375,-0.15087890625
1782846799930413600,7.82041357421875,0.2590789794921875,0.117034912109375,-0.1249237060546875
1782846799940418600,7.83041845703125,0.2946014404296875,0.0416107177734375,-0.126922607421875
1782846799950422500,7.840422607421875,0.34844970703125,-0.024932861328125,-0.12445068359375
1782846799960427500,7.850427490234375,0.368865966796875,-0.068634033203125,-0.108734130859375
1782846799970432500,7.8604326171875,0.3614654541015625,-0.09033203125,-0.0941009521484375
1782846799980436200,7.870436279296875,0.324981689453125,-0.077789306640625,-0.074493408203125
1782846799990441200,7.880441162109375,0.2396240234375,-0.0472259521484375,-0.0267791748046875
1782846800000446200,7.8904462890625,0.1275787353515625,-0.0359344482421875,0.01239013671875
1782846800010450400,7.900450439453125,-0.07550048828125,0.0021209716796875,0.3185577392578125
1782846800020455400,7.910455322265625,-0.40802001953125,-0.0563201904296875,0.561187744140625
1782846800030459400,7.92045947265625,-0.5060272216796875,-0.0821380615234375,0.402130126953125
1782846800040464400,7.93046435546875,-0.56805419921875,-0.0711669921875,0.3459014892578125
1782846800050469400,7.940469482421875,-0.743133544921875,-0.1020355224609375,0.216705322265625
1782846800060473300,7.950473388671875,-0.9450225830078125,-0.17327880859375,0.0952301025390625
1782846800070478300,7.960478271484375,-1.0669097900390625,-0.24090576171875,0.0308074951171875
1782846800080483300,7.9704833984375,-1.117218017578125,-0.2845001220703125,0.0798187255859375
1782846800090487600,7.980487548828125,-1.1904296875,-0.3380126953125,0.159332275390625
1782846800100492500,7.990492431640625,-1.3006744384765625,-0.3616790771484375,0.2825164794921875
1782846800110497500,8.00049755859375,-1.3866119384765625,-0.3629608154296875,0.387451171875
1782846800120501500,8.01050146484375,-1.4400482177734375,-0.37860107421875,0.4095611572265625
1782846800130506500,8.020506591796876,-1.5094146728515625,-0.453948974609375,0.391326904296875
1782846800140511500,8.030511474609375,-1.593414306640625,-0.5723876953125,0.33160400390625
1782846800150515200,8.04051513671875,-1.6732330322265625,-0.73663330078125,0.2406005859375
1782846800160520200,8.050520263671874,-1.765380859375,-0.8809814453125,0.2509765625
1782846800170525400,8.060525390625,-1.7904815673828125,-0.8268585205078125,0.4117889404296875
1782846800180529400,8.070529296875,-1.7921905517578125,-0.6149444580078125,0.6045379638671875
1782846800190534400,8.080534423828125,-1.8254547119140625,-0.3934478759765625,0.703887939453125
1782846800200538400,8.090538330078125,-1.8800506591796875,-0.261077880859375,0.6847686767578125
1782846800210543400,8.10054345703125,-1.9204864501953125,-0.23712158203125,0.5658111572265625
1782846800220548400,8.11054833984375,-1.901702880859375,-0.2721099853515625,0.419525146484375
1782846800230552300,8.12055224609375,-1.8307952880859375,-0.3424072265625,0.3061065673828125
1782846800240557300,8.130557373046875,-1.721160888671875,-0.4486541748046875,0.22113037109375
1782846800250562300,8.140562255859376,-1.5298309326171875,-0.5577392578125,0.176544189453125
1782846800260566500,8.15056640625,-1.2742462158203125,-0.63677978515625,0.1577301025390625
1782846800270571500,8.160571533203125,-1.0780487060546875,-0.6546630859375,0.15313720703125
1782846800280576500,8.170576416015624,-0.944671630859375,-0.6074066162109375,0.1419525146484375
1782846800290580500,8.18058056640625,-0.87579345703125,-0.5082550048828125,0.1160430908203125
1782846800300585500,8.19058544921875,-0.8653564453125,-0.386993408203125,0.0850982666015625
1782846800310590500,8.200590576171875,-0.8770599365234375,-0.2619781494140625,0.0628509521484375
1782846800320594400,8.210594482421875,-0.896728515625,-0.152069091796875,0.0533294677734375
1782846800330599400,8.220599365234374,-0.9066925048828125,-0.06427001953125,0.048370361328125
1782846800340604400,8.2306044921875,-0.883544921875,-0.0178680419921875,0.070159912109375
1782846800350608400,8.2406083984375,-0.821929931640625,0.0030517578125,0.113250732421875
1782846800360613400,8.25061328125,-0.7334136962890625,0.0018310546875,0.140594482421875
1782846800370617300,8.260617431640625,-0.65240478515625,-0.021026611328125,0.1390838623046875
1782846800380622300,8.270622314453124,-0.570892333984375,-0.064605712890625,0.104339599609375
1782846800390627300,8.28062744140625,-0.50103759765625,-0.1005859375,0.072021484375
1782846800400631600,8.290631591796876,-0.427490234375,-0.121368408203125,0.046356201171875
1782846800410636500,8.300636474609375,-0.3773040771484375,-0.134918212890625,0.03045654296875
1782846800420641500,8.3106416015625,-0.362945556640625,-0.133209228515625,0.018280029296875
1782846800430645500,8.3206455078125,-0.3590850830078125,-0.1177215576171875,0.014862060546875
1782846800440650500,8.330650390625,-0.374481201171875,-0.1009979248046875,0.02630615234375
1782846800450655500,8.340655517578124,-0.4106597900390625,-0.094146728515625,0.0428009033203125
1782846800460659500,8.350659423828125,-0.4343719482421875,-0.0919342041015625,0.0758056640625
1782846800470664400,8.36066455078125,-0.4570465087890625,-0.088531494140625,0.12127685546875
1782846800480669400,8.37066943359375,-0.4951019287109375,-0.0791778564453125,0.14794921875
1782846800490673700,8.380673583984375,-0.5505218505859375,-0.061065673828125,0.154510498046875
1782846800500678700,8.3906787109375,-0.624114990234375,-0.03363037109375,0.1471099853515625
1782846800510682400,8.400682373046875,-0.704193115234375,-0.0163116455078125,0.12518310546875
1782846800520687400,8.410687255859376,-0.7911376953125,-0.023468017578125,0.124298095703125
1782846800530692400,8.4206923828125,-0.846710205078125,-0.0573272705078125,0.134521484375
1782846800540696300,8.4306962890625,-0.8868560791015625,-0.1061553955078125,0.1529998779296875
1782846800550701300,8.440701416015624,-0.927978515625,-0.1766510009765625,0.159942626953125
1782846800560706300,8.450706298828125,-0.9725799560546875,-0.269989013671875,0.1544952392578125
1782846800570710500,8.46071044921875,-1.022003173828125,-0.336181640625,0.12738037109375
1782846800580715500,8.470715576171875,-1.099395751953125,-0.364044189453125,0.0940093994140625
1782846800590720500,8.480720458984376,-1.189208984375,-0.3627166748046875,0.0949554443359375
1782846800600724500,8.490724365234374,-1.2873687744140625,-0.364501953125,0.1025390625
1782846800610729500,8.5007294921875,-1.4288482666015625,-0.3900909423828125,0.1107635498046875
1782846800620734500,8.510734375,-1.5378265380859375,-0.4162750244140625,0.115020751953125
1782846800630738400,8.520738525390625,-1.74609375,-0.4782257080078125,0.142608642578125
1782846800640743400,8.530743408203126,-1.7472381591796875,-0.5077972412109375,0.270172119140625
1782846800650748400,8.54074853515625,-1.7234344482421875,-0.606048583984375,0.397125244140625
1782846800660752600,8.550752685546875,-1.8429107666015625,-0.751739501953125,0.414947509765625
1782846800670757600,8.560757568359374,-1.9283447265625,-0.735992431640625,0.2953643798828125
