time,seconds_elapsed,z,y,x
1782845362949168400,0.06216845703125,-0.97735595703125,-0.2392425537109375,0.03497314453125
1782845362959172600,0.072172607421875,-0.9628753662109375,-0.2474822998046875,0.0270233154296875
1782845362969177600,0.082177490234375,-0.9527740478515625,-0.2506103515625,0.0214691162109375
1782845362979181600,0.092181640625,-0.9591827392578125,-0.25030517578125,0.02294921875
1782845362989186600,0.1021865234375,-0.9590606689453125,-0.2439117431640625,0.0269775390625
1782845362999190500,0.1121904296875,-0.95269775390625,-0.2357940673828125,0.0277557373046875
1782845363009195500,0.122195556640625,-0.9489288330078125,-0.231048583984375,0.03082275390625
1782845363019199500,0.132199462890625,-0.940887451171875,-0.2334136962890625,0.0308990478515625
1782845363029204500,0.14220458984375,-0.9344940185546875,-0.2384033203125,0.0279083251953125
1782845363039208400,0.15220849609375,-0.921051025390625,-0.240509033203125,0.028411865234375
1782845363049213400,0.16221337890625,-0.9122467041015625,-0.2448272705078125,0.0334320068359375
1782845363059217400,0.172217529296875,-0.911041259765625,-0.2529296875,0.0453033447265625
1782845363069222400,0.182222412109375,-0.9160919189453125,-0.2563629150390625,0.0605010986328125
1782845363079226400,0.192226318359375,-0.9177093505859375,-0.2598114013671875,0.0696563720703125
1782845363089230600,0.202230712890625,-0.925048828125,-0.2671661376953125,0.0671539306640625
1782845363099235600,0.212235595703125,-0.9334564208984375,-0.278167724609375,0.0692138671875
1782845363109239600,0.222239501953125,-0.9369049072265625,-0.287811279296875,0.078704833984375
1782845363119244500,0.23224462890625,-0.940673828125,-0.2922210693359375,0.0791778564453125
1782845363129248500,0.24224853515625,-0.9368743896484375,-0.2904815673828125,0.0731048583984375
1782845363139253500,0.25225341796875,-0.928985595703125,-0.2974090576171875,0.0662994384765625
1782845363149257500,0.262257568359375,-0.921173095703125,-0.2993927001953125,0.059051513671875
1782845363159262500,0.272262451171875,-0.914337158203125,-0.299163818359375,0.050384521484375
1782845363169266400,0.282266357421875,-0.9062347412109375,-0.3043365478515625,0.0408477783203125
1782845363179270400,0.2922705078125,-0.8959503173828125,-0.3131103515625,0.032684326171875
1782845363189275400,0.302275390625,-0.89703369140625,-0.3136138916015625,0.029388427734375
1782845363199279600,0.312279541015625,-0.900299072265625,-0.3129119873046875,0.0327911376953125
1782845363209284600,0.32228466796875,-0.8994598388671875,-0.3101806640625,0.026824951171875
1782845363219288600,0.33228857421875,-0.900634765625,-0.3118896484375,0.0201416015625
1782845363229293600,0.34229345703125,-0.9082489013671875,-0.3111419677734375,0.0159454345703125
1782845363239297500,0.352297607421875,-0.91644287109375,-0.3096923828125,0.0103302001953125
1782845363249302500,0.362302490234375,-0.9209442138671875,-0.310089111328125,0.002197265625
1782845363259306500,0.372306396484375,-0.9246368408203125,-0.3069915771484375,-0.0021514892578125
1782845363269311500,0.3823115234375,-0.9318389892578125,-0.304290771484375,-0.0051727294921875
1782845363279315500,0.3923154296875,-0.940155029296875,-0.3103790283203125,-0.0094757080078125
1782845363289319400,0.4023193359375,-0.9481048583984375,-0.313812255859375,-0.0152740478515625
1782845363299324400,0.412324462890625,-0.95220947265625,-0.3089599609375,-0.0206756591796875
1782845363309328600,0.42232861328125,-0.9508514404296875,-0.306640625,-0.018585205078125
1782845363319333600,0.432333740234375,-0.947998046875,-0.31427001953125,-0.0165252685546875
1782845363329337600,0.442337646484375,-0.9559783935546875,-0.32000732421875,-0.00665283203125
1782845363339342600,0.452342529296875,-0.96478271484375,-0.3203125,0.007080078125
1782845363349346600,0.4623466796875,-0.9837646484375,-0.3159942626953125,0.0212860107421875
1782845363359351600,0.4723515625,-0.9996185302734375,-0.311187744140625,0.0320587158203125
1782845363369355500,0.48235546875,-1.0139312744140625,-0.314422607421875,0.0399627685546875
1782845363379360500,0.492360595703125,-1.023956298828125,-0.3196563720703125,0.0450286865234375
1782845363389364500,0.502364501953125,-1.031341552734375,-0.323211669921875,0.0516510009765625
1782845363399368400,0.512368408203125,-1.02374267578125,-0.3218994140625,0.0588531494140625
1782845363409373400,0.52237353515625,-1.0067901611328125,-0.31768798828125,0.0630340576171875
1782845363419377700,0.532377685546875,-0.9870452880859375,-0.317138671875,0.0644989013671875
1782845363429382700,0.542382568359375,-0.976776123046875,-0.317413330078125,0.0710906982421875
1782845363439386600,0.55238671875,-0.970367431640625,-0.3182525634765625,0.077728271484375
1782845363449391600,0.5623916015625,-0.9652862548828125,-0.3239593505859375,0.080108642578125
1782845363459395300,0.572395263671875,-0.9606781005859375,-0.3330841064453125,0.0798797607421875
1782845363469400600,0.582400634765625,-0.9621734619140625,-0.331756591796875,0.0803070068359375
1782845363479404500,0.592404541015625,-0.9634246826171875,-0.325714111328125,0.0785980224609375
1782845363489408500,0.602408447265625,-0.972442626953125,-0.3242034912109375,0.07208251953125
1782845363499413500,0.61241357421875,-0.9850311279296875,-0.3189849853515625,0.0615081787109375
1782845363509417500,0.62241748046875,-0.9988861083984375,-0.315582275390625,0.0513763427734375
1782845363519422500,0.63242236328125,-1.0065155029296875,-0.3004913330078125,0.038177490234375
1782845363529426700,0.6424267578125,-1.005126953125,-0.288970947265625,0.027587890625
1782845363539431700,0.652431640625,-1.0035552978515625,-0.2869873046875,0.029449462890625
1782845363549435600,0.662435546875,-1.0194091796875,-0.280059814453125,0.0391693115234375
1782845363559440600,0.672440673828125,-1.038543701171875,-0.2694091796875,0.04620361328125
1782845363569444400,0.6824443359375,-1.066986083984375,-0.269927978515625,0.0476226806640625
1782845363579449300,0.692449462890625,-1.0940399169921875,-0.2713623046875,0.0513763427734375
1782845363589453600,0.70245361328125,-1.108001708984375,-0.2711181640625,0.0432586669921875
1782845363599458600,0.71245849609375,-1.1129608154296875,-0.27081298828125,0.034088134765625
1782845363609462500,0.722462646484375,-1.1111297607421875,-0.2706146240234375,0.0186004638671875
1782845363619466500,0.732466552734375,-1.100189208984375,-0.2721405029296875,0.0029144287109375
1782845363629471500,0.742471435546875,-1.0872955322265625,-0.26922607421875,-0.004302978515625
1782845363639475700,0.752475830078125,-1.076873779296875,-0.2735443115234375,-0.000762939453125
1782845363649480700,0.762480712890625,-1.0535888671875,-0.265533447265625,0.0019378662109375
1782845363659484700,0.772484619140625,-1.0172271728515625,-0.2564697265625,0.002197265625
1782845363669489700,0.78248974609375,-0.9640655517578125,-0.2452850341796875,0.0032806396484375
1782845363679493400,0.792493408203125,-0.9175872802734375,-0.23529052734375,0.0137481689453125
1782845363689498600,0.80249853515625,-0.876800537109375,-0.228515625,0.031280517578125
1782845363699502600,0.812502685546875,-0.84527587890625,-0.216552734375,0.0439605712890625
1782845363709506800,0.8225068359375,-0.8238525390625,-0.2113189697265625,0.052490234375
1782845363719511800,0.83251171875,-0.8119049072265625,-0.2018890380859375,0.05584716796875
1782845363729515500,0.842515625,-0.81256103515625,-0.1915283203125,0.06121826171875
1782845363739520500,0.8525205078125,-0.827667236328125,-0.1834259033203125,0.06793212890625
1782845363749524500,0.8625244140625,-0.8484954833984375,-0.172271728515625,0.079864501953125
1782845363759529500,0.872529541015625,-0.8750457763671875,-0.1692962646484375,0.0921173095703125
1782845363769533700,0.88253369140625,-0.90386962890625,-0.167572021484375,0.1152191162109375
1782845363779538700,0.89253857421875,-0.9286041259765625,-0.1678314208984375,0.14178466796875
1782845363789542700,0.902542724609375,-0.93994140625,-0.173919677734375,0.1663970947265625
1782845363799546600,0.912546630859375,-0.94268798828125,-0.178009033203125,0.1852264404296875
1782845363809551600,0.922551513671875,-0.951629638671875,-0.181365966796875,0.200286865234375
1782845363819555800,0.932555908203125,-0.9608306884765625,-0.1895751953125,0.2063751220703125
1782845363829560800,0.942560791015625,-0.959747314453125,-0.2043914794921875,0.2050018310546875
1782845363839564500,0.952564453125,-0.9553680419921875,-0.217376708984375,0.2074432373046875
1782845363849569500,0.962569580078125,-0.9590301513671875,-0.22686767578125,0.2037200927734375
1782845363859573500,0.972573486328125,-0.9569549560546875,-0.241943359375,0.200042724609375
1782845363869578500,0.98257861328125,-0.954010009765625,-0.2521209716796875,0.19915771484375
1782845363879582700,0.992582763671875,-0.949432373046875,-0.2638092041015625,0.194671630859375
1782845363889587700,1.002587646484375,-0.952972412109375,-0.2695159912109375,0.185791015625
1782845363899591700,1.012591796875,-0.97052001953125,-0.2788848876953125,0.1720123291015625
1782845363909596700,1.0225966796875,-0.9821929931640625,-0.2798614501953125,0.161590576171875
1782845363919600600,1.0326005859375,-0.985565185546875,-0.2704620361328125,0.152130126953125
1782845363929604900,1.04260498046875,-0.9850311279296875,-0.2667388916015625,0.140625
1782845363939609900,1.05260986328125,-0.986358642578125,-0.25994873046875,0.1343994140625
1782845363949613600,1.062613525390625,-0.9905242919921875,-0.2495880126953125,0.1258392333984375
1782845363959618600,1.07261865234375,-0.990631103515625,-0.25701904296875,0.1153106689453125
1782845363969622500,1.08262255859375,-0.9917755126953125,-0.2585601806640625,0.1119842529296875
1782845363979627500,1.09262744140625,-0.99786376953125,-0.2576446533203125,0.1068267822265625
1782845363989631700,1.1026318359375,-0.9983062744140625,-0.2579345703125,0.1043548583984375
1782845363999636700,1.11263671875,-0.9844207763671875,-0.2581939697265625,0.10186767578125
1782845364009640700,1.122640625,-0.9600677490234375,-0.270111083984375,0.101837158203125
1782845364019644700,1.132644775390625,-0.9352569580078125,-0.281158447265625,0.1069183349609375
1782845364029649700,1.142649658203125,-0.908294677734375,-0.2874908447265625,0.1132659912109375
1782845364039653600,1.152653564453125,-0.8899688720703125,-0.2943115234375,0.1172332763671875
1782845364049658600,1.16265869140625,-0.8771820068359375,-0.2874298095703125,0.1204071044921875
1782845364059662600,1.17266259765625,-0.874176025390625,-0.2761383056640625,0.123626708984375
1782845364069667600,1.18266748046875,-0.8727569580078125,-0.2793731689453125,0.1238861083984375
1782845364079671600,1.192671630859375,-0.87127685546875,-0.287261962890625,0.1252899169921875
1782845364089676500,1.202676513671875,-0.8718414306640625,-0.28399658203125,0.1316986083984375
1782845364099680800,1.2126806640625,-0.876434326171875,-0.2735748291015625,0.140533447265625
1782845364109685800,1.222685791015625,-0.89215087890625,-0.267120361328125,0.1492156982421875
1782845364119689700,1.232689697265625,-0.903289794921875,-0.2732086181640625,0.158782958984375
1782845364129693700,1.242693603515625,-0.906158447265625,-0.2818145751953125,0.164764404296875
1782845364139698700,1.25269873046875,-0.9136199951171875,-0.2862396240234375,0.1724700927734375
1782845364149702700,1.26270263671875,-0.92132568359375,-0.2834930419921875,0.17803955078125
1782845364159707600,1.272707763671875,-0.927276611328125,-0.27850341796875,0.1787567138671875
1782845364169711600,1.282711669921875,-0.93048095703125,-0.2776336669921875,0.175567626953125
1782845364179716600,1.292716552734375,-0.928619384765625,-0.2809906005859375,0.170166015625
1782845364189720600,1.302720458984375,-0.920440673828125,-0.288116455078125,0.16656494140625
1782845364199725600,1.3127255859375,-0.909759521484375,-0.2976226806640625,0.1625518798828125
1782845364209729800,1.322729736328125,-0.9039459228515625,-0.3024139404296875,0.1602020263671875
1782845364219733800,1.332733642578125,-0.8994903564453125,-0.310394287109375,0.1540679931640625
1782845364229738800,1.34273876953125,-0.8936614990234375,-0.314056396484375,0.145263671875
1782845364239742700,1.35274267578125,-0.8851470947265625,-0.3166961669921875,0.127960205078125
1782845364249747700,1.362747802734375,-0.8809661865234375,-0.319061279296875,0.1160888671875
1782845364259751700,1.372751708984375,-0.8838653564453125,-0.3264007568359375,0.1020965576171875
1782845364269756700,1.382756591796875,-0.881744384765625,-0.33709716796875,0.09478759765625
1782845364279760600,1.3927607421875,-0.881927490234375,-0.3413848876953125,0.0926361083984375
1782845364289765600,1.402765625,-0.8815460205078125,-0.345001220703125,0.091461181640625
1782845364299769600,1.41276953125,-0.8831787109375,-0.3458404541015625,0.086639404296875
1782845364309774600,1.422774658203125,-0.8815460205078125,-0.3456878662109375,0.087677001953125
1782845364319778600,1.432778564453125,-0.875152587890625,-0.3476409912109375,0.097991943359375
1782845364329782800,1.44278271484375,-0.8783416748046875,-0.3513946533203125,0.10302734375
1782845364339787800,1.452787841796875,-0.8895416259765625,-0.35595703125,0.110992431640625
1782845364349791700,1.462791748046875,-0.9014434814453125,-0.354949951171875,0.11669921875
1782845364359796700,1.472796630859375,-0.9125823974609375,-0.3568572998046875,0.119659423828125
1782845364369800400,1.482800537109375,-0.9117889404296875,-0.3615875244140625,0.1198883056640625
1782845364379805400,1.492805419921875,-0.9072113037109375,-0.3616180419921875,0.1250762939453125
1782845364389809700,1.5028095703125,-0.9146881103515625,-0.3481597900390625,0.1299285888671875
1782845364399814700,1.512814697265625,-0.9197235107421875,-0.3424072265625,0.1286468505859375
1782845364409818600,1.522818603515625,-0.916046142578125,-0.35870361328125,0.130096435546875
1782845364419823600,1.53282373046875,-0.917633056640625,-0.3697509765625,0.133697509765625
1782845364429827600,1.54282763671875,-0.922454833984375,-0.3708953857421875,0.13623046875
1782845364439831800,1.552831787109375,-0.93548583984375,-0.3777008056640625,0.14508056640625
1782845364449836800,1.5628369140625,-0.9447021484375,-0.3860931396484375,0.1504669189453125
1782845364459840500,1.572840576171875,-0.9485626220703125,-0.3923797607421875,0.145660400390625
1782845364469845500,1.582845458984375,-0.9483795166015625,-0.3934173583984375,0.138397216796875
1782845364479849500,1.592849365234375,-0.9415435791015625,-0.3992462158203125,0.1293487548828125
1782845364489854500,1.6028544921875,-0.9322052001953125,-0.4002532958984375,0.1209716796875
1782845364499858700,1.612858642578125,-0.9265289306640625,-0.40118408203125,0.11376953125
1782845364509863700,1.62286376953125,-0.9156646728515625,-0.4102325439453125,0.1035003662109375
1782845364519867600,1.63286767578125,-0.9144134521484375,-0.4238128662109375,0.0948638916015625
1782845364529871600,1.64287158203125,-0.92083740234375,-0.4295196533203125,0.094329833984375
1782845364539876600,1.652876708984375,-0.9260711669921875,-0.4242095947265625,0.0951690673828125
1782845364549880800,1.662880859375,-0.93450927734375,-0.4080657958984375,0.0993194580078125
1782845364559885800,1.6728857421875,-0.9467926025390625,-0.3931884765625,0.0951080322265625
1782845364569889500,1.6828896484375,-0.965423583984375,-0.3852081298828125,0.08343505859375
1782845364579894500,1.69289453125,-0.99774169921875,-0.3601531982421875,0.0860137939453125
1782845364589898500,1.7028984375,-1.03558349609375,-0.3246002197265625,0.1138763427734375
1782845364599903500,1.712903564453125,-1.067840576171875,-0.30413818359375,0.1420440673828125
1782845364609907700,1.72290771484375,-1.0913543701171875,-0.2975006103515625,0.15972900390625
1782845364619912700,1.73291259765625,-1.1106719970703125,-0.293548583984375,0.1797027587890625
1782845364629916700,1.742916748046875,-1.11773681640625,-0.294830322265625,0.1878204345703125
1782845364639920600,1.752920654296875,-1.10986328125,-0.2903289794921875,0.1987457275390625
1782845364649925600,1.762925537109375,-1.087188720703125,-0.2699432373046875,0.1953887939453125
1782845364659929900,1.772929931640625,-1.05078125,-0.260894775390625,0.1818695068359375
1782845364669934800,1.782934814453125,-1.0127105712890625,-0.2609405517578125,0.163055419921875
1782845364679938600,1.7929384765625,-0.972320556640625,-0.2682952880859375,0.146331787109375
1782845364689943600,1.802943603515625,-0.9345245361328125,-0.2563934326171875,0.137481689453125
1782845364699947500,1.812947509765625,-0.9053192138671875,-0.2410888671875,0.1282806396484375
1782845364709952500,1.822952392578125,-0.8826446533203125,-0.265167236328125,0.1090545654296875
1782845364719956700,1.832956787109375,-0.863372802734375,-0.27178955078125,0.1009521484375
1782845364729961700,1.842961669921875,-0.8480224609375,-0.2651214599609375,0.1040496826171875
1782845364739965400,1.85296533203125,-0.833343505859375,-0.266387939453125,0.1053009033203125
1782845364749969400,1.862969482421875,-0.8233184814453125,-0.2783660888671875,0.1110687255859375
1782845364759974400,1.872974365234375,-0.817596435546875,-0.2789306640625,0.1186370849609375
1782845364769978600,1.882978515625,-0.818695068359375,-0.2736663818359375,0.123504638671875
1782845364779983600,1.892983642578125,-0.82452392578125,-0.2652587890625,0.1280975341796875
1782845364789987600,1.902987548828125,-0.835784912109375,-0.246734619140625,0.130615234375
1782845364799992600,1.91299267578125,-0.84112548828125,-0.219696044921875,0.1315765380859375
1782845364809996500,1.92299658203125,-0.8482666015625,-0.20953369140625,0.1364593505859375
1782845364820001500,1.93300146484375,-0.86083984375,-0.1986083984375,0.1495361328125
1782845364830005500,1.943005615234375,-0.8753662109375,-0.1844482421875,0.1515655517578125
1782845364840009500,1.953009521484375,-0.8938140869140625,-0.16790771484375,0.147186279296875
1782845364850014500,1.963014404296875,-0.91253662109375,-0.16082763671875,0.140960693359375
1782845364860018400,1.973018310546875,-0.9353485107421875,-0.14959716796875,0.1368560791015625
1782845364870023400,1.9830234375,-0.953369140625,-0.1400299072265625,0.1338043212890625
1782845364880027600,1.993027587890625,-0.96832275390625,-0.1362152099609375,0.1309967041015625
1782845364890032600,2.00303271484375,-0.9754486083984375,-0.1361846923828125,0.1280670166015625
1782845364900036600,2.01303662109375,-0.987945556640625,-0.14056396484375,0.1223297119140625
1782845364910041600,2.02304150390625,-0.991943359375,-0.15093994140625,0.109039306640625
1782845364920045600,2.033045654296875,-0.9907684326171875,-0.1625213623046875,0.0993194580078125
1782845364930050600,2.043050537109375,-0.9842529296875,-0.1810760498046875,0.087646484375
1782845364940054500,2.053054443359375,-0.9849853515625,-0.2036590576171875,0.08160400390625
1782845364950058500,2.06305859375,-0.98870849609375,-0.2180328369140625,0.0777587890625
1782845364960063500,2.0730634765625,-0.9937896728515625,-0.2274627685546875,0.07257080078125
1782845364970067500,2.0830673828125,-1.0123138427734375,-0.2369384765625,0.0677032470703125
1782845364980072400,2.093072509765625,-1.03887939453125,-0.2436676025390625,0.0654449462890625
1782845364990076400,2.103076416015625,-1.058746337890625,-0.2475738525390625,0.0681915283203125
1782845365000081700,2.11308154296875,-1.0726165771484375,-0.246368408203125,0.071929931640625
1782845365010085600,2.123085693359375,-1.0727386474609375,-0.241241455078125,0.0732421875
1782845365020090600,2.133090576171875,-1.0648193359375,-0.2340087890625,0.07061767578125
1782845365030094600,2.143094482421875,-1.0408935546875,-0.22723388671875,0.0693817138671875
1782845365040099600,2.153099609375,-1.010284423828125,-0.224945068359375,0.06622314453125
1782845365050103600,2.163103515625,-0.9734039306640625,-0.2200775146484375,0.064910888671875
1782845365060107500,2.173107421875,-0.9342193603515625,-0.2181549072265625,0.067474365234375
1782845365070112500,2.183112548828125,-0.8990020751953125,-0.2124176025390625,0.069915771484375
1782845365080116500,2.193116455078125,-0.8660125732421875,-0.2057647705078125,0.0670318603515625
1782845365090121500,2.20312158203125,-0.8399505615234375,-0.203948974609375,0.0642852783203125
1782845365100125400,2.21312548828125,-0.83184814453125,-0.2056427001953125,0.0570220947265625
1782845365110130400,2.22313037109375,-0.8349456787109375,-0.2068023681640625,0.0571441650390625
1782845365120134700,2.233134765625,-0.8473663330078125,-0.2109375,0.0609588623046875
1782845365130139600,2.2431396484375,-0.8648223876953125,-0.2181854248046875,0.063629150390625
1782845365140143600,2.2531435546875,-0.8833465576171875,-0.2297515869140625,0.06622314453125
1782845365150147300,2.263147216796875,-0.898284912109375,-0.2459564208984375,0.0702667236328125
1782845365160152300,2.27315234375,-0.90899658203125,-0.2589569091796875,0.07440185546875
1782845365170156500,2.283156494140625,-0.9222869873046875,-0.2671661376953125,0.0825042724609375
1782845365180161500,2.29316162109375,-0.9387359619140625,-0.2787628173828125,0.0864410400390625
1782845365190165500,2.30316552734375,-0.958099365234375,-0.2884063720703125,0.08514404296875
1782845365200170500,2.31317041015625,-0.97674560546875,-0.28948974609375,0.0826416015625
1782845365210174500,2.323174560546875,-0.996307373046875,-0.291290283203125,0.0781097412109375
1782845365220179500,2.333179443359375,-1.01837158203125,-0.294281005859375,0.0714874267578125
1782845365230183700,2.34318359375,-1.0384368896484375,-0.2950286865234375,0.0646209716796875
1782845365240188700,2.353188720703125,-1.05303955078125,-0.2992401123046875,0.061309814453125
1782845365250192600,2.363192626953125,-1.059295654296875,-0.3052978515625,0.0590362548828125
1782845365260196400,2.3731962890625,-1.051910400390625,-0.30596923828125,0.0562591552734375
1782845365270201300,2.383201416015625,-1.031829833984375,-0.30682373046875,0.0551910400390625
1782845365280205600,2.39320556640625,-1.006134033203125,-0.306610107421875,0.0523529052734375
1782845365290210600,2.40321044921875,-0.9770965576171875,-0.3062591552734375,0.051727294921875
1782845365300214500,2.413214599609375,-0.954437255859375,-0.3061370849609375,0.0514373779296875
1782845365310219500,2.423219482421875,-0.93505859375,-0.3016357421875,0.0547332763671875
1782845365320223500,2.433223388671875,-0.9197235107421875,-0.2998809814453125,0.0520477294921875
1782845365330228500,2.443228515625,-0.9115447998046875,-0.303436279296875,0.0494384765625
1782845365340232700,2.453232666015625,-0.91375732421875,-0.3036346435546875,0.051849365234375
1782845365350237700,2.46323779296875,-0.9165496826171875,-0.302581787109375,0.0558013916015625
1782845365360241400,2.473241455078125,-0.9269561767578125,-0.307281494140625,0.057373046875
1782845365370245400,2.483245361328125,-0.9309539794921875,-0.3087615966796875,0.0576629638671875
1782845365380250400,2.49325048828125,-0.9269561767578125,-0.3101959228515625,0.05743408203125
1782845365390254600,2.503254638671875,-0.926971435546875,-0.314056396484375,0.052276611328125
1782845365400259600,2.513259521484375,-0.92523193359375,-0.3099365234375,0.046356201171875
1782845365410263600,2.523263671875,-0.92572021484375,-0.3026275634765625,0.0374755859375
1782845365420268500,2.5332685546875,-0.923095703125,-0.2998046875,0.027923583984375
1782845365430272500,2.5432724609375,-0.9250335693359375,-0.3007049560546875,0.019256591796875
1782845365440277500,2.553277587890625,-0.9239044189453125,-0.3074798583984375,0.0183868408203125
1782845365450281700,2.56328173828125,-0.92364501953125,-0.313079833984375,0.0130767822265625
1782845365460286700,2.57328662109375,-0.92364501953125,-0.318023681640625,0.006378173828125
1782845365470290400,2.58329052734375,-0.9317626953125,-0.3191375732421875,0.0032501220703125
1782845365480294400,2.59329443359375,-0.9413299560546875,-0.3138885498046875,0.0004425048828125
1782845365490299400,2.60329931640625,-0.9517059326171875,-0.3153839111328125,-0.007110595703125
1782845365500303600,2.6133037109375,-0.959320068359375,-0.3213653564453125,-0.0119476318359375
1782845365510308600,2.62330859375,-0.9632110595703125,-0.3248138427734375,-0.0113983154296875
1782845365520312600,2.6333125,-0.967315673828125,-0.3294677734375,-0.012054443359375
1782845365530317600,2.643317626953125,-0.967437744140625,-0.329681396484375,-0.0133514404296875
1782845365540321500,2.653321533203125,-0.966766357421875,-0.32867431640625,-0.0125579833984375
1782845365550326500,2.663326416015625,-0.97161865234375,-0.32781982421875,-0.01446533203125
1782845365560330800,2.673330810546875,-0.9684295654296875,-0.33026123046875,-0.005584716796875
1782845365570335700,2.683335693359375,-0.96209716796875,-0.339630126953125,0.00079345703125
1782845365580339500,2.69333935546875,-0.950836181640625,-0.3439788818359375,0.0126953125
1782845365590343400,2.703343505859375,-0.9448699951171875,-0.3422393798828125,0.024688720703125
1782845365600348400,2.713348388671875,-0.9346466064453125,-0.336822509765625,0.026458740234375
1782845365610352600,2.7233525390625,-0.918212890625,-0.3296966552734375,0.02496337890625
1782845365620357600,2.733357666015625,-0.909942626953125,-0.3123321533203125,0.02215576171875
1782845365630361600,2.743361572265625,-0.905120849609375,-0.2983856201171875,0.0212554931640625
1782845365640366600,2.75336669921875,-0.89593505859375,-0.2901458740234375,0.023040771484375
1782845365650370600,2.76337060546875,-0.8918914794921875,-0.28826904296875,0.031158447265625
1782845365660375600,2.77337548828125,-0.91033935546875,-0.290130615234375,0.0555419921875
1782845365670379500,2.783379638671875,-0.9483642578125,-0.29571533203125,0.079559326171875
1782845365680383500,2.793383544921875,-0.9971923828125,-0.3010101318359375,0.095184326171875
1782845365690389500,2.803389404296875,-1.0460968017578125,-0.3013763427734375,0.1109161376953125
1782845365700393200,2.813393310546875,-1.0775299072265625,-0.304656982421875,0.1216278076171875
1782845365710398200,2.823398193359375,-1.0943603515625,-0.3007049560546875,0.1277618408203125
1782845365720402200,2.833402099609375,-1.10516357421875,-0.2885284423828125,0.121307373046875
1782845365730407200,2.8434072265625,-1.1072998046875,-0.2689666748046875,0.1098480224609375
1782845365740411400,2.853411376953125,-1.0898895263671875,-0.2570953369140625,0.0859832763671875
1782845365750416400,2.86341650390625,-1.061859130859375,-0.2607269287109375,0.0674896240234375
1782845365760420400,2.87342041015625,-1.02911376953125,-0.2627105712890625,0.0529632568359375
1782845365770425300,2.88342529296875,-0.99713134765625,-0.2734375,0.03717041015625
1782845365780429300,2.89342919921875,-0.9759521484375,-0.268280029296875,0.026031494140625
1782845365790433300,2.903433349609375,-0.9534759521484375,-0.25927734375,0.0185089111328125
1782845365800438300,2.913438232421875,-0.9152374267578125,-0.25201416015625,0.0083770751953125
1782845365810442200,2.923442138671875,-0.881317138671875,-0.240020751953125,-0.0010986328125
1782845365820447200,2.933447265625,-0.856231689453125,-0.2297515869140625,0.001251220703125
1782845365830451200,2.943451171875,-0.8375701904296875,-0.2326507568359375,0.010009765625
1782845365840456200,2.953456298828125,-0.8222198486328125,-0.235382080078125,0.01824951171875
1782845365850460400,2.96346044921875,-0.8227996826171875,-0.2368927001953125,0.02581787109375
1782845365860465400,2.97346533203125,-0.8271484375,-0.238555908203125,0.0372161865234375
1782845365870469400,2.983469482421875,-0.843170166015625,-0.24444580078125,0.04840087890625
1782845365880474400,2.993474365234375,-0.8682403564453125,-0.25152587890625,0.0678558349609375
1782845365890478300,3.003478271484375,-0.8943634033203125,-0.261383056640625,0.08648681640625
1782845365900482300,3.013482421875,-0.923431396484375,-0.262451171875,0.105743408203125
1782845365910487300,3.0234873046875,-0.9467010498046875,-0.262115478515625,0.126251220703125
1782845365920491300,3.0334912109375,-0.96710205078125,-0.268035888671875,0.144805908203125
1782845365930496300,3.043496337890625,-0.9760284423828125,-0.2751922607421875,0.1620941162109375
1782845365940500200,3.053500244140625,-0.998260498046875,-0.28314208984375,0.177886962890625
1782845365950505200,3.063505126953125,-1.0116424560546875,-0.2846832275390625,0.197113037109375
1782845365960509200,3.07350927734375,-1.0311126708984375,-0.29803466796875,0.2056884765625
1782845365970514200,3.08351416015625,-1.0438385009765625,-0.30621337890625,0.2162628173828125
1782845365980518400,3.093518310546875,-1.05267333984375,-0.302520751953125,0.2296295166015625
1782845365990523400,3.1035234375,-1.0566864013671875,-0.3021087646484375,0.22723388671875
1782845366000527400,3.11352734375,-1.04681396484375,-0.299957275390625,0.213348388671875
1782845366010531000,3.123531005859375,-1.032623291015625,-0.2923583984375,0.1975555419921875
1782845366020536000,3.1335361328125,-1.0110931396484375,-0.2840576171875,0.1787109375
1782845366030540300,3.143540283203125,-0.983306884765625,-0.2863006591796875,0.155914306640625
1782845366040545300,3.153545166015625,-0.95782470703125,-0.2897491455078125,0.1349639892578125
1782845366050549200,3.16354931640625,-0.9443511962890625,-0.284637451171875,0.11639404296875
1782845366060554200,3.17355419921875,-0.934600830078125,-0.270904541015625,0.108795166015625
1782845366070558200,3.18355810546875,-0.9130096435546875,-0.2595672607421875,0.0978546142578125
1782845366080563200,3.193563232421875,-0.88604736328125,-0.2557220458984375,0.076080322265625
1782845366090567400,3.2035673828125,-0.87432861328125,-0.2592620849609375,0.0623626708984375
1782845366100572400,3.213572509765625,-0.8737945556640625,-0.26226806640625,0.0585784912109375
1782845366110576400,3.223576416015625,-0.87396240234375,-0.2627105712890625,0.056060791015625
1782845366120580000,3.233580078125,-0.8709869384765625,-0.2606048583984375,0.0539093017578125
1782845366130585000,3.243585205078125,-0.8651885986328125,-0.2672576904296875,0.0534210205078125
1782845366140589300,3.25358935546875,-0.8643951416015625,-0.2873687744140625,0.053497314453125
1782845366150594300,3.26359423828125,-0.8723602294921875,-0.294830322265625,0.05419921875
1782845366160598300,3.273598388671875,-0.88885498046875,-0.2928619384765625,0.0586395263671875
1782845366170603300,3.283603271484375,-0.9070281982421875,-0.29193115234375,0.0623321533203125
1782845366180607200,3.293607177734375,-0.922149658203125,-0.29522705078125,0.06451416015625
1782845366190612200,3.3036123046875,-0.9337310791015625,-0.29656982421875,0.0711212158203125
1782845366200616400,3.313616455078125,-0.9524078369140625,-0.3003997802734375,0.0864715576171875
1782845366210621400,3.323621337890625,-0.9674224853515625,-0.3047637939453125,0.0957183837890625
1782845366220625200,3.333625244140625,-0.9729461669921875,-0.3009796142578125,0.099090576171875
1782845366230629000,3.343629150390625,-0.9715423583984375,-0.3001861572265625,0.10296630859375
1782845366240634000,3.353634033203125,-0.9680938720703125,-0.3031463623046875,0.1078338623046875
1782845366250638300,3.363638427734375,-0.9588775634765625,-0.3056640625,0.1069183349609375
1782845366260643300,3.373643310546875,-0.945526123046875,-0.3087158203125,0.1039581298828125
1782845366270647300,3.383647216796875,-0.935333251953125,-0.315460205078125,0.1031341552734375
1782845366280652300,3.39365234375,-0.93243408203125,-0.3254852294921875,0.0973358154296875
1782845366290656300,3.40365625,-0.9297637939453125,-0.3284149169921875,0.092315673828125
1782845366300661200,3.4136611328125,-0.91412353515625,-0.31939697265625,0.084075927734375
1782845366310665500,3.42366552734375,-0.8951263427734375,-0.31939697265625,0.0777435302734375
1782845366320669200,3.433669189453125,-0.88165283203125,-0.329254150390625,0.0657501220703125
1782845366330674200,3.443674072265625,-0.869781494140625,-0.3364410400390625,0.0567626953125
1782845366340678100,3.45367822265625,-0.864593505859375,-0.331207275390625,0.052215576171875
1782845366350683100,3.46368310546875,-0.8629302978515625,-0.3311767578125,0.0437164306640625
1782845366360687400,3.473687255859375,-0.8654632568359375,-0.3380126953125,0.0372161865234375
1782845366370692400,3.4836923828125,-0.8692169189453125,-0.3407440185546875,0.0333099365234375
1782845366380696300,3.4936962890625,-0.88116455078125,-0.3385467529296875,0.0359954833984375
1782845366390701300,3.503701416015625,-0.8967742919921875,-0.3403472900390625,0.036529541015625
1782845366400705300,3.513705322265625,-0.9064483642578125,-0.341583251953125,0.0406036376953125
1782845366410710300,3.523710205078125,-0.9023895263671875,-0.3404541015625,0.04742431640625
1782845366420714500,3.533714599609375,-0.8980712890625,-0.3423004150390625,0.051422119140625
1782845366430719500,3.543719482421875,-0.890228271484375,-0.3549346923828125,0.05487060546875
1782845366440723200,3.55372314453125,-0.8827056884765625,-0.36541748046875,0.06207275390625
1782845366450727200,3.56372705078125,-0.8830108642578125,-0.370330810546875,0.067352294921875
1782845366460732200,3.573732177734375,-0.8981170654296875,-0.36505126953125,0.0716705322265625
1782845366470736400,3.583736328125,-0.9155731201171875,-0.3641815185546875,0.0726776123046875
1782845366480741400,3.593741455078125,-0.9236602783203125,-0.3649139404296875,0.0802001953125
1782845366490745300,3.603745361328125,-0.92266845703125,-0.3672943115234375,0.074310302734375
1782845366500750300,3.613750244140625,-0.9369964599609375,-0.3687744140625,0.0678863525390625
1782845366510754300,3.62375439453125,-0.9530792236328125,-0.3724517822265625,0.071197509765625
1782845366520759300,3.63375927734375,-0.954620361328125,-0.3745880126953125,0.0729522705078125
1782845366530763300,3.64376318359375,-0.963531494140625,-0.3763580322265625,0.0728302001953125
1782845366540767200,3.653767333984375,-0.9646453857421875,-0.3743743896484375,0.0695343017578125
1782845366550772200,3.663772216796875,-0.965301513671875,-0.3715057373046875,0.064971923828125
1782845366560776200,3.673776123046875,-0.9681396484375,-0.3734893798828125,0.0686492919921875
1782845366570781200,3.68378125,-0.9727325439453125,-0.38226318359375,0.08013916015625
1782845366580785200,3.69378515625,-0.9840087890625,-0.39495849609375,0.086944580078125
1782845366590790100,3.7037900390625,-1.0045318603515625,-0.411865234375,0.0934906005859375
1782845366600794400,3.71379443359375,-1.020294189453125,-0.4156494140625,0.0993804931640625
1782845366610799400,3.72379931640625,-1.0030670166015625,-0.4206085205078125,0.1041412353515625
1782845366620803300,3.73380322265625,-0.97149658203125,-0.41900634765625,0.102874755859375
1782845366630808300,3.743808349609375,-0.940032958984375,-0.4010162353515625,0.104583740234375
1782845366640812000,3.75381201171875,-0.91162109375,-0.3804779052734375,0.0912628173828125
1782845366650817300,3.7638173828125,-0.899139404296875,-0.353271484375,0.080596923828125
1782845366660821200,3.7738212890625,-0.9138031005859375,-0.3283843994140625,0.095184326171875
1782845366670825200,3.7838251953125,-0.9326934814453125,-0.2948150634765625,0.136566162109375
1782845366680830200,3.793830322265625,-0.9596405029296875,-0.259490966796875,0.15106201171875
1782845366690834400,3.80383447265625,-1.02288818359375,-0.226593017578125,0.150177001953125
1782845366700839400,3.81383935546875,-1.100189208984375,-0.2011566162109375,0.1548309326171875
1782845366710843600,3.82384375,-1.145599365234375,-0.1898345947265625,0.154754638671875
1782845366720848600,3.8338486328125,-1.1618804931640625,-0.19036865234375,0.1531219482421875
1782845366730852400,3.843852294921875,-1.1663360595703125,-0.18865966796875,0.1525421142578125
1782845366740857600,3.853857666015625,-1.1514434814453125,-0.18896484375,0.1351165771484375
1782845366750861300,3.863861328125,-1.1367340087890625,-0.1968994140625,0.100128173828125
1782845366760866300,3.8738662109375,-1.10345458984375,-0.2165679931640625,0.0674285888671875
1782845366770870500,3.88387060546875,-1.0601959228515625,-0.243438720703125,0.046539306640625
1782845366780874500,3.89387451171875,-1.019287109375,-0.2588653564453125,0.03631591796875
1782845366790879500,3.90387939453125,-0.9754180908203125,-0.2693328857421875,0.0277557373046875
1782845366800883500,3.913883544921875,-0.929473876953125,-0.27276611328125,0.016815185546875
1782845366810888400,3.923888427734375,-0.88861083984375,-0.2587738037109375,0.0111236572265625
1782845366820892700,3.933892578125,-0.856048583984375,-0.2462310791015625,0.01715087890625
1782845366830897700,3.943897705078125,-0.8383026123046875,-0.2279052734375,0.032135009765625
1782845366840901400,3.9539013671875,-0.8373870849609375,-0.209747314453125,0.0468597412109375
1782845366850906400,3.96390625,-0.8516082763671875,-0.20068359375,0.06005859375
1782845366860910300,3.973910400390625,-0.8420257568359375,-0.1923828125,0.0763702392578125
1782845366870915300,3.983915283203125,-0.826873779296875,-0.1983795166015625,0.1090545654296875
1782845366880919600,3.99391943359375,-0.83221435546875,-0.196563720703125,0.134185791015625
1782845366890923500,4.003923583984375,-0.8415069580078125,-0.17681884765625,0.1526336669921875
1782845366900928500,4.013928466796875,-0.851104736328125,-0.1494140625,0.1511993408203125
1782845366910932500,4.023932373046875,-0.861572265625,-0.1406707763671875,0.1412200927734375
1782845366920937500,4.0339375,-0.8813934326171875,-0.1417388916015625,0.1347503662109375
1782845366930941700,4.043941650390625,-0.92803955078125,-0.1285247802734375,0.1322021484375
1782845366940946700,4.05394677734375,-1.00048828125,-0.1067352294921875,0.13262939453125
1782845366950950400,4.063950439453125,-1.050384521484375,-0.089691162109375,0.12921142578125
1782845366960955400,4.073955322265625,-1.0701751708984375,-0.0888824462890625,0.1186065673828125
1782845366970959400,4.08395947265625,-1.0596923828125,-0.09039306640625,0.1053924560546875
1782845366980964400,4.09396435546875,-1.04046630859375,-0.0967864990234375,0.0989227294921875
1782845366990968600,4.103968505859375,-1.0037384033203125,-0.1012725830078125,0.0935211181640625
1782845367000972500,4.11397265625,-0.95111083984375,-0.098358154296875,0.08544921875
1782845367010977500,4.1239775390625,-0.9098663330078125,-0.0896759033203125,0.0793609619140625
1782845367020981500,4.1339814453125,-0.8812713623046875,-0.102569580078125,0.0708160400390625
1782845367030986500,4.143986572265625,-0.8715667724609375,-0.1175537109375,0.06121826171875
1782845367040990500,4.153990478515625,-0.8820648193359375,-0.1195831298828125,0.058441162109375
1782845367050995700,4.16399560546875,-0.898651123046875,-0.1241607666015625,0.0563201904296875
1782845367060999400,4.17399951171875,-0.915252685546875,-0.1338653564453125,0.0478057861328125
1782845367071004400,4.18400439453125,-0.92791748046875,-0.1371917724609375,0.0403594970703125
1782845367081008400,4.19400830078125,-0.945709228515625,-0.1448822021484375,0.047821044921875
1782845367091013400,4.204013427734375,-0.96954345703125,-0.1655426025390625,0.05291748046875
1782845367101017600,4.214017578125,-0.997222900390625,-0.1879730224609375,0.0606231689453125
1782845367111021600,4.224021484375,-1.0158538818359375,-0.20013427734375,0.0716094970703125
1782845367121026600,4.234026611328125,-1.0336456298828125,-0.203582763671875,0.0776214599609375
1782845367131030500,4.244030517578125,-1.0581207275390625,-0.2052764892578125,0.07904052734375
1782845367141035500,4.254035400390625,-1.088623046875,-0.1996002197265625,0.0781097412109375
1782845367151039500,4.26403955078125,-1.125946044921875,-0.193572998046875,0.07415771484375
1782845367161044500,4.27404443359375,-1.1404266357421875,-0.1946868896484375,0.0644683837890625
1782845367171048400,4.28404833984375,-1.1375274658203125,-0.184844970703125,0.05810546875
1782845367181053400,4.294053466796875,-1.11090087890625,-0.1759033203125,0.048583984375
1782845367191057400,4.304057373046875,-1.0788421630859375,-0.1770782470703125,0.0451202392578125
1782845367201062400,4.3140625,-1.0316162109375,-0.18310546875,0.0455169677734375
1782845367211066400,4.32406640625,-0.9652862548828125,-0.1905670166015625,0.04229736328125
1782845367221070600,4.334070556640625,-0.904693603515625,-0.194793701171875,0.039886474609375
1782845367231075600,4.34407568359375,-0.867431640625,-0.196319580078125,0.0410308837890625
1782845367241079600,4.35407958984375,-0.8462677001953125,-0.1957244873046875,0.0479736328125
1782845367251084500,4.36408447265625,-0.8357696533203125,-0.19915771484375,0.04620361328125
1782845367261088300,4.374088134765625,-0.8228759765625,-0.2097015380859375,0.040802001953125
1782845367271093200,4.38409326171875,-0.8187713623046875,-0.2174224853515625,0.0374298095703125
1782845367281097500,4.394097412109375,-0.827056884765625,-0.226348876953125,0.0329742431640625
1782845367291102500,4.4041025390625,-0.8428802490234375,-0.2341156005859375,0.036529541015625
1782845367301106400,4.4141064453125,-0.8560791015625,-0.2464599609375,0.039886474609375
1782845367311111400,4.424111328125,-0.87548828125,-0.257080078125,0.0347900390625
1782845367321115400,4.434115478515625,-0.9024810791015625,-0.2625885009765625,0.027923583984375
1782845367331119600,4.44411962890625,-0.9264373779296875,-0.2665863037109375,0.0240478515625
1782845367341124600,4.45412451171875,-0.9460906982421875,-0.26318359375,0.0213470458984375
1782845367351128600,4.464128662109375,-0.9681549072265625,-0.2615966796875,0.025604248046875
1782845367361133600,4.474133544921875,-0.9950714111328125,-0.2635650634765625,0.0339813232421875
1782845367371137300,4.48413720703125,-1.0038909912109375,-0.266357421875,0.034149169921875
1782845367381142300,4.494142333984375,-1.0042724609375,-0.2693023681640625,0.034149169921875
1782845367391146500,4.504146484375,-0.996368408203125,-0.2689208984375,0.0366058349609375
1782845367401151500,4.5141513671875,-0.9893035888671875,-0.2644805908203125,0.0399627685546875
1782845367411155500,4.524155517578125,-0.985321044921875,-0.2653045654296875,0.039093017578125
1782845367421160400,4.534160400390625,-0.98858642578125,-0.2675323486328125,0.0404052734375
1782845367431164400,4.544164306640625,-0.9842681884765625,-0.2703704833984375,0.041107177734375
1782845367441168600,4.554168701171875,-0.980224609375,-0.2730560302734375,0.0366363525390625
1782845367451173600,4.564173583984375,-0.981353759765625,-0.271270751953125,0.0349578857421875
1782845367461177600,4.574177490234375,-0.9715118408203125,-0.262939453125,0.0396728515625
1782845367471182600,4.5841826171875,-0.956817626953125,-0.261962890625,0.0363311767578125
1782845367481186300,4.594186279296875,-0.9382171630859375,-0.2684173583984375,0.036468505859375
1782845367491191300,4.60419140625,-0.9141845703125,-0.2707061767578125,0.0407867431640625
1782845367501195500,4.614195556640625,-0.8971710205078125,-0.2670745849609375,0.050079345703125
1782845367511200500,4.624200439453125,-0.891204833984375,-0.2631072998046875,0.052978515625
1782845367521204500,4.63420458984375,-0.9072418212890625,-0.267852783203125,0.037322998046875
1782845367531209500,4.64420947265625,-0.9320068359375,-0.2738800048828125,0.02593994140625
1782845367541213400,4.65421337890625,-0.946807861328125,-0.2776031494140625,0.0189056396484375
1782845367551218400,4.664218505859375,-0.9570465087890625,-0.27618408203125,0.0184326171875
1782845367561222700,4.67422265625,-0.9708709716796875,-0.2813720703125,0.0185546875
1782845367571226600,4.6842265625,-0.9777069091796875,-0.283294677734375,0.0147247314453125
1782845367581231600,4.694231689453125,-0.9843597412109375,-0.268096923828125,0.01177978515625
1782845367591235300,4.7042353515625,-0.989593505859375,-0.269866943359375,0.003662109375
1782845367601240300,4.714240234375,-0.98919677734375,-0.2808990478515625,0.00079345703125
1782845367611244500,4.72424462890625,-0.989349365234375,-0.2758026123046875,0.0001068115234375
1782845367621249500,4.73424951171875,-0.9978790283203125,-0.268829345703125,0.0082550048828125
1782845367631253500,4.74425341796875,-0.9990234375,-0.2805328369140625,0.0148162841796875
1782845367641258500,4.754258544921875,-0.9965362548828125,-0.28741455078125,0.0294189453125
1782845367651262500,4.764262451171875,-0.9933013916015625,-0.278289794921875,0.0469512939453125
1782845367661267500,4.774267333984375,-0.9716339111328125,-0.2850189208984375,0.0553131103515625
1782845367671271700,4.784271728515625,-0.944488525390625,-0.2978973388671875,0.0652313232421875
1782845367681275400,4.794275390625,-0.92681884765625,-0.3055877685546875,0.0725250244140625
1782845367691280100,4.804280029296875,-0.922149658203125,-0.3073883056640625,0.0762939453125
1782845367701284000,4.8142841796875,-0.919036865234375,-0.3186492919921875,0.07421875
1782845367711289000,4.8242890625,-0.9112701416015625,-0.32177734375,0.071319580078125
1782845367721293300,4.834293212890625,-0.9041900634765625,-0.3197784423828125,0.066253662109375
1782845367731298300,4.84429833984375,-0.9058380126953125,-0.325592041015625,0.0576019287109375
1782845367741302000,4.854302001953125,-0.91357421875,-0.3370208740234375,0.0468902587890625
1782845367751307000,4.86430712890625,-0.923583984375,-0.341033935546875,0.0386199951171875
1782845367761311000,4.87431103515625,-0.9256439208984375,-0.332916259765625,0.0328521728515625
1782845367771316000,4.88431591796875,-0.9279937744140625,-0.3274993896484375,0.0216522216796875
1782845367781320200,4.8943203125,-0.9275970458984375,-0.3207550048828125,0.0076751708984375
1782845367791324200,4.90432421875,-0.930145263671875,-0.3175048828125,0.003021240234375
1782845367801329200,4.9143291015625,-0.9355316162109375,-0.3112030029296875,0.005035400390625
1782845367811333000,4.9243330078125,-0.9587860107421875,-0.308258056640625,0.013427734375
1782845367821338000,4.934338134765625,-1.0020294189453125,-0.303466796875,0.0296173095703125
1782845367831342300,4.94434228515625,-1.0585479736328125,-0.2957763671875,0.044891357421875
1782845367841347300,4.954347412109375,-1.1113433837890625,-0.2781982421875,0.058685302734375
1782845367851351000,4.96435107421875,-1.1595306396484375,-0.260894775390625,0.06585693359375
1782845367861356000,4.97435595703125,-1.200897216796875,-0.2441253662109375,0.0697021484375
1782845367871360000,4.984360107421875,-1.2180938720703125,-0.2214202880859375,0.0700836181640625
1782845367881365000,4.994364990234375,-1.211456298828125,-0.2107086181640625,0.0706634521484375
1782845367891369200,5.004369140625,-1.1788482666015625,-0.211181640625,0.074310302734375
1782845367901373200,5.014373291015625,-1.134002685546875,-0.2096405029296875,0.0828399658203125
1782845367911378200,5.024378173828125,-1.0714111328125,-0.22296142578125,0.0801544189453125
1782845367921382100,5.034382080078125,-1.00067138671875,-0.239715576171875,0.068206787109375
1782845367931387100,5.04438720703125,-0.94927978515625,-0.240966796875,0.0626220703125
1782845367941391000,5.05439111328125,-0.9143218994140625,-0.2289886474609375,0.060791015625
1782845367951396400,5.064396240234375,-0.8856353759765625,-0.2153472900390625,0.0464935302734375
1782845367961400000,5.074400146484375,-0.861663818359375,-0.2025146484375,0.024566650390625
1782845367971405000,5.084405029296875,-0.8519439697265625,-0.184417724609375,0.0138092041015625
1782845367981409000,5.094408935546875,-0.8441925048828125,-0.177093505859375,0.0087738037109375
1782845367991414000,5.1044140625,-0.8425750732421875,-0.1777496337890625,0.0083465576171875
1782845368001418200,5.114418212890625,-0.8350982666015625,-0.1844940185546875,0.0146484375
1782845368011423200,5.12442333984375,-0.82672119140625,-0.192626953125,0.038177490234375
1782845368021427200,5.13442724609375,-0.8349151611328125,-0.19805908203125,0.07012939453125
1782845368031431200,5.14443115234375,-0.8542938232421875,-0.1943817138671875,0.099273681640625
1782845368041436200,5.154436279296875,-0.879852294921875,-0.18634033203125,0.1264801025390625
1782845368051440000,5.164440185546875,-0.9058074951171875,-0.180267333984375,0.1512603759765625
1782845368061445000,5.174445068359375,-0.9325408935546875,-0.1816864013671875,0.1738433837890625
1782845368071449000,5.184448974609375,-0.963226318359375,-0.1842193603515625,0.193450927734375
1782845368081454000,5.1944541015625,-0.99395751953125,-0.1962432861328125,0.20892333984375
1782845368091458000,5.2044580078125,-1.0189666748046875,-0.20623779296875,0.2158050537109375
1782845368101463000,5.214463134765625,-1.0370330810546875,-0.2107086181640625,0.22894287109375
1782845368111467000,5.224467041015625,-1.0479583740234375,-0.21240234375,0.236236572265625
1782845368121472000,5.234471923828125,-1.0476531982421875,-0.2125701904296875,0.2311859130859375
1782845368131476200,5.244476318359375,-1.034454345703125,-0.21807861328125,0.22259521484375
1782845368141480200,5.254480224609375,-1.0271759033203125,-0.2327728271484375,0.2105712890625
1782845368151485200,5.264485107421875,-1.0211639404296875,-0.2454986572265625,0.1976776123046875
1782845368161489000,5.274489013671875,-1.0220489501953125,-0.259002685546875,0.186676025390625
1782845368171494000,5.284493896484375,-1.0283050537109375,-0.2517852783203125,0.1787109375
1782845368181498000,5.294498046875,-1.031768798828125,-0.253265380859375,0.16265869140625
1782845368191503000,5.304503173828125,-1.0247802734375,-0.26080322265625,0.146484375
1782845368201507000,5.314507080078125,-1.0185394287109375,-0.2521820068359375,0.1405792236328125
1782845368211512000,5.324511962890625,-0.9973907470703125,-0.24261474609375,0.125701904296875
1782845368221516000,5.33451611328125,-0.971832275390625,-0.233245849609375,0.101593017578125
1782845368231521000,5.34452099609375,-0.9504241943359375,-0.229095458984375,0.0822601318359375
1782845368241525200,5.354525146484375,-0.931243896484375,-0.2329559326171875,0.071807861328125
1782845368251529200,5.364529296875,-0.9094696044921875,-0.233795166015625,0.0706787109375
1782845368261534200,5.3745341796875,-0.895477294921875,-0.235198974609375,0.07318115234375
1782845368271538000,5.384537841796875,-0.8851470947265625,-0.2354736328125,0.0731658935546875
1782845368281543000,5.39454296875,-0.87896728515625,-0.2408447265625,0.0796051025390625
1782845368291547100,5.404547119140625,-0.8633270263671875,-0.2510223388671875,0.084228515625
1782845368301552000,5.41455224609375,-0.838653564453125,-0.25616455078125,0.094573974609375
1782845368311556000,5.42455615234375,-0.81768798828125,-0.2597503662109375,0.10540771484375
1782845368321561000,5.43456103515625,-0.8114471435546875,-0.2675933837890625,0.1162261962890625
1782845368331565000,5.44456494140625,-0.816375732421875,-0.2703094482421875,0.1250457763671875
1782845368341570000,5.454570068359375,-0.8271484375,-0.2675323486328125,0.1259918212890625
1782845368351574300,5.46457421875,-0.85113525390625,-0.26080322265625,0.1317138671875
1782845368361579300,5.474579345703125,-0.8763580322265625,-0.2615966796875,0.134613037109375
1782845368371583200,5.484583251953125,-0.8919830322265625,-0.2703399658203125,0.1349945068359375
1782845368381587000,5.4945869140625,-0.9080657958984375,-0.2732086181640625,0.1444549560546875
1782845368391592000,5.504592041015625,-0.924407958984375,-0.2813568115234375,0.1644134521484375
1782845368401596200,5.51459619140625,-0.935516357421875,-0.2895050048828125,0.173797607421875
1782845368411601200,5.52460107421875,-0.9486083984375,-0.2805633544921875,0.1803741455078125
1782845368421605000,5.534605224609375,-0.9573822021484375,-0.2701873779296875,0.178955078125
1782845368431610000,5.544610107421875,-0.961761474609375,-0.2754364013671875,0.1722869873046875
1782845368441614000,5.554614013671875,-0.96185302734375,-0.2867889404296875,0.1649627685546875
1782845368451619000,5.564619140625,-0.954620361328125,-0.295135498046875,0.1548919677734375
1782845368461623300,5.574623291015625,-0.943359375,-0.29205322265625,0.1398468017578125
1782845368471628300,5.584628173828125,-0.928558349609375,-0.2792816162109375,0.124114990234375
1782845368481632000,5.594632080078125,-0.914520263671875,-0.2763214111328125,0.10430908203125
1782845368491636000,5.604635986328125,-0.903900146484375,-0.274505615234375,0.08642578125
1782845368501641000,5.614640869140625,-0.8926239013671875,-0.2757415771484375,0.0713653564453125
1782845368511645200,5.624645263671875,-0.8853302001953125,-0.2754974365234375,0.0587310791015625
1782845368521650200,5.634650146484375,-0.8775634765625,-0.2819366455078125,0.0492706298828125
1782845368531654100,5.644654052734375,-0.875,-0.2939453125,0.0490264892578125
1782845368541659100,5.6546591796875,-0.8829193115234375,-0.30328369140625,0.0543365478515625
1782845368551663000,5.6646630859375,-0.8928680419921875,-0.317047119140625,0.061859130859375
1782845368561668000,5.674668212890625,-0.901763916015625,-0.333831787109375,0.073211669921875
1782845368571672300,5.68467236328125,-0.9081268310546875,-0.3414154052734375,0.08087158203125
1782845368581677300,5.69467724609375,-0.91650390625,-0.3501434326171875,0.0839996337890625
1782845368591681000,5.704680908203125,-0.92498779296875,-0.35528564453125,0.0876617431640625
1782845368601686000,5.71468603515625,-0.930084228515625,-0.353363037109375,0.091796875
1782845368611690000,5.72468994140625,-0.9275054931640625,-0.3570098876953125,0.0877685546875
1782845368621694200,5.734694091796875,-0.9215850830078125,-0.3557891845703125,0.0867767333984375
1782845368631699200,5.74469921875,-0.9141998291015625,-0.3555908203125,0.091278076171875
1782845368641703200,5.754703125,-0.9113311767578125,-0.357177734375,0.0979766845703125
1782845368651708200,5.764708251953125,-0.909423828125,-0.35986328125,0.102203369140625
1782845368661712100,5.774712158203125,-0.912017822265625,-0.3568115234375,0.100799560546875
1782845368671717000,5.784717041015625,-0.935211181640625,-0.347381591796875,0.1117401123046875
1782845368681721000,5.79472119140625,-0.9581756591796875,-0.350494384765625,0.1189117431640625
1782845368691725800,5.804725830078125,-0.9738616943359375,-0.35888671875,0.1110382080078125
1782845368701729800,5.814729736328125,-0.9860992431640625,-0.365081787109375,0.10675048828125
1782845368711734800,5.82473486328125,-0.986297607421875,-0.3640594482421875,0.10565185546875
1782845368721738800,5.83473876953125,-0.9737701416015625,-0.3649139404296875,0.100830078125
1782845368731743000,5.844742919921875,-0.96038818359375,-0.3659210205078125,0.0950469970703125
1782845368741748000,5.854748046875,-0.9380035400390625,-0.361297607421875,0.092315673828125
1782845368751751700,5.864751708984375,-0.9179229736328125,-0.356109619140625,0.0900421142578125
1782845368761756700,5.874756591796875,-0.9080963134765625,-0.35223388671875,0.090118408203125
1782845368771760600,5.8847607421875,-0.9028472900390625,-0.35748291015625,0.089202880859375
1782845368781765600,5.894765625,-0.9024810791015625,-0.3755340576171875,0.08526611328125
1782845368791769900,5.904769775390625,-0.914825439453125,-0.3935089111328125,0.0819854736328125
1782845368801774800,5.91477490234375,-0.9329071044921875,-0.40106201171875,0.08245849609375
1782845368811778800,5.92477880859375,-0.9355316162109375,-0.40118408203125,0.083343505859375
1782845368821783800,5.93478369140625,-0.9376068115234375,-0.3958740234375,0.0996856689453125
1782845368831787800,5.944787841796875,-0.9327545166015625,-0.397247314453125,0.122650146484375
1782845368841792800,5.954792724609375,-0.932586669921875,-0.39215087890625,0.1486053466796875
1782845368851797000,5.964796875,-0.9430999755859375,-0.3614501953125,0.183807373046875
1782845368861800700,5.97480078125,-0.9675140380859375,-0.3160400390625,0.209716796875
1782845368871805700,5.9848056640625,-0.994171142578125,-0.2890777587890625,0.2182159423828125
1782845368881809700,5.9948095703125,-1.019378662109375,-0.2806549072265625,0.220306396484375
1782845368891814700,6.004814697265625,-1.0567626953125,-0.2630767822265625,0.2493133544921875
1782845368901819000,6.01481884765625,-1.112518310546875,-0.2275238037109375,0.267578125
1782845368911824000,6.024823974609375,-1.16326904296875,-0.2176055908203125,0.270965576171875
1782845368921827800,6.034827880859375,-1.1705169677734375,-0.2095489501953125,0.2589874267578125
1782845368931832800,6.044832763671875,-1.1521453857421875,-0.19952392578125,0.2319183349609375
1782845368941836800,6.0548369140625,-1.1087646484375,-0.2166748046875,0.2041168212890625
1782845368951841800,6.064841796875,-1.0589752197265625,-0.2189788818359375,0.179290771484375
1782845368961845800,6.074845703125,-1.01397705078125,-0.223602294921875,0.1550445556640625
1782845368971850800,6.084850830078125,-0.963226318359375,-0.233795166015625,0.1310272216796875
1782845368981854700,6.094854736328125,-0.9250640869140625,-0.2260894775390625,0.1143035888671875
1782845368991858700,6.104858642578125,-0.9024200439453125,-0.2257537841796875,0.0982513427734375
1782845369001863700,6.11486376953125,-0.8909912109375,-0.22802734375,0.093353271484375
1782845369011867600,6.12486767578125,-0.8894195556640625,-0.2124481201171875,0.0926513671875
1782845369021872600,6.13487255859375,-0.8865966796875,-0.1888580322265625,0.0894317626953125
1782845369031876900,6.144876953125,-0.884307861328125,-0.178466796875,0.08099365234375
1782845369041881900,6.1548818359375,-0.8803558349609375,-0.18646240234375,0.0758209228515625
1782845369051885800,6.1648857421875,-0.8746795654296875,-0.183502197265625,0.0807037353515625
1782845369061890800,6.174890869140625,-0.874542236328125,-0.1692352294921875,0.08868408203125
1782845369071894800,6.184894775390625,-0.878509521484375,-0.146148681640625,0.09747314453125
1782845369081899800,6.194899658203125,-0.8832244873046875,-0.1326751708984375,0.1034393310546875
1782845369091903700,6.20490380859375,-0.8888702392578125,-0.11651611328125,0.1088409423828125
1782845369101908700,6.21490869140625,-0.9013671875,-0.1073150634765625,0.10797119140625
1782845369111912700,6.22491259765625,-0.9206085205078125,-0.1004180908203125,0.0965728759765625
1782845369121916700,6.234916748046875,-0.9511871337890625,-0.0858001708984375,0.0844879150390625
1782845369131921700,6.244921630859375,-0.9640350341796875,-0.0691375732421875,0.069793701171875
1782845369141926000,6.25492578125,-0.95703125,-0.07855224609375,0.0559234619140625
1782845369151931000,6.264930908203125,-0.960205078125,-0.0980224609375,0.050567626953125
1782845369161934800,6.274934814453125,-0.9700164794921875,-0.111602783203125,0.0471649169921875
1782845369171939800,6.28493994140625,-0.9771270751953125,-0.123626708984375,0.043426513671875
1782845369181943800,6.29494384765625,-0.9814605712890625,-0.1380615234375,0.0403594970703125
1782845369191948800,6.30494873046875,-0.9858551025390625,-0.1521759033203125,0.041015625
1782845369201952800,6.314952880859375,-1.003082275390625,-0.145904541015625,0.043182373046875
1782845369211957800,6.324957763671875,-1.03326416015625,-0.1414947509765625,0.04608154296875
1782845369221961700,6.334961669921875,-1.05615234375,-0.1470184326171875,0.043487548828125
1782845369231965700,6.344965576171875,-1.06866455078125,-0.160675048828125,0.038330078125
1782845369241970700,6.354970703125,-1.070770263671875,-0.1596527099609375,0.03131103515625
1782845369251975000,6.364974853515625,-1.0701904296875,-0.1439971923828125,0.023345947265625
1782845369261980000,6.37497998046875,-1.0600738525390625,-0.135589599609375,0.0096282958984375
1782845369271983900,6.38498388671875,-1.0366058349609375,-0.1406097412109375,-0.008148193359375
1782845369281988900,6.39498876953125,-0.9993133544921875,-0.1518096923828125,-0.0193939208984375
1782845369291992600,6.40499267578125,-0.95941162109375,-0.1611328125,-0.0202178955078125
1782845369301997600,6.41499755859375,-0.917388916015625,-0.1651611328125,-0.00714111328125
1782845369312001800,6.425001708984375,-0.87933349609375,-0.171051025390625,0.0072479248046875
1782845369322006800,6.4350068359375,-0.8523101806640625,-0.1778411865234375,0.0186767578125
1782845369332010800,6.4450107421875,-0.838592529296875,-0.185516357421875,0.0279388427734375
1782845369342015700,6.455015625,-0.8416748046875,-0.1958465576171875,0.0348663330078125
1782845369352019700,6.465019775390625,-0.85162353515625,-0.20269775390625,0.0357818603515625
1782845369362024700,6.475024658203125,-0.8656768798828125,-0.210418701171875,0.0280609130859375
1782845369372029000,6.48502880859375,-0.89044189453125,-0.21307373046875,0.0287017822265625
1782845369382033000,6.495032958984375,-0.9215087890625,-0.212188720703125,0.0319366455078125
1782845369392038000,6.505037841796875,-0.9580535888671875,-0.2183837890625,0.0329437255859375
1782845369402041600,6.51504150390625,-0.98443603515625,-0.23199462890625,0.03302001953125
1782845369412046600,6.525046630859375,-0.99920654296875,-0.244598388671875,0.0384368896484375
1782845369422050800,6.53505078125,-1.0015869140625,-0.2482452392578125,0.0393829345703125
1782845369432055800,6.545055908203125,-0.998291015625,-0.2526092529296875,0.038787841796875
1782845369442059800,6.555059814453125,-0.996917724609375,-0.2505035400390625,0.0411834716796875
1782845369452064800,6.565064697265625,-0.9948883056640625,-0.249420166015625,0.038543701171875
1782845369462068700,6.57506884765625,-0.9916839599609375,-0.25390625,0.0362396240234375
1782845369472073700,6.58507373046875,-0.9844970703125,-0.2558746337890625,0.039764404296875
1782845369482078000,6.595077880859375,-0.9836273193359375,-0.2560272216796875,0.0440216064453125
1782845369492083000,6.6050830078125,-0.9874267578125,-0.2545166015625,0.044158935546875
1782845369502087000,6.6150869140625,-0.990081787109375,-0.25079345703125,0.0427398681640625
1782845369512090600,6.625090576171875,-0.9996185302734375,-0.253387451171875,0.03857421875
1782845369522095600,6.635095703125,-0.9973297119140625,-0.261932373046875,0.0408935546875
1782845369532099800,6.645099853515625,-0.9883575439453125,-0.268707275390625,0.041168212890625
1782845369542104800,6.655104736328125,-0.9824371337890625,-0.2776336669921875,0.0396728515625
1782845369552108800,6.66510888671875,-0.975372314453125,-0.2800445556640625,0.0395050048828125
1782845369562113800,6.67511376953125,-0.9697113037109375,-0.2799224853515625,0.0335235595703125
1782845369572117800,6.68511767578125,-0.9658355712890625,-0.2762603759765625,0.02996826171875
1782845369582122800,6.695122802734375,-0.966949462890625,-0.2746429443359375,0.0303802490234375
1782845369592126700,6.705126708984375,-0.96771240234375,-0.2656707763671875,0.026885986328125
1782845369602132000,6.715132080078125,-0.9658966064453125,-0.26068115234375,0.0184478759765625
1782845369612136000,6.725135986328125,-0.9618377685546875,-0.2645416259765625,0.0101165771484375
1782845369622141000,6.735140869140625,-0.9564666748046875,-0.2624359130859375,0.0086212158203125
1782845369632144600,6.74514453125,-0.9496612548828125,-0.2650299072265625,0.0051727294921875
1782845369642148600,6.755148681640625,-0.9456024169921875,-0.2709503173828125,0.004150390625
1782845369652153900,6.76515380859375,-0.94342041015625,-0.28009033203125,0.0039825439453125
1782845369662157800,6.77515771484375,-0.94451904296875,-0.281890869140625,0.007415771484375
1782845369672162800,6.785162841796875,-0.9472808837890625,-0.28192138671875,0.0098114013671875
1782845369682166800,6.795166748046875,-0.952972412109375,-0.2803802490234375,0.008819580078125
1782845369692172000,6.805172119140625,-0.96002197265625,-0.27655029296875,0.0118560791015625
1782845369702176000,6.815176025390625,-0.9663543701171875,-0.2704925537109375,0.010894775390625
1782845369712181000,6.825180908203125,-0.971893310546875,-0.2734527587890625,0.0094146728515625
1782845369722185200,6.835185302734375,-0.9735870361328125,-0.2788238525390625,0.014373779296875
1782845369732190200,6.845190185546875,-0.9666748046875,-0.2766571044921875,0.0238494873046875
1782845369742194200,6.855194091796875,-0.9577789306640625,-0.27996826171875,0.02777099609375
1782845369752199200,6.86519921875,-0.946075439453125,-0.288818359375,0.030364990234375
1782845369762203100,6.875203125,-0.93389892578125,-0.2948760986328125,0.0337677001953125
1782845369772207400,6.885207275390625,-0.9191436767578125,-0.2960968017578125,0.03460693359375
1782845369782212400,6.89521240234375,-0.8999176025390625,-0.2963104248046875,0.0362396240234375
1782845369792216000,6.905216064453125,-0.893157958984375,-0.3040771484375,0.0383453369140625
1782845369802221000,6.915220947265625,-0.8985137939453125,-0.306427001953125,0.03399658203125
1782845369812225000,6.92522509765625,-0.9045562744140625,-0.305633544921875,0.026641845703125
1782845369822230000,6.93522998046875,-0.9075469970703125,-0.3092041015625,0.0218353271484375
1782845369832234200,6.945234130859375,-0.917633056640625,-0.3082275390625,0.0240020751953125
1782845369842239200,6.9552392578125,-0.9284210205078125,-0.300567626953125,0.024627685546875
1782845369852243200,6.9652431640625,-0.914794921875,-0.293792724609375,0.0242767333984375
1782845369862248200,6.975248291015625,-0.8967132568359375,-0.2867279052734375,0.0237274169921875
1782845369872252200,6.985252197265625,-0.8829345703125,-0.275115966796875,0.0161590576171875
1782845369882257200,6.995257080078125,-0.87030029296875,-0.2747802734375,0.0090484619140625
1782845369892261400,7.005261474609375,-0.875335693359375,-0.2722625732421875,0.0207672119140625
1782845369902266400,7.015266357421875,-0.903900146484375,-0.260101318359375,0.0535736083984375
1782845369912270000,7.02527001953125,-0.9617156982421875,-0.24444580078125,0.0914459228515625
1782845369922274000,7.035274169921875,-1.0470733642578125,-0.2279815673828125,0.112060546875
1782845369932279000,7.045279052734375,-1.119659423828125,-0.2265472412109375,0.11163330078125
1782845369942283300,7.055283203125,-1.169647216796875,-0.2246856689453125,0.105712890625
1782845369952288300,7.065288330078125,-1.1957244873046875,-0.2209014892578125,0.108367919921875
1782845369962292200,7.075292236328125,-1.198333740234375,-0.2252960205078125,0.102996826171875
1782845369972297200,7.085297119140625,-1.1739349365234375,-0.232635498046875,0.0959930419921875
1782845369982301200,7.09530126953125,-1.142913818359375,-0.2380218505859375,0.084228515625
1782845369992306200,7.10530615234375,-1.1059112548828125,-0.241912841796875,0.0694427490234375
1782845370002310100,7.11531005859375,-1.0633087158203125,-0.2427215576171875,0.0498504638671875
1782845370012315100,7.125315185546875,-1.0305938720703125,-0.24224853515625,0.0247344970703125
1782845370022319000,7.135319091796875,-0.9893798828125,-0.2337799072265625,0.005523681640625
1782845370032324000,7.145323974609375,-0.9462738037109375,-0.2176055908203125,-0.0061798095703125
1782845370042328000,7.155328125,-0.9190673828125,-0.205047607421875,-0.0114593505859375
1782845370052332300,7.165332275390625,-0.896942138671875,-0.195892333984375,-0.009246826171875
1782845370062337300,7.175337158203125,-0.879638671875,-0.190948486328125,0.0004119873046875
1782845370072341200,7.18534130859375,-0.878173828125,-0.1919403076171875,0.013824462890625
1782845370082346200,7.19534619140625,-0.8811492919921875,-0.1913299560546875,0.02886962890625
1782845370092350200,7.20535009765625,-0.8803253173828125,-0.1949462890625,0.0464324951171875
1782845370102355200,7.215355224609375,-0.8804779052734375,-0.2003021240234375,0.0673828125
1782845370112359200,7.225359130859375,-0.8824920654296875,-0.1920623779296875,0.09136962890625
1782845370122364200,7.2353642578125,-0.9025421142578125,-0.1894378662109375,0.103790283203125
1782845370132368100,7.2453681640625,-0.928955078125,-0.18695068359375,0.1111297607421875
1782845370142373000,7.255373046875,-0.9470367431640625,-0.1864776611328125,0.123199462890625
1782845370152377000,7.265377197265625,-0.9588775634765625,-0.191986083984375,0.1398773193359375
1782845370162382000,7.275382080078125,-0.9619140625,-0.1960601806640625,0.1510162353515625
1782845370172386000,7.285385986328125,-0.9659271240234375,-0.2038116455078125,0.16265869140625
1782845370182390300,7.295390380859375,-0.9723358154296875,-0.21746826171875,0.1693572998046875
1782845370192395300,7.305395263671875,-0.9752044677734375,-0.2280426025390625,0.173980712890625
1782845370202399200,7.315399169921875,-0.9732666015625,-0.2360687255859375,0.177703857421875
1782845370212404200,7.325404296875,-0.971221923828125,-0.24359130859375,0.1810760498046875
1782845370222408000,7.335407958984375,-0.9691619873046875,-0.2481231689453125,0.18035888671875
1782845370232413000,7.345412841796875,-0.957733154296875,-0.26025390625,0.1819610595703125
1782845370242417200,7.355417236328125,-0.9559173583984375,-0.2729339599609375,0.1895599365234375
1782845370252422100,7.365422119140625,-0.9627227783203125,-0.28521728515625,0.19024658203125
1782845370262426000,7.375426025390625,-0.9764251708984375,-0.29217529296875,0.186126708984375
1782845370272431000,7.38543115234375,-0.992462158203125,-0.2894134521484375,0.181640625
1782845370282435000,7.39543505859375,-0.999359130859375,-0.275360107421875,0.1738128662109375
1782845370292440000,7.405440185546875,-1.0149078369140625,-0.25787353515625,0.1663818359375
1782845370302444300,7.4154443359375,-1.021575927734375,-0.251556396484375,0.1467132568359375
1782845370312449300,7.42544921875,-1.019775390625,-0.243988037109375,0.1226959228515625
1782845370322453200,7.435453369140625,-1.0198516845703125,-0.2275390625,0.10467529296875
1782845370332457000,7.44545703125,-1.0117950439453125,-0.2234649658203125,0.0845184326171875
1782845370342462000,7.4554619140625,-0.9990386962890625,-0.2183837890625,0.0745849609375
1782845370352466200,7.465466064453125,-0.976531982421875,-0.2101898193359375,0.0673828125
1782845370362471200,7.47547119140625,-0.9513702392578125,-0.209930419921875,0.0621185302734375
1782845370372475100,7.48547509765625,-0.9354400634765625,-0.2206268310546875,0.05865478515625
1782845370382480100,7.495480224609375,-0.9209747314453125,-0.2265472412109375,0.0556182861328125
1782845370392484000,7.505484130859375,-0.9090118408203125,-0.22711181640625,0.0597076416015625
1782845370402489000,7.515489013671875,-0.9001922607421875,-0.2294769287109375,0.06719970703125
1782845370412493300,7.525493408203125,-0.8919830322265625,-0.23382568359375,0.0668487548828125
1782845370422498300,7.535498291015625,-0.883148193359375,-0.2410888671875,0.064544677734375
1782845370432502300,7.545502197265625,-0.8821868896484375,-0.249786376953125,0.0685882568359375
1782845370442507300,7.55550732421875,-0.8814544677734375,-0.2564849853515625,0.073089599609375
1782845370452511000,7.565510986328125,-0.8860626220703125,-0.2679901123046875,0.0793914794921875
1782845370462515200,7.57551513671875,-0.8999481201171875,-0.273223876953125,0.0879974365234375
1782845370472520200,7.585520263671875,-0.9250640869140625,-0.269073486328125,0.0950164794921875
1782845370482524200,7.595524169921875,-0.9518890380859375,-0.27276611328125,0.0999298095703125
1782845370492529200,7.605529052734375,-0.976226806640625,-0.2756500244140625,0.1014251708984375
1782845370502533000,7.615533203125,-0.9936370849609375,-0.2746734619140625,0.10760498046875
1782845370512538000,7.6255380859375,-0.9973297119140625,-0.268524169921875,0.115264892578125
1782845370522542300,7.635542236328125,-0.98785400390625,-0.264739990234375,0.1154327392578125
1782845370532547300,7.64554736328125,-0.96771240234375,-0.265777587890625,0.113037109375
1782845370542551000,7.655551025390625,-0.9423980712890625,-0.2699737548828125,0.109649658203125
1782845370552556000,7.66555615234375,-0.920928955078125,-0.2763671875,0.10736083984375
1782845370562560000,7.67556005859375,-0.907440185546875,-0.28106689453125,0.1065826416015625
1782845370572565000,7.68556494140625,-0.896453857421875,-0.2821807861328125,0.1018829345703125
1782845370582569200,7.6955693359375,-0.89349365234375,-0.2781982421875,0.095367431640625
1782845370592574200,7.70557421875,-0.8986663818359375,-0.2776947021484375,0.0887451171875
1782845370602578200,7.715578125,-0.898468017578125,-0.286956787109375,0.072113037109375
1782845370612582100,7.72558203125,-0.88677978515625,-0.296142578125,0.059783935546875
1782845370622587100,7.735587158203125,-0.8874053955078125,-0.2966766357421875,0.05999755859375
1782845370632591400,7.74559130859375,-0.8957977294921875,-0.28692626953125,0.0642852783203125
1782845370642596400,7.755596435546875,-0.900909423828125,-0.28448486328125,0.061553955078125
1782845370652600000,7.76560009765625,-0.9014892578125,-0.2994384765625,0.0583343505859375
1782845370662605000,7.77560498046875,-0.9009246826171875,-0.3121490478515625,0.0635223388671875
1782845370672609000,7.785609130859375,-0.902587890625,-0.3183135986328125,0.0721893310546875
1782845370682614000,7.795614013671875,-0.9026947021484375,-0.319183349609375,0.07379150390625
1782845370692618000,7.805617919921875,-0.9030914306640625,-0.3250732421875,0.0739898681640625
1782845370702623000,7.815623046875,-0.902740478515625,-0.3361358642578125,0.073699951171875
1782845370712627000,7.825626953125,-0.905303955078125,-0.34149169921875,0.0776824951171875
1782845370722632000,7.8356318359375,-0.90362548828125,-0.34552001953125,0.082794189453125
1782845370732636000,7.845635986328125,-0.898223876953125,-0.3501434326171875,0.08331298828125
1782845370742641000,7.855640869140625,-0.9006195068359375,-0.341064453125,0.0862579345703125
1782845370752644900,7.865644775390625,-0.907623291015625,-0.33514404296875,0.0890960693359375
1782845370762648800,7.87564892578125,-0.918060302734375,-0.3372802734375,0.0896453857421875
1782845370772653800,7.88565380859375,-0.922515869140625,-0.3386077880859375,0.089080810546875
1782845370782657800,7.89565771484375,-0.926544189453125,-0.3458709716796875,0.093719482421875
1782845370792662800,7.905662841796875,-0.9271392822265625,-0.3518829345703125,0.0911712646484375
1782845370802667000,7.9156669921875,-0.9263153076171875,-0.347991943359375,0.08502197265625
1782845370812672000,7.925672119140625,-0.9209136962890625,-0.338531494140625,0.0826568603515625
1782845370822676000,7.935676025390625,-0.9067535400390625,-0.33758544921875,0.0774383544921875
1782845370832681000,7.945680908203125,-0.8973541259765625,-0.328460693359375,0.0759429931640625
1782845370842684700,7.9556845703125,-0.8879852294921875,-0.3257598876953125,0.0620574951171875
1782845370852689700,7.965689697265625,-0.8761444091796875,-0.338134765625,0.0536651611328125
1782845370862694000,7.97569384765625,-0.874420166015625,-0.3571014404296875,0.0550384521484375
1782845370872699000,7.985698974609375,-0.8894500732421875,-0.368194580078125,0.068267822265625
1782845370882702800,7.995702880859375,-0.9190521240234375,-0.37213134765625,0.076690673828125
1782845370892707800,8.005707763671875,-0.95294189453125,-0.3736114501953125,0.0812225341796875
1782845370902711800,8.0157119140625,-0.978546142578125,-0.373260498046875,0.0722198486328125
1782845370912716000,8.025716064453125,-0.9904632568359375,-0.3765869140625,0.0585174560546875
1782845370922721000,8.035720947265625,-0.9874267578125,-0.379669189453125,0.051239013671875
1782845370932725000,8.04572509765625,-0.9824066162109375,-0.385772705078125,0.0512542724609375
1782845370942730000,8.05572998046875,-0.9820556640625,-0.396697998046875,0.048614501953125
1782845370952733700,8.065733642578126,-0.9809722900390625,-0.402191162109375,0.0568084716796875
1782845370962738700,8.07573876953125,-0.973358154296875,-0.3997802734375,0.0622711181640625
1782845370972743000,8.085742919921875,-0.9596710205078125,-0.39556884765625,0.058685302734375
1782845370982748000,8.095747802734374,-0.9466705322265625,-0.3794097900390625,0.066680908203125
1782845370992751900,8.105751953125,-0.934967041015625,-0.365081787109375,0.0688323974609375
1782845371002756900,8.1157568359375,-0.9302978515625,-0.3589019775390625,0.0689697265625
1782845371012760800,8.1257607421875,-0.940460205078125,-0.35302734375,0.0780487060546875
1782845371022765800,8.135765869140625,-0.9557342529296875,-0.346649169921875,0.0968017578125
1782845371032769800,8.145769775390624,-0.977508544921875,-0.3282470703125,0.1158447265625
1782845371042775000,8.155775146484375,-0.9956512451171875,-0.2999114990234375,0.131866455078125
1782845371052779000,8.165779052734376,-1.014556884765625,-0.2776947021484375,0.145050048828125
1782845371062782700,8.17578271484375,-1.03253173828125,-0.265167236328125,0.1607513427734375
1782845371072787700,8.18578759765625,-1.047607421875,-0.2643585205078125,0.17266845703125
1782845371082791700,8.195791748046876,-1.0507659912109375,-0.2526092529296875,0.1855316162109375
1782845371092797000,8.205796875,-1.0535125732421875,-0.2337799072265625,0.1914215087890625
1782845371102801000,8.21580078125,-1.0464324951171875,-0.2238616943359375,0.1869354248046875
1782845371112806000,8.225805908203125,-1.031158447265625,-0.2308807373046875,0.17730712890625
1782845371122809900,8.235809814453125,-1.0062713623046875,-0.24468994140625,0.168792724609375
1782845371132814800,8.24581494140625,-0.986297607421875,-0.2471160888671875,0.160369873046875
1782845371142818800,8.25581884765625,-0.9779815673828125,-0.2530670166015625,0.145538330078125
1782845371152823800,8.26582373046875,-0.96759033203125,-0.2597808837890625,0.121612548828125
1782845371162828000,8.275828125,-0.95269775390625,-0.266143798828125,0.096832275390625
1782845371172833000,8.2858330078125,-0.937103271484375,-0.266448974609375,0.074493408203125
1782845371182836700,8.295836669921876,-0.9213104248046875,-0.2742919921875,0.0611572265625
1782845371192841700,8.305841796875,-0.916107177734375,-0.269073486328125,0.0648956298828125
1782845371202845700,8.315845703125,-0.913665771484375,-0.256500244140625,0.0761871337890625
1782845371212850000,8.325849853515624,-0.911834716796875,-0.253692626953125,0.0901336669921875
1782845371222855000,8.33585498046875,-0.908935546875,-0.24822998046875,0.10052490234375
1782845371232859000,8.34585888671875,-0.9007720947265625,-0.237548828125,0.1024322509765625
1782845371242863900,8.35586376953125,-0.8874359130859375,-0.22265625,0.1038818359375
1782845371252867800,8.365867919921875,-0.8747100830078125,-0.2079010009765625,0.109771728515625
1782845371262872800,8.375872802734374,-0.8736114501953125,-0.1883087158203125,0.1162567138671875
1782845371272877000,8.385876953125,-0.8831024169921875,-0.17193603515625,0.1251373291015625
1782845371282882000,8.395882080078126,-0.894805908203125,-0.161163330078125,0.1298828125
1782845371292885800,8.4058857421875,-0.9104461669921875,-0.1478118896484375,0.126434326171875
1782845371302890800,8.415890869140625,-0.9320526123046875,-0.1391143798828125,0.1172027587890625
1782845371312894700,8.425894775390624,-0.9529266357421875,-0.136749267578125,0.1095733642578125
1782845371322899700,8.435899658203125,-0.965576171875,-0.140533447265625,0.106781005859375
1782845371332904000,8.445904052734376,-0.97320556640625,-0.13983154296875,0.09967041015625
1782845371342909000,8.455908935546875,-0.9763946533203125,-0.1432647705078125,0.091705322265625
1782845371352913000,8.465912841796875,-0.977264404296875,-0.1427001953125,0.086761474609375
1782845371362916900,8.475916748046876,-0.979034423828125,-0.1359100341796875,0.082977294921875
1782845371372921900,8.485921875,-0.9746551513671875,-0.137054443359375,0.076416015625
1782845371382925800,8.49592578125,-0.96697998046875,-0.1431427001953125,0.073638916015625
1782845371392930800,8.505930908203124,-0.9676513671875,-0.149627685546875,0.0783233642578125
1782845371402934800,8.515934814453125,-0.9654541015625,-0.1540069580078125,0.0817413330078125
1782845371412939800,8.525939697265626,-0.964141845703125,-0.159149169921875,0.08770751953125
1782845371422943700,8.53594384765625,-0.9721527099609375,-0.160552978515625,0.0917816162109375
1782845371432948700,8.54594873046875,-0.98406982421875,-0.16619873046875,0.0838470458984375
1782845371442953000,8.555952880859374,-1.001251220703125,-0.178619384765625,0.0825653076171875
1782845371452958000,8.5659580078125,-1.018402099609375,-0.18475341796875,0.086212158203125
1782845371462962000,8.5759619140625,-1.03485107421875,-0.1843109130859375,0.090606689453125
1782845371472967000,8.585966796875,-1.051788330078125,-0.18609619140625,0.089202880859375
1782845371482971000,8.595970947265625,-1.06878662109375,-0.1873321533203125,0.0911712646484375
1782845371492975900,8.605975830078124,-1.0806884765625,-0.1890106201171875,0.09344482421875
1782845371502979800,8.615979736328125,-1.0821380615234375,-0.1906280517578125,0.0896453857421875
1782845371512983800,8.62598388671875,-1.0536346435546875,-0.1856689453125,0.0853729248046875
1782845371522988800,8.63598876953125,-1.0094451904296875,-0.1767730712890625,0.07232666015625
1782845371532992800,8.64599267578125,-0.968017578125,-0.171173095703125,0.0546722412109375
1782845371542997800,8.655997802734374,-0.919708251953125,-0.1732940673828125,0.0446319580078125
1782845371553002000,8.666001953125,-0.884674072265625,-0.177764892578125,0.04510498046875
1782845371563007000,8.676007080078126,-0.8591461181640625,-0.1829833984375,0.0507965087890625
1782845371573011000,8.686010986328125,-0.8457489013671875,-0.1858978271484375,0.0627593994140625
1782845371583016000,8.696015869140625,-0.8644561767578125,-0.2011260986328125,0.0514984130859375
1782845371593020000,8.70602001953125,-0.8671417236328125,-0.210174560546875,0.03839111328125
1782845371603025000,8.71602490234375,-0.878662109375,-0.193023681640625,0.0261077880859375
1782845371613028900,8.72602880859375,-0.87664794921875,-0.1845245361328125,0.0061798095703125
1782845371623033900,8.736033935546875,-0.8681640625,-0.1928253173828125,-0.0064544677734375
1782845371633037800,8.746037841796875,-0.88250732421875,-0.201934814453125,0.0063629150390625
