time,seconds_elapsed,z,y,x
1782845362961672400,0.07467236328125,0.15928474068641663,0.007545497268438339,0.06145497411489487
1782845362971677400,0.084677490234375,0.12637099623680115,0.024964435026049614,0.05616753548383713
1782845362981681700,0.094681640625,0.10315075516700745,0.03405926376581192,0.05898642912507057
1782845362991686700,0.104686767578125,0.08438824862241745,0.03454316034913063,0.06642304360866547
1782845363001690600,0.114690673828125,0.06887923181056976,0.02903769351541996,0.07811099290847778
1782845363011695600,0.124695556640625,0.058361347764730453,0.0259148720651865,0.08883953839540482
1782845363021699300,0.13469921875,0.04800387844443321,0.03093590773642063,0.08873234689235687
1782845363031704300,0.144704345703125,0.0388423353433609,0.042500417679548264,0.07686582952737808
1782845363041708500,0.15470849609375,0.0263962559401989,0.06226462870836258,0.047509923577308655
1782845363051713500,0.164713623046875,0.016613665968179703,0.08248254656791687,0.01581910438835621
1782845363061717500,0.174717529296875,0.020004136487841606,0.0958673283457756,-0.01525119598954916
1782845363071722500,0.184722412109375,0.030166760087013245,0.10750693827867508,-0.03670402243733406
1782845363081726500,0.1947265625,0.041575320065021515,0.12707065045833588,-0.05293324962258339
1782845363091730700,0.204730712890625,0.051129408180713654,0.1271207183599472,-0.05671866610646248
1782845363101735700,0.214735595703125,0.07362135499715805,0.11268775910139084,-0.0527598112821579
1782845363111739600,0.22473974609375,0.10212729871273041,0.09538067132234573,-0.05085485056042671
1782845363121744600,0.23474462890625,0.1322644203901291,0.08711741864681244,-0.04963698610663414
1782845363131748400,0.244748291015625,0.16054345667362213,0.07995857298374176,-0.03495924174785614
1782845363141753300,0.25475341796875,0.18026986718177795,0.07461512833833694,-0.01869598589837551
1782845363151757600,0.264757568359375,0.19420725107192993,0.06929599493741989,-0.010035650804638863
1782845363161762600,0.274762451171875,0.20678380131721497,0.07702736556529999,-0.014512884430587292
1782845363171766500,0.2847666015625,0.21145445108413696,0.08649410307407379,-0.03264821320772171
1782845363181770500,0.2947705078125,0.2220306694507599,0.10626834630966187,-0.05948156863451004
1782845363191775500,0.304775390625,0.23286281526088715,0.11924593150615692,-0.08057700097560883
1782845363201779700,0.31477978515625,0.2424638718366623,0.12131213396787643,-0.09916244447231293
1782845363211784700,0.32478466796875,0.2525782883167267,0.12130095064640045,-0.1270470768213272
1782845363221788700,0.33478857421875,0.26498398184776306,0.11413771659135818,-0.1495295614004135
1782845363231793700,0.344793701171875,0.2742922604084015,0.10506033152341843,-0.16764384508132935
1782845363241797400,0.35479736328125,0.26767271757125854,0.09427054226398468,-0.188011035323143
1782845363251802400,0.36480224609375,0.24885988235473633,0.08220695704221725,-0.2139507681131363
1782845363261806600,0.374806640625,0.22769834101200104,0.06485548615455627,-0.23003681004047394
1782845363271811600,0.3848115234375,0.1972794532775879,0.05134420096874237,-0.22833850979804993
1782845363281815600,0.394815673828125,0.15732838213443756,0.041275497525930405,-0.2159944772720337
1782845363291819500,0.404819580078125,0.10988762229681015,0.044035330414772034,-0.2020040899515152
1782845363301824500,0.414824462890625,0.06252863258123398,0.042534105479717255,-0.19856567680835724
1782845363311828700,0.424828857421875,0.008188427425920963,0.03744453936815262,-0.202095165848732
1782845363321833700,0.434833740234375,-0.03819691389799118,0.03679472953081131,-0.1966191679239273
1782845363331837400,0.44483740234375,-0.07302972674369812,0.029983695596456528,-0.17998000979423523
1782845363341842400,0.454842529296875,-0.08755958825349808,0.018789006397128105,-0.1460220366716385
1782845363351846400,0.464846435546875,-0.08624158799648285,0.019688623026013374,-0.09912776947021484
1782845363361851400,0.474851318359375,-0.08627110719680786,0.028972625732421875,-0.04338441789150238
1782845363371855600,0.484855712890625,-0.08586443960666656,0.03965616226196289,0.020898165181279182
1782845363381860600,0.494860595703125,-0.08471707254648209,0.05071751028299332,0.08168082684278488
1782845363391864600,0.504864501953125,-0.0934961810708046,0.056840382516384125,0.13955743610858917
1782845363401868500,0.51486865234375,-0.09228985011577606,0.059663426131010056,0.18460506200790405
1782845363411873500,0.52487353515625,-0.08243029564619064,0.058641038835048676,0.20359580218791962
1782845363421877500,0.53487744140625,-0.06430555880069733,0.05902182683348656,0.20820605754852295
1782845363431882500,0.544882568359375,-0.0408196747303009,0.04864775016903877,0.20724332332611084
1782845363441886500,0.554886474609375,-0.007205223198980093,0.03664670139551163,0.20145049691200256
1782845363451891500,0.564891357421875,0.028976749628782272,0.02624465897679329,0.18703587353229523
1782845363461895400,0.5748955078125,0.07051829993724823,0.02853316254913807,0.1670980304479599
1782845363471900400,0.584900390625,0.11134190112352371,0.03418971598148346,0.15849922597408295
1782845363481904400,0.594904296875,0.15418614447116852,0.043204378336668015,0.15680526196956635
1782845363491908600,0.60490869140625,0.20477208495140076,0.06262468546628952,0.15837545692920685
1782845363501913600,0.61491357421875,0.24276484549045563,0.08093302696943283,0.15442891418933868
1782845363511917600,0.62491748046875,0.28742873668670654,0.11251146346330643,0.1348016858100891
1782845363521922600,0.634922607421875,0.32066017389297485,0.13610658049583435,0.07895220071077347
1782845363531926500,0.644926513671875,0.3458435535430908,0.15136836469173431,-0.009752635844051838
1782845363541931500,0.654931640625,0.369390606880188,0.16521263122558594,-0.10582537949085236
1782845363551935500,0.664935546875,0.3939971327781677,0.15921013057231903,-0.18909017741680145
1782845363561940500,0.6749404296875,0.4046195149421692,0.12634871900081635,-0.24447812139987946
1782845363571944400,0.6849443359375,0.39931076765060425,0.05282549187541008,-0.2549310326576233
1782845363581949400,0.694949462890625,0.38002920150756836,-0.02949201688170433,-0.2435859590768814
1782845363591953400,0.704953369140625,0.3436563014984131,-0.10028763115406036,-0.21246398985385895
1782845363601958400,0.71495849609375,0.29265546798706055,-0.14720025658607483,-0.17337079346179962
1782845363611962600,0.724962646484375,0.22915209829807281,-0.1768907755613327,-0.11067385226488113
1782845363621966600,0.734966552734375,0.1658318191766739,-0.18833212554454803,-0.02749485708773136
1782845363631971600,0.7449716796875,0.10406166315078735,-0.16985352337360382,0.07812344282865524
1782845363641975600,0.7549755859375,0.051425524055957794,-0.1430763602256775,0.19351240992546082
1782845363651980500,0.76498046875,0.012895173393189907,-0.11587217450141907,0.2979072332382202
1782845363661984500,0.774984619140625,-0.016538254916667938,-0.0965941771864891,0.3665176033973694
1782845363671989500,0.784989501953125,-0.035229917615652084,-0.08617082983255386,0.39498573541641235
1782845363681993500,0.794993408203125,-0.03996112942695618,-0.09660761803388596,0.3991337716579437
1782845363691998700,0.804998779296875,-0.0400301069021225,-0.1105404794216156,0.37600448727607727
1782845363702002700,0.815002685546875,-0.03722286969423294,-0.12488240003585815,0.3436143398284912
1782845363712006700,0.825006591796875,-0.0494888536632061,-0.1360919177532196,0.3170141577720642
1782845363722011600,0.83501171875,-0.08167478442192078,-0.13109290599822998,0.2963174283504486
1782845363732015600,0.845015625,-0.1283634752035141,-0.1062256321310997,0.2821182608604431
1782845363742020600,0.8550205078125,-0.18048308789730072,-0.0642758309841156,0.2727704644203186
1782845363752024600,0.865024658203125,-0.23846489191055298,-0.010066118091344833,0.2612847685813904
1782845363762029600,0.875029541015625,-0.2868656516075134,0.03913627564907074,0.2511288821697235
1782845363772033800,0.88503369140625,-0.3134687542915344,0.07650282233953476,0.24987933039665222
1782845363782038800,0.895038818359375,-0.31765636801719666,0.09594979882240295,0.2453061044216156
1782845363792042800,0.905042724609375,-0.3072205185890198,0.10495340824127197,0.22907865047454834
1782845363802046500,0.91504638671875,-0.2779011130332947,0.10686302930116653,0.21296007931232452
1782845363812051500,0.925051513671875,-0.24093563854694366,0.11473213881254196,0.17893420159816742
1782845363822055700,0.9350556640625,-0.1952744871377945,0.10676325112581253,0.12443207204341888
1782845363832060700,0.945060791015625,-0.15245352685451508,0.0818035751581192,0.0765785276889801
1782845363842064600,0.955064697265625,-0.10471276193857193,0.05540187656879425,0.04124971479177475
1782845363852069600,0.965069580078125,-0.06576696038246155,0.0359078012406826,0.014513976871967316
1782845363862073600,0.975073486328125,-0.02944684773683548,0.027672654017806053,-0.013168610632419586
1782845363872078600,0.98507861328125,0.002249030629172921,0.02915630117058754,-0.049021415412425995
1782845363882082800,0.995082763671875,0.03275873884558678,0.026069430634379387,-0.08662685006856918
1782845363892087800,1.005087890625,0.04926367849111557,0.029475348070263863,-0.10089632868766785
1782845363902091800,1.015091796875,0.05088087543845177,0.019663328304886818,-0.09544224292039871
1782845363912096800,1.0250966796875,0.0458831861615181,0.0040153926238417625,-0.09695544838905334
1782845363922100500,1.0351005859375,0.04491105303168297,-0.007249155081808567,-0.11599226295948029
1782845363932104700,1.045104736328125,0.03437052667140961,-0.029667645692825317,-0.13264288008213043
1782845363942109700,1.055109619140625,0.010679720900952816,-0.04842101037502289,-0.138268381357193
1782845363952113700,1.06511376953125,-0.026075895875692368,-0.06856861710548401,-0.12279249727725983
1782845363962118700,1.07511865234375,-0.06764492392539978,-0.06166725978255272,-0.0958351269364357
1782845363972122600,1.08512255859375,-0.11405210196971893,-0.025730827823281288,-0.05484934151172638
1782845363982127600,1.095127685546875,-0.1599041074514389,0.001783974003046751,0.008702072314918041
1782845363992131600,1.105131591796875,-0.2011657953262329,0.03056475520133972,0.07485925406217575
1782845364002136800,1.11513671875,-0.24551856517791748,0.05534883961081505,0.1287793517112732
1782845364012140800,1.125140869140625,-0.28179028630256653,0.07803124189376831,0.15532973408699036
1782845364022144500,1.13514453125,-0.3077085614204407,0.08841908723115921,0.17107540369033813
1782845364032149500,1.1451494140625,-0.32980668544769287,0.08485923707485199,0.16304251551628113
1782845364042153500,1.155153564453125,-0.3448658287525177,0.07230856269598007,0.1459968239068985
1782845364052158700,1.16515869140625,-0.35944876074790955,0.043850816786289215,0.13660810887813568
1782845364062162700,1.17516259765625,-0.3751806914806366,0.011955554597079754,0.13282272219657898
1782845364072167700,1.185167724609375,-0.3971443176269531,-0.006006667390465736,0.11997774988412857
1782845364082171600,1.195171630859375,-0.4113923907279968,-0.0071101002395153046,0.10397453606128693
1782845364092176600,1.2051767578125,-0.4164619743824005,-0.004965988919138908,0.07837995886802673
1782845364102180600,1.2151806640625,-0.41031697392463684,0.005683994852006435,0.05863594636321068
1782845364112185600,1.225185546875,-0.39586320519447327,0.012207673862576485,0.0477159209549427
1782845364122189800,1.23518994140625,-0.36392906308174133,0.0249746385961771,0.03696056082844734
1782845364132193500,1.245193603515625,-0.32358455657958984,0.04418482258915901,0.031578049063682556
1782845364142198500,1.255198486328125,-0.27499592304229736,0.06424610316753387,0.030927227810025215
1782845364152202500,1.265202392578125,-0.2206418663263321,0.07147925347089767,0.03452888876199722
1782845364162207500,1.27520751953125,-0.1779671162366867,0.07017461955547333,0.04205023869872093
1782845364172211700,1.285211669921875,-0.13840559124946594,0.058723025023937225,0.049287643283605576
1782845364182216700,1.295216796875,-0.11083268374204636,0.0346345491707325,0.04468079283833504
1782845364192220700,1.305220703125,-0.09357140958309174,0.0003423551097512245,0.032868608832359314
1782845364202225700,1.3152255859375,-0.07766549289226532,-0.035217415541410446,0.024748094379901886
1782845364212229600,1.325229736328125,-0.06527700275182724,-0.06473162770271301,0.01869632676243782
1782845364222233600,1.335233642578125,-0.056659214198589325,-0.08038333803415298,0.012691753916442394
1782845364232238800,1.34523876953125,-0.060269132256507874,-0.0872415080666542,0.008215779438614845
1782845364242242600,1.35524267578125,-0.0702890083193779,-0.10983443260192871,0.015530151315033436
1782845364252247600,1.36524755859375,-0.08392279595136642,-0.12366769462823868,0.028394551947712898
1782845364262251500,1.37525146484375,-0.10451780259609222,-0.1313600093126297,0.043227504938840866
1782845364272256500,1.385256591796875,-0.11984482407569885,-0.13745759427547455,0.05627353489398956
1782845364282260700,1.3952607421875,-0.13217642903327942,-0.13084188103675842,0.0650927796959877
1782845364292265700,1.405265625,-0.13699115812778473,-0.11367995291948318,0.07336243242025375
1782845364302269700,1.415269775390625,-0.14922329783439636,-0.09617476910352707,0.09124136716127396
1782845364312274700,1.425274658203125,-0.16251885890960693,-0.08933950215578079,0.10063007473945618
1782845364322278700,1.435278564453125,-0.16969609260559082,-0.08633939921855927,0.10019629448652267
1782845364332282600,1.44528271484375,-0.176389679312706,-0.07773526012897491,0.10002025961875916
1782845364342287600,1.45528759765625,-0.17745932936668396,-0.0749329999089241,0.09292668104171753
1782845364352291600,1.46529150390625,-0.18206286430358887,-0.07317451387643814,0.0909639298915863
1782845364362296600,1.475296630859375,-0.182594895362854,-0.07660017907619476,0.08198806643486023
1782845364372300500,1.485300537109375,-0.18197011947631836,-0.08219760656356812,0.06410706788301468
1782845364382305500,1.495305419921875,-0.17140083014965057,-0.07486938685178757,0.05214015766978264
1782845364392309800,1.505309814453125,-0.16996458172798157,-0.07803349196910858,0.05172763392329216
1782845364402314800,1.515314697265625,-0.17061294615268707,-0.08305635303258896,0.06041160598397255
1782845364412318700,1.525318603515625,-0.16031023859977722,-0.07956042140722275,0.061174068599939346
1782845364422323700,1.53532373046875,-0.13580039143562317,-0.07096858322620392,0.06007228046655655
1782845364432327700,1.54532763671875,-0.10282433032989502,-0.06462999433279037,0.06879280507564545
1782845364442331600,1.55533154296875,-0.059507183730602264,-0.07038640975952148,0.08020123839378357
1782845364452336600,1.565336669921875,-0.011518353596329689,-0.08058924973011017,0.08874253183603287
1782845364462340600,1.575340576171875,0.0363672710955143,-0.09857551753520966,0.09783440828323364
1782845364472345600,1.585345703125,0.08012168109416962,-0.11529910564422607,0.1112186536192894
1782845364482349600,1.595349609375,0.11437670886516571,-0.12769705057144165,0.12091489136219025
1782845364492354600,1.6053544921875,0.14466378092765808,-0.13707110285758972,0.12950865924358368
1782845364502358800,1.61535888671875,0.16386567056179047,-0.1419568955898285,0.13839395344257355
1782845364512363800,1.62536376953125,0.1778976023197174,-0.13306353986263275,0.1330588459968567
1782845364522367700,1.63536767578125,0.17893005907535553,-0.1038142666220665,0.10924971103668213
1782845364532371700,1.645371826171875,0.18403853476047516,-0.06853483617305756,0.060068320482969284
1782845364542376700,1.655376708984375,0.19745506346225739,-0.029010692611336708,-0.022742262110114098
1782845364552380700,1.665380615234375,0.19899676740169525,0.000373294809833169,-0.14882029592990875
1782845364562385700,1.6753857421875,0.15717916190624237,0.024945085868239403,-0.3005618453025818
1782845364572389600,1.6853896484375,0.08693642169237137,0.028453268110752106,-0.4365979731082916
1782845364582394600,1.69539453125,0.014337949454784393,0.012797520495951176,-0.5353334546089172
1782845364592398600,1.705398681640625,-0.04061131924390793,-0.022743429988622665,-0.5909615755081177
1782845364602403600,1.715403564453125,-0.08309321850538254,-0.07580802589654922,-0.5987796187400818
1782845364612407800,1.72540771484375,-0.1098870187997818,-0.123683400452137,-0.5379269123077393
1782845364622412800,1.735412841796875,-0.13471844792366028,-0.1607845574617386,-0.4203837215900421
1782845364632416800,1.745416748046875,-0.12732897698879242,-0.1698659360408783,-0.27133432030677795
1782845364642420700,1.755420654296875,-0.09466280788183212,-0.1601221114397049,-0.09574882686138153
1782845364652425700,1.76542578125,-0.06598029285669327,-0.14342115819454193,0.07326363027095795
1782845364662429700,1.7754296875,-0.029632892459630966,-0.10518459975719452,0.2140318751335144
1782845364672434700,1.7854345703125,0.01626082882285118,-0.06223607063293457,0.3273770809173584
1782845364682438700,1.795438720703125,0.07173161953687668,-0.025232069194316864,0.41659244894981384
1782845364692443600,1.805443603515625,0.11565753072500229,-0.007599012926220894,0.4734320044517517
1782845364702447400,1.815447265625,0.13405826687812805,0.014082132838666439,0.49332210421562195
1782845364712452400,1.825452392578125,0.13550542294979095,0.039850879460573196,0.4936315715312958
1782845364722456600,1.83545654296875,0.11657371371984482,0.05757360905408859,0.46999531984329224
1782845364732461600,1.845461669921875,0.09389050304889679,0.07969169318675995,0.41709163784980774
1782845364742465500,1.855465576171875,0.06487006694078445,0.10227413475513458,0.34950822591781616
1782845364752469500,1.865469482421875,0.030692387372255325,0.12661303579807281,0.26094159483909607
1782845364762474500,1.875474609375,0.01178049948066473,0.13166823983192444,0.1741839200258255
1782845364772478500,1.885478515625,-0.008460590615868568,0.11453080177307129,0.10382506996393204
1782845364782483500,1.8954833984375,-0.032525915652513504,0.09096573293209076,0.05768008902668953
1782845364792487700,1.90548779296875,-0.05945660173892975,0.05589189752936363,0.028575468808412552
1782845364802492700,1.91549267578125,-0.06715627014636993,0.01930907927453518,-0.004122233018279076
1782845364812496400,1.925496337890625,-0.054295863956213,-0.006391225382685661,-0.03568308800458908
1782845364822501400,1.93550146484375,-0.03355107828974724,-0.023851796984672546,-0.07048887759447098
1782845364832505300,1.94550537109375,-0.008963175117969513,-0.03409671038389206,-0.11026851087808609
1782845364842509600,1.955509521484375,0.010716879740357399,-0.029957713559269905,-0.14420610666275024
1782845364852514600,1.9655146484375,0.035290930420160294,-0.017695987597107887,-0.18180115520954132
1782845364862518500,1.9755185546875,0.06322717666625977,-0.005110110156238079,-0.2039969265460968
1782845364872523500,1.9855234375,0.09995030611753464,0.0027933530509471893,-0.2199290245771408
1782845364882527500,1.995527587890625,0.13527080416679382,0.009008331224322319,-0.23321761190891266
1782845364892532500,2.005532470703125,0.17211458086967468,0.011472820304334164,-0.24422073364257812
1782845364902536700,2.01553662109375,0.19936849176883698,0.011972201056778431,-0.24124296009540558
1782845364912541700,2.025541748046875,0.21251118183135986,0.014146938920021057,-0.24236762523651123
1782845364922545400,2.03554541015625,0.20863312482833862,0.013006046414375305,-0.2502431273460388
1782845364932550400,2.04555029296875,0.18946342170238495,0.010093346238136292,-0.260879784822464
1782845364942554400,2.055554443359375,0.16104954481124878,0.007617494091391563,-0.27433690428733826
1782845364952558600,2.06555859375,0.12556958198547363,0.002505556447431445,-0.2927134931087494
1782845364962563600,2.0755634765625,0.08379315584897995,-0.0006633801385760307,-0.3026781976222992
1782845364972567600,2.085567626953125,0.04036339372396469,-0.002348628593608737,-0.27514350414276123
1782845364982572500,2.095572509765625,0.001818584743887186,-0.004322791937738657,-0.23973321914672852
1782845364992576500,2.105576416015625,-0.024302763864398003,-0.0025914707221090794,-0.19430474936962128
1782845365002581500,2.11558154296875,-0.04377211630344391,-0.012489598244428635,-0.1356208771467209
1782845365012585700,2.125585693359375,-0.05279836803674698,-0.015455027110874653,-0.0710836872458458
1782845365022590700,2.1355908203125,-0.054131750017404556,-0.01659410260617733,-0.005080380942672491
1782845365032594400,2.145594482421875,-0.0523410402238369,-0.018908122554421425,0.05637286230921745
1782845365042599400,2.155599365234375,-0.042839713394641876,-0.026005666702985764,0.11148743331432343
1782845365052603400,2.165603271484375,-0.02878727577626705,-0.02133767679333687,0.14671413600444794
1782845365062607600,2.175607666015625,-0.000857139122672379,-0.0051280357874929905,0.15565669536590576
1782845365072612600,2.185612548828125,0.029791848734021187,0.004447626415640116,0.13802070915699005
1782845365082616600,2.195616455078125,0.056540656834840775,0.014165451750159264,0.09072957187891006
1782845365092621600,2.20562158203125,0.07625603675842285,0.021529624238610268,0.025574004277586937
1782845365102625500,2.21562548828125,0.09357310086488724,0.03163432329893112,-0.033626001328229904
1782845365112630500,2.225630615234375,0.10947989672422409,0.03807038068771362,-0.09157425910234451
1782845365122634500,2.235634521484375,0.12697654962539673,0.03872183710336685,-0.1451607197523117
1782845365132639500,2.245639404296875,0.13883720338344574,0.037899985909461975,-0.196208193898201
1782845365142643500,2.2556435546875,0.14583778381347656,0.04006410762667656,-0.24662600457668304
1782845365152647400,2.2656474609375,0.1524570733308792,0.04290969297289848,-0.2987014651298523
1782845365162652400,2.27565234375,0.15929938852787018,0.03674332797527313,-0.33593741059303284
1782845365172656600,2.28565673828125,0.17110730707645416,0.018518786877393723,-0.36332428455352783
1782845365182661600,2.29566162109375,0.1791551262140274,-0.005549745634198189,-0.3714504837989807
1782845365192665600,2.30566552734375,0.1792754977941513,-0.024477897211909294,-0.36067745089530945
1782845365202670600,2.315670654296875,0.18122172355651855,-0.040510714054107666,-0.34079793095588684
1782845365212674600,2.325674560546875,0.18027763068675995,-0.039955444633960724,-0.29914504289627075
1782845365222679600,2.335679443359375,0.1746351569890976,-0.033841315656900406,-0.24106088280677795
1782845365232683500,2.34568359375,0.17226040363311768,-0.0265815369784832,-0.16866791248321533
1782845365242688500,2.3556884765625,0.16765449941158295,-0.024190330877900124,-0.08758975565433502
1782845365252692500,2.3656923828125,0.15821999311447144,-0.02037348784506321,-0.013097681105136871
1782845365262696400,2.375696533203125,0.1508130133152008,-0.01462961919605732,0.05299763381481171
1782845365272701400,2.385701416015625,0.14613357186317444,-0.010401585139334202,0.10835941880941391
1782845365282705700,2.39570556640625,0.1425429731607437,-0.002969952765852213,0.1490393579006195
1782845365292710700,2.405710693359375,0.1379556804895401,0.008020380511879921,0.16557492315769196
1782845365302714600,2.415714599609375,0.1451822966337204,0.014993519522249699,0.1738865077495575
1782845365312719600,2.4257197265625,0.15463092923164368,0.028176698833703995,0.16658943891525269
1782845365322723600,2.4357236328125,0.16653960943222046,0.05522708594799042,0.15395429730415344
1782845365332728600,2.445728515625,0.17946979403495789,0.07683943957090378,0.14394240081310272
1782845365342732500,2.455732666015625,0.2008538395166397,0.08836355805397034,0.13332289457321167
1782845365352737500,2.465737548828125,0.22528675198554993,0.09520602226257324,0.13137638568878174
1782845365362741500,2.475741455078125,0.24983826279640198,0.09841237962245941,0.1428370624780655
1782845365372745500,2.485745361328125,0.27693644165992737,0.10230006277561188,0.14326901733875275
1782845365382750500,2.49575048828125,0.29994967579841614,0.10751635581254959,0.14600293338298798
1782845365392754400,2.50575439453125,0.32562682032585144,0.11328129470348358,0.15306296944618225
1782845365402759700,2.515759765625,0.34173429012298584,0.12094467878341675,0.16178156435489655
1782845365412763600,2.525763671875,0.35361120104789734,0.1258731186389923,0.16524846851825714
1782845365422768600,2.5357685546875,0.3656998574733734,0.12671566009521484,0.15991522371768951
1782845365432772600,2.545772705078125,0.36527907848358154,0.12178880721330643,0.14715681970119476
1782845365442777600,2.555777587890625,0.35925745964050293,0.11040432751178741,0.12680880725383759
1782845365452781300,2.56578125,0.34374508261680603,0.100357286632061,0.10053112357854843
1782845365462786600,2.57578662109375,0.3205794095993042,0.07972298562526703,0.07695795595645905
1782845365472790500,2.58579052734375,0.2908609211444855,0.0572136789560318,0.0632389485836029
1782845365482794500,2.59579443359375,0.25592291355133057,0.04124424606561661,0.06063966080546379
1782845365492799500,2.605799560546875,0.22382357716560364,0.034124284982681274,0.070416659116745
1782845365502803500,2.615803466796875,0.1977200210094452,0.025442209094762802,0.08868326246738434
1782845365512808400,2.625808349609375,0.17826643586158752,0.025205455720424652,0.10605718940496445
1782845365522812700,2.635812744140625,0.1553192287683487,0.026272939518094063,0.12326493114233017
1782845365532817700,2.645817626953125,0.13439451158046722,0.037426259368658066,0.1480424553155899
1782845365542821400,2.6558212890625,0.1168372705578804,0.0609033927321434,0.18296775221824646
1782845365552826600,2.66582666015625,0.10269481688737869,0.08534641563892365,0.2097431719303131
1782845365562830300,2.675830322265625,0.0964011549949646,0.10427013039588928,0.23988670110702515
1782845365572835300,2.68583544921875,0.10576829314231873,0.10806700587272644,0.25563955307006836
1782845365582839600,2.695839599609375,0.12340468913316727,0.09917377680540085,0.2687748670578003
1782845365592843500,2.705843505859375,0.1453331559896469,0.07871244102716446,0.2750551402568817
1782845365602848500,2.7158486328125,0.1654331535100937,0.06103295460343361,0.254629909992218
1782845365612852500,2.7258525390625,0.1827133446931839,0.04691340774297714,0.22251324355602264
1782845365622857500,2.735857421875,0.1865190863609314,0.037534199655056,0.17367899417877197
1782845365632861700,2.74586181640625,0.1713065803050995,0.03320469707250595,0.0983690619468689
1782845365642866700,2.75586669921875,0.1482083648443222,0.030674248933792114,-0.016248468309640884
1782845365652870400,2.765870361328125,0.1260729730129242,0.03456459566950798,-0.1505170613527298
1782845365662875400,2.77587548828125,0.11615388095378876,0.03604017198085785,-0.2850973904132843
1782845365672879400,2.78587939453125,0.11064779758453369,0.02400987222790718,-0.37860631942749023
1782845365682883600,2.795883544921875,0.11399991810321808,-0.02238745242357254,-0.42623642086982727
1782845365692889000,2.80588916015625,0.13039326667785645,-0.06950303167104721,-0.4514909088611603
1782845365702893300,2.815893310546875,0.15663893520832062,-0.11724920570850372,-0.44327351450920105
1782845365712898300,2.825898193359375,0.18547803163528442,-0.1587580442428589,-0.4075208306312561
1782845365722902300,2.83590234375,0.21726886928081512,-0.19628849625587463,-0.32569462060928345
1782845365732907300,2.8459072265625,0.24830375611782074,-0.22019195556640625,-0.21240481734275818
1782845365742911200,2.8559111328125,0.2712465822696686,-0.21870987117290497,-0.0913744568824768
1782845365752916200,2.865916259765625,0.29907846450805664,-0.18271298706531525,0.02510315738618374
1782845365762920400,2.87592041015625,0.32437053322792053,-0.13306213915348053,0.11870081722736359
1782845365772925400,2.885925537109375,0.3554416298866272,-0.08591432869434357,0.19194547832012177
1782845365782929200,2.89592919921875,0.3709736168384552,-0.056795984506607056,0.2633931040763855
1782845365792933000,2.90593310546875,0.3645703196525574,-0.053755983710289,0.3072444200515747
1782845365802938000,2.915938232421875,0.33079296350479126,-0.055389393121004105,0.3224566876888275
1782845365812942300,2.9259423828125,0.2846667468547821,-0.057146813720464706,0.32946985960006714
1782845365822947300,2.935947265625,0.23185473680496216,-0.0656609833240509,0.32095471024513245
1782845365832951300,2.945951416015625,0.17364415526390076,-0.08372467011213303,0.3052434027194977
1782845365842956300,2.955956298828125,0.09280934929847717,-0.09884649515151978,0.2765562832355499
1782845365852960300,2.965960205078125,0.008102454245090485,-0.10932417213916779,0.22249040007591248
1782845365862965200,2.97596533203125,-0.07961834222078323,-0.11021659523248672,0.1524825543165207
1782845365872969500,2.985969482421875,-0.17027953267097473,-0.11074789613485336,0.08352985233068466
1782845365882974500,2.995974365234375,-0.2622169852256775,-0.1059802770614624,0.026584090664982796
1782845365892978200,3.005978271484375,-0.3347005248069763,-0.09075817465782166,-0.008367501199245453
1782845365902982100,3.015982177734375,-0.38748809695243835,-0.07105397433042526,-0.03313716873526573
1782845365912987100,3.025987060546875,-0.4212351441383362,-0.04440106078982353,-0.06072245538234711
1782845365922991400,3.035991455078125,-0.43269088864326477,-0.008493214845657349,-0.08862266689538956
1782845365932996400,3.045996337890625,-0.430550754070282,0.015155389904975891,-0.1099199652671814
1782845365943000300,3.056000244140625,-0.40765154361724854,0.03206055983901024,-0.13027457892894745
1782845365953005300,3.06600537109375,-0.37958449125289917,0.03400200232863426,-0.14040204882621765
1782845365963009300,3.07600927734375,-0.3367235064506531,0.022839590907096863,-0.13705040514469147
1782845365973014300,3.08601416015625,-0.26706185936927795,0.008458786644041538,-0.1268017590045929
1782845365983018200,3.096018310546875,-0.18894855678081512,-0.002277615712955594,-0.10003864765167236
1782845365993023200,3.106023193359375,-0.11827652156352997,-0.008057740516960621,-0.07435858249664307
1782845366003027200,3.116027099609375,-0.05496503785252571,-0.014954444020986557,-0.04269678518176079
1782845366013031200,3.12603125,-0.0005239006131887436,-0.0140130165964365,-0.010084247216582298
1782845366023036200,3.1360361328125,0.04192741960287094,-0.009832918643951416,0.019231298938393593
1782845366033040400,3.146040283203125,0.06804238259792328,-0.002164879348129034,0.04731886088848114
1782845366043045400,3.15604541015625,0.09714128077030182,0.016923995688557625,0.06564733386039734
1782845366053049300,3.16604931640625,0.12178218364715576,0.027437621727585793,0.07785499840974808
1782845366063054300,3.176054443359375,0.1400475651025772,0.03136330097913742,0.08388185501098633
1782845366073058300,3.186058349609375,0.14362871646881104,0.04175175726413727,0.07715550810098648
1782845366083063300,3.196063232421875,0.13240738213062286,0.06280919164419174,0.05388787388801575
1782845366093067300,3.2060673828125,0.1195206269621849,0.07778334617614746,0.025736665353178978
1782845366103072300,3.216072265625,0.0956856906414032,0.08404648303985596,0.007803600747138262
1782845366113076200,3.226076171875,0.06062517315149307,0.08569765090942383,-0.007418495137244463
1782845366123080200,3.236080078125,0.018476217985153198,0.08929229527711868,-0.03516530990600586
1782845366133085200,3.246085205078125,-0.027645468711853027,0.09826342016458511,-0.08054903894662857
1782845366143089400,3.25608935546875,-0.08336158841848373,0.09131722897291183,-0.1285918653011322
1782845366153094400,3.266094482421875,-0.14987164735794067,0.08152478188276291,-0.1686205118894577
1782845366163098400,3.276098388671875,-0.21717196702957153,0.06914947181940079,-0.19790244102478027
1782845366173103400,3.286103271484375,-0.27518177032470703,0.055065881460905075,-0.22446826100349426
1782845366183107300,3.296107421875,-0.3230910897254944,0.03906600922346115,-0.23767893016338348
1782845366193112300,3.3061123046875,-0.351290225982666,0.02346414513885975,-0.24088937044143677
1782845366203116300,3.3161162109375,-0.3595273792743683,0.011396029964089394,-0.23334836959838867
1782845366213121300,3.326121337890625,-0.3582237660884857,0.0036070833448320627,-0.2130841165781021
1782845366223125200,3.336125244140625,-0.3441177010536194,-0.0009249525610357523,-0.1795445829629898
1782845366233129200,3.346129150390625,-0.31920114159584045,-0.007957295514643192,-0.1364421248435974
1782845366243134200,3.35613427734375,-0.2825023829936981,-0.0011461267713457346,-0.08967296034097672
1782845366253138200,3.36613818359375,-0.2441805750131607,0.006869189441204071,-0.05726468563079834
1782845366263143400,3.376143310546875,-0.19348998367786407,0.014332478865981102,-0.036730989813804626
1782845366273147400,3.3861474609375,-0.14932624995708466,0.02057306282222271,-0.018981555476784706
1782845366283152400,3.39615234375,-0.10972870141267776,0.014319604262709618,0.0038406760431826115
1782845366293156400,3.40615625,-0.07773641496896744,-0.008880788460373878,0.01299502607434988
1782845366303161300,3.416161376953125,-0.057760994881391525,-0.03539828956127167,0.018984021618962288
1782845366313165300,3.426165283203125,-0.04497009888291359,-0.047957222908735275,0.012061933055520058
1782845366323169300,3.436169189453125,-0.04700357839465141,-0.04939834401011467,-0.005444633308798075
1782845366333174300,3.44617431640625,-0.048164982348680496,-0.04227891564369202,-0.03452901542186737
1782845366343178200,3.45617822265625,-0.0602717287838459,-0.034086503088474274,-0.06862612068653107
1782845366353183200,3.466183349609375,-0.0766400545835495,-0.019788522273302078,-0.10727684199810028
1782845366363187200,3.476187255859375,-0.10181079059839249,0.0009816018864512444,-0.1334584504365921
1782845366373192200,3.486192138671875,-0.12508521974086761,0.019263936206698418,-0.14856736361980438
1782845366383196400,3.496196533203125,-0.14151149988174438,0.03452376648783684,-0.14514440298080444
1782845366393201400,3.506201416015625,-0.15072762966156006,0.03856697678565979,-0.12084199488162994
1782845366403205400,3.516205322265625,-0.16107724606990814,0.027145253494381905,-0.09489741176366806
1782845366413210400,3.52621044921875,-0.15943540632724762,0.019927820190787315,-0.072083979845047
1782845366423214000,3.536214111328125,-0.15897123515605927,0.017678512260317802,-0.06124317646026611
1782845366433219000,3.546218994140625,-0.15291841328144073,0.01459696888923645,-0.07470118999481201
1782845366443223300,3.556223388671875,-0.13884390890598297,-0.0017225716728717089,-0.10216337442398071
1782845366453227300,3.566227294921875,-0.12411636859178543,-0.0354219451546669,-0.12224707007408142
1782845366463232300,3.576232177734375,-0.11433698982000351,-0.07749776542186737,-0.12718497216701508
1782845366473236200,3.586236328125,-0.0948687493801117,-0.11087623238563538,-0.12095902860164642
1782845366483241200,3.5962412109375,-0.07681604474782944,-0.13621477782726288,-0.11603125929832458
1782845366493245400,3.606245361328125,-0.062293022871017456,-0.14079488813877106,-0.10682178288698196
1782845366503250400,3.61625048828125,-0.051450151950120926,-0.15627992153167725,-0.07409578561782837
1782845366513254100,3.626254150390625,-0.04468012973666191,-0.16696558892726898,-0.046753644943237305
1782845366523259100,3.636259033203125,-0.042015619575977325,-0.16582895815372467,-0.023994944989681244
1782845366533263000,3.64626318359375,-0.050067152827978134,-0.17085221409797668,-0.01069751475006342
1782845366543267300,3.656267333984375,-0.06690096855163574,-0.17757859826087952,-0.0016647985903546214
1782845366553272300,3.666272216796875,-0.08367941528558731,-0.18670445680618286,0.011133021675050259
1782845366563276300,3.6762763671875,-0.09062963724136353,-0.20440524816513062,0.04755694046616554
1782845366573281300,3.68628125,-0.09249810874462128,-0.23060782253742218,0.10861817002296448
1782845366583285200,3.69628515625,-0.0843718945980072,-0.2540634274482727,0.19320015609264374
1782845366593290200,3.706290283203125,-0.07174424827098846,-0.2845848500728607,0.3060856759548187
1782845366603294500,3.71629443359375,-0.07426659762859344,-0.31970417499542236,0.4011620879173279
1782845366613299500,3.726299560546875,-0.09575963765382767,-0.3192320168018341,0.42597660422325134
1782845366623303200,3.73630322265625,-0.11395969986915588,-0.2620944082736969,0.3556717038154602
1782845366633308200,3.74630810546875,-0.14219026267528534,-0.1554662436246872,0.1904049813747406
1782845366643312000,3.75631201171875,-0.17732849717140198,-0.03934180736541748,-0.06011385843157768
1782845366653317000,3.766317138671875,-0.2125256359577179,0.032345160841941833,-0.33493930101394653
1782845366663321300,3.7763212890625,-0.22314831614494324,0.05187958478927612,-0.5880063772201538
1782845366673325300,3.7863251953125,-0.22645249962806702,0.038828764110803604,-0.7846518158912659
1782845366683330300,3.796330322265625,-0.23531568050384521,-0.01034633256494999,-0.8766272664070129
1782845366693334500,3.80633447265625,-0.2344253808259964,-0.07976828515529633,-0.8496859073638916
1782845366703339500,3.816339599609375,-0.1993783861398697,-0.14916791021823883,-0.7424368858337402
1782845366713343500,3.826343505859375,-0.1348492056131363,-0.19880683720111847,-0.5685231685638428
1782845366723348500,3.836348388671875,-0.04142804816365242,-0.20874695479869843,-0.3624875247478485
1782845366733352400,3.8463525390625,0.041642602533102036,-0.1877327412366867,-0.141142338514328
1782845366743357400,3.856357421875,0.09412738680839539,-0.13988399505615234,0.07400033622980118
1782845366753361400,3.866361328125,0.12370418757200241,-0.08876675367355347,0.25753501057624817
1782845366763366400,3.876366455078125,0.1285146027803421,-0.051321327686309814,0.4094870686531067
1782845366773370600,3.88637060546875,0.11668457090854645,-0.016185976564884186,0.5298568606376648
1782845366783374600,3.89637451171875,0.08611557632684708,0.014028562232851982,0.6105465292930603
1782845366793379600,3.906379638671875,0.026520954445004463,0.04336487874388695,0.6402963995933533
1782845366803383600,3.916383544921875,-0.05876392871141434,0.07563129812479019,0.6130853295326233
1782845366813388500,3.926388427734375,-0.14951300621032715,0.12345448136329651,0.5078721046447754
1782845366823392500,3.936392578125,-0.23334886133670807,0.16722729802131653,0.37749019265174866
1782845366833397500,3.9463974609375,-0.3014059364795685,0.19530634582042694,0.2454996556043625
1782845366843401500,3.9564013671875,-0.3509684205055237,0.2100943922996521,0.1463136076927185
1782845366853406500,3.966406494140625,-0.39114782214164734,0.21676933765411377,0.05562737211585045
1782845366863410400,3.976410400390625,-0.40721291303634644,0.1834612637758255,-0.029433447867631912
1782845366873415400,3.98641552734375,-0.3856636881828308,0.17328879237174988,-0.1072334349155426
1782845366883419400,3.99641943359375,-0.33102938532829285,0.14255981147289276,-0.15824495255947113
1782845366893423600,4.006423583984375,-0.2727471590042114,0.09397443383932114,-0.18967638909816742
1782845366903428600,4.0164287109375,-0.22606350481510162,0.042108532041311264,-0.2205110490322113
1782845366913432600,4.0264326171875,-0.2021600306034088,0.004006420262157917,-0.2512063980102539
1782845366923437600,4.0364375,-0.18523186445236206,-0.01585366390645504,-0.2770064175128937
1782845366933441300,4.046441162109375,-0.17163296043872833,-0.01670481078326702,-0.25322943925857544
1782845366943446300,4.0564462890625,-0.13869528472423553,-0.008991400711238384,-0.1800210177898407
1782845366953450500,4.066450439453125,-0.0940370112657547,0.019195495173335075,-0.08538427203893661
1782845366963455500,4.07645556640625,-0.05704271420836449,0.053867895156145096,0.015732906758785248
1782845366973459500,4.08645947265625,-0.01566384546458721,0.08273842930793762,0.10604016482830048
1782845366983464400,4.09646435546875,0.0209638774394989,0.09526389837265015,0.16841791570186615
1782845366993468400,4.106468505859375,0.05232792720198631,0.09348756819963455,0.18263226747512817
1782845367003472600,4.11647265625,0.08079752326011658,0.09249402582645416,0.14187486469745636
1782845367013477600,4.1264775390625,0.10754790902137756,0.10280365496873856,0.057839084416627884
1782845367023481300,4.1364814453125,0.12531991302967072,0.11033676564693451,-0.04448796436190605
1782845367033486300,4.146486328125,0.13638082146644592,0.09670750796794891,-0.11932571977376938
1782845367043490300,4.156490234375,0.1347067505121231,0.06697384268045425,-0.16867874562740326
1782845367053495300,4.166495361328125,0.10910817980766296,0.029982004314661026,-0.20958463847637177
1782845367063499500,4.17649951171875,0.057366736233234406,0.0005082234274595976,-0.26092538237571716
1782845367073504500,4.18650439453125,0.009334228001534939,-0.018468929454684258,-0.30688461661338806
1782845367083508500,4.196508544921875,-0.04165958985686302,-0.030201885849237442,-0.3378860056400299
1782845367093513500,4.206513427734375,-0.08364991843700409,-0.04299597814679146,-0.343148410320282
1782845367103517400,4.216517333984375,-0.10255490988492966,-0.04311923310160637,-0.3406047821044922
1782845367113521700,4.226521728515625,-0.10097219049930573,-0.03628183528780937,-0.3307710587978363
1782845367123526700,4.236526611328125,-0.07709746062755585,-0.019126862287521362,-0.3047257959842682
1782845367133530400,4.2465302734375,-0.04834969714283943,-0.009301395155489445,-0.24681510031223297
1782845367143535400,4.256535400390625,-0.01068318635225296,-0.005842836573719978,-0.14482522010803223
1782845367153539300,4.266539306640625,0.020100291818380356,-0.010790190659463406,-0.022372273728251457
1782845367163544300,4.27654443359375,0.04459730163216591,-0.007143433205783367,0.10105378180742264
1782845367173548500,4.286548583984375,0.04835129529237747,-0.02271014265716076,0.2246881127357483
1782845367183553500,4.296553466796875,0.043023765087127686,-0.04975627362728119,0.34580114483833313
1782845367193557500,4.3065576171875,0.03605054318904877,-0.0753822773694992,0.4548056721687317
1782845367203562500,4.3165625,0.03874724358320236,-0.0928688570857048,0.511386513710022
1782845367213566500,4.32656640625,0.03989080712199211,-0.08417870104312897,0.5116890668869019
1782845367223570700,4.33657080078125,0.04184924438595772,-0.06763962656259537,0.46404916048049927
1782845367233575700,4.34657568359375,0.04757797345519066,-0.047298405319452286,0.3874252438545227
1782845367243579400,4.356579345703125,0.06056545674800873,-0.030350888147950172,0.2967386841773987
1782845367253584400,4.36658447265625,0.07109612971544266,-0.017495544627308846,0.19039146602153778
1782845367263588400,4.37658837890625,0.08160571753978729,-0.005334175191819668,0.08192524313926697
1782845367273593300,4.38659326171875,0.08780768513679504,0.0011484910501167178,-0.010932527482509613
1782845367283597600,4.39659765625,0.09504396468400955,0.005318296141922474,-0.07481791079044342
1782845367293602600,4.4066025390625,0.09463810175657272,0.009657916612923145,-0.12876902520656586
1782845367303606500,4.4166064453125,0.08637616038322449,0.022394215688109398,-0.18090824782848358
1782845367313611500,4.426611572265625,0.06911461055278778,0.037832558155059814,-0.22208204865455627
1782845367323615500,4.436615478515625,0.04551853612065315,0.050974953919649124,-0.25225508213043213
1782845367333619700,4.44661962890625,0.013894030824303627,0.06443723291158676,-0.2698300778865814
1782845367343624700,4.456624755859375,-0.016276121139526367,0.07905718684196472,-0.2774256765842438
1782845367353628400,4.46662841796875,-0.04240652546286583,0.07478175312280655,-0.24563153088092804
1782845367363633400,4.47663330078125,-0.06269028782844543,0.05135475844144821,-0.2029363214969635
1782845367373637400,4.486637451171875,-0.08214228600263596,0.028996458277106285,-0.15505348145961761
1782845367383642400,4.496642333984375,-0.09324698150157928,0.015801113098859787,-0.12826314568519592
1782845367393646600,4.506646484375,-0.10123326629400253,0.009888362139463425,-0.10263475030660629
1782845367403651600,4.516651611328125,-0.10367760807275772,0.009181166999042034,-0.08270599693059921
1782845367413655600,4.526655517578125,-0.10689044743776321,0.011210230179131031,-0.05044393241405487
1782845367423660500,4.53666064453125,-0.1018320843577385,0.01879708655178547,-0.014678407460451126
1782845367433664500,4.54666455078125,-0.09133070707321167,0.037602465599775314,0.013850172981619835
1782845367443668500,4.55666845703125,-0.08210966736078262,0.06046529859304428,0.04633628576993942
1782845367453673700,4.566673828125,-0.06724656373262405,0.0630142092704773,0.07641482353210449
1782845367463677400,4.576677490234375,-0.046875499188899994,0.06496977061033249,0.08937682956457138
1782845367473682400,4.586682373046875,-0.029048297554254532,0.0543256513774395,0.0934770330786705
1782845367483686400,4.596686279296875,-0.008262921124696732,0.0563768595457077,0.06620300561189651
1782845367493691400,4.60669140625,0.018317289650440216,0.05588976666331291,0.015673251822590828
1782845367503695400,4.6166953125,0.04923292621970177,0.06408533453941345,-0.04402703791856766
1782845367513700600,4.62670068359375,0.07338486611843109,0.06198596954345703,-0.07469093799591064
1782845367523704600,4.63670458984375,0.08546125143766403,0.051594529300928116,-0.05866808816790581
1782845367533709600,4.64670947265625,0.09548085927963257,0.038286179304122925,-0.036021895706653595
1782845367543713500,4.656713623046875,0.10625982284545898,0.03312360495328903,-0.018171075731515884
1782845367553718500,4.666718505859375,0.10827343910932541,0.041322145611047745,-0.004768718034029007
1782845367563722500,4.676722412109375,0.11224313080310822,0.05414979159832001,0.011021303944289684
1782845367573726500,4.6867265625,0.10438840091228485,0.061604246497154236,0.02925596944987774
1782845367583731500,4.6967314453125,0.08197589963674545,0.06913260370492935,0.0455123707652092
1782845367593735400,4.7067353515625,0.05005151778459549,0.07720331102609634,0.0577503964304924
1782845367603740400,4.716740478515625,0.015514502301812172,0.09635818749666214,0.05586780607700348
1782845367613744400,4.726744384765625,-0.01939820870757103,0.11047028005123138,0.06574972718954086
1782845367623749400,4.736749267578125,-0.05709390714764595,0.12225391715765,0.08707387745380402
1782845367633753600,4.746753662109375,-0.08986517041921616,0.12330453842878342,0.1176416352391243
1782845367643758600,4.756758544921875,-0.10389123857021332,0.12426252663135529,0.14840160310268402
1782845367653762600,4.766762451171875,-0.10976270586252213,0.1256742626428604,0.17442840337753296
1782845367663767600,4.776767578125,-0.10602416843175888,0.11298824846744537,0.18544678390026093
1782845367673771300,4.786771240234375,-0.08593674749135971,0.09787454456090927,0.1834065318107605
1782845367683775500,4.796775390625,-0.04902775585651398,0.08680994808673859,0.17740103602409363
1782845367693780200,4.8067802734375,-0.004130322486162186,0.07932939380407333,0.18232548236846924
1782845367703784200,4.8167841796875,0.04539094120264053,0.07797780632972717,0.19080226123332977
1782845367713789200,4.8267890625,0.10732247680425644,0.08269985020160675,0.19073568284511566
1782845367723793200,4.836793212890625,0.1697767823934555,0.09495390206575394,0.1865573674440384
1782845367733798100,4.846798095703125,0.2221081554889679,0.11083219945430756,0.18647561967372894
1782845367743802000,4.856802001953125,0.2702035903930664,0.12983940541744232,0.18258905410766602
1782845367753807000,4.86680712890625,0.31989365816116333,0.14114372432231903,0.15351426601409912
1782845367763811000,4.87681103515625,0.35328906774520874,0.14431746304035187,0.102415069937706
1782845367773816000,4.886816162109375,0.35839566588401794,0.13446536660194397,0.02890169993042946
1782845367783820000,4.896820068359375,0.3416003882884979,0.12226897478103638,-0.08134505897760391
1782845367793824300,4.90682421875,0.2990577220916748,0.10108592361211777,-0.21316461265087128
1782845367803829200,4.916829345703125,0.24695684015750885,0.06902452558279037,-0.34534692764282227
1782845367813833000,4.9268330078125,0.19264087080955505,0.047254785895347595,-0.4531804621219635
1782845367823838000,4.936837890625,0.14593225717544556,0.030841941013932228,-0.5392276644706726
1782845367833842000,4.946842041015625,0.10328067094087601,0.018773825839161873,-0.595680832862854
1782845367843847000,4.956846923828125,0.06882619112730026,-0.0007545128464698792,-0.6066968441009521
1782845367853851100,4.96685107421875,0.041709352284669876,-0.036535680294036865,-0.5605602860450745
1782845367863856000,4.976856201171875,0.026200169697403908,-0.0869344025850296,-0.4664931297302246
1782845367873860000,4.986860107421875,0.01784130558371544,-0.11650028824806213,-0.33592739701271057
1782845367883865000,4.996864990234375,0.015419615432620049,-0.13898606598377228,-0.18465106189250946
1782845367893869000,5.006869140625,0.016472361981868744,-0.1649974286556244,-0.028531769290566444
1782845367903873300,5.016873291015625,0.02816161699593067,-0.18147426843643188,0.11015774309635162
1782845367913878300,5.026878173828125,0.045273493975400925,-0.18798649311065674,0.21259091794490814
1782845367923882000,5.036882080078125,0.07162924855947495,-0.19642797112464905,0.2776300311088562
1782845367933887000,5.046886962890625,0.10494086891412735,-0.2062116116285324,0.3242260217666626
1782845367943891000,5.056890869140625,0.13343851268291473,-0.19705136120319366,0.3593362867832184
1782845367953896000,5.06689599609375,0.14136861264705658,-0.17854958772659302,0.37330004572868347
1782845367963900200,5.076900146484375,0.13145919144153595,-0.16117694973945618,0.3928201496601105
1782845367973905200,5.0869052734375,0.10117799043655396,-0.1388378143310547,0.4052368700504303
1782845367983909000,5.0969091796875,0.05845819041132927,-0.11303626745939255,0.40926721692085266
1782845367993914000,5.1069140625,-0.0011092633940279484,-0.0760662704706192,0.39533302187919617
1782845368003918000,5.11691796875,-0.05448925867676735,-0.03991297632455826,0.35710883140563965
1782845368013923000,5.126923095703125,-0.1025523915886879,0.0004783892072737217,0.2992668151855469
1782845368023927300,5.13692724609375,-0.14718462526798248,0.037127893418073654,0.23528707027435303
1782845368033931000,5.146930908203125,-0.1774197667837143,0.07012978196144104,0.17267082631587982
1782845368043936000,5.15693603515625,-0.2035207748413086,0.09259447455406189,0.1191946417093277
1782845368053940000,5.16693994140625,-0.22333602607250214,0.09992216527462006,0.08194820582866669
1782845368063945000,5.176945068359375,-0.23648737370967865,0.10928037762641907,0.0473446249961853
1782845368073949200,5.18694921875,-0.23813028633594513,0.12100733816623688,0.0122721241787076
1782845368083954200,5.1969541015625,-0.23542428016662598,0.11262167990207672,-0.01518615335226059
1782845368093958100,5.206958251953125,-0.21498160064220428,0.07662985473871231,-0.022377753630280495
1782845368103963100,5.216963134765625,-0.18948523700237274,0.028765564784407616,-0.030682140961289406
1782845368113967000,5.226967041015625,-0.15795446932315826,-0.01664639078080654,-0.043673574924468994
1782845368123972000,5.23697216796875,-0.11981164664030075,-0.04990687966346741,-0.06930196285247803
1782845368133976300,5.246976318359375,-0.08247838914394379,-0.060621846467256546,-0.10369162261486053
1782845368143980000,5.25697998046875,-0.04261176288127899,-0.05462511628866196,-0.1413448601961136
1782845368153985000,5.266985107421875,-0.005097144283354282,-0.04403958469629288,-0.16098487377166748
1782845368163989000,5.276989013671875,0.02621534839272499,-0.028249520808458328,-0.15265904366970062
1782845368173994000,5.286993896484375,0.03844671696424484,-0.029868990182876587,-0.11279337853193283
1782845368183998200,5.296998291015625,0.03660115972161293,-0.03453622758388519,-0.06412816047668457
1782845368194003200,5.307003173828125,0.038738880306482315,-0.04557955637574196,-0.007590053137391806
1782845368204007200,5.317007080078125,0.04280897229909897,-0.06457935273647308,0.048759110271930695
1782845368214012200,5.32701220703125,0.02602279931306839,-0.07383889704942703,0.10430199652910233
1782845368224016100,5.33701611328125,-0.0054650986567139626,-0.0695764571428299,0.14579010009765625
1782845368234021000,5.347021240234375,-0.0309454258531332,-0.05998215451836586,0.1813182681798935
1782845368244025000,5.357025146484375,-0.05502836033701897,-0.03864708170294762,0.2034151256084442
1782845368254029000,5.367029052734375,-0.07783647626638412,-0.006999942008405924,0.22033579647541046
1782845368264034000,5.377033935546875,-0.11069715768098831,0.028657294809818268,0.23715779185295105
1782845368274038000,5.3870380859375,-0.13988059759140015,0.03692241385579109,0.2587538957595825
1782845368284043000,5.39704296875,-0.17226669192314148,0.05521642789244652,0.2568693459033966
1782845368294047200,5.407047119140625,-0.2089189738035202,0.06427650153636932,0.23949995636940002
1782845368304052200,5.41705224609375,-0.24353811144828796,0.062437504529953,0.1921890377998352
1782845368314056200,5.42705615234375,-0.26978862285614014,0.058231305330991745,0.1262025535106659
1782845368324061200,5.437061279296875,-0.27991169691085815,0.061285555362701416,0.05142505466938019
1782845368334065200,5.447065185546875,-0.28109198808670044,0.0633620172739029,-0.013832244090735912
1782845368344070100,5.457070068359375,-0.2859501540660858,0.06248552352190018,-0.06117904186248779
1782845368354074000,5.46707421875,-0.29128924012184143,0.06672421097755432,-0.08808815479278564
1782845368364079000,5.4770791015625,-0.2989143431186676,0.08061308413743973,-0.1074933409690857
1782845368374083000,5.4870830078125,-0.2970581352710724,0.09576647728681564,-0.12440681457519531
1782845368384087000,5.497087158203125,-0.27249571681022644,0.09645774215459824,-0.13803327083587646
1782845368394092000,5.507092041015625,-0.23848740756511688,0.09165313094854355,-0.14798924326896667
1782845368404096000,5.517095947265625,-0.1940716952085495,0.08583812415599823,-0.1412956714630127
1782845368414101200,5.527101318359375,-0.14505036175251007,0.07075557857751846,-0.12532548606395721
1782845368424105200,5.537105224609375,-0.09115275740623474,0.03990946710109711,-0.09697113186120987
1782845368434110200,5.547110107421875,-0.041665371507406235,0.015042731538414955,-0.06631334871053696
1782845368444114200,5.5571142578125,0.0027128278743475676,-0.006355538964271545,-0.047859594225883484
1782845368454119200,5.567119140625,0.04010014608502388,-0.025541482493281364,-0.03225160390138626
1782845368464123100,5.577123046875,0.07398948818445206,-0.0421205498278141,-0.017055869102478027
1782845368474128100,5.587128173828125,0.09567400813102722,-0.051895949989557266,-0.00604689447209239
1782845368484132000,5.597132080078125,0.1036965548992157,-0.04619283601641655,-0.001387495663948357
1782845368494136000,5.607135986328125,0.09377468377351761,-0.034133244305849075,0.0055090258829295635
1782845368504141000,5.61714111328125,0.07609328627586365,-0.018136300146579742,0.0036894914228469133
1782845368514145000,5.62714501953125,0.042625073343515396,-0.007010413333773613,0.0008628121577203274
1782845368524150000,5.63714990234375,0.0028221560642123222,-0.0028563300147652626,-0.011165346950292587
1782845368534154200,5.647154296875,-0.03598516061902046,0.003990390803664923,-0.02218337543308735
1782845368544159200,5.6571591796875,-0.07672879844903946,0.0038396152667701244,-0.026051558554172516
1782845368554163200,5.6671630859375,-0.10917941480875015,-0.0057730646803975105,-0.03192835673689842
1782845368564168200,5.677168212890625,-0.13438576459884644,-0.018371906131505966,-0.03762039169669151
1782845368574172000,5.687171875,-0.14539606869220734,-0.023823929950594902,-0.049011796712875366
1782845368584177000,5.697177001953125,-0.14888471364974976,-0.03369662165641785,-0.0477963387966156
1782845368594181000,5.70718115234375,-0.14802715182304382,-0.04810618609189987,-0.03853945434093475
1782845368604186000,5.71718603515625,-0.1436208188533783,-0.05966261774301529,-0.029981911182403564
1782845368614190000,5.727190185546875,-0.1421070694923401,-0.06546884030103683,-0.028835685923695564
1782845368624194000,5.737194091796875,-0.13670647144317627,-0.06826085597276688,-0.033040620386600494
1782845368634199000,5.747198974609375,-0.12515687942504883,-0.07419890910387039,-0.03572855144739151
1782845368644203300,5.757203369140625,-0.1065669059753418,-0.06978395581245422,-0.04376284033060074
1782845368654208300,5.767208251953125,-0.08776738494634628,-0.05645936727523804,-0.05997297167778015
1782845368664212200,5.777212158203125,-0.0642787292599678,-0.05252814665436745,-0.05597389489412308
1782845368674217200,5.78721728515625,-0.041953712701797485,-0.05701770260930061,-0.0383530892431736
1782845368684221000,5.797220947265625,-0.02203194983303547,-0.06395891308784485,-0.007881144061684608
1782845368694225700,5.8072255859375,-0.00946156308054924,-0.06580022722482681,0.025305835530161858
1782845368704230000,5.81722998046875,0.003327249549329281,-0.07011805474758148,0.054009586572647095
1782845368714235000,5.82723486328125,0.011575326323509216,-0.08358672261238098,0.08014291524887085
1782845368724238800,5.83723876953125,0.010825002565979958,-0.09077397733926773,0.10158297419548035
1782845368734242600,5.84724267578125,0.006757556460797787,-0.10351347178220749,0.11559093743562698
1782845368744247600,5.85724755859375,0.00609038770198822,-0.11249440908432007,0.12766844034194946
1782845368754251800,5.867251708984375,0.00771278515458107,-0.12125886976718903,0.14438962936401367
1782845368764256800,5.8772568359375,-0.001782887731678784,-0.1206219345331192,0.162690207362175
1782845368774260700,5.8872607421875,-0.017704064026474953,-0.10313455015420914,0.18015573918819427
1782845368784265700,5.897265625,-0.038545019924640656,-0.07321886718273163,0.19569401443004608
1782845368794269700,5.907269775390625,-0.06937963515520096,-0.030339039862155914,0.21810691058635712
1782845368804274700,5.917274658203125,-0.1052800640463829,0.019622882828116417,0.2183433473110199
1782845368814279000,5.92727880859375,-0.1437811255455017,0.0700913816690445,0.17983829975128174
1782845368824284000,5.937283935546875,-0.18353210389614105,0.11209223419427872,0.09356977790594101
1782845368834287900,5.947287841796875,-0.21617554128170013,0.13853183388710022,-0.06148531660437584
1782845368844292900,5.95729296875,-0.23055951297283173,0.13844896852970123,-0.24688012897968292
1782845368854296600,5.967296630859375,-0.23835964500904083,0.11033342778682709,-0.42458435893058777
1782845368864300800,5.97730078125,-0.2611960768699646,0.06424912065267563,-0.5798864364624023
1782845368874305800,5.987305908203125,-0.27708104252815247,0.016501834616065025,-0.7118514180183411
1782845368884309800,5.997309814453125,-0.2421138435602188,-0.06035903841257095,-0.7728777527809143
1782845368894314800,6.007314697265625,-0.14546027779579163,-0.14349254965782166,-0.7316194772720337
1782845368904318700,6.017318603515625,-0.038671303540468216,-0.2133341133594513,-0.5931385159492493
1782845368914323700,6.02732373046875,0.05877295881509781,-0.2478654533624649,-0.4033072888851166
1782845368924328000,6.037327880859375,0.1476573795080185,-0.2373947948217392,-0.2104351818561554
1782845368934333000,6.0473330078125,0.21111997961997986,-0.2028549313545227,-0.04351489990949631
1782845368944337000,6.0573369140625,0.2688889503479004,-0.17553699016571045,0.09568341076374054
1782845368954342000,6.067341796875,0.31724876165390015,-0.1566418558359146,0.21103821694850922
1782845368964345600,6.077345703125,0.33973464369773865,-0.1270381659269333,0.2794841229915619
1782845368974350600,6.0873505859375,0.3439280390739441,-0.0927392989397049,0.3140495717525482
1782845368984354800,6.097354736328125,0.33277490735054016,-0.04410748928785324,0.30852973461151123
1782845368994358800,6.10735888671875,0.2979583442211151,0.00029565906152129173,0.268496036529541
1782845369004363800,6.11736376953125,0.2548448145389557,0.032904062420129776,0.21418242156505585
1782845369014367700,6.12736767578125,0.21255218982696533,0.03895822539925575,0.1527736634016037
1782845369024372700,6.137372802734375,0.16580882668495178,0.04703865945339203,0.10240388661623001
1782845369034377000,6.147376953125,0.1320442110300064,0.06501925736665726,0.04437893629074097
1782845369044382000,6.1573818359375,0.11153072118759155,0.08533699810504913,0.007020577322691679
1782845369054385700,6.1673857421875,0.10854078829288483,0.10349682718515396,-0.026563214138150215
1782845369064390700,6.177390625,0.12890328466892242,0.11589282751083374,-0.05846396088600159
1782845369074394600,6.18739453125,0.16661417484283447,0.11492583900690079,-0.09155719727277756
1782845369084399600,6.197399658203125,0.22535166144371033,0.09062302857637405,-0.12389936298131943
1782845369094403800,6.20740380859375,0.2879958748817444,0.0433519147336483,-0.13094955682754517
1782845369104408800,6.217408935546875,0.3297499418258667,-0.01598970964550972,-0.1141124963760376
1782845369114412800,6.227412841796875,0.346091091632843,-0.05497865006327629,-0.07122468948364258
1782845369124416800,6.237416748046875,0.3341565728187561,-0.09360052645206451,-0.030998442322015762
1782845369134421800,6.247421875,0.31217247247695923,-0.12118767946958542,-0.026250293478369713
1782845369144426000,6.257426025390625,0.30095991492271423,-0.1244850605726242,-0.06934523582458496
1782845369154431000,6.267430908203125,0.30116549134254456,-0.1142532005906105,-0.13002057373523712
1782845369164434700,6.2774345703125,0.3007809817790985,-0.11227057129144669,-0.18200917541980743
1782845369174439700,6.287439697265625,0.2825905382633209,-0.12319619953632355,-0.2364353984594345
1782845369184443600,6.297443603515625,0.2562262713909149,-0.13197018206119537,-0.28819629549980164
1782845369194448600,6.30744873046875,0.22922717034816742,-0.146829292178154,-0.3275993764400482
1782845369204452900,6.317452880859375,0.21360249817371368,-0.1801929920911789,-0.30958831310272217
1782845369214457900,6.327457763671875,0.2078023999929428,-0.2130393534898758,-0.2714880704879761
1782845369224461800,6.3374619140625,0.20435696840286255,-0.22908875346183777,-0.2047053873538971
1782845369234465800,6.3474658203125,0.2095557302236557,-0.23969212174415588,-0.12555304169654846
1782845369244470800,6.357470703125,0.21110181510448456,-0.22854502499103546,-0.0355553925037384
1782845369254474800,6.367474853515625,0.1948442906141281,-0.19822120666503906,0.0583370141685009
1782845369264480000,6.37747998046875,0.1517304629087448,-0.1576661914587021,0.15690307319164276
1782845369274483700,6.387483642578125,0.09661129862070084,-0.12769976258277893,0.24470484256744385
1782845369284488700,6.39748876953125,0.03162110969424248,-0.07138882577419281,0.3017185926437378
1782845369294492700,6.40749267578125,-0.01751261204481125,-0.005650026723742485,0.3044739067554474
1782845369304497700,6.41749755859375,-0.05202574282884598,0.038895998150110245,0.2594441771507263
1782845369314502000,6.427501953125,-0.07522240281105042,0.06133366376161575,0.1895601749420166
1782845369324507000,6.4375068359375,-0.0851152315735817,0.060024723410606384,0.12470512837171555
1782845369334510800,6.4475107421875,-0.07638964802026749,0.038616105914115906,0.05832211673259735
1782845369344515800,6.457515869140625,-0.061821676790714264,0.0358927957713604,-0.011935735121369362
1782845369354519800,6.467519775390625,-0.04330764710903168,0.041604213416576385,-0.08596815168857574
1782845369364524800,6.47752490234375,-0.01620885729789734,0.05130415037274361,-0.15350842475891113
1782845369374528800,6.48752880859375,0.0069228271022439,0.062359996140003204,-0.1888435184955597
1782845369384532700,6.49753271484375,0.022912167012691498,0.06894497573375702,-0.19215430319309235
1782845369394537700,6.507537841796875,0.03424950689077377,0.068833127617836,-0.1632334440946579
1782845369404541700,6.517541748046875,0.0423746258020401,0.07367200404405594,-0.12823231518268585
1782845369414546700,6.527546630859375,0.04435628280043602,0.0833645761013031,-0.10280604660511017
1782845369424550700,6.537550537109375,0.028965875506401062,0.0890704020857811,-0.09555399417877197
1782845369434555600,6.5475556640625,0.01608656346797943,0.08485328406095505,-0.09727253019809723
1782845369444560000,6.557559814453125,0.0032150973565876484,0.07449185848236084,-0.09384697675704956
1782845369454564900,6.56756494140625,-0.013739119283854961,0.06392522901296616,-0.0960313007235527
1782845369464568800,6.57756884765625,-0.019950611516833305,0.0548214390873909,-0.08934777230024338
1782845369474573800,6.58757373046875,-0.016693033277988434,0.03684989735484123,-0.08456606417894363
1782845369484577800,6.597577880859375,-0.008007901720702648,0.025662174448370934,-0.06841818243265152
1782845369494582800,6.607582763671875,0.003989372402429581,0.02161550149321556,-0.04563084617257118
1782845369504586800,6.617586669921875,0.018994813784956932,0.0215818639844656,-0.018497109413146973
1782845369514590700,6.6275908203125,0.03517032042145729,0.019942954182624817,0.008012528531253338
1782845369524595700,6.637595703125,0.04953024163842201,0.01764126867055893,0.02781500294804573
1782845369534599700,6.647599609375,0.06178797036409378,0.030987702310085297,0.03184676542878151
1782845369544604700,6.657604736328125,0.07174703478813171,0.04397362843155861,0.02868918888270855
1782845369554609000,6.66760888671875,0.0850742906332016,0.05184007063508034,0.023312266916036606
1782845369564614000,6.67761376953125,0.09435470402240753,0.05373669043183327,0.031092822551727295
1782845369574617900,6.687617919921875,0.11491137742996216,0.05856287106871605,0.04358651116490364
1782845369584622800,6.697622802734375,0.13482783734798431,0.06182599067687988,0.07781766355037689
1782845369594626600,6.70762646484375,0.1541527956724167,0.06879148632287979,0.1053057461977005
1782845369604631600,6.717631591796875,0.16929475963115692,0.07860599458217621,0.1289174109697342
1782845369614635800,6.7276357421875,0.1807498186826706,0.08197116106748581,0.14332644641399384
1782845369624640800,6.737640869140625,0.18475356698036194,0.09045075625181198,0.14320378005504608
1782845369634644700,6.747644775390625,0.17626793682575226,0.0956154316663742,0.13704149425029755
1782845369644648700,6.757648681640625,0.16300134360790253,0.10260174423456192,0.1312774270772934
1782845369654653700,6.76765380859375,0.14721280336380005,0.10997816920280457,0.12746350467205048
1782845369664658000,6.777657958984375,0.1312061846256256,0.11397472769021988,0.12037038058042526
1782845369674663000,6.787662841796875,0.11556649953126907,0.12074554711580276,0.11566830426454544
1782845369684667000,6.7976669921875,0.10963675379753113,0.11993031203746796,0.12309499084949493
1782845369694672100,6.807672119140625,0.0959576889872551,0.12275432795286179,0.13240034878253937
1782845369704676000,6.817676025390625,0.08527690917253494,0.11890250444412231,0.15088121592998505
1782845369714681000,6.82768115234375,0.0767473429441452,0.11270985752344131,0.16888977587223053
1782845369724685300,6.837685302734375,0.07404796779155731,0.10925941914319992,0.18973001837730408
1782845369734690300,6.847690185546875,0.07635427266359329,0.10307928919792175,0.21141400933265686
1782845369744694300,6.8576943359375,0.07781153172254562,0.09378548711538315,0.23182351887226105
1782845369754699300,6.86769921875,0.07564850896596909,0.08591211587190628,0.2472458928823471
1782845369764703000,6.877702880859375,0.07296761125326157,0.08294201642274857,0.2662348449230194
1782845369774707200,6.887707275390625,0.07914029061794281,0.08292470872402191,0.2721409201622009
1782845369784712200,6.897712158203125,0.09528112411499023,0.09665308147668839,0.2675054967403412
1782845369794716200,6.907716064453125,0.12105013430118561,0.11123628914356232,0.2682011127471924
1782845369804721200,6.91772119140625,0.1455536186695099,0.134420707821846,0.2703268527984619
1782845369814725000,6.92772509765625,0.17664602398872375,0.15301649272441864,0.2772451937198639
1782845369824730000,6.937730224609375,0.20948413014411926,0.15725837647914886,0.2782004773616791
1782845369834734000,6.947734130859375,0.24497582018375397,0.15906187891960144,0.2937581241130829
1782845369844739000,6.957739013671875,0.2779623568058014,0.14517100155353546,0.29160964488983154
1782845369854743300,6.967743408203125,0.29737040400505066,0.12394320219755173,0.26628831028938293
1782845369864748300,6.977748291015625,0.30030062794685364,0.10914912819862366,0.19636854529380798
1782845369874752000,6.987751953125,0.2756274938583374,0.11571887880563736,0.061701804399490356
1782845369884757000,6.997757080078125,0.24457988142967224,0.13647523522377014,-0.131749227643013
1782845369894761000,7.007760986328125,0.21742016077041626,0.14938996732234955,-0.34260818362236023
1782845369904766200,7.01776611328125,0.22657981514930725,0.14534734189510345,-0.5393903255462646
1782845369914770200,7.027770263671875,0.26020434498786926,0.1519959270954132,-0.6751606464385986
1782845369924774100,7.037774169921875,0.2915772795677185,0.13244977593421936,-0.7305212020874023
1782845369934779100,7.047779052734375,0.3213639259338379,0.07462083548307419,-0.7126303315162659
1782845369944783000,7.057783203125,0.34339627623558044,-0.00705911498516798,-0.6433252692222595
1782845369954788000,7.0677880859375,0.3512832224369049,-0.0862966775894165,-0.5543988943099976
1782845369964792300,7.077792236328125,0.3489489257335663,-0.144681915640831,-0.45799195766448975
1782845369974797300,7.08779736328125,0.3460274338722229,-0.1801227331161499,-0.3488295078277588
1782845369984801000,7.097801025390625,0.34205329418182373,-0.19341091811656952,-0.21629612147808075
1782845369994806000,7.107805908203125,0.341395765542984,-0.18903028964996338,-0.09309722483158112
1782845370004810000,7.11781005859375,0.3304164409637451,-0.14630819857120514,0.021751852706074715
1782845370014815000,7.12781494140625,0.3160593509674072,-0.10362652689218521,0.11447885632514954
1782845370024819200,7.137819091796875,0.3034394681453705,-0.0731046125292778,0.1692696064710617
1782845370034824200,7.14782421875,0.2934936285018921,-0.04144015908241272,0.1899687498807907
1782845370044828200,7.157828125,0.2841005027294159,-0.015452858060598373,0.1835172474384308
1782845370054832000,7.16783203125,0.26536887884140015,0.008159792050719261,0.16944323480129242
1782845370064837000,7.177837158203125,0.23806507885456085,0.024351011961698532,0.16228999197483063
1782845370074841300,7.18784130859375,0.19793656468391418,0.03725535795092583,0.16394327580928802
1782845370084846300,7.197846435546875,0.1532449722290039,0.048603881150484085,0.15999048948287964
1782845370094850000,7.20785009765625,0.10706763714551926,0.058061033487319946,0.14316144585609436
1782845370104855000,7.21785498046875,0.06474945694208145,0.07594554126262665,0.11474423855543137
1782845370114859000,7.22785888671875,0.025246787816286087,0.09979255497455597,0.09247728437185287
1782845370124864000,7.237864013671875,-0.014345331117510796,0.10682085901498795,0.0987538993358612
1782845370134868200,7.2478681640625,-0.05506453290581703,0.10738944262266159,0.11344496160745621
1782845370144873200,7.257873291015625,-0.08717218786478043,0.1059979796409607,0.13355855643749237
1782845370154877200,7.267877197265625,-0.10391175001859665,0.11523835361003876,0.13979247212409973
1782845370164882200,7.277882080078125,-0.10382981598377228,0.12805436551570892,0.13835503160953522
1782845370174886100,7.28788623046875,-0.09161602705717087,0.1286381334066391,0.12540622055530548
1782845370184890400,7.297890380859375,-0.0699547678232193,0.12250708788633347,0.09538506716489792
1782845370194895400,7.307895263671875,-0.04636102542281151,0.10657819360494614,0.0731402188539505
1782845370204899000,7.317899169921875,-0.029486609622836113,0.08670719712972641,0.06005331128835678
1782845370214904000,7.327904052734375,-0.021684080362319946,0.07348673790693283,0.054473988711833954
1782845370224908000,7.337907958984375,-0.02141842059791088,0.057347577065229416,0.04130258783698082
1782845370234913000,7.3479130859375,-0.014414041303098202,0.05089287459850311,0.014155388809740543
1782845370244917200,7.357917236328125,0.004995639435946941,0.04177549481391907,-0.01940622739493847
1782845370254922200,7.367922119140625,0.03421397879719734,0.0254316758364439,-0.054641179740428925
1782845370264926200,7.37792626953125,0.061105433851480484,0.013621712103486061,-0.08157958835363388
1782845370274931200,7.38793115234375,0.09074055403470993,0.0004023138899356127,-0.10202094912528992
1782845370284935200,7.39793505859375,0.12123582512140274,-0.020417919382452965,-0.10332098603248596
1782845370294940200,7.407940185546875,0.1373588740825653,-0.036960143595933914,-0.09545134007930756
1782845370304944000,7.417944091796875,0.15591000020503998,-0.0410117544233799,-0.08628905564546585
1782845370314949000,7.42794921875,0.16389815509319305,-0.0406692698597908,-0.057909343391656876
1782845370324953000,7.437953125,0.1633041948080063,-0.037510670721530914,-0.015657499432563782
1782845370334957000,7.44795703125,0.15583908557891846,-0.03134092688560486,0.025292864069342613
1782845370344962000,7.457962158203125,0.13780547678470612,-0.03398251533508301,0.06474266946315765
1782845370354966300,7.46796630859375,0.10871150344610214,-0.021456338465213776,0.09238628298044205
1782845370364971300,7.47797119140625,0.06989146769046783,0.006570993922650814,0.11887015402317047
1782845370374975200,7.487975341796875,0.01926717534661293,0.03925969824194908,0.13231831789016724
1782845370384980200,7.497980224609375,-0.03189827501773834,0.06936939805746078,0.14467565715312958
1782845370394984200,7.507984130859375,-0.0801563560962677,0.07695594429969788,0.14744266867637634
1782845370404989200,7.5179892578125,-0.12151476740837097,0.062318772077560425,0.14197692275047302
1782845370414993200,7.5279931640625,-0.16163422167301178,0.032514538615942,0.11737464368343353
1782845370424998100,7.537998046875,-0.18958179652690887,-0.0011344680096954107,0.0939217284321785
1782845370435002000,7.548002197265625,-0.21951892971992493,-0.035727597773075104,0.06444213539361954
1782845370445007000,7.558007080078125,-0.24379108846187592,-0.05708766356110573,0.017740415409207344
1782845370455011000,7.568010986328125,-0.25767627358436584,-0.05858435854315758,-0.02332286350429058
1782845370465015300,7.578015380859375,-0.26154184341430664,-0.047799352556467056,-0.04757814481854439
1782845370475020300,7.588020263671875,-0.25341305136680603,-0.0220540389418602,-0.05566935986280441
1782845370485024300,7.598024169921875,-0.24327822029590607,0.004125453531742096,-0.046996109187603
1782845370495029200,7.608029296875,-0.22865986824035645,0.016758158802986145,-0.020466230809688568
1782845370505033200,7.618033203125,-0.210347980260849,0.017228789627552032,0.026019303128123283
1782845370515038200,7.6280380859375,-0.18806931376457214,0.016331836581230164,0.06482821702957153
1782845370525042200,7.638042236328125,-0.16777139902114868,0.014304445125162601,0.09761907160282135
1782845370535047200,7.648047119140625,-0.1472642570734024,0.008786375634372234,0.11523880809545517
1782845370545051100,7.658051025390625,-0.12742018699645996,-0.00014558923430740833,0.10885533690452576
1782845370555056000,7.66805615234375,-0.10938552767038345,-0.01431919913738966,0.10224457085132599
1782845370565060000,7.67806005859375,-0.08510179817676544,-0.02097604237496853,0.07665559649467468
1782845370575065000,7.688065185546875,-0.06734996289014816,-0.035990677773952484,0.059108030050992966
1782845370585069000,7.698069091796875,-0.06068972498178482,-0.04150599241256714,0.05283987522125244
1782845370595074300,7.70807421875,-0.06763312220573425,-0.04086656868457794,0.05073251575231552
1782845370605078300,7.718078369140625,-0.08413837105035782,-0.03617243468761444,0.03223719447851181
1782845370615082200,7.728082275390625,-0.09789679199457169,-0.0266665481030941,0.007434908766299486
1782845370625087200,7.738087158203125,-0.11306395381689072,-0.015304740518331528,-0.0027451030910015106
1782845370635091000,7.748091064453125,-0.138493150472641,-0.007929914630949497,0.003643553936854005
1782845370645096000,7.758095947265625,-0.1636938750743866,-0.006387418136000633,0.012033055536448956
1782845370655100200,7.76810009765625,-0.1878463476896286,-0.006402865052223206,0.020605238154530525
1782845370665105200,7.778105224609375,-0.20097480714321136,-0.00393478199839592,0.028669491410255432
1782845370675109000,7.788109130859375,-0.20648302137851715,-0.009697063826024532,0.038379110395908356
1782845370685114000,7.798114013671875,-0.21153394877910614,-0.013830285519361496,0.046874191612005234
1782845370695117800,7.808117919921875,-0.22347690165042877,-0.021786745637655258,0.056994467973709106
1782845370705123000,7.818123046875,-0.22639217972755432,-0.027960311621427536,0.06268058717250824
1782845370715126800,7.828126708984375,-0.2253764569759369,-0.035227011889219284,0.06496744602918625
1782845370725131800,7.8381318359375,-0.2357480227947235,-0.04168424755334854,0.05811559781432152
1782845370735135700,7.8481357421875,-0.2323564887046814,-0.05238376557826996,0.04408419877290726
1782845370745140700,7.858140625,-0.2295043170452118,-0.06765871495008469,0.03424520790576935
1782845370755145000,7.86814501953125,-0.21916672587394714,-0.07699229568243027,0.026876239106059074
1782845370765149000,7.87814892578125,-0.1996001899242401,-0.08294610679149628,0.024713026359677315
1782845370775154000,7.88815380859375,-0.17078319191932678,-0.07784002274274826,0.026107190176844597
1782845370785158000,7.898157958984375,-0.13724325597286224,-0.059851791709661484,0.026656605303287506
1782845370795163000,7.908162841796875,-0.10641637444496155,-0.04841165244579315,0.029527759179472923
1782845370805166800,7.918166748046875,-0.06854686886072159,-0.03996109217405319,0.03053310699760914
1782845370815171800,7.928171875,-0.03144264221191406,-0.03849369287490845,0.02356255054473877
1782845370825175800,7.93817578125,0.002844853326678276,-0.03781574219465256,0.011051683686673641
1782845370835180800,7.948180908203125,0.004940761253237724,-0.039540402591228485,0.0023767026141285896
1782845370845184800,7.958184814453125,-0.005903914570808411,-0.03568308427929878,-0.022957544773817062
1782845370855189800,7.968189697265625,-0.01768787018954754,-0.033234041184186935,-0.06301282346248627
1782845370865193700,7.97819384765625,-0.017620161175727844,-0.036815233528614044,-0.11124899983406067
1782845370875198700,7.98819873046875,-0.007166987285017967,-0.04760929197072983,-0.14861926436424255
1782845370885203000,7.998202880859375,0.007645781151950359,-0.06585753709077835,-0.1531786024570465
1782845370895208000,8.0082080078125,0.030276259407401085,-0.08219975978136063,-0.12682315707206726
1782845370905212000,8.0182119140625,0.043216824531555176,-0.09083026647567749,-0.0814620703458786
1782845370915216000,8.0282158203125,0.050144508481025696,-0.09539758414030075,-0.02430477738380432
1782845370925220900,8.038220947265625,0.05437448248267174,-0.08310612291097641,0.032728418707847595
1782845370935224800,8.048224853515626,0.06160470098257065,-0.061645302921533585,0.09059890359640121
1782845370945229800,8.058229736328125,0.06427988409996033,-0.05667402595281601,0.14321251213550568
1782845370955233800,8.06823388671875,0.06661415100097656,-0.06179555132985115,0.17643198370933533
1782845370965238800,8.07823876953125,0.06080837920308113,-0.06213261932134628,0.1879349797964096
1782845370975242800,8.08824267578125,0.04358625039458275,-0.062082014977931976,0.1729522943496704
1782845370985247700,8.098247802734376,0.026379959657788277,-0.04588986933231354,0.12823882699012756
1782845370995252000,8.108251953125,-0.007998254150152206,-0.028412073850631714,0.04987078532576561
1782845371005257000,8.118257080078125,-0.06145622953772545,-0.014312675222754478,-0.060096196830272675
1782845371015261000,8.128260986328126,-0.12157522886991501,-0.0061117373406887054,-0.19085393846035004
1782845371025266000,8.138265869140625,-0.18015356361865997,-0.0014453937765210867,-0.32571980357170105
1782845371035270000,8.148269775390625,-0.22688670456409454,0.0026361667551100254,-0.45354169607162476
1782845371045275000,8.15827490234375,-0.2661556005477905,-0.0128261037170887,-0.5614467859268188
1782845371055278800,8.16827880859375,-0.2853833734989166,-0.05938268452882767,-0.6266869902610779
1782845371065282800,8.17828271484375,-0.29144370555877686,-0.10714265704154968,-0.6375945806503296
1782845371075287800,8.188287841796875,-0.2728250324726105,-0.13835863769054413,-0.5963674783706665
1782845371085291800,8.198291748046875,-0.22945094108581543,-0.15786437690258026,-0.5022773146629333
1782845371095296800,8.208296875,-0.16816681623458862,-0.15286989510059357,-0.37271395325660706
1782845371105301000,8.218301025390625,-0.0925951600074768,-0.11979764699935913,-0.23438915610313416
1782845371115306000,8.228305908203126,-0.0039664944633841515,-0.09274525195360184,-0.09051402658224106
1782845371125310000,8.23831005859375,0.10287296026945114,-0.08974289149045944,0.03930242732167244
1782845371135315000,8.24831494140625,0.19421300292015076,-0.10292766988277435,0.15112218260765076
1782845371145318700,8.258318603515624,0.258146196603775,-0.09697848558425903,0.22374717891216278
1782845371155323600,8.26832373046875,0.2725917100906372,-0.07705803960561752,0.2782573103904724
1782845371165328000,8.278327880859376,0.25020456314086914,-0.03646045923233032,0.30124250054359436
1782845371175332900,8.288332763671875,0.19791659712791443,0.024614881724119186,0.2839631140232086
1782845371185336800,8.2983369140625,0.14474767446517944,0.07843976467847824,0.24545006453990936
1782845371195341800,8.308341796875,0.09769652783870697,0.11280865967273712,0.20427626371383667
1782845371205345800,8.318345703125,0.07220831513404846,0.12778325378894806,0.17162898182868958
1782845371215350000,8.32835009765625,0.07195983827114105,0.12939633429050446,0.14403223991394043
1782845371225355000,8.33835498046875,0.0797673761844635,0.12268095463514328,0.12549430131912231
1782845371235359000,8.34835888671875,0.08998006582260132,0.12119517475366592,0.08448482304811478
1782845371245364000,8.358364013671874,0.0995880514383316,0.11258002370595932,0.019033242017030716
1782845371255367700,8.36836767578125,0.1170157790184021,0.09478611499071121,-0.05147847533226013
1782845371265372700,8.37837255859375,0.1435706466436386,0.06707623600959778,-0.10376771539449692
1782845371275377000,8.388376953125,0.16913005709648132,0.032396018505096436,-0.13470458984375
1782845371285382000,8.3983818359375,0.18468177318572998,0.001785731641575694,-0.13914474844932556
1782845371295385900,8.4083857421875,0.18983417749404907,-0.022216539829969406,-0.12521295249462128
1782845371305390800,8.418390869140625,0.18287914991378784,-0.03612600266933441,-0.09940247237682343
1782845371315394800,8.428394775390625,0.17451868951320648,-0.03881339728832245,-0.08117100596427917
1782845371325399800,8.43839990234375,0.15675640106201172,-0.04252266138792038,-0.056974031031131744
1782845371335404000,8.448404052734375,0.13554060459136963,-0.02429092675447464,-0.03846239671111107
1782845371345409000,8.458408935546874,0.11555080115795135,0.002296081045642495,-0.03378622978925705
1782845371355413000,8.4684130859375,0.1038251668214798,0.021509723737835884,-0.039589256048202515
1782845371365416700,8.478416748046875,0.09282534569501877,0.05030479654669762,-0.05042499303817749
1782845371375421700,8.488421630859374,0.0917733907699585,0.06290341168642044,-0.07090257108211517
1782845371385426000,8.498426025390625,0.10189268738031387,0.059581030160188675,-0.07958394289016724
1782845371395431000,8.508430908203126,0.12849687039852142,0.04981414973735809,-0.09646092355251312
1782845371405435000,8.518434814453125,0.14620813727378845,0.040968019515275955,-0.13158029317855835
1782845371415440000,8.52843994140625,0.1620134711265564,0.040369875729084015,-0.17659863829612732
1782845371425443800,8.53844384765625,0.17082975804805756,0.038611527532339096,-0.21425475180149078
1782845371435448800,8.54844873046875,0.17568176984786987,0.04450829699635506,-0.23772279918193817
1782845371445453000,8.558453125,0.1811029314994812,0.05679634213447571,-0.23773416876792908
1782845371455458000,8.5684580078125,0.1965942680835724,0.0769793763756752,-0.22164015471935272
1782845371465462000,8.5784619140625,0.20073242485523224,0.09354570508003235,-0.1868787705898285
1782845371475467000,8.588467041015624,0.21121887862682343,0.09788665920495987,-0.13250553607940674
1782845371485470700,8.598470703125,0.21899883449077606,0.08744249492883682,-0.057983849197626114
1782845371495475700,8.608475830078126,0.23958879709243774,0.07376103848218918,0.03554130718111992
1782845371505480000,8.61847998046875,0.2616182863712311,0.06257167458534241,0.12023010104894638
1782845371515484000,8.62848388671875,0.2818085253238678,0.05446607619524002,0.18810608983039856
1782845371525489000,8.638489013671874,0.2955968677997589,0.06098194792866707,0.2481144219636917
1782845371535492900,8.648492919921875,0.29792580008506775,0.0662187859416008,0.28709033131599426
1782845371545497900,8.658497802734376,0.29216527938842773,0.07928700745105743,0.29213792085647583
1782845371555501800,8.668501708984374,0.27158090472221375,0.10630051046609879,0.276944637298584
1782845371565506800,8.6785068359375,0.2728120982646942,0.03532163053750992,0.18046621978282928
1782845371575510800,8.6885107421875,0.2938755452632904,-0.01569921150803566,0.08834268152713776
1782845371585516000,8.69851611328125,0.3081909120082855,-0.06039215624332428,0.0005094313528388739
1782845371595519700,8.708519775390625,0.30812913179397583,-0.0588829442858696,-0.049679167568683624
1782845371605524700,8.718524658203124,0.2925126254558563,-0.006292916368693113,-0.08132372796535492
1782845371615528700,8.72852880859375,0.26344582438468933,0.025150228291749954,-0.13464687764644623
1782845371625533700,8.73853369140625,0.2295541912317276,0.029588069766759872,-0.20239707827568054
1782845371635538000,8.748537841796875,0.2107946127653122,0.01778547465801239,-0.27199772000312805
