time,seconds_elapsed,z,y,x
1782845817434318300,0.079318359375,0.13609013992249966,0.006193155551701784,-0.020832067887485026
1782845817444323300,0.0893232421875,0.08397475275993346,0.017763766358047724,-0.027101649676263332
1782845817454328300,0.099328369140625,0.046262569481134413,0.0015334931775927542,-0.040091625761240715
1782845817464333300,0.109333251953125,0.0017027122646570204,-0.021555121465027333,-0.07494783508703112
1782845817474338300,0.11933837890625,0.002179097604751587,-0.04580941888615489,-0.0931798034787178
1782845817484343300,0.12934326171875,-0.0073667293757200235,-0.015478285769373178,-0.10391995481029152
1782845817494348300,0.139348388671875,-0.053559156230092046,-0.001986643772572279,-0.10131196426898241
1782845817504353300,0.149353271484375,-0.09123626819550991,0.012588701807707547,-0.11328823326677083
1782845817514358300,0.159358154296875,-0.10644435872137546,-0.004000467813014984,-0.08597279470935464
1782845817524363300,0.16936328125,-0.10292729051113128,0.0007480418883264064,-0.05155512293130159
1782845817534368300,0.1793681640625,-0.072584174695611,0.0009909107334911823,-0.020465426532179115
1782845817544373200,0.189373291015625,-0.010728899285197257,0.01433788356259465,-0.01352116035223007
1782845817554378200,0.199378173828125,0.05247837525606155,0.037102965339273215,-0.04380597010925412
1782845817564383200,0.20938330078125,0.1311287181228399,0.04251987582147121,-0.040039311052113766
1782845817574388200,0.21938818359375,0.18597089990079402,0.03217851454913616,-0.05943199378624558
1782845817584393200,0.229393310546875,0.19383447288274763,0.01686053390800953,-0.02985080225393176
1782845817594398200,0.239398193359375,0.17477262953817843,0.03854410405829549,-0.012723141842335462
1782845817604403200,0.2494033203125,0.11820610818564892,0.06353562971279025,0.042198827173560854
1782845817614408200,0.259408203125,0.08425532326698303,0.05076967164203524,0.06473638380467892
1782845817624413200,0.2694130859375,0.0720960989177227,0.017399024698883294,0.09678937227800488
1782845817634418200,0.279418212890625,0.08413783436715602,0.026638854470103977,0.12325389309450983
1782845817644423200,0.289423095703125,0.13520108212828635,0.01606733770370483,0.1507562325261533
1782845817654428200,0.29942822265625,0.17120061627030372,-0.0022493863619863987,0.11056684547886252
1782845817664433200,0.30943310546875,0.17044833659827707,0.005422171179205179,0.05488572865873575
1782845817674438100,0.319438232421875,0.18686171126067638,0.01938829881995916,0.04874108842387795
1782845817684443100,0.329443115234375,0.20706746394336223,0.02718962022066116,0.015251052884757518
1782845817694448000,0.3394482421875,0.1819534809529781,0.03803308579623699,-0.03898921747729182
1782845817704453000,0.349453125,0.15726502989828586,0.05555135296061635,-0.058576984392106526
1782845817714458400,0.359458251953125,0.11536182467043399,0.08082286460027098,-0.04082242425382137
1782845817724462300,0.36946240234375,0.05567921712398529,0.05585632725656032,-0.006971154186874628
1782845817734467300,0.37946728515625,0.006772270613908767,0.023798516477644444,0.03235840116068721
1782845817744472300,0.389472412109375,-0.027577742755413054,0.004463263019174337,0.06178995508924126
1782845817754477300,0.399477294921875,0.023106150299310683,-0.024127163910120725,0.056192865734547376
1782845817764482300,0.409482421875,0.06882628346681595,-0.030938889751583334,0.0024720892019569874
1782845817774487300,0.4194873046875,0.08912029895484447,-0.012222060452401637,-0.023660130920261143
1782845817784492300,0.4294921875,0.08725508960485458,0.0006248539000749588,-0.02640738380178809
1782845817794497300,0.439497314453125,0.06917933468818664,0.008165478537976742,-0.02671820331662893
1782845817804502300,0.449502197265625,0.051151510566473005,0.03380406992435455,-0.035085926428437234
1782845817814507300,0.45950732421875,0.047238136515021324,0.06285115457996726,-0.03761909816786647
1782845817824512300,0.46951220703125,0.05912205105423927,0.06122837568372488,-0.02414031565263867
1782845817834517200,0.479517333984375,0.10321955145597457,0.02817833899706602,-0.008721797246485948
1782845817844522200,0.489522216796875,0.10754968961477279,0.015061083270609378,0.01939984312728047
1782845817854527200,0.49952734375,0.11426935325860976,-0.0023215748153626917,0.03692614746764302
1782845817864532200,0.5095322265625,0.13171031740307806,-0.01812909253910184,0.06014554888308048
1782845817874537200,0.519537109375,0.11764496717154979,-0.0357290466375649,0.045089287918061015
1782845817884542500,0.52954248046875,0.12303075186312198,-0.022292934220284222,0.016767156536132095
1782845817894547500,0.53954736328125,0.10035539419651031,-0.006253653567284345,-0.016077420706301925
1782845817904552400,0.549552490234375,0.08982114070057869,-0.01492445127889514,-0.03486863041594624
1782845817914557400,0.559557373046875,0.06658698010742664,-0.015655249771475793,-0.03988748149126768
1782845817924562400,0.5695625,0.011945873859524727,0.005290361493080854,-0.0639605771265924
1782845817934567400,0.5795673828125,0.01649871485829353,0.005194792164117098,-0.05878843518570065
1782845817944572400,0.589572509765625,0.009216156634688376,-0.008412585166841745,-0.051375528580695384
1782845817954577400,0.599577392578125,-0.015960370197892187,0.016224574092030524,-0.062308572135865686
1782845817964582400,0.60958251953125,0.02618541161417961,-0.0054889528051018715,-0.029639351460337637
1782845817974587400,0.61958740234375,0.08271627713143825,-0.022387480635941027,-0.032859336420148606
1782845817984592400,0.62959228515625,0.11119535264074802,-0.018843232157826423,-0.05111760829687118
1782845817994597400,0.639597412109375,0.1176268469929695,0.014108604851365088,-0.06993658279627561
1782845818004602400,0.649602294921875,0.13065350182652472,0.010871376495808362,-0.04779445522353053
1782845818014607400,0.659607421875,0.14285247366428375,0.003367868997901678,-0.02359787933900952
1782845818024612400,0.6696123046875,0.1726128211557865,0.02059095260798931,0.0026565058581531045
1782845818034617300,0.679617431640625,0.18968261390030383,0.027374621398746964,0.016883184131234883
1782845818044622300,0.689622314453125,0.16961714647114276,0.008937339693307875,0.03655366089344025
1782845818054627300,0.69962744140625,0.11826572941839694,0.01723521243929863,0.030813363675773142
1782845818064632300,0.70963232421875,0.04160743715167045,-0.007775748568028211,0.050436201903969045
1782845818074637300,0.71963720703125,-0.011846505138278007,-0.014124971464276314,0.06676715897992253
1782845818084642300,0.729642333984375,-0.017468436673283575,-0.01719911821261048,0.05816796519979834
1782845818094647300,0.739647216796875,0.021481763967871666,0.014334376431256532,0.03884849383234978
1782845818104652300,0.74965234375,0.08010463332831859,0.013453209682554005,0.00797083274871111
1782845818114657300,0.7596572265625,0.11881576451659202,0.02963452915474772,-0.03162716427668929
1782845818124663300,0.769663330078125,0.13339900114238262,0.029247575663775203,-0.045977176668494935
1782845818134668300,0.779668212890625,0.15274433760344983,0.03472863742336631,-0.05266980617493391
1782845818144673300,0.78967333984375,0.0770066673129797,0.02702712313532829,-0.056664428769052026
1782845818154678300,0.79967822265625,0.04014554790556431,0.04234992608204484,-0.039514848786592484
1782845818164683300,0.809683349609375,0.03890460793375969,0.0330057591535151,-0.0415051458209753
1782845818174688300,0.819688232421875,0.024421909072995185,0.005405804566293955,-0.02952346999570727
1782845818184693200,0.829693359375,0.07653495814800262,-0.00029927520751953123,-0.016558482221513987
1782845818194698200,0.8396982421875,0.11074936243891716,0.0032372283555567264,-0.03581526361629367
1782845818204703200,0.849703125,0.14711363824009893,0.02089724207818508,-0.04891673725172877
1782845818214708200,0.859708251953125,0.15934475878179072,0.001156622689217329,-0.045667233936488624
1782845818224713200,0.869713134765625,0.16849018826782702,-0.004399111741781234,-0.044301060149818654
1782845818234718200,0.87971826171875,0.17984394145309923,0.0010034779541194438,-0.02894274749830365
1782845818244723200,0.88972314453125,0.1653629961580038,-0.005424217005819082,-0.01966068602055311
1782845818254728200,0.899728271484375,0.14538111535906792,0.001567833838611841,-0.0179499365799129
1782845818264733400,0.9097333984375,0.12508417726159096,0.013716682924330233,0.02364478722065687
1782845818274738400,0.919738525390625,0.10503566096723078,0.029047815307974813,0.04575388930663466
1782845818284743400,0.929743408203125,0.050584524333477016,0.025174627136439084,0.07941855076029897
1782845818294748400,0.93974853515625,0.015606149932742118,0.031177813073992727,0.07718100096657872
1782845818304753400,0.94975341796875,0.009271101692318916,0.031864480163902045,0.06617430765330791
1782845818314758400,0.95975830078125,0.028100889846682547,0.014785042808204888,0.06004793372750282
1782845818324763400,0.969763427734375,0.07097030975818634,0.017850129467248916,0.05903934120684862
1782845818334768400,0.979768310546875,0.09924830973744392,0.03223068312779069,0.04983589792326092
1782845818344773400,0.9897734375,0.12490063738822936,0.04873480481356382,0.049501989793777464
1782845818354778400,0.9997783203125,0.14408055415451526,0.02617649765536189,0.025236148065328597
1782845818364783400,1.009783447265625,0.14058745134174824,0.02831511711925268,0.009835749837756156
1782845818374788400,1.019788330078125,0.10201426731944084,0.040241409495472905,0.0225979085162282
1782845818384793300,1.02979345703125,0.061624973785877224,0.01459434254169464,-0.01328223702982068
1782845818394798300,1.03979833984375,0.0526157379001379,-0.009542612110078334,-0.01578282167389989
1782845818404803300,1.04980322265625,0.0699696082830429,-0.005483692108094692,-0.004268032708019018
1782845818414808300,1.059808349609375,0.09351707260906696,0.003397971875220537,-0.017009440859407185
1782845818424813300,1.069813232421875,0.1302279698908329,-0.004248305094242096,-0.0024538228929042814
1782845818434818300,1.079818359375,0.13578034332096575,0.022391718419641254,-0.04165595246851444
1782845818444823300,1.0898232421875,0.07328735452890396,0.0451945018582046,-0.07419803963303566
1782845818454828300,1.099828369140625,0.029018589213490483,0.03873962663039565,-0.07757701454684138
1782845818464833300,1.109833251953125,-0.013288520640134811,0.02440729602575302,-0.029204028782993552
1782845818474838300,1.11983837890625,-0.037623335951566694,-0.016134265460073946,-0.012500292871892452
1782845818484843300,1.12984326171875,-0.005319149196147919,-0.02477130703255534,0.015802110896259547
1782845818494848300,1.13984814453125,0.050860418665409086,0.011031243232637643,0.01563113824352622
1782845818504853200,1.149853271484375,0.06268178936243057,0.023538696497678754,0.005212620081752538
1782845818514858200,1.159858154296875,0.0790980866342783,0.01679609036967158,-0.01020809028148651
1782845818524862200,1.1698623046875,0.03371580711901188,0.03154562347307801,-0.013196750703454017
1782845818534868200,1.1798681640625,-0.005572831696271896,0.04027721146121621,-0.011978899346292019
1782845818544872200,1.1898720703125,-0.03129822458326816,0.06807604962140322,-0.02362242925837636
1782845818554877200,1.199877197265625,-0.018204934254288672,0.07156286882385611,0.0004081424094736576
1782845818564882200,1.209882080078125,0.012283142989873885,0.06969152199402451,0.010969430042803287
1782845818574887200,1.21988720703125,0.04215338059663772,0.07260068743899464,0.01646919650286436
1782845818584892200,1.22989208984375,0.1281798051893711,0.08235913425683974,0.02132949601560831
1782845818594897200,1.239897216796875,0.20447335579693315,0.04687777877002954,0.047022740198671815
1782845818604902100,1.249902099609375,0.25836218237280845,0.02988368161022663,0.06662628920450807
1782845818614907400,1.259907470703125,0.26800796259641646,0.008600070562958717,0.07897124538421631
1782845818624912400,1.269912353515625,0.2539455349743366,0.018518676378577948,0.08270107956230639
1782845818634917400,1.27991748046875,0.18957623091638087,0.040275896286964416,0.0810376763947308
1782845818644922400,1.28992236328125,0.15169219820201396,0.05220905679538846,0.05847498532235622
1782845818654927400,1.29992724609375,0.10671031618118286,0.08376154840067028,0.06692351858541369
1782845818664932400,1.309932373046875,0.09554010286927223,0.0808629043497145,0.05761135423034429
1782845818674937300,1.319937255859375,0.06445230616629123,0.09081453565210103,0.056699938473850485
1782845818684942300,1.3299423828125,0.05965922667086124,0.08595189805179834,0.0867279969908297
1782845818694947300,1.339947265625,0.0781874015301466,0.031522096467018125,0.08702420345842837
1782845818704952300,1.349952392578125,0.07535305488705635,0.027121523420512675,0.09833265619724989
1782845818714957300,1.359957275390625,0.11334697771668434,0.027262831587344407,0.0957234966121614
1782845818724962300,1.36996240234375,0.12501520367860794,0.02517696522399783,0.055665773120522496
1782845818734967300,1.37996728515625,0.1438742179274559,0.026795652467012404,0.026869448355585336
1782845818744972300,1.38997216796875,0.14953180529773236,0.0615660832054913,0.0045415889523923395
1782845818754977300,1.399977294921875,0.13003332410156726,0.06444806838259101,-0.008788871133327483
1782845818764982300,1.409982177734375,0.1138888295084238,0.05903846442401409,0.005502542939037084
1782845818774987300,1.4199873046875,0.07555179232954978,0.028131577245891094,0.011187748968601226
1782845818784992300,1.4299921875,0.037842531660199165,0.01237768940553069,0.020239947213232516
1782845818794997200,1.439997314453125,0.07008125196397304,-0.023117840737104413,0.06758081345036625
1782845818805002200,1.450002197265625,0.06500584839582443,-0.04585793420299887,0.050349984925240274
1782845818815007200,1.46000732421875,0.0832546217918396,-0.05024053320139646,0.014546704007685183
1782845818825012200,1.47001220703125,0.10532850643396377,-0.028732027357071636,-0.0282706934556365
1782845818835017200,1.480017333984375,0.1062725092858076,0.016324235074222086,-0.08318506368696689
1782845818845022200,1.490022216796875,0.1319967331290245,0.03861205472797155,-0.1197951309427619
1782845818855027200,1.500027099609375,0.13013269282281398,0.04988645906671881,-0.14098799496665596
1782845818865032200,1.5100322265625,0.09956453607976436,0.054708910787105554,-0.13987068137452005
1782845818875037200,1.520037109375,0.08672843538224696,0.03822846223786473,-0.10043854243531823
1782845818885042200,1.530042236328125,0.04438274708390236,0.04534472398385405,-0.08443784022703767
1782845818895047200,1.540047119140625,-0.011052139890193938,0.005972352407872677,-0.04523059608489275
1782845818905052400,1.550052490234375,-0.08389525778293609,0.00285582782253623,0.019528291812539098
1782845818915057400,1.560057373046875,-0.096404026222229,0.012169161221385002,0.06532762769609689
1782845818925062400,1.5700625,-0.06978489936590195,-0.0008013795107603073,0.07751081744283438
1782845818935067400,1.5800673828125,-0.014870821395516395,-0.01507014335989952,0.05305559062212705
1782845818945072400,1.590072265625,0.08588029412031173,0.005310673628747463,0.025630115818977353
1782845818955077400,1.600077392578125,0.16388474029898642,0.025585984416306017,-0.024488544568419455
1782845818965082400,1.610082275390625,0.23481179543733596,0.025269758073985574,-0.04987111536711454
1782845818975087400,1.62008740234375,0.2614157247245312,0.023352087884396314,-0.06359247446656227
1782845818985092400,1.63009228515625,0.2649672797262668,0.045862171986699105,-0.06417626570388674
1782845818995097300,1.640097412109375,0.20263094280064106,0.06039455520808697,-0.03722220780476927
1782845819005102300,1.650102294921875,0.13534253642559052,0.05904021798968315,-0.01359028006568551
1782845819015107300,1.660107421875,0.08446808923482894,0.03495397061184048,0.030205460910499093
1782845819025112300,1.6701123046875,0.0513303742647171,0.0029696634605526923,0.04257628218382597
1782845819035117300,1.680117431640625,0.0356231020450592,0.015788520762324332,0.06540814558640122
1782845819045122300,1.690122314453125,0.02487842066884041,0.01941109517365694,0.06353679875656962
1782845819055127300,1.700127197265625,0.024743396112322805,-0.0034231063164770602,0.05355024227127433
1782845819065132300,1.71013232421875,-0.012637947776913643,0.02005918381884694,0.026541093184053895
1782845819075137300,1.72013720703125,-0.02220832467675209,0.021339725148677824,0.02354614915177226
1782845819085142300,1.730142333984375,0.009221417331695556,0.000751549019664526,0.029774960538744923
1782845819095147300,1.740147216796875,0.032601708397269245,0.005423924744874239,0.02523307932540774
1782845819105152300,1.75015234375,0.047804538226127624,0.022654461009055375,0.009354688322544097
1782845819115157200,1.7601572265625,0.11405600276887416,0.010168488923460244,0.015543459960073232
1782845819125162200,1.770162353515625,0.14938918195664883,0.03806698806583881,-0.0052625967033207415
1782845819135167200,1.780167236328125,0.19615736287236213,0.054206221961975096,-0.020462503922730683
1782845819145172200,1.790172119140625,0.19714637390971182,0.03384907810986042,-0.034638913313299415
1782845819155177200,1.80017724609375,0.16038520774543286,0.037016456099599596,-0.058148822107911106
1782845819165182200,1.81018212890625,0.09752864633798598,0.048427346299588676,-0.056457361889630554
1782845819175187200,1.820187255859375,0.0805921245843172,0.04464534354284405,-0.002619242587685585
1782845819185192200,1.830192138671875,0.06507189936935902,0.025027473750710485,0.005306581975519657
1782845819195197200,1.840197265625,0.038653263521194456,0.034145138446986675,0.0006551029078662395
1782845819205202200,1.8502021484375,0.025687983486056325,0.02835515686869621,0.010314327134937048
1782845819215207200,1.860207275390625,0.06499591152369975,0.013171470131725073,0.030054946523904797
1782845819225212200,1.870212158203125,0.08408873452842235,-0.007724602902680635,0.05686623495146632
1782845819235217200,1.880217041015625,0.11019640473127365,-0.004854454293847084,0.05811053592413663
1782845819245222100,1.89022216796875,0.11695347777605056,-0.0029519816733896732,0.036102848386019466
1782845819255227100,1.90022705078125,0.09398176751136779,0.016963263630121947,0.030098347274214027
1782845819265232100,1.910232177734375,0.09285013313293457,0.026284634204953906,0.018088029876351355
1782845819275237000,1.920237060546875,0.09335691361129284,0.03296016644611954,0.0026082828022539616
1782845819285242000,1.9302421875,0.07773907324075699,0.06915975320488214,-0.001522095000743866
1782845819295247000,1.9402470703125,0.11050152515769004,0.06823752379342914,0.026223259406536817
1782845819305252000,1.950252197265625,0.13684417316019534,0.03426379639059305,0.037186698099970814
1782845819315257000,1.960257080078125,0.10256547146141529,0.009090192167460917,0.046755321434140205
1782845819325262000,1.970261962890625,0.08529168057739735,0.006004354981333017,0.06214753635525703
1782845819335267000,1.98026708984375,0.09604805239140987,-0.00877002030238509,0.0549542638503015
1782845819345272000,1.99027197265625,0.0811497584670782,-0.016371289086341858,0.020969430531561372
1782845819355277300,2.00027734375,0.07166939793825149,-0.014326777646690606,-0.03424450716823339
1782845819365282300,2.0102822265625,0.05937690259814262,0.0031156478025019165,-0.03819952840432524
1782845819375287300,2.020287353515625,0.032822657671570776,0.008169570191204548,-0.049190878017991775
1782845819385292300,2.030292236328125,0.05889174942970275,0.026493893041461703,-0.034883827985078095
1782845819395297300,2.04029736328125,0.08814064026772975,0.010966507433354854,-0.02888414917886257
1782845819405302300,2.05030224609375,0.12507657847702502,0.007959726832807063,-0.0512736756414175
1782845819415307300,2.060307373046875,0.1390238552868366,0.02096110109463334,-0.06324468394219875
1782845819425312300,2.070312255859375,0.12967208957374096,0.02929506806731224,-0.04725727960690856
1782845819435317200,2.080317138671875,0.11917349191308022,-0.0015079203449189663,-0.02740516266748309
1782845819445322200,2.090322265625,0.11855448323190211,0.0005655249282717704,-0.009966098219156264
1782845819455326200,2.100326171875,0.10532383025884627,0.02493833416253328,0.002566781748086214
1782845819465331200,2.110331298828125,0.06341477981209755,0.021389409509301183,-0.002255523841828108
1782845819475336200,2.120336181640625,0.01434299812912941,0.024804770910739897,0.035055239029228684
1782845819485341200,2.130341064453125,-0.0031336218506097793,-0.001784253068268299,0.06572919423431157
1782845819495346200,2.14034619140625,-0.02131985140442848,-0.022540771501511334,0.0824722392424941
1782845819505351200,2.15035107421875,-0.04507014482617378,-0.020287878008186815,0.09147942930161952
1782845819515356200,2.160356201171875,-0.029583237358927726,0.0026445231594145295,0.09603928456306457
1782845819525361400,2.170361328125,0.011449614775180816,0.0033894963078200816,0.06223258429020643
1782845819535366400,2.180366455078125,0.09827449626922607,0.013313508950918911,0.009517769929766655
1782845819545371400,2.190371337890625,0.20680910526812074,0.036094665079563854,-0.027205840703099966
1782845819555376400,2.20037646484375,0.2799561745434999,0.029724107134342193,-0.0500099393159151
1782845819565381400,2.21038134765625,0.2527390817940235,0.03187470929697156,-0.04690086738467216
1782845819575386400,2.220386474609375,0.19868951169848442,0.035374826372414826,-0.04069295265525579
1782845819585391400,2.230391357421875,0.1340314538270235,0.03157543408945203,-0.011619710645079611
1782845819595396400,2.240396240234375,0.040053193446993825,0.018110241708159447,0.020849457413703202
1782845819605401300,2.2504013671875,0.0017588263660669326,0.03861293151080608,0.01224894845932722
1782845819615406300,2.26040625,0.006754734957218169,0.02350070257484913,0.008249357429146766
1782845819625411300,2.270411376953125,0.06864741976857185,0.01230842356160283,0.01737023699581623
1782845819635416300,2.280416259765625,0.11199907023906708,-0.004852846858650446,0.033193829071521755
1782845819645421300,2.29042138671875,0.14308745146393775,-0.009563216506689787,0.019366671510040758
1782845819655426300,2.30042626953125,0.15707213767468928,-0.008141074749082326,0.0028711715221405028
1782845819665431300,2.310431396484375,0.14316636191904544,0.005729483562707901,-0.00437383117005229
1782845819675436300,2.320436279296875,0.08551087628602981,0.010154168137162923,-0.014551818574219942
1782845819685441300,2.330441162109375,0.02844108158648014,0.03308247765153646,-0.007383680510520935
1782845819695446300,2.3404462890625,-0.031202362993359566,0.044183132858574385,0.0029663024596869943
1782845819705451300,2.350451171875,-0.007138181316852569,0.05821881860420108,0.025885698015242813
1782845819715456300,2.360456298828125,0.0207394211679697,0.023484189831465482,0.015771861888468266
1782845819725461200,2.370461181640625,0.08296294536888599,-0.0006482347756624221,0.017106179232150315
1782845819735466200,2.38046630859375,0.13662205484211445,-0.016920009010285137,0.029692396821826696
1782845819745471200,2.39047119140625,0.1323790104448795,-0.022391133897751568,-0.005003068984299898
1782845819755476200,2.400476318359375,0.13521511065363884,-0.013832564388960598,-0.041904812663048505
1782845819765481200,2.410481201171875,0.10934709442555904,0.005978782148659229,-0.03066065733209252
1782845819775486200,2.420486328125,0.03825754220187664,0.022584172251820564,-0.035421003601700064
1782845819785491200,2.4304912109375,0.0162561382740736,0.05288651766553521,-0.04233282881677151
1782845819795496200,2.44049609375,0.026034020444750783,0.06263648891597987,-0.03817337104976177
1782845819805501200,2.450501220703125,0.040000001955032345,0.05274155623689294,-0.06908800314292311
1782845819815506200,2.460506103515625,0.11583704096674918,0.054451136633753776,-0.050215252629667514
1782845819825511200,2.47051123046875,0.17593407453298568,0.022325813576579093,-0.029018004691600797
1782845819835516200,2.48051611328125,0.16317045454978943,-0.0065976446993649,-0.00822568429261446
1782845819845521200,2.490521240234375,0.1425800864636898,-0.005128595060110092,-0.007431611305475235
1782845819855526100,2.500526123046875,0.0912754311621189,0.027114655288308857,-0.01936243372634053
1782845819865531100,2.51053125,0.06900397812128066,0.05612096954211592,-0.0023550386935472485
1782845819875536100,2.5205361328125,0.045180034941434855,0.05677943345084786,0.031404169175773856
1782845819885541000,2.530541015625,0.047105450046062466,0.05966361058503389,-0.0015378770917654036
1782845819895546000,2.540546142578125,0.037511692270636554,0.044511049638688564,0.017825433417409657
1782845819905551000,2.550551025390625,0.02532791800200939,0.034893618726730344,0.032969811057299375
1782845819915556000,2.56055615234375,0.02883972551524639,0.02080225727111101,0.0566959929510951
1782845819925561000,2.57056103515625,0.04308978466391563,0.009070318423211574,0.040795097855478524
1782845819935566000,2.580566162109375,0.040402153015136714,-0.0010378186151385306,0.04368102855533361
1782845819945571000,2.590571044921875,0.07082534832954407,-0.004886456867307425,0.03348462871164083
1782845819955576000,2.600576171875,0.12645663465857504,0.05168766326978803,0.0054684945389628405
1782845819965581000,2.6105810546875,0.16761749708652496,0.05634191881641745,-0.03240443225950002
1782845819975586000,2.6205859375,0.19115911619365214,0.04537964916676283,-0.06526990615949034
1782845819985591300,2.63059130859375,0.19849603495299814,0.06118892045617103,-0.06555164571031928
1782845819995596300,2.64059619140625,0.22529811716079712,0.049376025326550006,-0.03311681831255555
1782845820005601300,2.650601318359375,0.2129810719013214,0.045468058102577924,-0.017297025629132986
1782845820015606300,2.660606201171875,0.15583236674666404,0.025981121213734148,-0.000798603031784296
1782845820025611300,2.670611328125,0.12398469158709048,0.007445055308938026,0.0329132585644722
1782845820035616300,2.6806162109375,0.08569207807183266,-0.012956804467737674,0.07172244329974055
1782845820045621200,2.690621337890625,0.06551847409307957,-0.000022357962280511855,0.050275166123360394
1782845820055626200,2.700626220703125,0.04676818091571331,0.026796675380319355,0.035723785940557716
1782845820065631200,2.71063134765625,0.06239362007081508,0.038283991817384955,0.0021283903308212757
1782845820075636200,2.72063623046875,0.0785311004012823,0.02179009926468134,-0.018251111483573914
1782845820085641200,2.73064111328125,0.05846621749401092,0.03188070064634085,-0.06861059488952159
1782845820095646200,2.740646240234375,0.020449498310685158,0.04436535755768418,-0.056938715665787454
1782845820105651200,2.750651123046875,-0.03745207103788852,0.053152328994870185,-0.01379267076998949
1782845820115656200,2.76065625,-0.08691372882127761,0.03429360700696706,0.025199907708168028
1782845820125660400,2.770660400390625,-0.1241319911032915,0.011367197188735008,0.06051978902295232
1782845820135665400,2.78066552734375,-0.0999199253886938,-0.011033873581141232,0.08999094430953264
1782845820145670400,2.79067041015625,-0.054096916368603705,-0.023007658360898492,0.07150865441858768
1782845820155675400,2.80067529296875,0.01787818651795387,-0.012269260594993829,0.03361117770075798
1782845820165680400,2.810680419921875,0.10685586213171482,-0.009174509450048208,0.0123271282620728
1782845820175685400,2.820685302734375,0.17939152151048182,-0.005930851353704929,-0.013186229309439659
1782845820185690400,2.8306904296875,0.24088673143684863,-0.0047518707022070885,-0.03261456787884235
1782845820195695400,2.8406953125,0.2814244935303926,0.0308097104139626,-0.08654270355179905
1782845820205700400,2.850700439453125,0.27247254078984257,0.05756064695641398,-0.11200973776355386
1782845820215705300,2.860705322265625,0.2121189021140337,0.047808483748883,-0.13575111722648142
1782845820225710300,2.87071044921875,0.13225567632615565,0.03549465335980057,-0.1283567691914737
1782845820235715300,2.88071533203125,0.09343933119773865,0.00031856442987918853,-0.11928776594251393
1782845820245720300,2.89072021484375,0.041484103032946584,-0.0013755261369049548,-0.09408741984292865
1782845820255725300,2.900725341796875,0.03703881406188011,-0.00024929858595132827,-0.05737842225730419
1782845820265730300,2.910730224609375,0.05343757567703723,0.006090571960061788,-0.015487930380553006
1782845820275735300,2.9207353515625,0.06278641878068447,0.006722440122812986,-0.015157967773824929
1782845820285740300,2.930740234375,0.05584171420931816,0.009561316810548304,-0.003150719115883112
1782845820295745300,2.940745361328125,0.03545125260949135,0.009553425765037536,0.020716917075216768
1782845820305750300,2.950750244140625,-0.0036596915513277053,0.005294891537725925,0.03426978773996234
1782845820315755300,2.96075537109375,-0.04288286391496658,0.027881694138050077,0.036307577177882196
1782845820325760300,2.97076025390625,-0.02932078703045845,0.04542611865699291,0.0567810408860445
1782845820335765200,2.98076513671875,0.025303368082642552,0.060373074028640984,0.06303820158466697
1782845820345770200,2.990770263671875,0.10128069234788417,0.06352423153594136,0.060740592166781425
1782845820355775200,3.000775146484375,0.18364391825795173,0.048090515560656785,0.04431567319706082
1782845820365780500,3.010780517578125,0.22361352507472038,0.035028643283247944,0.02713818229436874
1782845820375784400,3.020784423828125,0.23224983599483964,0.03467003910392523,0.019718845948576928
1782845820385790500,3.03079052734375,0.21585808864235878,0.03625599312111735,0.017839169681817292
1782845820395794400,3.04079443359375,0.18583061464726924,0.05395385463610291,0.017528642427921293
1782845820405800400,3.050800537109375,0.1634159537434578,0.06107289286106825,-0.0019232231475412845
1782845820415804400,3.060804443359375,0.1841629736959934,0.04838409167975187,-0.013640987339615822
1782845820425809400,3.070809326171875,0.16354864021241663,0.05281242951601743,-0.022596739472448824
1782845820435814400,3.080814453125,0.14407412441372872,0.028087299712747333,-0.0060243748560547825
1782845820445819400,3.0908193359375,0.096169048422575,0.0021940029129385945,-0.001674801344424486
1782845820455824400,3.100824462890625,0.04160451454222202,-0.026841099043935536,0.017288988453149794
1782845820465829400,3.110829345703125,-0.016674071425199506,-0.03358195160627365,0.031206746907532213
1782845820475834400,3.12083447265625,-0.03546761922240257,0.00516658898293972,-0.0007864742025732994
1782845820485839400,3.13083935546875,-0.023280337822437287,0.01785860503464937,-0.03498480414152145
1782845820495844400,3.14084423828125,-0.011400514936447143,0.026739538365602493,-0.03530833700746298
1782845820505849300,3.150849365234375,-0.004335983377695083,0.03903524857610464,-0.018300065191835163
1782845820515854300,3.160854248046875,0.024629414343833922,0.03655161506682634,-0.0073122227095067495
1782845820525859300,3.170859375,0.032897476473450656,0.04045490611568093,-0.028583704927563666
1782845820535864300,3.1808642578125,0.0363595996260643,0.029528876823186872,-0.02978606645464897
1782845820545869300,3.190869384765625,0.04446925632357597,0.017758359530568122,-0.004699994384497403
1782845820555874300,3.200874267578125,0.0873591345012188,0.006741144823282957,0.010947072080522775
1782845820565879300,3.21087939453125,0.10324176328778266,0.013057488363236188,0.004053074783086776
1782845820575884300,3.22088427734375,0.12384791346490383,0.003906944310665131,0.002750029360502958
1782845820585889300,3.23088916015625,0.16740765372812746,0.008090367475152016,0.006209083773195743
1782845820595894300,3.240894287109375,0.19293314012885093,0.010633622217178344,0.0009258826732635498
1782845820605899300,3.250899169921875,0.2197521734714508,0.008737725467979908,0.008966419657319783
1782845820615904300,3.260904296875,0.18929332232177257,0.02478445877507329,-0.008638356746733189
1782845820625909200,3.2709091796875,0.1517471432596445,0.048510348407924175,0.01804842851832509
1782845820635914200,3.280914306640625,0.08678221139609814,0.0346766149751842,0.02564472886621952
1782845820645919200,3.290919189453125,0.04212181641459465,-0.0023345804274082184,0.028424130451679228
1782845820655924200,3.30092431640625,0.025207506492733955,-0.018271715880185363,0.029007629428058863
1782845820665929200,3.31092919921875,0.04370879334509373,0.003202157042175531,0.03232113789021969
1782845820675934200,3.320934326171875,0.08995090456008911,-0.016789514498412608,0.036757951293885704
1782845820685939500,3.330939453125,0.14755904392004013,-0.030357144340872763,-0.007293956400454044
1782845820695944400,3.3409443359375,0.17785189085304737,-0.010370733497291803,-0.008230360467731953
1782845820705949400,3.350949462890625,0.11283201393187045,0.006105769529193639,-0.013421060978621243
1782845820715954400,3.360954345703125,0.04746317744255066,0.03197495480105281,-0.011342793399840593
1782845820725959400,3.37095947265625,-0.02102057619690895,0.0738351976700127,0.020673808585852382
1782845820735964400,3.38096435546875,-0.08471475747227668,0.1067956563770771,0.031767303399741646
1782845820745969400,3.390969482421875,-0.09718144033551215,0.10323606419935821,0.056156917638331645
1782845820755974700,3.400974609375,-0.07859422876536845,0.07443009482324123,0.06627411476597189
1782845820765979600,3.410979736328125,0.013524667483568191,0.049050154373049736,0.08543737265840172
1782845820775984600,3.420984619140625,0.14538929866552353,0.01992971222028136,0.0871506063170731
1782845820785989600,3.43098974609375,0.21827157952487466,-0.003184621385484934,0.055662265989184376
1782845820795994600,3.44099462890625,0.25538228977918626,0.004216594781726598,0.09176394533142447
1782845820805999600,3.45099951171875,0.27843466406464573,-0.00789542942494154,0.07413798000887035
1782845820816004600,3.461004638671875,0.2863274631410837,0.01771218230128288,0.05099135156869888
1782845820826009600,3.471009521484375,0.2472837389975786,0.057988663110136986,0.011319997046142815
1782845820836014600,3.4810146484375,0.1717377918869257,0.07449030057787895,0.002426788755506277
1782845820846019600,3.49101953125,0.07997720755636692,0.05151975935697555,0.01593406671285629
1782845820856024600,3.501024658203125,0.005071896436810493,0.062250119946897026,0.008266454694420099
1782845820866029600,3.511029541015625,-0.06933189490139484,0.07559548534080386,0.027942484414577484
1782845820876034600,3.52103466796875,-0.08011340115666389,0.03719999597296118,0.024023411274701357
1782845820886039600,3.53103955078125,-0.04918459440767765,0.022903613464534282,0.06260419408157468
1782845820896044500,3.54104443359375,0.017210662519931794,0.0007588555432856082,0.03006123013421893
1782845820906049500,3.551049560546875,0.07092237896323203,-0.00184825821518898,0.01999430188909173
1782845820916054500,3.561054443359375,0.1170084228336811,0.01528407837152481,0.0081814067594707
1782845820926059500,3.5710595703125,0.13298282155692576,0.015423925233632325,-0.028911767838150262
1782845820936064500,3.581064453125,0.14347908113002777,0.030914778223633765,-0.013732611145824193
1782845820946069500,3.591069580078125,0.1766524519354105,0.03547346444129944,-0.040647944469749925
1782845820956074500,3.601074462890625,0.1757020193427801,0.04763400396481156,-0.03647358139455318
1782845820966079500,3.61107958984375,0.13795944092571735,0.044642567063868044,-0.03279123962000012
1782845820976084500,3.62108447265625,0.09214110808074474,0.028746786534786222,-0.03600523323044181
1782845820986089500,3.63108935546875,0.04617079954445362,0.02305617367774248,-0.010959200909733771
1782845820996094500,3.641094482421875,0.01891220574080944,0.019163257892429827,0.016046294915676117
1782845821006099500,3.651099365234375,0.036429157730937,-0.0007959726832807064,0.031841829940676684
1782845821016104400,3.6611044921875,0.06636544631123542,-0.013422814544290304,0.025471418125927448
1782845821026109400,3.671109375,0.11515548844337463,-0.007496639365702867,-0.0006397592082619666
1782845821036114400,3.681114501953125,0.14573475110232828,0.018773527922481298,-0.026263006895035503
1782845821046119400,3.691119384765625,0.16431962458491325,0.020993688189983366,-0.05016030757203698
1782845821056124400,3.70112451171875,0.13648176958858965,0.03525032320991158,-0.04891235333755612
1782845821066129400,3.71112939453125,0.06056406655609607,0.04075564262792468,-0.03309709069877863
1782845821076134400,3.721134521484375,0.004779050970077514,0.03592603051438927,-0.01345540163964033
1782845821086139400,3.731139404296875,-0.011494622960686682,0.017599369576573373,0.017659136939793825
1782845821096144400,3.741144287109375,0.011862871751189231,0.005320756631344557,0.03781286717429757
1782845821106149400,3.7511494140625,0.062088499644398686,-0.014821429295837879,0.036735447201132775
1782845821116154400,3.761154296875,0.11836568266153334,-0.03479351935312152,0.017911942657083273
1782845821126160400,3.771160400390625,0.1610410413056612,-0.028736411271244287,-0.02336070958226919
1782845821136165400,3.781165283203125,0.18146540517508983,0.015188070651143788,-0.029857670386135578
1782845821146170400,3.79117041015625,0.18873568843901156,0.003547755609452724,-0.04420680599510669
1782845821156175400,3.80117529296875,0.13122282614707945,0.01492810454070568,-0.07166662145927548
1782845821166179300,3.811179443359375,0.08094576032757758,0.03551394258216023,-0.06321326589062809
1782845821176184300,3.821184326171875,0.032174422895908356,0.05125160994008183,-0.058538552077859636
1782845821186189300,3.831189208984375,0.03088847473859787,0.04216112551167607,-0.039947394984960555
1782845821196194300,3.8411943359375,0.05805529860556125,0.016808657590299845,-0.03779840025752783
1782845821206199300,3.85119921875,0.10086685084998608,0.0008019640326499939,-0.030062545308470724
1782845821216204300,3.861204345703125,0.15557576163709164,-0.03477086912989616,-0.023539427150040863
1782845821226209300,3.871209228515625,0.16600889284610748,-0.0434460507556796,0.013794278205186129
1782845821236214300,3.88121435546875,0.15441256307661533,-0.0334850671030581,-0.005516717594861984
1782845821246219500,3.891219482421875,0.11694120281636715,-0.0010287585258483885,0.006642360623925924
1782845821256224500,3.901224609375,0.043075171616673465,0.026157062302529812,0.02111190774217248
1782845821266229500,3.9112294921875,-0.0382896909058094,0.057752077875286335,0.020390753860771656
1782845821276234500,3.921234375,-0.10827332771420478,0.04129603311493993,0.0396884517878294
1782845821286239500,3.931239501953125,-0.09753449155688285,0.04966507140100002,0.050989598003029823
1782845821296244500,3.941244384765625,-0.027650807991623876,0.02486512279585004,0.07886223205178976
1782845821306249500,3.95124951171875,0.09628829088807106,0.004731996957957744,0.05016951379179954
1782845821316254500,3.96125439453125,0.16436171016097068,0.005237754523009061,0.05228416785821318
1782845821326259500,3.971259521484375,0.18484978691637516,-0.02618190448284149,0.056219461480528116
1782845821336264400,3.981264404296875,0.14733108038306236,-0.02218450540974736,0.048141661226004356
1782845821346269400,3.99126953125,-0.001967500680685043,-0.004563508523255586,-0.021717180158942938
1782845821356274400,4.0012744140625,-0.12166004803180694,0.05254837175235152,-0.02296206565350294
1782845821366279400,4.011279541015625,-0.12737082689404486,0.046007864067703484,-0.03163651662692427
1782845821376284400,4.021284423828125,-0.14402970075011254,0.023722382501512766,-0.03650309974998236
1782845821386289400,4.031289306640625,-0.08829670761227607,-0.004495557853579521,-0.03334375893622637
1782845821396294400,4.04129443359375,0.013581950628757476,-0.03612783669680357,0.003766366796195507
1782845821406299400,4.05129931640625,0.10406301654279232,-0.021650544663518664,-0.021254531083256006
1782845821416304400,4.061304443359375,0.1268207917958498,-0.0264310569383204,-0.08997501608803868
1782845821426309400,4.071309326171875,0.1596504637300968,-0.0287979322001338,-0.07767243774533271
1782845821436314400,4.081314453125,0.13858254126012323,-0.01405365979373455,-0.039042116708308455
1782845821446319400,4.0913193359375,0.11254910533726215,0.002465074939280748,-0.07278261987715959
1782845821456324400,4.101324462890625,0.11412497635185719,0.04852072367146611,-0.07631430113464593
1782845821466329300,4.111329345703125,0.16098142007291316,0.05387669774666428,-0.06260755508244037
1782845821476334300,4.121334228515625,0.2028553992062807,0.0579334257915616,-0.02434051439985633
1782845821486339300,4.13133935546875,0.23668986426889896,0.03480360235571861,0.014868191047012804
1782845821496344300,4.14134423828125,0.18723872787952422,0.03534896127879619,0.028796763156354425
1782845821506349300,4.151349365234375,0.1530932971715927,0.07707344893887638,0.025838059481233355
1782845821516354300,4.161354248046875,0.11980185294449329,0.07541910586059093,0.049330286488682026
1782845821526359300,4.171359375,0.06964695219993591,0.04807181086018681,0.05252309118062257
1782845821536364300,4.1813642578125,0.07721300354003906,0.06602627748474478,0.07810819881409406
1782845821546369300,4.191369384765625,0.09403905065655707,0.06353080740720034,0.09444397819563746
1782845821556374500,4.20137451171875,0.10818214229941367,0.06349515157192945,0.08786986050233245
1782845821566379500,4.211379638671875,0.15107786569595336,0.06075973525866866,0.07291063017100095
1782845821576384500,4.221384521484375,0.1835714375436306,0.04764394083693623,0.05315452095195651
1782845821586389500,4.231389404296875,0.19917875652015207,0.03588803659155965,0.011420973202586173
1782845821596394500,4.24139453125,0.20657821912169455,0.07386208567693829,-0.0112510234631598
1782845821606399500,4.2513994140625,0.1559469330370426,0.0713109398894012,-0.009910422509163618
1782845821616404500,4.261404541015625,0.10383914465904236,0.0720860159151256,-0.007053133381903171
1782845821626409500,4.271409423828125,0.08055939135849476,0.05019245627596974,0.02166676514595747
1782845821636414500,4.28141455078125,0.07547580448389053,0.03679389939010143,0.0511015339449048
1782845821646419500,4.29141943359375,0.09045300886332988,0.02443491468504071,0.04678454752862453
1782845821656424400,4.301424560546875,0.11599661544263362,0.03274389334693551,0.013667290824651717
1782845821666429400,4.311429443359375,0.10634966617524623,0.021457214048504827,0.010471417392790316
1782845821676434400,4.321434326171875,0.08607961608469486,-0.0009441489823162555,-0.01280468264594674
1782845821686439400,4.331439453125,0.0671767626941204,0.018295096755772827,-0.03964154390618205
1782845821696444400,4.3414443359375,0.06951075859963894,0.027923341322690247,-0.029034809695929288
1782845821706449400,4.351449462890625,0.07095686575472354,0.01675619675070047,-0.033021248983591794
1782845821716454400,4.361454345703125,0.06455284393131733,0.042471798896044494,-0.050111792255192994
1782845821726459400,4.37145947265625,0.08314297811090945,0.0326776962429285,-0.03444207556694746
1782845821736464400,4.38146435546875,0.04495265592634678,0.016011808124184606,-0.013820435559749603
1782845821746469400,4.391469482421875,0.010286416214704512,0.012527327009290457,-0.008765197996795177
1782845821756474400,4.401474365234375,-0.011831307569146155,0.01872515873610973,0.025418811155855654
1782845821766479600,4.411479736328125,0.01305588092803955,0.003989361897110939,0.040582331887632606
1782845821776484600,4.421484619140625,0.029587329012155533,-0.0090441610686481,0.015602496670931576
1782845821786489600,4.431489501953125,0.020999533408880233,0.014004559955000877,-0.004106850796937942
1782845821796494600,4.44149462890625,0.01921674164533615,0.04090995640680194,-0.0026877777792513368
1782845821806499600,4.45149951171875,0.07291676765084266,0.009906038594990969,-0.005079202960431575
1782845821816504600,4.461504638671875,0.12127251001894473,0.01105140923783183,0.01120411558151245
1782845821826508500,4.471508544921875,0.1409416716068983,0.010446429082006216,0.00015709025785326955
1782845821836513500,4.481513427734375,0.1503700096875429,0.012925678677111863,-0.024145137958228587
1782845821846518500,4.4915185546875,0.13821663055717945,0.024683921010047197,-0.022527181367576123
1782845821856523500,4.5015234375,0.14261808038651944,0.020407851126044988,-0.02762202028855681
1782845821866528500,4.511528564453125,0.14753975469768046,0.0002519289344549179,-0.021921178298443554
1782845821876533500,4.521533447265625,0.15885492943823337,-0.011729893021285534,-0.015988427248597146
1782845821886538500,4.53153857421875,0.1592944898992777,0.016741291442513465,-0.047819297403842206
1782845821896543500,4.54154345703125,0.12477671874761581,0.028055589400231836,-0.04489771086871624
1782845821906548500,4.551548583984375,0.0863654472887516,0.027940584718436003,-0.03502805876135826
1782845821916553500,4.561553466796875,0.07218669981062412,0.0031128713235259054,0.0028923604406416413
1782845821926558500,4.571558349609375,0.0668938540995121,-0.018033669340610504,-0.001325111123919487
1782845821936563500,4.5815634765625,0.046296471750736236,0.006413374173641204,-0.018138883280754088
1782845821946568400,4.591568359375,0.056391164785623546,0.00871390620097518,-0.005972498538345098
1782845821956573400,4.601573486328125,0.053601826328039164,0.0006054185472428798,0.005415595307946205
1782845821966578400,4.611578369140625,0.04433481628894806,-0.017907851003855467,0.026612258724123237
1782845821976583400,4.62158349609375,0.0063087447553873055,-0.020187340243160722,0.023471330349892378
1782845821986588400,4.63158837890625,-0.025832944914698598,-0.0009817045137286186,0.025268150638788938
1782845821996593400,4.641593505859375,-0.04116787669062614,0.03126870622783899,0.010365911191701889
1782845822006598400,4.651598388671875,-0.03170329825282096,0.05856997012943029,0.0012944237247109413
1782845822016603400,4.661603271484375,0.036411037552356716,0.048078094470500946,0.013773966069519519
1782845822026608400,4.6716083984375,0.11652853036224842,0.018830957198143004,-0.0018576105654239655
1782845822036613400,4.68161328125,0.17995207800269125,0.028393589182943105,-0.008751023340970276
1782845822046618400,4.691618408203125,0.23236674037277696,0.015981997507810593,-0.049585284163057804
1782845822056623400,4.701623291015625,0.23278934969902038,0.018490034805983303,-0.05517857412546873
1782845822066628400,4.71162841796875,0.167236973336339,0.012561521539837122,-0.04305588239431381
1782845822076633300,4.72163330078125,0.12185352477729319,0.011138064607977867,-0.043142245503515
1782845822086638300,4.731638427734375,0.09822656547427176,0.02040712047368288,-0.05323898436501622
1782845822096643300,4.741643310546875,0.07585749727785587,0.025951895119249817,-0.039420010109990834
1782845822106648300,4.7516484375,0.10280746352374553,0.046411184171587225,-0.008584434602409602
1782845822116653600,4.761653564453125,0.11789514254033565,0.03422214920595288,-0.005587737004458904
1782845822126658000,4.771657958984375,0.12758593094944953,0.007719342205673455,0.021480887185037136
1782845822136663000,4.7816630859375,0.14674246684014797,0.009017857583612203,0.055671764469891784
1782845822146668000,4.79166796875,0.11768296109437942,0.02154898398518562,0.04760375495702028
1782845822156673000,4.801673095703125,0.10942542035877705,0.024742227068543433,0.034114158786833285
1782845822166678000,4.811677978515625,0.07301204471886158,0.037992607655376195,0.021093495302647352
1782845822176683000,4.82168310546875,0.020610241830348968,0.05788783308416605,0.02388356441259384
1782845822186688000,4.83168798828125,-0.0465986695677042,0.06426686659678817,0.012617051119357348
1782845822196693000,4.84169287109375,-0.0746364310503006,0.06576324263438582,0.0388540467903018
1782845822206698000,4.851697998046875,-0.054452890199422836,0.030502836421877143,0.06313260186985134
1782845822216703000,4.861702880859375,0.024590251377224922,0.0005640636235475539,0.07138561256080865
1782845822226708000,4.8717080078125,0.1562654974669218,-0.0008643617443740367,0.04994944130033254
1782845822236713000,4.881712890625,0.21783318810760974,0.002209931134432554,0.018262655790895223
1782845822246718000,4.891718017578125,0.2141752501219511,0.007324351538717746,-0.016042787784337997
1782845822256723000,4.901722900390625,0.18980360993146894,0.01718918134048581,-0.035886283025890586
1782845822266728000,4.91172802734375,0.10176526099443435,0.02319908927977085,-0.006340601198375225
1782845822276733000,4.92173291015625,0.02324175937771797,-0.005362988337874412,-0.13730623771399258
1782845822286738000,4.931738037109375,0.003825695767998695,0.05555486009195447,-0.05968333819881081
1782845822296743000,4.941742919921875,0.012169745743274687,0.018957067795842886,-0.04087283926680684
1782845822306748000,4.951747802734375,-0.025052023670077323,-0.029643296983093023,-0.05359335076063871
1782845822316753000,4.9617529296875,0.049799511435627934,-0.03232698310911655,-0.06441723485291004
1782845822326758000,4.9717578125,0.08884849627614021,-0.014026625656336545,-0.06484758909419179
1782845822336763000,4.981762939453125,0.09727905549108981,-0.009238368466496467,-0.10619739822298288
1782845822346768000,4.991767822265625,0.11146949340701102,0.013956483029574154,-0.05947977845072746
1782845822356772900,5.00177294921875,0.08213292428553104,0.018642595019191504,-0.03174056152328849
1782845822366777900,5.01177783203125,0.0828799432605505,0.03734846453294158,0.0021259061127901074
1782845822376782800,5.021782958984375,0.043456864410638806,0.04241641544699669,0.05197217929959297
1782845822386787800,5.031787841796875,0.03241290782690048,0.038523645792156454,0.04836173371747136
1782845822396792800,5.041792724609375,0.05846037227511405,0.05070552036464214,0.03238908855989575
1782845822406797800,5.0517978515625,0.09157470636963844,0.058822483585774896,0.03154913060441613
1782845822416802000,5.061802001953125,0.1258539925903082,0.0581676729388535,0.04623334338665008
1782845822426807000,5.07180712890625,0.15596329964995384,0.0507714252077043,0.05099383578673005
1782845822436812000,5.08181201171875,0.20359657296240327,0.03103431295007467,0.03975815602317452
1782845822446817000,5.091817138671875,0.22817162677049635,0.014494535429030656,0.06960632792860269
1782845822456822000,5.101822021484375,0.2111515183866024,0.011836714396625756,0.04169160830378532
1782845822466827000,5.111826904296875,0.159969028159976,-0.021569003859907388,-0.0018583412177860736
1782845822476832000,5.12183203125,0.14493570967912672,-0.004371493082493543,0.008957651828974485
1782845822486837000,5.1318369140625,0.07899696434736252,-0.03073240739405155,0.007146218492835759
1782845822496842000,5.141842041015625,0.033437574699521064,-0.023281506866216658,0.033656478147208686
1782845822506847000,5.151846923828125,0.025142624562978742,-0.015097762019187212,0.006163344935327768
1782845822516852000,5.16185205078125,-0.002070376533269882,0.03127645114287734,-0.033252281260490416
1782845822526857000,5.17185693359375,0.040565234622359274,0.033305765013396736,-0.08415873102471232
1782845822536862000,5.181862060546875,0.08556465229988097,0.026400807930529117,-0.06490341093465686
1782845822546867000,5.191866943359375,0.10749591360092163,0.016137480330467222,-0.06712181763648986
1782845822556872000,5.201871826171875,0.09095978934168815,0.00035217443853616714,-0.06626008624061942
1782845822566877000,5.211876953125,0.06283201148808003,0.02831058707460761,-0.09889365108087658
1782845822576882000,5.2218818359375,0.03172317199707031,0.0454537373162806,-0.11725129167884588
1782845822586887000,5.231886962890625,-0.011061492240428924,0.042027123868465424,-0.08766352427527307
1782845822596892000,5.241891845703125,0.010559387937188148,0.01915931236967444,-0.03682093352749943
1782845822606897000,5.25189697265625,0.028840310037136076,0.020465280401706695,0.012277590031921862
1782845822616902000,5.26190185546875,0.0483370376676321,0.021499884146451948,0.029815000288188457
1782845822626907000,5.271906982421875,0.12643150021731853,0.013870266050845384,0.05636632260531187
1782845822636911900,5.281911865234375,0.18729834911227225,-0.00010039163455367087,0.06743877463117241
1782845822646916900,5.291916748046875,0.18085107266902922,0.001211129355430603,0.08541925247982143
1782845822656921900,5.301921875,0.15814473534226417,0.014782996981590985,0.05466404873207211
1782845822666926800,5.3119267578125,0.10784721125662326,0.0322476342625916,0.0802059017457068
1782845822676931800,5.321931884765625,0.0570686256557703,0.03519757010936737,0.08218889225646853
1782845822686936800,5.331936767578125,0.03872925136685371,0.07647285269722343,0.07693126398921013
1782845822696942000,5.341942138671875,0.07348901458084584,0.07406973707824945,0.05448138564154505
1782845822706947000,5.351947021484375,0.08531389240920544,0.05767039094120264,0.05592120918631553
1782845822716952000,5.3619521484375,0.10809154140651225,0.021672756495326757,0.04648541845157742
1782845822726957000,5.37195703125,0.14021043472290037,0.005744388870894909,0.027183921132236718
1782845822736962000,5.381962158203125,0.17754560138285158,-0.01722469104528427,0.0228200268343091
1782845822746967000,5.391967041015625,0.16291560300588606,-0.020890227815508842,0.011865648230165242
1782845822756972000,5.401971923828125,0.16405834330022334,0.0005766308441758156,0.022880086458474395
1782845822766977000,5.41197705078125,0.13965455440580843,0.03364493383988738,0.016605390103161335
1782845822776982000,5.42198193359375,0.10115852727293968,0.03842150059193372,-0.00527224131450057
1782845822786987000,5.431987060546875,0.1079062479674816,0.015696166303753853,-0.03406315925195813
1782845822796992000,5.441991943359375,0.06039221712052822,0.009016542409360409,-0.014375146833062171
1782845822806997000,5.4519970703125,0.019987726017832753,0.031900574390590186,0.03511909804567694
1782845822817002000,5.462001953125,-0.00253448691368103,0.027537995266914365,0.04383636524751782
1782845822827007000,5.472007080078125,-0.04927870243191719,0.034314211403578515,0.025524609617888924
1782845822837012000,5.482011962890625,-0.06879179667532444,0.033592326869815586,0.021107523827999828
1782845822847017000,5.492016845703125,-0.055959203109145164,0.028456717547029255,0.03250423937216401
1782845822857022000,5.50202197265625,-0.052821489605307574,0.027551000878959894,0.006467004057019949
1782845822867027000,5.51202685546875,-0.018144728499650955,0.027586802844703197,-0.0010572539679706097
1782845822877032000,5.522031982421875,0.0342027138531208,0.02951265634074807,-0.009867314019799232
1782845822887037000,5.532036865234375,0.08649696471393108,0.027867227221280336,0.00013400164321064948
1782845822897042000,5.5420419921875,0.11531915457248687,0.040523002915829415,-0.014161796343326568
1782845822907047000,5.552046875,0.12322715121805668,0.04675400625988841,-0.016081073968112466
1782845822917052000,5.562052001953125,0.15879121655225753,0.045710926947742696,-0.014699702612310647
1782845822927057200,5.57205712890625,0.18839140504598617,0.041104163804650304,-0.03875102480724454
1782845822937062100,5.582062255859375,0.23031039236485956,0.018523790945112705,-0.01852422933652997
1782845822947066000,5.592066162109375,0.22504911083579063,0.009125409611314535,-0.005192161815613508
1782845822957071000,5.602071044921875,0.20053192469477651,0.006692921767383814,-0.00941080242395401
1782845822967076000,5.612076171875,0.13917875358760357,0.005094254399091005,0.011274842730164528
1782845822977081000,5.6220810546875,0.08435293842256068,0.0067751932233572005,0.014206512267887592
1782845822987086000,5.632086181640625,0.044730537608265876,0.02401478957682848,0.0025118366904556748
1782845822997091000,5.642091064453125,0.013725158491730689,0.02354454171657562,-0.018488573501259088
1782845823007096000,5.652095947265625,0.024974866780638694,0.0343060280971229,-0.06943783949390053
1782845823017101000,5.66210107421875,0.05147182856202125,0.05284940052554011,-0.07979308316111564
1782845823027106000,5.67210595703125,0.08389818039238453,0.02702332374304533,-0.07417524327933787
1782845823037111000,5.682111083984375,0.09800503167808056,0.026027882964909075,-0.024428046552836893
1782845823047116000,5.692115966796875,0.10731588085889816,0.008925649255514144,0.004486936155706644
1782845823057121000,5.70212109375,0.08117664647400379,0.008208440896868705,-0.0033854046545922756
1782845823067126000,5.7121259765625,0.06488076071143149,0.021354922717809675,0.010316226831078528
1782845823077131000,5.722131103515625,0.04203296908736229,0.020590660347044466,-0.007304916185885667
1782845823087136000,5.732135986328125,0.04212766163349151,0.02146335152834654,-0.03400733741149306
1782845823097141000,5.74214111328125,0.014534721308946608,0.010415595552325248,-0.0021576164253056048
1782845823107146000,5.75214599609375,-0.021992051577568054,0.000002922609448432922,-0.009897270766645669
1782845823117151000,5.76215087890625,-0.03293663944005966,0.01531783451065421,-0.00003463292196393013
1782845823127156500,5.772156494140625,0.016194178953766823,0.030614480102807283,-0.008708499373495578
1782845823137161500,5.782161376953125,0.1317734457671642,0.010783698212355374,-0.026285364857316015
1782845823147166500,5.79216650390625,0.19613047486543655,-0.014842472083866595,-0.04520677681788802
1782845823157171500,5.80217138671875,0.2279302192300558,-0.04196911007091403,-0.039310412255674596
1782845823167176400,5.812176513671875,0.21060557494163512,-0.045045010384917254,-0.05038958628326654
1782845823177181400,5.822181396484375,0.179113289090991,-0.019410656782239674,-0.03213306797221303
1782845823187186400,5.8321865234375,0.14498831664919853,-0.015525924303382635,-0.057213440953940146
1782845823197191400,5.84219140625,0.09062719638645649,0.01571443261280656,-0.08645005683228373
1782845823207196400,5.852196533203125,0.05992459960877895,0.021133681182563303,-0.10847644907087087
1782845823217201400,5.862201416015625,0.08205284478664397,0.017696546340733765,-0.0954629459798336
1782845823227206400,5.872206298828125,0.09096212742924689,0.016981091547757385,-0.060649260621517896
1782845823237211400,5.88221142578125,0.10378010794818401,0.04219488165080547,-0.08537219846770167
1782845823247216400,5.89221630859375,0.08186930491328238,0.062093029689043754,-0.05953735385686159
1782845823257221400,5.902221435546875,0.061604515519738196,0.029947394496202467,-0.0165774791829288
1782845823267226400,5.912226318359375,-0.012203063490986822,0.040477410208433866,0.02288403198122978
1782845823277231400,5.9222314453125,-0.0015758710145950317,0.04204918956980109,0.10991904909461736
1782845823287236400,5.932236328125,0.06940145300626754,0.019177724809199572,0.14095073169618844
1782845823297241300,5.942241455078125,0.15599895548522472,-0.0003337619990110397,0.12710603847801685
1782845823307246300,5.952246337890625,0.26228198616504667,0.02065685745105147,0.10704203235358
1782845823317251300,5.962251220703125,0.26434885556697846,0.040087680238485336,0.07833923109099268
1782845823327256300,5.97225634765625,0.24310031583309172,0.05743892027288675,0.05145809229761362
1782845823337261300,5.98226123046875,0.22612112398147582,0.09431947503313422,0.06827902484759688
1782845823347266600,5.9922666015625,0.16045125871896743,0.10843202540725469,0.0716471861064434
1782845823357271600,6.002271484375,0.09736381116509436,0.11686594562307,0.05539513948559761
1782845823367276500,6.012276611328125,0.033915129083395,0.11132862363159655,0.03104220399558544
1782845823377281500,6.022281494140625,0.0010515548795461654,0.09129881203770637,0.028546003265678882
1782845823387286500,6.03228662109375,0.02963350624144077,0.047174715889990324,0.002027998696267605
1782845823397291500,6.04229150390625,0.05878010574877262,0.0021498715102672575,0.0173356040738523
1782845823407296500,6.052296630859375,0.05271043044626712,-0.032988808018714184,-0.011831453699618577
1782845823417301500,6.062301513671875,0.026576456758379934,-0.01673895335495472,-0.006728869863599538
1782845823427306500,6.072306396484375,-0.015181787040829658,-0.011974077040702105,-0.003203764477372169
1782845823437311500,6.0823115234375,-0.03761398360133171,-0.01710661762356758,-0.017785978189855813
1782845823447315500,6.0923154296875,-0.03649988487958908,-0.0032442426182329653,-0.0312552622243762
1782845823457320400,6.102320556640625,-0.03333002267181873,-0.001220189444720745,-0.031401246566325425
1782845823467325400,6.112325439453125,0.01906418143212795,-0.0035521395236253737,0.0037004619531333443
1782845823477330400,6.122330322265625,0.037812721043825145,0.010967384216189384,-0.01916091980487108
1782845823487335400,6.13233544921875,0.06992576914131642,0.02635609200596809,-0.02496566056087613
1782845823497340400,6.14234033203125,0.04328384593129158,0.03520458437204361,0.006766863786429166
1782845823507345400,6.152345458984375,0.035602059257030486,0.02288841589540243,0.048600510909408326
1782845823517350400,6.162350341796875,0.0665279433965683,0.01956277860403061,0.06965118998363613
1782845823527355400,6.17235546875,0.11564882491827011,0.012281389424204826,0.06760360980406403
1782845823537360400,6.1823603515625,0.14170271910727023,0.007421966694295406,0.0649915276095271
1782845823547365400,6.192365478515625,0.14812076945602892,0.04660129991620779,0.023297142826765774
1782845823557370400,6.202370361328125,0.13617138846516608,0.024617577775567768,0.022753683599829672
1782845823567375400,6.212375244140625,0.162971717107296,-0.009177870450913906,0.0610584259442985
1782845823577380400,6.22238037109375,0.1635807889163494,-0.015372925698757171,0.06765899325311184
1782845823587385300,6.23238525390625,0.1821937194496393,0.0026784254290163514,0.05361263998299837
1782845823597390300,6.242390380859375,0.1818459289252758,0.025542145274579525,0.015649696813523767
1782845823607395300,6.252395263671875,0.14602876561284064,0.035654373966157435,0.012495178305357693
1782845823617400300,6.262400390625,0.11095979031920432,0.0109013332426548,-0.0122116851888597
1782845823627405300,6.2724052734375,0.09578618658483028,0.02952683099657297,-0.05238412110134959
1782845823637410300,6.282410400390625,0.07593699225485324,0.04043152524009347,-0.06836071178168059
1782845823647415300,6.292415283203125,0.09179097946882248,0.013105419158190489,-0.05638868056759238
1782845823657420300,6.302420166015625,0.07440612942576408,0.0035744974859058857,-0.06760492497831583
1782845823667425300,6.31242529296875,0.08906476937532425,0.020126257705688474,-0.06785203160718083
1782845823677430300,6.32243017578125,0.0580447772115469,0.009175824624300003,-0.062075201771408316
1782845823687435300,6.332435302734375,0.061770519736409187,0.015351152258366346,-0.04883972649276256
1782845823697440500,6.3424404296875,0.036191841843724246,0.009784311911463736,-0.05553381730392575
1782845823707445500,6.352445556640625,0.012443301987648009,0.003156418204307556,-0.06094108317494392
1782845823717450500,6.362450439453125,-0.026261399459838866,0.00936813232600689,-0.03040478287488222
1782845823727455500,6.37245556640625,-0.024549919366836547,0.0141930682644248,-0.011335340745747088
1782845823737460500,6.38246044921875,-0.014993570992350578,0.01786401186212897,0.0002884615525603294
1782845823747465500,6.392465576171875,0.042592941057682035,0.020001608412712812,-0.012544716535508631
1782845823757470500,6.402470458984375,0.07417232066988945,0.015065174923837184,-0.027296295465528964
1782845823767475500,6.412475341796875,0.09189736245274543,0.05631853794082999,-0.05229688120931387
1782845823777480400,6.42248046875,0.10488836145102977,0.07553878671750426,-0.03401172132566571
1782845823787485400,6.4324853515625,0.1283499010592699,0.05237213840261101,0.0025914777979254722
1782845823797490400,6.442490478515625,0.15606208384931086,0.06692921767383814,0.0044729076303541655
1782845823807495400,6.452495361328125,0.15584055005311964,0.08470569738298654,0.013653846821188927
1782845823817500700,6.462500732421875,0.1486006619274616,0.06676102150008081,0.051713528363406654
1782845823827505700,6.472505615234375,0.1091220534980297,0.041127106288820506,0.04780146948620677
1782845823837510700,6.4825107421875,0.09178045807480811,0.045462212883681054,0.06451061222478748
1782845823847515600,6.492515625,0.08138415174484252,0.054281040763854975,0.12083835638538003
1782845823857520600,6.502520751953125,0.07163724923431873,0.01839899552166462,0.11291706186681985
1782845823867525600,6.512525634765625,0.10516484030485153,-0.004992109198868274,0.0849180249594152
1782845823877530600,6.522530517578125,0.11104688408076763,0.0045364743858575815,0.08785553971603512
1782845823887535600,6.53253564453125,0.13796353257894514,0.018213409821689126,0.048695057325065134
1782845823897539300,6.542539306640625,0.16645312948226929,0.03356266238391399,0.014130670552700756
1782845823907544300,6.55254443359375,0.18544249211251734,0.04212240093648433,-0.029084201795607802
1782845823917549300,6.56254931640625,0.17003507962226866,0.03533332531824708,-0.0518866929732263
1782845823927554300,6.57255419921875,0.15615502282977103,0.0423516796477139,-0.05990998656153679
1782845823937559300,6.582559326171875,0.12499591445624827,0.07664221791476011,-0.02709098215177655
1782845823947564300,6.592564208984375,0.12349778485298156,-0.05489478874802589,-0.13065642443597317
1782845823957569300,6.6025693359375,0.009048398852348326,0.020480624101310966,-0.05883885019868612
1782845823967574300,6.61257421875,0.013791209465265273,0.012452508207410572,0.021260522432625294
1782845823977579300,6.622579345703125,-0.0743576141089201,-0.038947862553596495,0.06061462769955396
1782845823987584500,6.63258447265625,-0.12107727970778942,-0.030480478459596633,0.05119286549016833
1782845823997589500,6.642589599609375,-0.08219371456205844,-0.029357465779036283,0.06980301954448223
1782845824007594500,6.652594482421875,-0.047581250864267344,-0.04414937671944499,0.03646101417392492
1782845824017599500,6.662599609375,0.020362989071011542,-0.037518706533312796,-0.026890491143614054
1782845824027604500,6.6726044921875,0.10331775113344192,0.0071804130233824245,-0.029094284798204896
1782845824037609500,6.682609375,0.16922376323938368,-0.0018662322632968424,-0.05069558349251747
1782845824047614500,6.692614501953125,0.1604477515876293,0.021593699909746647,-0.0898468596637249
1782845824057619500,6.702619384765625,0.12773030785620212,0.043983664763718844,-0.08936112197339534
1782845824067624400,6.71262451171875,0.11262626222670077,0.04705605794638395,-0.11701879809722304
1782845824077629400,6.72262939453125,0.08185352282226085,0.041921617667376995,-0.10006211033836007
1782845824087634700,6.732634765625,0.08332125728726386,0.022333850752562282,-0.03933452378362417
1782845824097639700,6.7426396484375,0.09148819712996482,0.0038110827207565303,-0.000991933646798134
1782845824107644700,6.752644775390625,0.11813947269022464,0.009734335289895533,0.01699555846452713
1782845824117649700,6.762649658203125,0.1444359434634447,0.014988748686760664,0.002948328411579132
1782845824127654100,6.772654052734375,0.15546177986860274,0.01740048600360751,0.010257920772582292
1782845824137659100,6.7826591796875,0.13513620019853115,0.025433131942152975,-0.005322948588430881
1782845824147664100,6.7926640625,0.09967910237014294,0.043040538694709536,-0.02267448088377714
1782845824157669000,6.802669189453125,0.07532558235824108,0.02652282687500119,-0.012438625812530517
1782845824167674000,6.812674072265625,0.05650456203222275,0.022100626518577336,0.0029930443361401555
1782845824177679000,6.82267919921875,0.030443653580546376,0.02955371900349855,-0.003471475502848625
1782845824187684000,6.83268408203125,0.04404021725654602,0.040208676269650453,0.015881459742784498
1782845824197689000,6.842689208984375,0.05970131224691867,0.03117196785509586,0.03566474922969937
1782845824207694000,6.852694091796875,0.11941723754107951,0.019149960019439458,0.011139525912702083
1782845824217699000,6.862698974609375,0.12137187874019145,0.008026216197758913,-0.004410071527212858
1782845824227704000,6.8727041015625,0.08732698579728602,0.01412818633466959,-0.032500293849408626
1782845824237709000,6.882708984375,0.06938391734957694,0.02103051306903362,-0.023083207815140484
1782845824247714000,6.892714111328125,0.05429097763597965,0.025494945131987332,-0.005739566565304994
1782845824257719000,6.902718994140625,0.05132277548015118,0.0345274157628417,0.009163988056033849
1782845824267724000,6.91272412109375,0.04933247844576835,0.043840018509328366,0.029696050083637234
1782845824277729000,6.92272900390625,0.042488311639428136,0.08809446303844451,-0.015681553256511688
1782845824287734000,6.932734130859375,0.059495560541748996,0.07240092708319425,-0.012247633285075426
1782845824297739000,6.942739013671875,0.06293547186255455,0.05815875898003578,0.04789397007524967
1782845824307743000,6.952742919921875,0.07605506567656993,0.014956599982827902,0.06826265823468565
1782845824317748000,6.962748046875,0.09133388335108757,-0.0073581076778471465,0.07165756136998534
1782845824327753000,6.9727529296875,0.11176818409264087,0.00183583712503314,0.07410086286887527
1782845824337758000,6.982758056640625,0.11185060167908668,0.019854747287929058,0.05364128155559301
1782845824347763000,6.992762939453125,0.15936930870115756,0.03665887483358383,0.04605360290557146
1782845824357768000,7.002767822265625,0.19796528907716274,0.0327114523820579,0.007618658310174942
1782845824367773200,7.012773193359375,0.1812351035505533,0.05052227275222539,-0.02239464102908969
1782845824377778200,7.022778076171875,0.1533756212443113,0.07628010660409927,-0.02810541989132762
1782845824387783200,7.032783203125,0.1554629489123821,0.0756666508808732,-0.028956337632238864
1782845824397788200,7.0427880859375,0.1351519822895527,0.033498949497938156,0.0016895605221390723
1782845824407793200,7.052793212890625,0.10124620555639266,0.011241963373869656,0.0007734685905277729
1782845824417798100,7.062798095703125,0.08652093011140823,0.01272913319170475,0.009573884031176566
1782845824427803100,7.07280322265625,0.09290683175623417,0.0025797873601317405,0.042442865062505004
1782845824437808000,7.08280810546875,0.058656771630048746,-0.04111643876433372,-0.0014626198984682558
1782845824447813000,7.092813232421875,0.013198504269123076,-0.028633243157714604,-0.010020166493952274
1782845824457818000,7.102818115234375,0.007792261311411857,-0.0017827917635440825,-0.023120471085608003
1782845824467823000,7.112822998046875,0.005907178217172623,0.010643266828358172,-0.046334027282148596
1782845824477828000,7.122828125,0.035597383081912994,0.024404373416304588,-0.04993205177411437
1782845824487833000,7.1328330078125,0.032844869503378865,0.02673939223513007,-0.06533800295963883
1782845824497838000,7.142838134765625,0.0042407063096761705,0.049575201160460707,-0.05325432806462049
1782845824507843000,7.152843017578125,-0.0009586158990859985,0.04234612668976188,-0.007373597507923841
1782845824517848000,7.16284814453125,0.05978022270202636,0.00222907422631979,0.030974983978271482
1782845824527853000,7.17285302734375,0.12074410223066806,-0.00536722612157464,0.0010635375782847404
1782845824537858000,7.182858154296875,0.17298866873085497,0.01647884111404419,0.01676452618762851
1782845824547863000,7.192863037109375,0.2013128459393978,0.02202040088921785,0.014679390476644039
1782845824557868000,7.202867919921875,0.16584698028266429,0.008952683392912148,0.04082768495082855
1782845824567873000,7.212873046875,0.12782090874910354,0.008714198461920022,0.007569850732386112
1782845824577878000,7.2228779296875,0.07212415596842765,0.029717385132610796,0.0029364918433129788
1782845824587883000,7.232883056640625,0.03750701609551906,0.0209115628644824,0.03404226259440184
1782845824597888000,7.242887939453125,0.021861118674278257,-0.025046032320708036,0.05664221693724394
1782845824607893000,7.25289306640625,0.057522214642167085,-0.014754209278523922,0.03809168411567807
1782845824617898000,7.26289794921875,0.1006172600030899,-0.020639029533416033,0.0627158377625048
1782845824627903000,7.272903076171875,0.15658113928735257,-0.03302709420248866,0.02485913144648075
1782845824637908000,7.282907958984375,0.1861146922856569,-0.030968992628902195,-0.012371259664744137
1782845824647913000,7.292912841796875,0.16080489446222782,0.0033256372913718223,-0.08044438667669891
1782845824657918000,7.30291796875,0.15827391467988491,0.020432401045411823,-0.0993244437135756
1782845824667923000,7.3129228515625,0.13968962571918964,0.013553309056162833,-0.09383929030075669
1782845824677928000,7.322927978515625,0.09640519526600837,0.026196371399611233,-0.11378463848158717
1782845824687933000,7.332932861328125,0.045129766058921814,0.05259878676533699,-0.12727350399941206
1782845824697938000,7.34293798828125,0.009357026410102843,0.028244682231545446,-0.08884659657999873
1782845824707942000,7.35294189453125,-0.028594226321578025,0.020541122116893528,-0.07161036122739314
1782845824717947000,7.36294677734375,-0.04104571161568164,0.0032816520191729067,-0.04226064036339521
1782845824727952100,7.3729521484375,-0.0036199440628290175,0.014259119237959384,0.0038267186813056467
1782845824737957000,7.38295703125,0.03906301336586475,0.007950374482572077,0.025132833821326493
1782845824747962000,7.392962158203125,0.08949731557369231,-0.015562456921488046,0.044749534569680685
1782845824757967000,7.402967041015625,0.10226911886334418,-0.005989303542673587,0.018785802882164717
1782845824767972000,7.41297216796875,0.1103249995470047,0.03933803091496229,0.031349224118143316
1782845824777977000,7.42297705078125,0.05240998619496822,0.07102247833684086,0.04029153224751353
1782845824787982000,7.432982177734375,0.016411621096730233,0.08929083321616053,0.07475245864540338
1782845824797987000,7.442987060546875,0.031142741760611534,0.0970440776914358,0.0639876112639904
1782845824807992000,7.452991943359375,0.05545300715267658,0.07754998040944337,0.0683371847756207
1782845824817997000,7.4629970703125,0.10830021572113037,0.054389469574391835,0.0814244837552309
1782845824828002000,7.473001953125,0.18015315353274344,0.0128597738340497,0.07239727382138371
1782845824838007000,7.483007080078125,0.24798282717764375,0.005876929209381342,0.08666253053918481
1782845824848012000,7.493011962890625,0.2448562195897102,0.02253594919592142,0.056739539831876754
1782845824858017000,7.50301708984375,0.2328495554536581,0.020547697988152504,0.02950827242657542
1782845824868022000,7.51302197265625,0.17555413530468938,0.051639586344361305,0.02629442494660616
1782845824878027000,7.523027099609375,0.10550035586953163,0.05744768810123205,-0.019082447741180657
1782845824888032000,7.533031982421875,0.07744505873024463,0.05701631094664335,-0.035736207030713556
1782845824898037000,7.543037109375,0.052771805244684215,0.054741644012928005,-0.0410325598731637
1782845824908042000,7.5530419921875,0.04274024057388305,0.047487727361917496,-0.030368104126304387
1782845824918047000,7.563046875,0.052587096327543256,0.006791998227685689,-0.022780863867700098
1782845824928052000,7.573052001953125,0.0473088636636734,0.005409019436687231,-0.01592500662356615
1782845824938057000,7.583056884765625,0.045618426358699796,-0.013150719604641198,-0.002921732665598392
1782845824948062000,7.59306201171875,0.05892331361174583,-0.0011621756471693514,0.008379121288657188
1782845824958067000,7.60306689453125,0.07909633306860923,0.0015299860462546348,-0.005284808535128831
1782845824968072200,7.613072265625,0.06602467004954815,-0.00010799041911959648,-0.017303893761336803
1782845824978077200,7.6230771484375,0.07739595889151096,0.017038520823419095,0.005850771854817867
1782845824988082200,7.633082275390625,0.03509294069111347,0.04960442725494504,-0.008215601290017365
1782845824998087200,7.643087158203125,0.041971009767055506,0.05622793704792857,-0.005039601602405309
1782845825008092200,7.653092041015625,0.019739304214715956,0.04457023248001933,0.0029240707531571386
1782845825018097200,7.66309716796875,0.010873276191949844,0.05225260367617011,0.04311097358241677
1782845825028102100,7.67310205078125,0.04835632688999176,0.027421529280394315,0.04423194043636322
1782845825038107100,7.683107177734375,0.06329787543416023,0.008991407968103885,0.04180617459416389
1782845825048112000,7.693112060546875,0.11181377680003643,-0.00021320435926318166,0.008886778549849986
1782845825058117000,7.7031171875,0.1584387498527765,-0.007161416061967611,0.01437324713692069
1782845825068120800,7.713120849609375,0.1636415791928768,-0.009177578189969062,0.0010617840126156807
1782845825078126000,7.7231259765625,0.16599311075508594,0.008586918820440768,-0.03246259218752384
1782845825088131000,7.733131103515625,0.1552232949376106,0.03948006973415613,-0.039815877559781075
1782845825098136000,7.743135986328125,0.15513853926360607,0.027299071944504975,-0.03519683945700526
1782845825108141000,7.75314111328125,0.13830255527496338,0.03626052316576242,-0.020452713181078434
1782845825118146000,7.76314599609375,0.11307634408175944,0.02334463523030281,-0.04037409596443176
1782845825128151300,7.7731513671875,0.048238253468275066,-0.005843611461669207,-0.002782616455852985
1782845825138156300,7.78315625,-0.004831657940149307,-0.03445376600474119,0.028716829787939786
1782845825148161500,7.79316162109375,-0.0322463190883398,-0.032270138355344535,0.05345861846506595
1782845825158166500,7.80316650390625,-0.015824176597595215,-0.02856894574984908,0.05226780124530196
1782845825168171500,7.813171630859375,-0.007847206369042396,0.0013381167359650134,0.03267740398198366
1782845825178176500,7.823176513671875,0.0236935947984457,0.030506635814160108,0.00043722237348556514
1782845825188181500,7.833181396484375,0.08256897761523724,0.05932809502035379,-0.030391046610474585
1782845825198186500,7.8431865234375,0.11888766070902347,0.04931202017962932,-0.05219371309578418
1782845825208191500,7.85319140625,0.1357651457518339,0.03067483198791742,-0.056632864587008946
1782845825218196500,7.863196533203125,0.14389058454036713,0.01636632065027952,-0.024790450124442576
1782845825228201500,7.873201416015625,0.12547639144957065,0.008414484862983226,-0.015562018530070781
1782845825238206500,7.88320654296875,0.14742986458241938,0.010970014564692973,0.00555719573572278
1782845825248211500,7.89321142578125,0.1691805086195469,-0.0008726911813020706,-0.0023221593372523782
1782845825258216400,7.903216552734375,0.160770992192626,-0.012934738766402006,-0.018935002094507217
1782845825268221400,7.913221435546875,0.15032850863337516,-0.013528320745378733,-0.0638688071899116
1782845825278226400,7.923226318359375,0.1675812567293644,0.016555559612065552,-0.09118278444260358
1782845825288231400,7.9332314453125,0.1173000992566347,0.01708878970593214,-0.0892440714649856
1782845825298236400,7.943236328125,0.06430442212820053,0.030887451825290915,-0.03648424891903996
1782845825308241400,7.953241455078125,0.021916648253798483,0.02971431639268994,-0.011401537849754095
1782845825318246400,7.963246337890625,-0.021591654083132742,0.02043386235013604,-0.038047991104424
1782845825328251400,7.97325146484375,-0.020835867279767988,0.04059928302243352,-0.02888853309303522
1782845825338256400,7.98325634765625,-0.0036976854741573332,0.02609378780797124,-0.018431728747487067
1782845825348261400,7.993261474609375,-0.019260580787062644,0.014843933388590812,0.01776522766277194
1782845825358266400,8.003266357421875,-0.01672550935149193,0.02944178306162357,0.037255233291536564
1782845825368271400,8.013271240234374,-0.02047463275194168,0.03637099780291319,0.02406885785162449
1782845825378276400,8.0232763671875,0.03035597529709339,0.023171178359538316,0.022500001099705694
1782845825388281300,8.03328125,0.05759820248782634,0.02984539542645216,0.015479600943624973
1782845825398286300,8.043286376953125,0.06606617110371589,0.05390139379650354,-0.024303251129388807
1782845825408291300,8.053291259765626,0.07106091065108776,0.05490881727337837,-0.019125410100072623
1782845825418295300,8.06329541015625,0.12265256620049476,0.07272679803669452,0.006396423038840294
1782845825428300300,8.07330029296875,0.1591097809821367,0.03861015503183007,0.05178776264339685
1782845825438305300,8.08330517578125,0.2474059040725231,0.019808716189116237,0.05876695400625467
1782845825448310300,8.093310302734375,0.27089666977524757,0.020790274572372435,0.04923705524727702
1782845825458315300,8.103315185546874,0.2633744575768709,0.037060441371798515,0.029166327121108768
1782845825468320300,8.1133203125,0.22053426375985144,0.038599779768288135,0.022026099977642297
1782845825478325200,8.1233251953125,0.15945757150650022,0.011621025819331407,0.018081600135564802
1782845825488330200,8.133330322265625,0.0759042590290308,0.04302124947234988,-0.00012172668352723121
1782845825498335500,8.14333544921875,0.012654314389824867,0.06302811858206987,0.013192659050226211
1782845825508340500,8.153340576171875,-0.015976736810803412,0.0606412234455347,0.015693828216195107
1782845825518345500,8.163345458984375,-0.009516016364097594,0.055176820559799666,-0.007402092950046062
1782845825528350500,8.1733505859375,0.020275310787558554,0.06752294578328728,-0.03434036875814199
1782845825538355500,8.18335546875,0.05467442399561405,0.04642871982827782,-0.012937369114905594
1782845825548360400,8.1933603515625,0.06725041245222091,0.01380246151164174,-0.02623363467007875
1782845825558365400,8.203365478515625,0.09196750507950782,0.005715893428772687,0.009092384124547243
1782845825568370400,8.213370361328124,0.11059680222570896,-0.0017995967678725718,0.021093787563592193
1782845825578375400,8.22337548828125,0.11202888085544109,-0.006686053635179996,0.006938128700107336
1782845825588380400,8.23338037109375,0.09410510163009166,0.006016191549599171,-0.0006064414605498313
1782845825598385400,8.243385498046875,0.07297054366469383,0.014750263755768536,0.006996142497658729
1782845825608390400,8.253390380859376,0.054201545786857604,0.01096796873807907,-0.0029196868389844894
1782845825618395400,8.2633955078125,0.0641577071338892,0.02274988420754671,-0.02516089087203145
1782845825628400400,8.273400390625,0.05713993732631206,0.028013796085119246,-0.04045242189764976
1782845825638405400,8.2834052734375,0.03047229515314102,0.011315467001497746,-0.0017237550526857375
1782845825648410400,8.293410400390625,0.021861118674278257,0.004179039250314235,-0.011858926228433847
1782845825658415400,8.303415283203124,0.06463350795209408,0.005416764351725578,0.01325549515336752
1782845825668420400,8.31342041015625,0.1034141972452402,-0.016299539024382827,0.004238222091645002
1782845825678425300,8.32342529296875,0.12154489721953868,-0.015188947433978318,0.009699556237459182
1782845825688430300,8.333430419921875,0.12468845594227314,0.006673048023134469,-0.011060761588066816
1782845825698435300,8.343435302734376,0.10674538749456405,0.004354980339109898,-0.020458120008558033
1782845825708440300,8.3534404296875,0.0658960752338171,0.02045169026777148,-0.026641046427190302
1782845825718445300,8.3634453125,0.0504196891605854,0.02999459463879466,-0.018288813145458698
1782845825728450300,8.3734501953125,0.016021160474419593,0.03213379862457513,-0.03009337883815169
1782845825738455300,8.383455322265625,0.018104981011152266,0.05021481423825025,-0.022282558956742287
1782845825748459300,8.393459228515624,0.043453357279300685,0.02310848838686943,-0.004994447286427021
1782845825758464300,8.40346435546875,0.0770195267945528,0.015153145468235015,0.0038293490298092364
1782845825768469200,8.41346923828125,0.11921499296724795,0.00510623709782958,0.0349216757774353
1782845825778474200,8.42347412109375,0.11659691942334174,-0.012751198893040418,0.04722060085833072
1782845825788479200,8.433479248046876,0.10311667560338973,-0.016120821456611156,0.05573445444256067
1782845825798484200,8.443484130859375,0.09128069185912609,-0.008401186989992857,0.03477729887068271
1782845825808489200,8.4534892578125,0.05139350262880325,0.0490296961069107,-0.016108984888345
1782845825818494200,8.463494140625,0.040941082197427744,0.038053251801431175,-0.034996640709787606
1782845825828499200,8.473499267578125,0.07201251228749751,0.04194456015154719,-0.04595452644526958
1782845825838504200,8.483504150390624,0.06396773751974105,0.02553893040418625,-0.03392053591087461
1782845825848509200,8.49350927734375,0.056307578155398365,0.013686726177483797,-0.005510580115020275
1782845825858514400,8.503514404296874,0.05518471160531044,0.0066261401414871215,0.016739391746371984
1782845825868519400,8.51351953125,0.05492343032062053,0.017428250793367624,0.03311798735633492
1782845825878524400,8.5235244140625,0.03815291278362274,0.023826427397876975,0.04878010526001453
1782845825888529400,8.533529296875,0.05615910959541797,0.03297185688391328,0.028248773884773253
1782845825898534400,8.543534423828126,0.09444529336988926,0.04058613127991557,0.009256634775549173
1782845825908539400,8.553539306640625,0.12130290515720843,0.04685366724207997,-0.01836465486064553
1782845825918544400,8.56354443359375,0.17762918801307678,0.032695670291036365,-0.03507306694686413
1782845825928549400,8.57354931640625,0.2083627644509077,0.017583149094134568,-0.025100977378338572
1782845825938554400,8.583554443359375,0.18552432517707346,0.024820699132233857,-0.01818973668515682
1782845825948559400,8.593559326171874,0.1609323202341795,0.03446297222450375,-0.018457155449688435
1782845825958564400,8.603564453125,0.10311842916905879,0.06505538662597536,0.0219498198710382
1782845825968569300,8.6135693359375,0.023342297142744065,0.056296033848077055,0.025362989315390584
1782845825978574300,8.62357421875,0.029876082825660705,0.04104483483284711,0.027284897288680075
1782845825988579300,8.633579345703126,0.023819851526618002,0.03553045532554388,0.03655439154580235
1782845825998584300,8.643584228515625,0.02531564304232597,0.025792466773837803,0.019360095638781785
1782845826008589300,8.65358935546875,0.040897243055701256,0.02258490290418267,0.020729630426317452
1782845826018594300,8.66359423828125,0.026251462587714193,0.053487990690022705,0.01788870791196823
1782845826028599300,8.673599365234375,0.2643897720992565,0.08950228400975466,0.01750789190083742
1782845826038604300,8.683604248046874,0.26688801865577694,0.06541559824049473,0.05085501183792948
1782845826048609300,8.693609375,0.269178175419569,-0.034804917529970406,0.1657268610343337
1782845826058614300,8.7036142578125,0.1537462081223726,0.03168225546479225,0.20264029515087603
1782845826068619300,8.713619384765625,0.0773854374974966,0.03407894134297967,0.15711466164216398
1782845826078623200,8.723623291015626,0.07373509829640389,0.0863012960113585,0.10480272899419069
1782845826088628200,8.733628173828125,0.054933951714634895,0.10952449681907891,-0.0019327216282486914
1782845826098633200,8.74363330078125,0.1388502522855997,0.02174494494870305,-0.03611336978003382
1782845826108638200,8.75363818359375,0.15301672480404377,-0.00048339960277080535,0.05965118949487805
