time,seconds_elapsed,z,y,x
1782845817421813200,0.066813232421875,0.02113005332648754,-0.0157062578946352,-0.04644899070262909
1782845817431818200,0.076818359375,0.02051432989537716,-0.01775342971086502,-0.04470621794462204
1782845817441823200,0.0868232421875,0.01678457297384739,-0.020908210426568985,-0.04399355500936508
1782845817451828200,0.096828125,0.014303571544587612,-0.017835987731814384,-0.03747520223259926
1782845817461833200,0.106833251953125,0.012910205870866776,-0.01878194324672222,-0.03099946118891239
1782845817471838200,0.116838134765625,0.008321046829223633,-0.016869794577360153,-0.024834243580698967
1782845817481843200,0.12684326171875,-0.0012013519881293178,-0.008125304244458675,-0.019394736737012863
1782845817491848200,0.13684814453125,-0.004819788970053196,-0.0017718010349199176,-0.012974654324352741
1782845817501853400,0.146853515625,-0.015079350210726261,-0.005917011294513941,0.0014048174489289522
1782845817511858400,0.1568583984375,-0.02564304508268833,-0.010759437456727028,0.015808258205652237
1782845817521863400,0.166863525390625,-0.033124130219221115,-0.011294200085103512,0.02568991668522358
1782845817531868400,0.176868408203125,-0.03729118034243584,-0.010526410304009914,0.03357979655265808
1782845817541873400,0.186873291015625,-0.03954314813017845,-0.01649508625268936,0.043481964617967606
1782845817551878400,0.19687841796875,-0.04646869748830795,-0.01926184445619583,0.04349634423851967
1782845817561883400,0.20688330078125,-0.047510527074337006,-0.013193832710385323,0.03664802759885788
1782845817571888400,0.216888427734375,-0.04884397238492966,-0.0025715483352541924,0.029687587171792984
1782845817581893400,0.226893310546875,-0.047141946852207184,0.0054128747433424,0.021016335114836693
1782845817591898400,0.2368984375,-0.044627655297517776,0.005289570428431034,0.01546710729598999
1782845817601903400,0.2469033203125,-0.04019588977098465,0.0004596615908667445,0.013739780522882938
1782845817611908400,0.256908447265625,-0.03550366684794426,-0.0037707698065787554,0.01955932006239891
1782845817621913300,0.266913330078125,-0.024410001933574677,-0.009797503240406513,0.017708955332636833
1782845817631918300,0.27691845703125,-0.018022410571575165,-0.014628211036324501,0.01967942900955677
1782845817641923300,0.28692333984375,-0.009796970523893833,-0.020267188549041748,0.013251889497041702
1782845817651928300,0.29692822265625,0.000028495824153651483,-0.016860738396644592,0.004765460267663002
1782845817661933300,0.306933349609375,0.0030104373581707478,-0.012269715778529644,-0.003908987622708082
1782845817671938300,0.316938232421875,0.007098655682057142,-0.015923306345939636,-0.009426524862647057
1782845817681943300,0.326943359375,0.00598572101444006,-0.010688597336411476,-0.013496633619070053
1782845817691948300,0.3369482421875,0.003099919529631734,-0.008085889741778374,-0.017830396071076393
1782845817701953500,0.34695361328125,-0.0002716424351092428,-0.005824865773320198,-0.019642943516373634
1782845817711958500,0.35695849609375,-0.00013022858183830976,-0.006299973931163549,-0.022429408505558968
1782845817721962500,0.36696240234375,0.002724946476519108,-0.007428088691085577,-0.019685819745063782
1782845817731967500,0.376967529296875,0.0043803672306239605,-0.011688880622386932,-0.012984241358935833
1782845817741972500,0.386972412109375,0.003824033075943589,-0.020555075258016586,-0.007062170654535294
1782845817751977500,0.3969775390625,0.007799866143614054,-0.02906627207994461,-0.006733802612870932
1782845817761982500,0.406982421875,0.008950618095695972,-0.02377270720899105,-0.008475510403513908
1782845817771987500,0.416987548828125,0.0006838997360318899,-0.009344233199954033,-0.012858274392783642
1782845817781992400,0.426992431640625,-0.00045806370326317847,0.0002271676348755136,-0.011868377216160297
1782845817791997400,0.43699755859375,-0.0008681904873810709,0.0016522251535207033,-0.005772934295237064
1782845817802002400,0.44700244140625,-0.0005685848882421851,0.0001715075777610764,0.002921754028648138
1782845817812007400,0.45700732421875,-0.0024591628462076187,-0.00017496968212071806,0.008051535114645958
1782845817822012400,0.467012451171875,-0.0009302421822212636,0.0010285128373652697,0.011804195120930672
1782845817832017400,0.477017333984375,0.0020727382507175207,0.001987517112866044,0.006037918850779533
1782845817842022400,0.4870224609375,0.006879211403429508,0.0006143912323750556,0.0031366711482405663
1782845817852027400,0.49702734375,0.009468869306147099,-0.00839481595903635,0.0006506102508865297
1782845817862032400,0.507032470703125,0.010852914303541183,-0.008461927995085716,-0.0023616913240402937
1782845817872037400,0.517037353515625,0.013282516039907932,-0.005014998838305473,-0.01028885692358017
1782845817882042400,0.52704248046875,0.01407800242304802,-0.003282079705968499,-0.009762083180248737
1782845817892047400,0.53704736328125,0.013467871583998203,0.0033657029271125793,-0.008697351440787315
1782845817902052400,0.54705224609375,0.010075004771351814,0.007635016459971666,-0.003852795111015439
1782845817912057300,0.557057373046875,0.006671218667179346,0.014957644045352936,-0.00213558878749609
1782845817922062300,0.567062255859375,0.004454935900866985,0.013587181456387043,0.00475454144179821
1782845817932067300,0.5770673828125,0.0026106967125087976,0.010969560593366623,0.011288074776530266
1782845817942072300,0.587072265625,-0.004547347314655781,0.004849882796406746,0.017886588349938393
1782845817952077300,0.597077392578125,-0.007416903506964445,-0.002511627273634076,0.02123924158513546
1782845817962082300,0.607082275390625,-0.011080081574618816,-0.011664645746350288,0.022521020844578743
1782845817972087300,0.61708740234375,-0.01309050153940916,-0.008717591874301434,0.017118798568844795
1782845817982092300,0.62709228515625,-0.019765716046094894,0.0012154667638242245,0.013882526196539402
1782845817992097300,0.63709716796875,-0.02462092414498329,0.006658168975263834,0.013973605819046497
1782845818002102300,0.647102294921875,-0.027307521551847458,0.005515939090400934,0.011416172608733177
1782845818012107300,0.657107177734375,-0.027579963207244873,0.002153698354959488,0.010932009667158127
1782845818022112300,0.6671123046875,-0.026223881170153618,0.0007475492893718183,0.007635016459971666
1782845818032117200,0.6771171875,-0.025236381217837334,0.0070946612395346165,-0.0024953819811344147
1782845818042122200,0.687122314453125,-0.02166481502354145,0.012526177801191807,-0.005735383834689856
1782845818052127500,0.69712744140625,-0.016810139641165733,0.012149873189628124,-0.006918626371771097
1782845818062132500,0.707132568359375,-0.010370882228016853,0.005959355738013983,0.0020604876335710287
1782845818072137500,0.717137451171875,-0.006586796138435602,0.002231728984043002,0.00842783972620964
1782845818082142500,0.727142578125,-0.0022716764360666275,-0.001324123702943325,0.015350992791354656
1782845818092147500,0.7371474609375,0.0007073355955071747,-0.003285009181126952,0.01997504010796547
1782845818102152400,0.74715234375,-0.0004370247188489884,0.003882089862599969,0.0161850955337286
1782845818112157400,0.757157470703125,-0.003936151973903179,0.010329336859285831,0.011918711476027966
1782845818122163200,0.7671630859375,-0.008238755166530609,0.015282283537089825,0.003537210635840893
1782845818132168200,0.777168212890625,-0.012746687978506088,0.021762819960713387,0.004095409065485001
1782845818142173200,0.787173095703125,-0.01925545372068882,0.02303980477154255,0.007000651676207781
1782845818152178200,0.79717822265625,-0.020302075892686844,0.01287425309419632,0.0060270000249147415
1782845818162183200,0.80718310546875,-0.02076892741024494,-0.002124669961631298,0.011992480605840683
1782845818172188200,0.817188232421875,-0.021637650206685066,-0.01061908807605505,0.015158446505665779
1782845818182193200,0.827193115234375,-0.021944180130958557,-0.00926407240331173,0.014976819045841694
1782845818192198400,0.837198486328125,-0.0264744833111763,-0.004595017991960049,0.01624421775341034
1782845818202203400,0.847203369140625,-0.026163959875702858,0.0019491675775498152,0.01635580323636532
1782845818212208400,0.85720849609375,-0.028377313166856766,0.0061508365906775,0.015054849907755852
1782845818222213400,0.86721337890625,-0.03129720315337181,0.006075735669583082,0.008676046505570412
1782845818232218400,0.87721826171875,-0.032472189515829086,0.005232844967395067,0.0037670412566512823
1782845818242223400,0.887223388671875,-0.03777720779180527,0.006999053526669741,-0.004653607495129108
1782845818252228400,0.897228271484375,-0.037038177251815796,0.005332713946700096,-0.009609750472009182
1782845818262233300,0.9072333984375,-0.0364869050681591,0.0023379891645163298,-0.011982360854744911
1782845818272238300,0.91723828125,-0.03247245401144028,-0.001395230065099895,-0.012951218523085117
1782845818282243300,0.927243408203125,-0.024957014247775078,-0.0006942860782146454,-0.014238590374588966
1782845818292248300,0.937248291015625,-0.018185129389166832,0.001927595934830606,-0.010480337776243687
1782845818302253300,0.94725341796875,-0.01426495611667633,0.0025092302821576595,0.0007523429812863469
1782845818312258300,0.95725830078125,-0.008072573691606522,0.0027060380671173334,0.005096225067973137
1782845818322263300,0.96726318359375,-0.007713313214480877,0.006246977020055056,0.009270730428397655
1782845818332268300,0.977268310546875,-0.0021193434949964285,0.011529090814292431,0.0057564228773117065
1782845818342273300,0.987273193359375,0.0011374361347407103,0.010415356606245041,0.002296710154041648
1782845818352278300,0.9972783203125,0.0037854171823710203,0.007710650097578764,-0.002368349116295576
1782845818362283300,1.007283203125,0.0062461779452860355,0.0020152139477431774,-0.0027337349019944668
1782845818372288300,1.017288330078125,0.004454136826097965,-0.004284227266907692,-0.002659698948264122
1782845818382293200,1.027293212890625,-0.001386175281368196,-0.002931075170636177,-0.0022090920247137547
1782845818392298200,1.03729833984375,-0.0009534116834402084,-0.001862614881247282,-0.002567287301644683
1782845818402303200,1.04730322265625,-0.003165166825056076,-0.005081044975668192,0.0008309062686748803
1782845818412308200,1.05730810546875,-0.006179599091410637,-0.005150287412106991,-0.0014892396284267306
1782845818422313200,1.067313232421875,-0.009888317435979843,-0.0035273567773401737,-0.006055229343473911
1782845818432318200,1.077318115234375,-0.01417440827935934,0.0041057956404984,-0.007985222153365612
1782845818442323200,1.0873232421875,-0.01895398274064064,0.008439823985099792,-0.005586512852460146
1782845818452328200,1.097328125,-0.023513581603765488,0.00379021093249321,0.0007203850545920432
1782845818462333200,1.107333251953125,-0.020896758884191513,-0.00415319949388504,0.011551727540791035
1782845818472338200,1.117338134765625,-0.021268537268042564,-0.012446283362805843,0.017740914598107338
1782845818482343200,1.12734326171875,-0.01955532468855381,-0.019839484244585037,0.016324378550052643
1782845818492348200,1.13734814453125,-0.023681627586483955,-0.020126307383179665,0.016082828864455223
1782845818502353200,1.147353271484375,-0.02521214634180069,-0.012771189212799072,0.009266468696296215
1782845818512358100,1.157358154296875,-0.02925083041191101,-0.002636529505252838,0.004151069093495607
1782845818522362000,1.167362060546875,-0.030357373878359795,0.006115682888776064,0.008825449272990227
1782845818532368400,1.177368408203125,-0.03496011346578598,0.01056342851370573,0.016215188428759575
1782845818542372400,1.187372314453125,-0.036010466516017914,0.00814820732921362,0.03254169598221779
1782845818552377300,1.19737744140625,-0.03555027022957802,0.0030184267088770866,0.04458824172616005
1782845818562382300,1.20738232421875,-0.03831436485052109,0.0005230448441579938,0.04923279210925102
1782845818572387300,1.21738720703125,-0.034925758838653564,0.0028996497858315706,0.051966529339551926
1782845818582392300,1.227392333984375,-0.028654813766479492,-0.001020523370243609,0.050504185259342194
1782845818592397300,1.237397216796875,-0.02256895788013935,-0.0019776634871959686,0.03868108242750168
1782845818602402300,1.24740234375,-0.019123360514640808,-0.000287088769255206,0.023081084713339806
1782845818612407300,1.2574072265625,-0.012966398149728775,0.005533782299607992,0.006254167295992374
1782845818622412300,1.267412353515625,-0.00566827179864049,0.009216135367751122,-0.004147074185311794
1782845818632417300,1.277417236328125,-0.004698082339018583,0.013652162626385689,-0.008501608856022358
1782845818642422300,1.28742236328125,-0.001085504423826933,0.015477493405342102,-0.009830526076257229
1782845818652427300,1.29742724609375,0.0027987160719931126,0.016232766211032867,-0.0043835630640387535
1782845818662432300,1.307432373046875,0.004329234827309847,0.012224708683788776,0.0033816818613559008
1782845818672437200,1.317437255859375,0.004083691164851189,0.009210276417434216,0.004064250271767378
1782845818682442200,1.327442138671875,0.011610583402216434,0.0021728731226176023,0.0035422705113887787
1782845818692447500,1.337447509765625,0.016570454463362694,-0.005095425993204117,-0.0037409423384815454
1782845818702452500,1.347452392578125,0.022756444290280342,-0.011365306563675404,-0.006352704484015703
1782845818712457500,1.35745751953125,0.024955684319138527,-0.010610566474497318,-0.01302285771816969
1782845818722462500,1.36746240234375,0.028835110366344452,-0.003662645351141691,-0.020912472158670425
1782845818732467500,1.377467529296875,0.029679331928491592,-0.001469798618927598,-0.02381851337850094
1782845818742472400,1.387472412109375,0.03449619188904762,0.0029878003988415003,-0.02527286671102047
1782845818752477400,1.3974775390625,0.03604748472571373,0.0046789078041911125,-0.02618233487010002
1782845818762482400,1.407482421875,0.035111382603645325,0.0035393410362303257,-0.020473049953579903
1782845818772487400,1.4174873046875,0.03869759291410446,0.0003707120195031166,-0.01641945354640484
1782845818782492400,1.427492431640625,0.03964275121688843,-0.002555036684498191,-0.01118953712284565
1782845818792497400,1.437497314453125,0.045574408024549484,-0.008841960690915585,-0.013018863275647163
1782845818802502400,1.44750244140625,0.04554032161831856,-0.017053019255399704,-0.011023622937500477
1782845818812507400,1.45750732421875,0.044439103454351425,-0.011749067343771458,-0.014722753316164017
1782845818822512400,1.467512451171875,0.04001772403717041,-0.005402754992246628,-0.016230901703238487
1782845818832517400,1.477517333984375,0.032527849078178406,0.003466370515525341,-0.020259199663996696
1782845818842522400,1.4875224609375,0.02064216136932373,0.006375074852257967,-0.01631718873977661
1782845818852527400,1.49752734375,0.011196461506187916,0.0064837317913770676,-0.01990925893187523
1782845818862532400,1.507532470703125,0.003932956140488386,0.004743356257677078,-0.019477561116218567
1782845818872537300,1.517537353515625,-0.0037140443455427885,0.0031558459158986807,-0.021619541570544243
1782845818882542300,1.527542236328125,-0.007649663835763931,0.00570049649104476,-0.02063070982694626
1782845818892547300,1.53754736328125,-0.0067599015310406685,0.005101284943521023,-0.017544904723763466
1782845818902552300,1.54755224609375,-0.005631786771118641,0.0014655375853180885,0.000011717908819264267
1782845818912557300,1.557557373046875,-0.002877012826502323,-0.008126902393996716,0.011745605617761612
1782845818922562300,1.567562255859375,0.0013851100811734796,-0.007711981888860464,0.018016817048192024
1782845818932567300,1.5775673828125,-0.000284159294096753,-0.0036424053832888603,0.02370106801390648
1782845818942572300,1.587572265625,0.0015078817959874868,0.001960352761670947,0.023790817707777023
1782845818952577300,1.597577392578125,-0.002968891989439726,0.004692756105214357,0.020014453679323196
1782845818962582300,1.607582275390625,-0.00782569870352745,0.006475209724158049,0.008903480134904385
1782845818972587300,1.617587158203125,-0.012073973193764687,0.008499745279550552,-0.003915379289537668
1782845818982592300,1.62759228515625,-0.014972824603319168,0.008958874270319939,-0.013509683310985565
1782845818992597200,1.63759716796875,-0.014391722157597542,0.00004500742215896025,-0.020112192258238792
1782845819002602200,1.647602294921875,-0.012439358979463577,-0.008440090343356133,-0.02345952019095421
1782845819012607200,1.657607177734375,-0.009155681356787682,-0.011486213654279709,-0.02431892231106758
1782845819022612200,1.6676123046875,-0.006154298782348633,-0.01077008992433548,-0.01920432038605213
1782845819032617200,1.6776171875,-0.000636495475191623,-0.010687798261642456,-0.017182448878884315
1782845819042622200,1.687622314453125,0.0006282397080212831,-0.0035947347059845924,-0.012179967015981674
1782845819052627200,1.697627197265625,0.001698830397799611,0.0013917679898440838,-0.00475587323307991
1782845819062632400,1.707632568359375,0.004070907831192017,0.00284958234988153,0.0005392901366576552
1782845819072637400,1.717637451171875,0.0046970173716545105,-0.003425091505050659,0.009908290579915047
1782845819082642400,1.727642333984375,0.005116997752338648,-0.005256014876067638,0.0136652123183012
1782845819092647400,1.7376474609375,0.006031793542206287,-0.01134027261286974,0.014182930812239647
1782845819102652400,1.74765234375,0.0039175101555883884,-0.01588389091193676,0.01739710010588169
1782845819112657400,1.757657470703125,0.0014298511669039726,-0.016214389353990555,0.012937369756400585
1782845819122662100,1.767662109375,-0.0002918824611697346,-0.01369024533778429,0.006184126250445843
1782845819132667100,1.777667236328125,-0.0035800873301923275,-0.009787383489310741,-0.00520727876573801
1782845819142672400,1.78767236328125,-0.0060203419998288155,0.0006050702068023384,-0.010761301033198833
1782845819152677400,1.797677490234375,-0.007940747775137424,0.009825466200709343,-0.01534753106534481
1782845819162682400,1.807682373046875,-0.009443568997085094,0.006137521006166935,-0.008772718720138073
1782845819172687400,1.817687255859375,-0.011409248225390911,0.0028519791085273027,-0.005322061013430357
1782845819182692400,1.8276923828125,-0.012369584292173386,-0.005585714243352413,-0.003932157531380653
1782845819192697300,1.837697265625,-0.011414041742682457,-0.006131928414106369,0.0037638454232364893
1782845819202702300,1.847702392578125,-0.008895490318536758,-0.013906228356063366,0.004230164922773838
1782845819212707300,1.857707275390625,-0.00974583812057972,-0.013336844742298126,0.004594219382852316
1782845819222712300,1.86771240234375,-0.006107693538069725,-0.012194614857435226,0.0010932276491075754
1782845819232717300,1.87771728515625,-0.005800630897283554,-0.004240551497787237,-0.005431517027318478
1782845819242722300,1.887722412109375,-0.004798749927431345,-0.0004237089306116104,-0.005906624719500542
1782845819252727300,1.897727294921875,-0.0006253102328628302,0.0024498419370502234,-0.003952663857489824
1782845819262732300,1.907732177734375,0.00036139096482656896,0.004626443609595299,-0.002802977105602622
1782845819272737300,1.9177373046875,0.0006828344776295125,0.00070520507870242,0.0029137644451111555
1782845819282742300,1.9277421875,0.005051750224083662,-0.002666090615093708,0.0026794064324349165
1782845819292747300,1.937747314453125,0.005936452187597752,-0.006882407236844301,-0.002487126039341092
1782845819302752300,1.947752197265625,0.012440424412488937,-0.006717291194945574,-0.0032344090286642313
1782845819312757200,1.95775732421875,0.01774996891617775,-0.006893059704452753,-0.010470750741660595
1782845819322762200,1.96776220703125,0.02016305923461914,-0.011476093903183937,-0.01088620349764824
1782845819332767200,1.977767333984375,0.022646989673376083,-0.013029515743255615,-0.012319782748818398
1782845819342772200,1.987772216796875,0.018383800983428955,-0.008076834492385387,-0.008390555158257484
1782845819352777200,1.997777099609375,0.015400794334709644,-0.002079662401229143,-0.005880259443074465
1782845819362782200,2.0077822265625,0.009768208488821983,-0.0019283948931843042,-0.0009712548344396055
1782845819372787200,2.017787109375,0.009968744590878487,-0.00672235107049346,0.004766525700688362
1782845819382792200,2.027792236328125,0.002764361212030053,-0.01383938267827034,0.007726895622909069
1782845819392797200,2.037797119140625,0.0006881608278490603,-0.015549398958683014,0.0021885856986045837
1782845819402802200,2.04780224609375,-0.003493002150207758,-0.011320831254124641,-0.0012218583142384887
1782845819412807200,2.05780712890625,-0.006503705866634846,-0.014452975243330002,-0.0057471017353236675
1782845819422812200,2.067812255859375,-0.007574562914669514,-0.013530190102756023,-0.008466987870633602
1782845819432817200,2.077817138671875,-0.010029198601841927,-0.009061405435204506,-0.013253487646579742
1782845819442822100,2.087822265625,-0.009877664037048817,-0.01022866927087307,-0.009349026717245579
1782845819452826400,2.097826416015625,-0.011065966449677944,-0.008803611621260643,-0.01242444571107626
1782845819462831400,2.107831298828125,-0.008668056689202785,-0.001365668955259025,-0.008404670283198357
1782845819472836400,2.11783642578125,-0.007153517100960016,-0.003427488263696432,-0.00038216362008824944
1782845819482841300,2.12784130859375,-0.003287672298029065,0.003983822651207447,0.00439048744738102
1782845819492846300,2.137846435546875,0.004637895151972771,0.005934854503720999,0.007496532052755356
1782845819502851300,2.147851318359375,0.008037419989705086,-0.001987250754609704,0.015980564057826996
1782845819512856300,2.157856201171875,0.012896357104182243,-0.01299489475786686,0.027003919705748558
1782845819522861300,2.167861328125,0.01389770582318306,-0.015969645231962204,0.034274350851774216
1782845819532866300,2.1778662109375,0.014984807930886745,-0.011698734015226364,0.027033748105168343
1782845819542871300,2.187871337890625,0.011109109967947006,-0.000251402409048751,0.011438010260462761
1782845819552876300,2.197876220703125,0.007358580362051725,0.009474728256464005,-0.001321194227784872
1782845819562881300,2.20788134765625,0.0015683355741202831,0.014341921545565128,-0.010867294855415821
1782845819572886300,2.21788623046875,0.002843457041308284,0.01194161456078291,-0.015135010704398155
1782845819582891300,2.227891357421875,0.002549710450693965,0.003979827743023634,-0.010934140533208847
1782845819592896300,2.237896240234375,0.003914846573024988,-0.00043063313933089375,-0.003385144053027034
1782845819602901200,2.2479013671875,0.0038373488932847977,-0.005084240809082985,0.0035547874867916107
1782845819612906200,2.25790625,0.00785792339593172,-0.016530506312847137,0.0070919981226325035
1782845819622911200,2.2679111328125,0.010580206289887428,-0.016579242423176765,0.008116249926388264
1782845819632916200,2.277916259765625,0.010413758456707,-0.011408182792365551,0.0017534252256155014
1782845819642921200,2.287921142578125,0.011753861792385578,-0.005092762876302004,-0.006863232236355543
1782845819652926200,2.29792626953125,0.008025169372558594,0.006052832584828138,-0.011061705648899078
1782845819662931200,2.30793115234375,0.007993211969733238,0.01200925838202238,-0.012546151876449585
1782845819672936200,2.317936279296875,0.009374859742820263,0.010491256602108479,-0.011811652220785618
1782845819682941200,2.327941162109375,0.00941880140453577,0.007272826507687569,-0.005240568425506353
1782845819692946200,2.3379462890625,0.011611116118729115,-0.0009659285424277186,0.0017923073610290885
1782845819702951200,2.347951171875,0.012173308990895748,-0.015253255143761635,0.01378345675766468
1782845819712956200,2.3579560546875,0.013340839184820652,-0.01774330995976925,0.010813232511281967
1782845819722961200,2.367961181640625,0.019479159265756607,-0.016642626374959946,0.0012570120161399245
1782845819732966100,2.377966064453125,0.0193710345774889,-0.006474144756793976,-0.002299905987456441
1782845819742971100,2.38797119140625,0.013490774668753147,0.006175071466714144,-0.004577707499265671
1782845819752976100,2.39797607421875,0.007980694994330406,0.012459599412977695,-0.005129780620336533
1782845819762981000,2.407981201171875,0.005606220569461584,0.016931312158703804,-0.001258609932847321
1782845819772986000,2.417986083984375,0.0010844392236322165,0.013590643182396889,0.005739910993725061
1782845819782991000,2.4279912109375,-0.004560130648314953,0.004421113524585962,0.014605041593313217
1782845819792996000,2.43799609375,-0.007949269376695156,-0.003611779073253274,0.019846409559249878
1782845819803001000,2.4480009765625,-0.012173841707408428,-0.0036330842413008213,0.018969962373375893
1782845819813006000,2.458006103515625,-0.01824025623500347,-0.008141017518937588,0.012502475641667843
1782845819823011000,2.468010986328125,-0.019042134284973145,-0.006473612040281296,0.0031158984638750553
1782845819833016000,2.47801611328125,-0.01690548099577427,0.006078398786485195,-0.006756439805030823
1782845819843021000,2.48802099609375,-0.015165637247264385,0.013742444105446339,-0.010260893031954765
1782845819853026000,2.498026123046875,-0.01715315505862236,0.014303837902843952,-0.007390538230538368
1782845819863031000,2.508031005859375,-0.017890850082039833,0.011422297917306423,-0.004756139125674963
1782845819873036000,2.5180361328125,-0.01709642820060253,0.007436344865709543,0.0013584784464910626
1782845819883041000,2.528041015625,-0.014400244690477848,0.0040975394658744335,0.003981958609074354
1782845819893046000,2.5380458984375,-0.012370383366942406,0.003973702434450388,0.0060416474007070065
1782845819903051300,2.54805126953125,-0.010391920804977417,0.0029350698459893465,0.009323992766439915
1782845819913056300,2.55805615234375,-0.007645136676728725,0.0018354506464675069,0.011463044211268425
1782845819923061200,2.568061279296875,-0.0015100123127922416,0.0036519928835332394,0.010184193961322308
1782845819933066200,2.578066162109375,0.0001179780374513939,0.0035459990613162518,0.011358914896845818
1782845819943071200,2.5880712890625,0.0012426309986039996,0.000740625080652535,0.010431868024170399
1782845819953076200,2.598076171875,0.0026317357551306486,0.0004988100845366716,0.008647283539175987
1782845819963081200,2.608081298828125,0.0009068063227459788,0.0027334685437381268,0.005008074454963207
1782845819973086200,2.618086181640625,-0.005329518113285303,0.0030085730832070112,-0.0015875103417783976
1782845819983091200,2.62809130859375,-0.009298160672187805,0.000975782226305455,-0.005259476602077484
1782845819993096200,2.63809619140625,-0.010455037467181683,-0.002409894485026598,-0.01552250050008297
1782845820003101200,2.64810107421875,-0.011947473511099815,0.001193096162751317,-0.023787887766957283
1782845820013106200,2.658106201171875,-0.012434032745659351,-0.001603489276021719,-0.024561269208788872
1782845820023111200,2.668111083984375,-0.007345530670136213,-0.0012293151812627912,-0.025619609281420708
1782845820033116200,2.6781162109375,-0.0019595539197325706,0.000508663768414408,-0.024749821051955223
1782845820043121200,2.68812109375,-0.00048363005043938756,-0.005257878918200731,-0.02430747076869011
1782845820053126100,2.698126220703125,0.0017768610268831253,-0.005613943561911583,-0.023809192702174187
1782845820063131100,2.708131103515625,0.002041046740487218,-0.005887450184673071,-0.0232965350151062
1782845820073136000,2.71813623046875,0.003355582943186164,0.0037878139410167933,-0.025138109922409058
1782845820083141000,2.72814111328125,-0.0006980145117267966,0.010272344574332237,-0.02207653969526291
1782845820093146000,2.73814599609375,-0.004289287142455578,0.014533136039972305,-0.01720375381410122
1782845820103151000,2.748151123046875,-0.003879160387441516,0.02040114626288414,-0.011174091137945652
1782845820113156000,2.758156005859375,-0.004321511369198561,0.023908529430627823,0.0052173989824950695
1782845820123160300,2.768160400390625,0.008230498991906643,0.017767544835805893,0.01726767048239708
1782845820133165300,2.778165283203125,0.01188089419156313,0.01498374342918396,0.02900422178208828
1782845820143170300,2.78817041015625,0.017662616446614265,0.01619574800133705,0.03467089682817459
1782845820153175300,2.79817529296875,0.022431006655097008,0.011780492961406708,0.037692517042160034
1782845820163180300,2.80818017578125,0.01942562870681286,0.007443801499903202,0.034023482352495193
1782845820173185300,2.818185302734375,0.01950445957481861,0.007466970942914486,0.02214019000530243
1782845820183190300,2.828190185546875,0.01804478093981743,0.004845088813453913,0.005873868241906166
1782845820193195300,2.8381953125,0.009982060641050339,0.009874202311038971,-0.0006639260682277381
1782845820203200300,2.8482001953125,0.0014452975010499358,0.008993228897452354,-0.008475244045257568
1782845820213205200,2.858205322265625,-0.0037758296821266413,0.011692342348396778,-0.013911554589867592
1782845820223210200,2.868210205078125,-0.011031878180801868,0.006070942152291536,-0.016200274229049683
1782845820233215200,2.87821533203125,-0.014622352086007595,0.0033904702868312597,-0.01450091227889061
1782845820243220200,2.88822021484375,-0.020249610766768456,-0.0024463797453790903,-0.009967679157853127
1782845820253225200,2.89822509765625,-0.023199595510959625,-0.011424428783357143,-0.006310093682259321
1782845820263230200,2.908230224609375,-0.025436650961637497,-0.01679389365017414,-0.00625975988805294
1782845820273235200,2.918235107421875,-0.025724271312355995,-0.011573298834264278,-0.006428870838135481
1782845820283240200,2.928240234375,-0.026865435764193535,-0.004424309358000755,-0.006415554787963629
1782845820293245400,2.938245361328125,-0.024926388636231422,0.0018482337472960353,0.0011137339752167463
1782845820303250400,2.94825048828125,-0.016945160925388336,0.0029526466969400644,0.010361826978623867
1782845820313255400,2.95825537109375,-0.009123457595705986,0.0007203850545920432,0.017783524468541145
1782845820323260700,2.9682607421875,-0.0060384515672922134,-0.0046208505518734455,0.025589516386389732
1782845820333265700,2.978265625,0.00026285400963388383,-0.013432717882096767,0.029928337782621384
1782845820343270700,2.988270751953125,0.0051923650316894054,-0.01763332262635231,0.02690405212342739
1782845820353275600,2.998275634765625,0.007450459524989128,-0.013160010799765587,0.014625282026827335
1782845820363280600,3.00828076171875,0.011533085256814957,-0.006710366811603308,0.0011765845119953156
1782845820373284400,3.018284423828125,0.013538445346057415,-0.0035830168053507805,-0.010686999186873436
1782845820383290600,3.02829052734375,0.01446842122823,-0.0062246061861515045,-0.013885188847780228
1782845820393294300,3.03829443359375,0.013440441340208054,-0.01034691371023655,-0.014454307034611702
1782845820403300600,3.048300537109375,0.012914200313389301,-0.015752065926790237,-0.02201448753476143
1782845820413304300,3.05830419921875,0.013641510158777237,-0.017613081261515617,-0.025367408990859985
1782845820423309300,3.068309326171875,0.013103817589581013,-0.01961790956556797,-0.03166285529732704
1782845820433314300,3.078314208984375,0.010839598253369331,-0.017015734687447548,-0.03664056956768036
1782845820443319300,3.0883193359375,0.013601030223071575,-0.01477575022727251,-0.04039189592003822
1782845820453324300,3.09832421875,0.011672368273139,-0.013502226211130619,-0.035539884120225906
1782845820463329300,3.108329345703125,0.011147459968924522,-0.014312360435724258,-0.025112543255090714
1782845820473334500,3.11833447265625,0.008013717830181122,-0.012440690770745277,-0.010292052291333675
1782845820483339500,3.128339599609375,0.005647765472531319,-0.00902438722550869,-0.007059241179376841
1782845820493344500,3.138344482421875,0.0028357338160276413,-0.0067782774567604065,0.0036333505995571613
1782845820503349500,3.148349609375,0.00021518341964110732,-0.006617422681301832,0.008379902690649033
1782845820513354500,3.1583544921875,-0.0033542513847351074,-0.0030690268613398075,0.016512397676706314
1782845820523359500,3.168359375,-0.0025768745690584183,-0.0033803503029048443,0.01715022511780262
1782845820533364500,3.178364501953125,-0.005751362536102533,-0.0020415792241692543,0.02123764343559742
1782845820543369500,3.188369384765625,-0.00881985668092966,-0.006621949840337038,0.022836074233055115
1782845820553374500,3.19837451171875,-0.004501274786889553,-0.009295763447880745,0.01822933740913868
1782845820563379500,3.20837939453125,-0.0044205812737345695,-0.013245764188468456,0.016437029466032982
1782845820573384400,3.218384521484375,-0.004652009811252356,-0.013528858311474323,0.013078250922262669
1782845820583389400,3.228389404296875,-0.0057412427850067616,-0.015177088789641857,0.010763431899249554
1782845820593394400,3.23839453125,-0.002436259761452675,-0.00959803257137537,-0.0019504991360008717
1782845820603399400,3.2483994140625,-0.0028695559594780207,-0.004939364735037088,-0.012982910498976707
1782845820613404400,3.258404296875,-0.0034967304673045874,-0.0020668793004006147,-0.016409067437052727
1782845820623409400,3.268409423828125,-0.006895190104842186,0.0003486077766865492,-0.014701714739203453
1782845820633414400,3.278414306640625,-0.00766005041077733,0.0011941614793613553,-0.010696852579712868
1782845820643419400,3.28841943359375,-0.004452272783964872,-0.0027715517207980156,-0.00803156103938818
1782845820653424400,3.29842431640625,-0.004825914278626442,-0.012296879664063454,-0.002757703186944127
1782845820663429400,3.308429443359375,-0.000565122754778713,-0.02177400514483452,0.0007539408979937434
1782845820673434400,3.318434326171875,-0.00464721629396081,-0.02081553265452385,-0.004290885291993618
1782845820683439600,3.328439697265625,-0.007217166479676962,-0.013774934224784374,-0.008057926781475544
1782845820693444600,3.338444580078125,-0.00845500361174345,0.00025220136740244925,-0.022779081016778946
1782845820703449600,3.34844970703125,-0.012373312376439571,0.011925368569791317,-0.02376285381615162
1782845820713454600,3.35845458984375,-0.012467588298022747,0.011333348229527473,-0.01822960376739502
1782845820723459600,3.36845947265625,-0.009138104505836964,0.008394017815589905,-0.004177700728178024
1782845820733464600,3.378464599609375,-0.009792709723114967,0.002901514060795307,0.013282516039907932
1782845820743469600,3.388469482421875,-0.008959672413766384,-0.007420632056891918,0.028725387528538704
1782845820753474600,3.398474609375,-0.005151618737727404,-0.01435497123748064,0.03993196785449982
1782845820763479600,3.4084794921875,-0.0030660973861813545,-0.014740330167114735,0.0373670794069767
1782845820773484500,3.418484619140625,-0.00042557314736768603,-0.01631612330675125,0.02623400092124939
1782845820783489500,3.428489501953125,0.004339088220149279,-0.011935222893953323,0.012487296015024185
1782845820793494500,3.43849462890625,0.007852064445614815,-0.007130613550543785,0.0007068029372021556
1782845820803499500,3.44849951171875,0.013513145968317986,-0.005152151454240084,-0.011778362095355988
1782845820813504500,3.45850439453125,0.013353356160223484,-0.0012250541476532817,-0.025361016392707825
1782845820823509500,3.468509521484375,0.014477476477622986,0.0051865060813724995,-0.03068254515528679
1782845820833514500,3.478514404296875,0.015048458240926266,0.006912501063197851,-0.0317254401743412
1782845820843519500,3.48851953125,0.016095612198114395,0.004674912896007299,-0.027834560722112656
1782845820853524500,3.4985244140625,0.013701431453227997,-0.0009970874525606632,-0.01828339882194996
1782845820863529500,3.508529541015625,0.013532053679227829,-0.0038871499709784985,-0.006533532869070768
1782845820873534500,3.518534423828125,0.01107448898255825,-0.00708667142316699,0.005264536943286657
1782845820883539500,3.52853955078125,0.01552196778357029,-0.012349610216915607,0.011053450405597687
1782845820893544400,3.53854443359375,0.016762735322117805,-0.01167609728872776,0.007832090370357037
1782845820903549400,3.548549560546875,0.013683588244020939,-0.009886186569929123,0.007409446872770786
1782845820913554400,3.558554443359375,0.014670555479824543,-0.0073143718764185905,0.0022266688756644726
1782845820923559400,3.568559326171875,0.015843944624066353,-0.0067782774567604065,0.0022719427943229675
1782845820933564400,3.578564453125,0.01257864199578762,-0.003852795111015439,-0.002115881536155939
1782845820943569400,3.5885693359375,0.013622601516544819,-0.003876763628795743,-0.008972455747425556
1782845820953574400,3.598574462890625,0.009088835678994656,-0.0003046656202059239,-0.012695289216935635
1782845820963579400,3.608579345703125,0.008405735716223717,-0.00019441076437942684,-0.013049222528934479
1782845820973584400,3.61858447265625,0.010381801053881645,-0.0015270565636456013,-0.012650547549128532
1782845820983589400,3.62858935546875,0.008191350847482681,-0.007189203519374132,-0.00803289283066988
1782845820993594400,3.638594482421875,0.00869149249047041,-0.010607902891933918,-0.004710865672677755
1782845821003599400,3.648599365234375,0.010478473268449306,-0.01215972751379013,-0.0018572885310277343
1782845821013604400,3.658604248046875,0.012709936127066612,-0.013102219440042973,-0.0006700513185933232
1782845821023609300,3.668609375,0.011084875091910362,-0.009876066818833351,-0.005201419815421104
1782845821033614300,3.6786142578125,0.008202269673347473,-0.006811034400016069,-0.0113988621160388
1782845821043619300,3.688619384765625,0.003469299990683794,0.0013126720441505313,-0.016033029183745384
1782845821053624300,3.698624267578125,0.0016476977616548538,0.003221892286092043,-0.014790663495659828
1782845821063629300,3.70862939453125,0.003471696749329567,0.0036903421860188246,-0.010391388088464737
1782845821073634300,3.71863427734375,0.00535375252366066,-0.0017443705582991242,-0.0054448326118290424
1782845821083639300,3.728639404296875,0.010714695788919926,-0.013952833600342274,0.000055393749789800495
1782845821093644300,3.738644287109375,0.012374111451208591,-0.0224459208548069,0.0060384515672922134
1782845821103649300,3.748649169921875,0.015460981987416744,-0.02443290501832962,0.00010173275222769007
1782845821113654300,3.758654296875,0.0127584058791399,-0.019778763875365257,-0.006629406940191984
1782845821123660300,3.768660400390625,0.011457451619207859,-0.014973889105021954,-0.009191367775201797
1782845821133665300,3.778665283203125,0.009607619605958462,-0.011199391447007656,-0.02142939157783985
1782845821143670300,3.788670166015625,0.005894374568015337,-0.007203318178653717,-0.026032133027911186
1782845821153675300,3.79867529296875,-0.0005784385721199214,-0.007898136973381042,-0.021922875195741653
1782845821163679500,3.808679443359375,-0.005154281854629517,-0.011181281879544258,-0.015460182912647724
1782845821173684500,3.8186845703125,-0.0031244205310940742,-0.016632240265607834,-0.004589425399899483
1782845821183689500,3.828689453125,-0.008315454237163067,-0.027816450223326683,-0.0008852347382344306
1782845821193694500,3.838694580078125,-0.009920008480548859,-0.03067934885621071,0.0015414375811815262
1782845821203699500,3.848699462890625,-0.010742925107479095,-0.030466828495264053,-0.0026080335956066847
1782845821213704400,3.858704345703125,-0.013322995975613594,-0.025412149727344513,-0.012547483667731285
1782845821223709400,3.86870947265625,-0.01429611537605524,-0.02333861216902733,-0.0198618546128273
1782845821233714400,3.87871435546875,-0.01179434172809124,-0.013994112610816956,-0.024097345769405365
1782845821243719400,3.888719482421875,-0.010015349835157394,-0.004221376497298479,-0.025665149092674255
1782845821253724400,3.898724365234375,-0.008412925526499748,0.000910268456209451,-0.01589241437613964
1782845821263729400,3.9087294921875,-0.0040852888487279415,-0.00032730249222368,-0.002083124592900276
1782845821273734400,3.918734375,-0.0013510215794667602,-0.008213188499212265,0.01684902049601078
1782845821283739400,3.928739501953125,0.0005464806454256177,-0.01900937780737877,0.027572505176067352
1782845821293744400,3.938744384765625,0.008187889121472836,-0.024757010862231255,0.03380723297595978
1782845821303749400,3.948749267578125,0.009110407903790474,-0.022339394316077232,0.02576555125415325
1782845821313754400,3.95875439453125,0.009578058496117592,-0.014212491922080517,0.014209828339517117
1782845821323759400,3.96875927734375,0.011471566744148731,0.000008255799002654385,-0.0026168220210820436
1782845821333764400,3.978764404296875,0.016471384093165398,0.011843875981867313,-0.006196110509335995
1782845821343769600,3.98876953125,0.016381369903683662,0.01612037979066372,0.0019126823171973228
1782845821353774600,3.998774658203125,0.01558481901884079,0.004268780816346407,0.024290159344673157
1782845821363779600,4.008779541015625,0.010523214936256409,-0.004397677723318338,0.04770946502685547
1782845821373784600,4.01878466796875,0.005682386923581362,-0.004718322306871414,0.06145190820097923
1782845821383789600,4.02878955078125,0.006330333650112152,-0.015786953270435333,0.07484201341867447
1782845821393794600,4.038794677734375,0.00603419030085206,-0.02207973599433899,0.07443375140428543
1782845821403799600,4.048799560546875,0.00027510453946888447,-0.0007696535321883857,0.06846188008785248
1782845821413804500,4.058804443359375,-0.003973968792706728,0.01167183555662632,0.057257428765296936
1782845821423809500,4.0688095703125,-0.009411611594259739,0.011589543893933296,0.05251274257898331
1782845821433814500,4.078814453125,-0.010935205966234207,0.004600078333169222,0.04974385350942612
1782845821443819500,4.088819580078125,-0.017527328804135323,-0.003468234557658434,0.05373859405517578
1782845821453824500,4.098824462890625,-0.017681792378425598,-0.00902705080807209,0.04880242794752121
1782845821463829500,4.10882958984375,-0.02099529653787613,-0.006643521599471569,0.046549126505851746
1782845821473834500,4.11883447265625,-0.02303847298026085,-0.004308462142944336,0.033128391951322556
1782845821483839500,4.128839599609375,-0.021749237552285194,0.0003531351685523987,0.023925306275486946
1782845821493844500,4.138844482421875,-0.023755131289362907,0.0036426717415452003,0.019421102479100227
1782845821503849500,4.148849365234375,-0.018613098189234734,0.0018580874893814325,0.015243668109178543
1782845821513854500,4.1588544921875,-0.016804546117782593,-0.003260241821408272,0.017423996701836586
1782845821523859500,4.168859375,-0.012911271303892136,-0.006435795221477747,0.011754926294088364
1782845821533864400,4.178864501953125,-0.009486446157097816,-0.014787734486162663,0.012496350333094597
1782845821543869400,4.188869384765625,-0.004461593925952911,-0.01943734660744667,0.011685684323310852
1782845821553874400,4.19887451171875,-0.0002061286650132388,-0.02166694588959217,0.011473163962364197
1782845821563879400,4.20887939453125,0.005934055428951979,-0.019481023773550987,0.005647499579936266
1782845821573884400,4.218884521484375,0.009299758821725845,-0.012685168534517288,-0.003641340183094144
1782845821583889400,4.228889404296875,0.00999431125819683,-0.0060445768758654594,-0.008192416280508041
1782845821593894400,4.238894287109375,0.012030297890305519,-0.0008157262345775962,-0.020539630204439163
1782845821603899400,4.2488994140625,0.010588196106255054,0.00010945591930067167,-0.019094066694378853
1782845821613904400,4.258904296875,0.011083011515438557,-0.0059873186983168125,-0.019689282402396202
1782845821623909400,4.268909423828125,0.013763482682406902,-0.013965616934001446,-0.019523100927472115
1782845821633914400,4.278914306640625,0.014455371536314487,-0.013862552121281624,-0.021033912897109985
1782845821643919400,4.28891943359375,0.018323879688978195,-0.01194001641124487,-0.023602265864610672
1782845821653924400,4.29892431640625,0.01666180044412613,-0.009334379807114601,-0.025131186470389366
1782845821663929300,4.308929443359375,0.015198926441371441,-0.006738063879311085,-0.02617114968597889
1782845821673934300,4.318934326171875,0.012937636114656925,-0.006165218073874712,-0.024984978139400482
1782845821683939600,4.328939697265625,0.009329053573310375,-0.010994594544172287,-0.02280278317630291
1782845821693944600,4.338944580078125,0.009703227318823338,-0.011648666113615036,-0.02172660082578659
1782845821703949600,4.348949462890625,0.005542304366827011,-0.010656372644007206,-0.019356386736035347
1782845821713954600,4.35895458984375,0.003953728824853897,-0.008025702089071274,-0.018269818276166916
1782845821723959600,4.36895947265625,0.003849865635856986,-0.0065710837952792645,-0.01955532468855381
1782845821733964500,4.378964599609375,0.004041346721351147,-0.005194761790335178,-0.01727219671010971
1782845821743969500,4.388969482421875,0.006247509736567736,-0.004538825247436762,-0.011199924163520336
1782845821753974500,4.398974609375,0.005934588145464659,-0.015028750523924828,-0.007779626175761223
1782845821763979500,4.4089794921875,0.012223643250763416,-0.012290487997233868,-0.0021933794487267733
1782845821773984500,4.418984619140625,0.011576761491596699,-0.008708270266652107,0.0026285399217158556
1782845821783989500,4.428989501953125,0.008723184466362,-0.005059473216533661,0.007683486212044954
1782845821793994500,4.438994384765625,0.011562912724912167,-0.007191600278019905,0.01380902249366045
1782845821803999500,4.44899951171875,0.009969010949134827,-0.0059257997199893,0.011684618890285492
1782845821814004500,4.45900439453125,0.0099021652713418,-0.006478671915829182,0.009554622694849968
1782845821824008400,4.469008544921875,0.009844641201198101,-0.002356098499149084,0.004863731097429991
1782845821834013400,4.479013427734375,0.007149788551032543,-0.0076057217083871365,0.0023965786676853895
1782845821844018400,4.489018310546875,0.007285077124834061,-0.010819890536367893,-0.0013840447645634413
1782845821854023400,4.4990234375,0.0041529336012899876,-0.012528841383755207,-0.006336725316941738
1782845821864028400,4.5090283203125,0.0043321643024683,-0.014036989770829678,-0.01179114542901516
1782845821874033400,4.519033447265625,0.0007315703551284969,-0.014957644045352936,-0.01739976368844509
1782845821884038400,4.529038330078125,-0.0027537085115909576,-0.00842783972620964,-0.02196788229048252
1782845821894043400,4.53904345703125,-0.005036303773522377,-0.005850698333233595,-0.0243103988468647
1782845821904048400,4.54904833984375,-0.007808920927345753,-0.009939982555806637,-0.01889246515929699
1782845821914053400,4.559053466796875,-0.006351372692734003,-0.00803049560636282,-0.014822355471551418
1782845821924058400,4.569058349609375,-0.005645635072141886,-0.0062280683778226376,-0.01374963391572237
1782845821934063400,4.5790634765625,-0.0062850601971149445,-0.008391620591282845,-0.007127418182790279
1782845821944068400,4.589068359375,-0.0037582528311759233,-0.007497863844037056,-0.012732306495308876
1782845821954073300,4.5990732421875,-0.0019169433508068323,-0.007738613523542881,-0.009623332880437374
1782845821964078300,4.609078369140625,-0.00048655952559784055,-0.0021797972731292248,-0.011887285858392715
1782845821974083300,4.619083251953125,-0.001463673310354352,0.003212571144104004,-0.004078364931046963
1782845821984088300,4.62908837890625,0.004108192399144173,0.006714628078043461,0.0005872269975952804
1782845821994093300,4.63909326171875,0.001645567244850099,0.0020671456586569548,0.014071078039705753
1782845822004098300,4.649098388671875,0.00046845004544593394,-0.0038567897863686085,0.023730363696813583
1782845822014103300,4.659103271484375,0.003480485174804926,-0.01074079517275095,0.024770593270659447
1782845822024108300,4.6691083984375,0.0016415724530816078,-0.010894726030528545,0.022290924564003944
1782845822034113300,4.67911328125,-0.0010303769959136844,-0.007254983298480511,0.015438877046108246
1782845822044118500,4.689118408203125,-0.002371811307966709,-0.0030916635878384113,0.0026929883752018213
1782845822054123500,4.69912353515625,-0.004535363521426916,0.004193413536995649,-0.008105597458779812
1782845822064128500,4.70912841796875,-0.009463809430599213,0.005319131538271904,-0.00836765207350254
1782845822074133500,4.719133544921875,-0.011560781858861446,-0.0034117756877094507,-0.01061962079256773
1782845822084138500,4.729138427734375,-0.012041216716170311,-0.011202853173017502,-0.011995144188404083
1782845822094143500,4.7391435546875,-0.012821256183087826,-0.014217818155884743,-0.00890747457742691
1782845822104148500,4.7491484375,-0.010881942696869373,-0.012092349119484425,-0.011394334957003593
1782845822114153500,4.759153564453125,-0.009697102010250092,-0.009277387522161007,-0.00857644435018301
1782845822124158000,4.769157958984375,-0.004884770140051842,-0.01245081052184105,-0.011316570453345776
1782845822134163000,4.779162841796875,-0.0005163869354873896,-0.009195095859467983,-0.014418087899684906
1782845822144168000,4.78916796875,-0.0006255765329115093,-0.006686398293823004,-0.01678909920156002
1782845822154173000,4.7991728515625,0.0017454357584938407,-0.007269097957760096,-0.017737984657287598
1782845822164178000,4.809177978515625,0.00341523764654994,-0.0010612696642056108,-0.01757846027612686
1782845822174183000,4.819182861328125,0.0032527849543839693,0.0033489251509308815,-0.013775999657809734
1782845822184188000,4.82918798828125,0.004927114117890596,-0.0021813951898366213,-0.0035574506036937237
1782845822194193000,4.83919287109375,0.01034718006849289,-0.01038366463035345,0.010742392390966415
1782845822204198000,4.849197998046875,0.019863186404109,-0.0220941174775362,0.01738431677222252
1782845822214203000,4.859202880859375,0.027286747470498085,-0.02419721521437168,0.015907326713204384
1782845822224208000,4.869207763671875,0.030346719548106194,-0.027606327086687088,0.0075905416160821915
1782845822234212900,4.879212890625,0.029046565294265747,-0.021434718742966652,0.002558765234425664
1782845822244217900,4.8892177734375,0.027940021827816963,-0.016653545200824738,-0.007283213082700968
1782845822254222800,4.899222900390625,0.025055019184947014,-0.0219684150069952,-0.002939064521342516
1782845822264227800,4.909227783203125,0.01709935814142227,-0.012309130281209946,-0.006111688446253538
1782845822274232800,4.91923291015625,0.010966364294290543,-0.0013904364313930273,-0.004604871850460768
1782845822284237800,4.92923779296875,0.007425425574183464,-0.01095677725970745,0.005043228156864643
1782845822294242800,4.939242919921875,-0.0001001348573481664,-0.015734488144516945,0.015616243705153465
1782845822304247800,4.949247802734375,-0.000011717908819264267,-0.014035924337804317,0.018729746341705322
1782845822314253000,4.959253173828125,-0.006386526394635439,-0.012544553726911545,0.017489777877926826
1782845822324258000,4.969258056640625,-0.012491556815803051,-0.0012237224727869034,0.009868343360722065
1782845822334263000,4.979262939453125,-0.019809391349554062,0.0060933125205338,0.009063269942998886
1782845822344268000,4.98926806640625,-0.02376951090991497,0.015096128918230534,0.007165767718106508
1782845822354273000,4.99927294921875,-0.026700852438807487,0.01092508528381586,0.00692022405564785
1782845822364278000,5.009278076171875,-0.02346937358379364,0.007296528667211533,0.009214537218213081
1782845822374283000,5.019282958984375,-0.018565693870186806,0.01145851705223322,0.013461213558912277
1782845822384288000,5.0292880859375,-0.017251957207918167,0.008552742190659046,0.017049556598067284
1782845822394293000,5.03929296875,-0.012749883346259594,-0.0023278691805899143,0.016999490559101105
1782845822404298000,5.049298095703125,-0.00806032307446003,-0.011773834936320782,0.014854580163955688
1782845822414302000,5.059302001953125,-0.006343916058540344,-0.01714729517698288,0.013038303703069687
1782845822424307000,5.069306884765625,-0.00436012726277113,-0.018556639552116394,0.0004394215648062527
1782845822434312000,5.07931201171875,0.0027811392210423946,-0.027694478631019592,-0.0064744106493890285
1782845822444317000,5.08931689453125,0.008067513816058636,-0.027952006086707115,-0.00948191899806261
1782845822454322000,5.099322021484375,0.00902678444981575,-0.01985519751906395,-0.020596355199813843
1782845822464327000,5.109326904296875,0.009709618985652924,-0.011421232484281063,-0.02383129671216011
1782845822474332000,5.119331787109375,0.013847372494637966,-0.00914715975522995,-0.02370799332857132
1782845822484337200,5.129337158203125,0.017198961228132248,-0.010613229125738144,-0.01637418009340763
1782845822494342100,5.139342041015625,0.015516108833253384,-0.018669292330741882,-0.009855560027062893
1782845822504347100,5.14934716796875,0.017375528812408447,-0.024354875087738037,-0.008945558220148087
1782845822514352000,5.15935205078125,0.014063620939850807,-0.023365510627627373,-0.0037175065372139215
1782845822524357000,5.169357177734375,0.012094479985535145,-0.019947076216340065,-0.0033902039285749197
1782845822534362000,5.179362060546875,0.010914699174463749,-0.01853133924305439,-0.003953995183110237
1782845822544367000,5.1893671875,0.005591306835412979,-0.012061988934874535,-0.006058158818632364
1782845822554372000,5.1993720703125,0.0008077367674559355,-0.008025702089071274,-0.010153568349778652
1782845822564377000,5.209377197265625,-0.004987568128854036,-0.006695453077554703,-0.007601726800203323
1782845822574382000,5.219382080078125,-0.014455106109380722,-0.00475507415831089,-0.0010894992155954242
1782845822584387000,5.229386962890625,-0.02063603699207306,-0.0054541537538170815,0.012139220722019672
1782845822594392000,5.23939208984375,-0.019886355847120285,-0.005118595436215401,0.018865566700696945
1782845822604397000,5.24939697265625,-0.014211426489055157,-0.005625395104289055,0.021211812272667885
1782845822614402000,5.259402099609375,-0.012942430563271046,-0.006429137196391821,0.020444555208086967
1782845822624407000,5.269406982421875,-0.00751890242099762,-0.01059219054877758,0.012737899087369442
1782845822634412000,5.279412109375,-0.0029411951545625925,-0.0031470574904233217,0.0006159891490824521
1782845822644417000,5.2894169921875,-0.0007475492893718183,0.0008724515791982412,-0.00301682879216969
1782845822654422000,5.299422119140625,0.002171008847653866,-0.0015994944842532277,-0.0037438718136399984
1782845822664427000,5.309427001953125,0.006265086587518454,-0.004252535756677389,-0.004269047174602747
1782845822674432000,5.319431884765625,0.007744738832116127,-0.00749227125197649,-0.003582750679925084
1782845822684437000,5.32943701171875,0.012437760829925537,-0.008619054220616817,0.0023411849979311228
1782845822694442000,5.33944189453125,0.009498430415987968,-0.012858807109296322,0.006156163290143013
1782845822704447000,5.349447021484375,0.012025503441691399,-0.011862518265843391,0.006687730085104704
1782845822714452000,5.359451904296875,0.015306252054870129,-0.006056561134755611,0.0017246630741283298
1782845822724457000,5.36945703125,0.016458069905638695,-0.0077458037994802,-0.007674697786569595
1782845822734462000,5.3794619140625,0.01655633933842182,-0.00577799417078495,-0.01393099594861269
1782845822744467000,5.389467041015625,0.01714569702744484,-0.006201703101396561,-0.02420147694647312
1782845822754472000,5.399471923828125,0.01612943410873413,-0.006454437039792538,-0.028655346482992172
1782845822764477000,5.409476806640625,0.009447298012673855,-0.006966030225157738,-0.028021248057484627
1782845822774482000,5.41948193359375,0.010074472054839134,-0.004349741153419018,-0.030000243335962296
1782845822784487000,5.42948681640625,0.012019378133118153,0.0007502124644815922,-0.026565831154584885
1782845822794492000,5.439491943359375,0.01139832939952612,0.0031225562561303377,-0.020837370306253433
1782845822804497000,5.449496826171875,0.015539011918008327,0.0021342572290450335,-0.014212225563824177
1782845822814502000,5.459501953125,0.01569507271051407,0.0021784657146781683,-0.009923204779624939
1782845822824507000,5.4695068359375,0.015742210671305656,0.008355401456356049,-0.0012397015234455466
1782845822834512000,5.479511962890625,0.01630227454006672,0.006925816647708416,0.0054970309138298035
1782845822844517000,5.48951708984375,0.013546701520681381,0.008536229841411114,0.011738148517906666
1782845822854522000,5.499522216796875,0.011636948212981224,0.005893575493246317,0.01798592507839203
1782845822864527000,5.509527099609375,0.012531504034996033,0.007553257513791323,0.024171914905309677
1782845822874532000,5.519531982421875,0.011038802564144135,0.0123658562079072,0.028331240639090538
1782845822884537000,5.529537109375,0.011358648538589478,0.01570838876068592,0.029142972081899643
1782845822894542000,5.5395419921875,0.012864133343100548,0.014907310716807842,0.031203726306557655
1782845822904547000,5.549547119140625,0.00947872269898653,0.012514193542301655,0.02436685934662819
1782845822914552000,5.559552001953125,0.009580722078680992,0.009363940916955471,0.02346830815076828
1782845822924557000,5.56955712890625,0.011678759939968586,0.009183644317090511,0.008831308223307133
1782845822934562000,5.57956201171875,0.01083001121878624,0.005783054046332836,-0.00038935415796004236
1782845822944566000,5.58956591796875,0.009501359425485134,0.0068901302292943,-0.008324242196977139
1782845822954571000,5.599571044921875,0.008927981369197369,0.007929296232759953,-0.01549613568931818
1782845822964576000,5.609575927734375,0.007976699620485306,0.013490241952240467,-0.017354488372802734
1782845822974581000,5.6195810546875,0.008810269646346569,0.012270781211555004,-0.015474563464522362
1782845822984586000,5.6295859375,0.008772452361881733,0.00959936436265707,-0.005260542035102844
1782845822994591000,5.639591064453125,0.005395564250648022,0.007619037292897701,0.000300404557492584
1782845823004596000,5.649595947265625,-0.0007667240570299327,0.008402273058891296,0.006217415910214186
1782845823014601000,5.65960107421875,-0.004494350403547287,0.009149822406470776,0.008927182294428349
1782845823024606000,5.66960595703125,-0.01005263440310955,0.0054847802966833115,-0.0004921521758660674
1782845823034611000,5.67961083984375,-0.009159409441053867,0.002469549188390374,-0.001802960061468184
1782845823044616000,5.689615966796875,-0.008569519966840744,-0.0025595640763640404,-0.004989698529243469
1782845823054621000,5.699620849609375,-0.0070160976611077785,-0.0007086671539582312,-0.007998005487024784
1782845823064626000,5.7096259765625,-0.005495699122548103,0.004288754425942898,-0.005727394018322229
1782845823074631000,5.719630859375,-0.006798517424613237,0.0029342707712203264,0.0009624664089642465
1782845823084636000,5.729635986328125,-0.00401471508666873,0.007748733274638653,0.004860268905758858
1782845823094641000,5.739640869140625,0.0015251922886818647,0.013873204588890076,0.01501090731471777
1782845823104646000,5.74964599609375,0.0022482406347990036,0.001642637769691646,0.02545768953859806
1782845823114651000,5.75965087890625,0.003930825740098953,-0.007240335922688246,0.0348820835351944
1782845823124656400,5.769656494140625,-0.0016106797847896814,-0.015185876749455929,0.03509566932916641
1782845823134661400,5.779661376953125,-0.004266916774213314,-0.014397581107914448,0.027518177404999733
1782845823144666400,5.789666259765625,-0.009708819910883904,-0.005023520905524492,0.010598315857350826
1782845823154671400,5.79967138671875,-0.014037256129086018,-0.0005880259559489787,0.0033009881153702736
1782845823164676400,5.80967626953125,-0.014965367503464222,0.0015563513152301311,-0.00370126124471426
1782845823174681300,5.819681396484375,-0.01841709017753601,-0.004415787290781736,-0.00546294217929244
1782845823184686300,5.829686279296875,-0.019283415749669075,-0.004166515544056892,-0.007888549007475376
1782845823194691300,5.83969140625,-0.026684608310461044,-0.006308495998382568,-0.005320463329553604
1782845823204696300,5.8496962890625,-0.03261440247297287,-0.011627627536654472,-0.0030836742371320724
1782845823214701300,5.859701416015625,-0.03555532917380333,-0.014337128028273582,0.002635996788740158
1782845823224706300,5.869706298828125,-0.0378565676510334,-0.016892697662115097,-0.0032679650466889143
1782845823234711300,5.879711181640625,-0.04000573977828026,-0.02112872153520584,-0.003552656853571534
1782845823244716300,5.88971630859375,-0.039313316345214844,-0.015408783219754696,-0.005705023650079966
1782845823254721300,5.89972119140625,-0.036861345171928406,-0.0057321880012750626,-0.0010721886064857244
1782845823264726500,5.9097265625,-0.03166897967457771,-0.008321579545736313,0.006835002917796373
1782845823274731500,5.9197314453125,-0.02779700979590416,-0.018325744196772575,0.014420750550925732
1782845823284736500,5.929736572265625,-0.018736137077212334,-0.021135378628969193,0.016027435660362244
1782845823294741500,5.939741455078125,-0.01549373846501112,-0.02088530734181404,0.009999637492001057
1782845823304746500,5.94974658203125,-0.010653975419700146,-0.01290647778660059,-0.006266151554882526
1782845823314751500,5.95975146484375,-0.006926349364221096,-0.0015965650090947747,-0.019537216052412987
1782845823324756500,5.969756591796875,-0.002669020090252161,-0.005366535857319832,-0.033730797469615936
1782845823334761500,5.979761474609375,0.004766792058944702,-0.008196410723030567,-0.0459618978202343
1782845823344766500,5.989766357421875,0.009897105395793915,-0.008941829204559326,-0.048950765281915665
1782845823354771500,5.999771484375,0.014347780495882034,-0.013854030519723892,-0.04736378788948059
1782845823364776400,6.0097763671875,0.017915351316332817,-0.013177587650716305,-0.03990933299064636
1782845823374781400,6.019781494140625,0.01695980876684189,-0.014385863207280636,-0.03428740054368973
1782845823384786400,6.029786376953125,0.014674816280603409,-0.013372530229389668,-0.03328738361597061
1782845823394791400,6.03979150390625,0.012538428418338299,-0.012484099715948105,-0.031183751299977303
1782845823404796400,6.04979638671875,0.01176211703568697,-0.0029968551825731993,-0.02684652805328369
1782845823414801400,6.059801513671875,0.008407332934439182,0.003734284546226263,-0.021505026146769524
1782845823424806400,6.069806396484375,0.002192314248532057,0.008330367505550385,-0.008830775506794453
1782845823434811600,6.079811767578125,-0.0013286510948091745,0.009765278548002243,-0.005225121974945068
1782845823444815400,6.0898154296875,-0.0037116475868970156,0.009678992442786694,0.004999552387744188
1782845823454820400,6.0998203125,-0.004038949962705374,0.00469621829688549,0.010231864638626575
1782845823464825300,6.109825439453125,-0.00732395937666297,0.003224289044737816,0.01224494818598032
1782845823474830300,6.119830322265625,-0.004253068007528782,0.004066114313900471,0.009270730428397655
1782845823484835300,6.12983544921875,-0.0060946443118155,0.0025241440162062645,0.008428905159235
1782845823494840300,6.13984033203125,-0.004879443906247616,0.004193679895251989,0.011955728754401207
1782845823504845300,6.14984521484375,-0.0006343649583868682,0.0031963258516043425,0.014990401454269886
1782845823514850300,6.159850341796875,0.0017952368361875415,-0.00310524576343596,0.020487964153289795
1782845823524855300,6.169855224609375,0.005939648021012545,-0.00014860439114272594,0.01678803563117981
1782845823534860300,6.1798603515625,0.009740245528519154,0.003870904678478837,0.012539493851363659
1782845823544865300,6.189865234375,0.011887019500136375,0.008099472150206566,0.011152786202728748
1782845823554870300,6.199870361328125,0.01444312185049057,0.007638478651642799,0.006199839059263468
1782845823564875300,6.209875244140625,0.022164424881339073,0.0034964641090482473,0.0009925601771101356
1782845823574880300,6.21988037109375,0.02713601291179657,-0.0015744607662782073,-0.008045676164329052
1782845823584885200,6.22988525390625,0.03098827600479126,-0.0049252500757575035,-0.014034858904778957
1782845823594890200,6.23989013671875,0.028747757896780968,-0.004716458264738321,-0.017970478162169456
1782845823604895500,6.2498955078125,0.025845978409051895,-0.002543052425608039,-0.021984394639730453
1782845823614900500,6.259900390625,0.026977289468050003,-0.0038272286765277386,-0.015984825789928436
1782845823624905500,6.269905517578125,0.01998782344162464,-0.004820321686565876,-0.017040235921740532
1782845823634910500,6.279910400390625,0.018796591088175774,0.000007456851108145202,-0.016831178218126297
1782845823644915500,6.28991552734375,0.017407219856977463,0.0007251787465065718,-0.014574681408703327
1782845823654920700,6.299920654296875,0.012771721929311752,-0.0009888317435979843,-0.015270299278199673
1782845823664925700,6.30992578125,0.00954157393425703,-0.0015638081822544336,-0.01575659215450287
1782845823674930700,6.3199306640625,0.004795287735760212,-0.005989449098706245,-0.019710853695869446
1782845823684935700,6.329935791015625,-0.00041571943438611925,-0.007455253042280674,-0.018916433677077293
1782845823694940700,6.339940673828125,-0.0057281930930912495,-0.0027454528026282787,-0.01449638418853283
1782845823704945700,6.349945556640625,-0.007215834688395262,0.004767058417201042,-0.00726403808221221
1782845823714950700,6.35995068359375,-0.011477691121399403,0.0035979305393993855,0.003907123580574989
1782845823724955600,6.36995556640625,-0.012327772565186024,0.00030652983696199954,0.015686817467212677
1782845823734960600,6.379960693359375,-0.008687498047947884,-0.003790477057918906,0.024766333401203156
1782845823744965600,6.389965576171875,-0.00765845226123929,-0.0019632822368294,0.019847208634018898
1782845823754970600,6.399970703125,-0.007683219853788614,-0.0016192019684240222,0.018304971978068352
1782845823764975600,6.4099755859375,-0.01025556679815054,-0.007607053499668837,0.017560617998242378
1782845823774980600,6.419980712890625,-0.008642490021884441,-0.009288040921092033,0.01398905273526907
1782845823784985600,6.429985595703125,-0.007844873704016209,-0.010194048285484314,0.007876831106841564
1782845823794990600,6.439990478515625,-0.004340420011430979,-0.008760201744735241,-0.0013696637470275164
1782845823804995600,6.44999560546875,-0.0029614351224154234,-0.006432066671550274,-0.003963849041610956
1782845823815000600,6.46000048828125,-0.0043960800394415855,-0.006733802612870932,-0.003906058380380273
1782845823825005600,6.470005615234375,0.001683916780166328,-0.003935352899134159,0.0007014766451902688
1782845823835010600,6.480010498046875,0.006521282717585564,-0.005329251755028963,-0.0005986785981804132
1782845823845015600,6.490015625,0.01350622158497572,-0.01098367478698492,-0.0014114753575995564
1782845823855020500,6.5000205078125,0.022522352635860443,-0.013655357994139194,-0.002951315138489008
1782845823865025500,6.510025634765625,0.028564799576997757,-0.009195362217724323,-0.0033156354911625385
1782845823875030500,6.520030517578125,0.030461503192782402,-0.010352506302297115,-0.009100021794438362
1782845823885035500,6.530035400390625,0.03339044749736786,-0.010207097046077251,-0.013583986088633537
1782845823895039500,6.54003955078125,0.03295954689383507,-0.015157913789153099,-0.017111875116825104
1782845823905044500,6.55004443359375,0.02991528809070587,-0.013074522837996483,-0.02137000299990177
1782845823915049500,6.560049560546875,0.028019117191433907,-0.011968512088060379,-0.030302245169878006
1782845823925054500,6.570054443359375,0.022955648601055145,-0.01139859575778246,-0.026882214471697807
1782845823935059500,6.5800595703125,0.016454340890049934,-0.014187724329531193,-0.03344317898154259
1782845823945064400,6.590064453125,0.011152519844472408,0.004032292403280735,-0.03358512371778488
1782845823955069400,6.6000693359375,0.011727762408554554,0.004030427895486355,-0.032774459570646286
1782845823965074400,6.610074462890625,0.014668424613773823,-0.00014940333494450897,-0.021336713805794716
1782845823975079400,6.620079345703125,0.015608254820108414,0.00025060345069505274,-0.008107727393507957
1782845823985084400,6.63008447265625,0.01932469569146633,-0.0023134879302233458,0.003950000274926424
1782845823995089400,6.64008935546875,0.025551432743668556,-0.00427304208278656,0.017483118921518326
1782845824005094700,6.6500947265625,0.025348499417304993,-0.006277603097259998,0.02371651493012905
1782845824015099600,6.660099609375,0.023632891476154327,-0.003596598980948329,0.022609172388911247
1782845824025104600,6.670104736328125,0.021832594648003578,-0.004545216914266348,0.014808773063123226
1782845824035109600,6.680109619140625,0.01756168343126774,0.002538258908316493,0.0104739461094141
1782845824045114600,6.690114501953125,0.012293151579797268,0.0036967338528484106,0.010156497359275818
1782845824055119600,6.70011962890625,0.007023022044450045,0.005691175349056721,0.007164702285081148
1782845824065124600,6.71012451171875,-0.001032241270877421,0.005858688149601221,0.009191101416945457
1782845824075129600,6.720129638671875,-0.0035321505274623632,0.0015675366157665849,0.010431068949401379
1782845824085134600,6.730134521484375,-0.0005882922559976578,-0.00458622956648469,0.012190885841846466
1782845824095139600,6.7401396484375,-0.0006958839949220419,-0.008856874890625477,0.008347677998244762
1782845824105144600,6.75014453125,-0.0017291904659941792,-0.012106197886168957,0.007247526664286852
1782845824115149600,6.760149658203125,-0.004479170776903629,-0.012715795077383518,-0.0000876179983606562
1782845824125154000,6.770154052734375,-0.005481051746755838,-0.004055195488035679,-0.005701827816665173
1782845824135159000,6.780158935546875,-0.006991330534219742,0.0008434231276623905,-0.004604605492204428
1782845824145164000,6.7901640625,-0.011035607196390629,-0.0005038700764998794,-0.006159891374409199
1782845824155169000,6.8001689453125,-0.012345083057880402,-0.0007627293234691024,-0.0035686357878148556
1782845824165174000,6.810174072265625,-0.013185842894017696,0.002799248555675149,0.003290868131443858
1782845824175179000,6.820178955078125,-0.01605912670493126,0.002715625334531069,0.007644071243703365
1782845824185184000,6.83018408203125,-0.013437511399388313,-0.005900233518332243,0.010133327916264534
1782845824195189000,6.84018896484375,-0.010469685308635235,-0.009975402615964413,0.008187889121472836
1782845824205194000,6.850194091796875,-0.007158044259995222,-0.007732754573225975,0.0037143107037991285
1782845824215199000,6.860198974609375,-0.00800413079559803,-0.0019212043844163418,0.0010106696281582117
1782845824225204000,6.870203857421875,-0.011040400713682175,0.0027808728627860546,0.0015507587231695652
1782845824235209000,6.880208984375,-0.011438010260462761,0.005053880624473095,0.0022887205705046654
1782845824245214000,6.8902138671875,-0.012172776274383068,0.002240517409518361,0.003043460426852107
1782845824255219000,6.900218994140625,-0.00754899624735117,-0.0022509037517011166,0.008981777355074883
1782845824265224000,6.910223876953125,-0.005918076727539301,-0.0026069683954119682,0.010072607547044754
1782845824275229000,6.92022900390625,-0.004456267226487398,0.00006072007090551779,0.016558203846216202
1782845824285234000,6.93023388671875,-0.0060240705497562885,-0.0002817624481394887,0.018262093886733055
1782845824295239000,6.940239013671875,-0.0041670482605695724,-0.001008539111353457,0.017657024785876274
1782845824305243100,6.9502431640625,-0.0014836470363661647,-0.003453587181866169,0.015062838792800903
1782845824315248000,6.960248046875,0.004796619527041912,-0.010946124792098999,0.012322979047894478
1782845824325253000,6.970253173828125,0.008287491276860237,-0.009670737199485302,0.009733587503433228
1782845824335258000,6.980258056640625,0.011231082491576672,-0.005013400688767433,0.006625944748520851
1782845824345263000,6.99026318359375,0.01260873582214117,-0.00024740767548792064,-0.0013225257862359285
1782845824355268000,7.00026806640625,0.014083062298595905,0.005976133514195681,-0.008915997110307217
1782845824365273000,7.010273193359375,0.011746138334274292,0.006615292280912399,-0.013102752156555653
1782845824375278000,7.020278076171875,0.010143181309103966,-0.0002822950773406774,-0.016744891181588173
1782845824385283000,7.030282958984375,0.01008246187120676,-0.007951400242745876,-0.020187294110655785
1782845824395288000,7.0402880859375,0.010241718962788582,-0.00803076196461916,-0.02104909159243107
1782845824405293000,7.05029296875,0.011403655633330345,-0.010573548264801502,-0.02172313816845417
1782845824415298000,7.060298095703125,0.009415339678525925,-0.012864133343100548,-0.02274898812174797
1782845824425303000,7.070302978515625,0.012386628426611423,-0.01158794667571783,-0.017842646688222885
1782845824435308000,7.08030810546875,0.009892045520246029,-0.00845633540302515,-0.01395762711763382
1782845824445313000,7.09031298828125,0.007229683455079794,-0.0032237565610557795,-0.008260859176516533
1782845824455318000,7.100318115234375,0.002620816696435213,-0.005124188028275967,-0.008472314104437828
1782845824465323000,7.110322998046875,0.001198688754811883,-0.0035414716694504023,-0.002692455891519785
1782845824475328000,7.120327880859375,-0.005323392804712057,0.004475175868719816,0.0008042746339924634
1782845824485333000,7.1303330078125,-0.007457916159182787,0.01044411864131689,0.005565740168094635
1782845824495338000,7.140337890625,-0.012089951895177364,0.004893558565527201,0.009831058792769909
1782845824505343000,7.150343017578125,-0.007592672016471624,-0.004180896561592817,0.015669507905840874
1782845824515348000,7.160347900390625,-0.00501073757186532,-0.0071039823815226555,0.016051936894655228
1782845824525353000,7.17035302734375,-0.002475142013281584,-0.007631021551787853,0.007510113995522261
1782845824535358000,7.18035791015625,-0.002379800658673048,-0.005218996666371822,-0.001463673310354352
1782845824545363000,7.190363037109375,-0.005537777207791805,0.005132710561156273,-0.012426309287548065
1782845824555368000,7.200367919921875,-0.0002561961009632796,0.010357566177845001,-0.01483194250613451
1782845824565373000,7.210373046875,-0.001041295938193798,0.008500809781253338,-0.010704842396080494
1782845824575378000,7.2203779296875,0.00029640982393175364,0.005693572107702494,-0.006500243674963713
1782845824585383000,7.2303828125,0.004510595928877592,0.0023001721128821373,0.00021278657368384302
1782845824595388200,7.24038818359375,0.0075665730983018875,0.00022796659322921187,0.006452306639403105
1782845824605393200,7.25039306640625,0.01315255369991064,-0.004700745455920696,0.003564374754205346
1782845824615398100,7.260398193359375,0.013978133909404278,-0.009126652963459492,0.0014974954538047314
1782845824625403100,7.270403076171875,0.01835503801703453,-0.012042547576129436,-0.0035803536884486675
1782845824635408100,7.280408203125,0.016939302906394005,-0.00310524576343596,-0.017194699496030807
1782845824645413000,7.2904130859375,0.013882792554795742,-0.005333778914064169,-0.02213512919843197
1782845824655418000,7.300418212890625,0.00782436691224575,-0.0013366405619308352,-0.024703215807676315
1782845824665423000,7.310423095703125,-0.0016338493442162871,-0.001216798322275281,-0.023420637473464012
1782845824675428000,7.320427978515625,-0.006161223165690899,0.0020506340079009533,-0.02238493412733078
1782845824685433000,7.33043310546875,-0.012617258355021477,-0.0019382486352697015,-0.013616476207971573
1782845824695438000,7.34043798828125,-0.019703930243849754,-0.00632021389901638,-0.005381449591368437
1782845824705442000,7.350442138671875,-0.02190050482749939,-0.00893676932901144,0.00583685003221035
1782845824715447000,7.360447021484375,-0.023548202589154243,-0.010970093309879303,0.005795571021735668
1782845824725452000,7.3704521484375,-0.017077520489692688,-0.01435497123748064,0.008782572112977505
1782845824735457000,7.38045703125,-0.017376061528921127,-0.012945625931024551,0.009791111573576927
1782845824745462000,7.3904619140625,-0.016029566526412964,-0.008569253608584404,0.0037593182642012835
1782845824755467000,7.400467041015625,-0.012766129337251186,0.0033422671258449554,0.005339637864381075
1782845824765472300,7.41047216796875,-0.01173149049282074,0.010230532847344875,0.0026181535795331
1782845824775477200,7.420477294921875,-0.007389472797513008,0.00956767238676548,0.011826032772660255
1782845824785482200,7.430482177734375,-0.00410419749096036,0.004947354551404715,0.016413593664765358
1782845824795487200,7.4404873046875,0.002416286151856184,0.00047617321251891553,0.025060879066586494
1782845824805492200,7.4504921875,0.006015814375132322,0.0012000204296782613,0.02388269640505314
1782845824815497200,7.460497314453125,0.011232680641114712,-0.0032495891209691763,0.017019197344779968
1782845824825502200,7.470502197265625,0.014814100228250027,-0.008606270886957645,0.007568171247839928
1782845824835507200,7.480507080078125,0.021046429872512817,-0.006365221459418535,-0.005212871357798576
1782845824845512200,7.49051220703125,0.019597936421632767,0.0046690539456903934,-0.020412331447005272
1782845824855517200,7.50051708984375,0.02412957139313221,0.0073537868447601795,-0.029748041182756424
1782845824865522200,7.510522216796875,0.02100435085594654,0.003525758860632777,-0.030362432822585106
1782845824875527200,7.520527099609375,0.019531089812517166,0.0018628811230883002,-0.027773840352892876
1782845824885532200,7.5305322265625,0.02015906386077404,0.0023758059833198786,-0.021327126771211624
1782845824895537200,7.540537109375,0.01284602377563715,-0.0020865867845714092,-0.014088122174143791
1782845824905542100,7.550542236328125,0.011425759643316269,-0.0017411747248843312,-0.015357118099927902
1782845824915547100,7.560547119140625,0.005536978133022785,-0.0040855552069842815,-0.007672300562262535
1782845824925552000,7.57055224609375,0.0017536915838718414,-0.00544456671923399,-0.009674198925495148
1782845824935557000,7.58055712890625,0.002493251347914338,-0.00634924229234457,-0.008077899925410748
1782845824945562000,7.59056201171875,0.0011105381418019533,-0.004403803031891584,-0.010918693616986275
1782845824955567000,7.600567138671875,-0.0024746092967689037,-0.0019912454299628735,-0.011110175400972366
1782845824965572000,7.610572021484375,-0.0013707289472222328,0.004405667539685965,-0.011597267352044582
1782845824975577000,7.6205771484375,-0.0007872303831391037,0.006375873927026987,-0.007405984681099653
1782845824985582000,7.63058203125,0.0002162486780434847,0.010241984389722347,-0.001639441936276853
1782845824995587000,7.640587158203125,0.001261539408005774,0.009017197415232658,0.004734567832201719
1782845825005592000,7.650592041015625,0.0016892430139705539,0.0007619303651154041,0.011070228181779385
1782845825015597000,7.66059716796875,0.0046357642859220505,-0.0020596887916326523,0.01215759664773941
1782845825025602000,7.67060205078125,0.007375091779977083,-0.001582982949912548,0.012458533979952335
1782845825035607000,7.68060693359375,0.006875216495245695,-0.0016905746888369322,0.009825199842453003
1782845825045612000,7.690612060546875,0.006228334736078978,-0.00443869037553668,0.006200371775776148
1782845825055617000,7.700616943359375,0.00689119566231966,-0.00148151651956141,-0.0006631271098740399
1782845825065621200,7.710621337890625,0.004013117402791977,0.0057463026605546474,-0.003736148588359356
1782845825075626200,7.720626220703125,0.001404018490575254,0.00421232171356678,-0.006798517424613237
1782845825085631200,7.73063134765625,-0.003984888084232807,0.0031638352666050196,-0.01107688620686531
1782845825095636200,7.74063623046875,-0.0018660769565030932,0.004163319710642099,-0.014905446209013462
1782845825105641200,7.75064111328125,-0.005005411338061094,0.004419249482452869,-0.01852894388139248
1782845825115646200,7.760646240234375,-0.004608067683875561,0.005550027824938297,-0.014883342199027538
1782845825125651500,7.7706513671875,-0.0018154769204556942,0.011602859944105148,-0.011786884628236294
1782845825135656400,7.780656494140625,0.003368099918588996,0.007288006599992514,-0.007680290378630161
1782845825145661400,7.790661376953125,0.0071095749735832214,0.0068179587833583355,0.0006567355012521148
1782845825155666400,7.80066650390625,0.011023356579244137,0.0036844832357019186,0.010057427920401096
1782845825165671400,7.81067138671875,0.015851667150855064,0.00392842898145318,0.012455071322619915
1782845825175676400,7.820676513671875,0.016151539981365204,0.007831291295588017,0.016022376716136932
1782845825185681400,7.830681396484375,0.013931527733802795,0.009299226105213165,0.012488627806305885
1782845825195686400,7.840686279296875,0.009942645207047462,0.009696302935481071,0.013051619753241539
1782845825205691400,7.85069140625,0.007779093459248543,0.010987670160830021,0.009829195216298103
1782845825215696400,7.8606962890625,0.005684517323970795,0.0080925477668643,0.004458131734281778
1782845825225701400,7.870701416015625,0.006771353539079428,0.00355798308737576,-0.0014303837670013309
1782845825235706400,7.880706298828125,0.006179332733154297,-0.0008884305134415627,-0.0026490462478250265
1782845825245711400,7.89071142578125,0.008494684472680092,-0.004503138829022646,-0.00515827676281333
1782845825255716400,7.90071630859375,0.0038333539851009846,-0.0010578075889497995,-0.016454873606562614
1782845825265721300,7.910721435546875,0.0016695356462150812,0.00449994346126914,-0.022494923323392868
1782845825275726300,7.920726318359375,-0.0033965955954045057,0.01073759887367487,-0.028615666553378105
1782845825285731300,7.9307314453125,-0.0031185615807771683,0.012938701547682285,-0.02598419599235058
1782845825295736300,7.940736328125,-0.007511179428547621,0.007421164773404598,-0.02046053297817707
1782845825305741300,7.9507412109375,-0.009155947715044022,0.005283711478114128,-0.014785337261855602
1782845825315746300,7.960746337890625,-0.011560249142348766,-0.0016519587952643633,-0.00469488650560379
1782845825325751300,7.970751220703125,-0.01001907791942358,-0.00643659383058548,0.0011819108622148633
1782845825335756300,7.98075634765625,-0.014932343736290932,-0.000761664065066725,0.0046482812613248825
1782845825345761300,7.99076123046875,-0.010191917419433594,0.0005187837523408234,0.004003796260803938
1782845825355766300,8.000766357421876,-0.007847003638744354,-0.0014426343841478229,0.011294200085103512
1782845825365771300,8.010771240234375,-0.007634483743458986,-0.007537544704973698,0.013390639796853065
1782845825375776300,8.0207763671875,-0.004166249185800552,-0.005106078926473856,0.01555392611771822
1782845825385781200,8.03078125,-0.005600627511739731,0.0011973571963608265,0.017064470797777176
1782845825395786200,8.0407861328125,-0.0031289479229599237,0.006680805701762438,0.019246399402618408
1782845825405791200,8.050791259765624,0.0001155811914941296,0.006431800313293934,0.02020859904587269
1782845825415795200,8.060795166015625,0.0018255969043821096,-0.0021427792962640524,0.022550050169229507
1782845825425800400,8.070800537109376,0.008082427084445953,-0.004957474302500486,0.015024223364889622
1782845825435805400,8.080805419921875,0.011640943586826324,-0.008568454533815384,0.001743305241689086
1782845825445810400,8.090810546875,0.016887370496988297,-0.0017805894603952765,-0.010624947026371956
1782845825455815400,8.1008154296875,0.016447149217128754,-0.0005659217131324112,-0.0260451827198267
1782845825465820400,8.1108203125,0.019350528717041016,-0.0015763250412419438,-0.0353689081966877
1782845825475825400,8.120825439453125,0.019096462056040764,-0.0022088258992880583,-0.034697260707616806
1782845825485830400,8.130830322265625,0.018700184300541878,-0.0016053534345701337,-0.03157150745391846
1782845825495835400,8.14083544921875,0.017489777877926826,-0.0031699605751782656,-0.02485661394894123
1782845825505840400,8.15084033203125,0.019575033336877823,-0.005622998345643282,-0.01847354881465435
1782845825515845400,8.160845458984374,0.017074324190616608,-0.004604871850460768,-0.01341434195637703
1782845825525850400,8.170850341796875,0.015992281958460808,-0.01071256585419178,-0.0067545752972364426
1782845825535855400,8.18085546875,0.014945393428206444,-0.010932276025414467,-0.006117014680057764
1782845825545860400,8.1908603515625,0.013406353071331978,-0.0072840116918087006,-0.008834238164126873
1782845825555865300,8.200865234375,0.010388459078967571,-0.009239304810762405,-0.0109842075034976
1782845825565870300,8.210870361328125,0.011832158081233501,-0.006475209724158049,-0.014346715062856674
1782845825575875300,8.220875244140625,0.010451842099428177,-0.004222974646836519,-0.0161771047860384
1782845825585880300,8.23088037109375,0.00814980547875166,-0.0033547841012477875,-0.015382418408989906
1782845825595885300,8.24088525390625,0.006881608162075281,-0.0031960594933480024,-0.009011338464915752
1782845825605890300,8.250890380859374,0.007541006896644831,-0.0025126924738287926,-0.00481366366147995
1782845825615895300,8.260895263671875,0.007523962762206793,-0.004087686073035002,-0.0025449167005717754
1782845825625900300,8.270900390625,0.006700247060507536,-0.0007443535141646862,0.00018322547839488834
1782845825635905300,8.2809052734375,0.005605421494692564,-0.0046757119707763195,0.0035060516092926264
1782845825645910300,8.29091015625,0.007556453347206116,-0.0070829433389008045,0.011635350994765759
1782845825655915300,8.300915283203125,0.0027712853625416756,-0.011409780941903591,0.008856874890625477
1782845825665920300,8.310920166015626,0.009465141221880913,-0.0070706927217543125,0.003856523660942912
1782845825675925200,8.32092529296875,0.007385211996734142,-0.004192081745713949,-0.001059139147400856
1782845825685930200,8.33093017578125,0.006717823911458254,-0.0013006879016757011,-0.003300189273431897
1782845825695935200,8.340935302734374,0.002016811864450574,-0.0024104269687086344,-0.005428853910416365
1782845825705940200,8.350940185546875,0.000758734589908272,0.000036218989407643676,0.0014679343439638615
1782845825715945200,8.3609453125,-0.0031403994653373957,-0.000031158982892520726,0.002822417998686433
1782845825725950200,8.3709501953125,-0.0034796863328665495,-0.0022889869287610054,0.0075516593642532825
1782845825735955200,8.380955078125,-0.006773217581212521,-0.0031220237724483013,0.017104685306549072
1782845825745959200,8.390959228515625,-0.007803061977028847,-0.001621066126972437,0.017904432490468025
1782845825755964200,8.400964111328125,-0.002508697798475623,-0.004413124173879623,0.01721493899822235
1782845825765969200,8.41096923828125,-0.003224022686481476,0.0003296993381809443,0.015382684767246246
1782845825775974400,8.420974365234375,0.002915628720074892,-0.0024620923213660717,0.01101350225508213
1782845825785979400,8.4309794921875,0.00569969741627574,-0.0005853627808392048,0.006118878722190857
1782845825795984400,8.440984375,0.010246778838336468,0.0009824400767683983,0.009576194919645786
1782845825805989400,8.4509892578125,0.007233145646750927,0.0003981425834354013,0.014599182642996311
1782845825815994400,8.460994384765625,0.005892243701964617,0.0033068470656871796,0.01570439524948597
1782845825825999400,8.470999267578126,0.0009896307019516826,0.007691475562751293,0.015739548951387405
1782845825836004400,8.48100439453125,-0.0005406216951087117,0.009460879489779472,0.01534513384103775
1782845825846009300,8.49100927734375,-0.004304999951273203,0.007667773403227329,0.020195815712213516
1782845825856014300,8.501014404296875,-0.004266117699444294,0.009807090274989605,0.02780712954699993
1782845825866019300,8.511019287109375,-0.0034224283881485462,0.011662781238555908,0.025378860533237457
1782845825876024300,8.5210244140625,-0.0004367584188003093,0.007500260602682829,0.035300999879837036
1782845825886029300,8.531029296875,-0.00023409185814671218,-0.001499625970609486,0.036488503217697144
1782845825896034300,8.541034423828124,0.0030751521699130535,-0.00070493872044608,0.0347643718123436
1782845825906039300,8.551039306640625,0.0031848743092268705,-0.005708752200007439,0.02701830118894577
1782845825916044300,8.561044189453124,-0.0009555422002449632,-0.008669921196997166,0.01751321367919445
1782845825926049300,8.57104931640625,-0.002180063631385565,-0.005613943561911583,0.009399360977113247
1782845825936054300,8.58105419921875,-0.004159324802458286,0.0022066952660679817,0.0023435817565768957
1782845825946059300,8.591059326171875,-0.0010104032699018717,0.00049108691746369,-0.0018897791160270572
1782845825956064300,8.601064208984376,-0.0022066952660679817,0.00155262288171798,0.0033076461404561996
1782845825966069200,8.6110693359375,0.0021965752821415663,-0.002156361471861601,0.007193464320152998
1782845825976074200,8.62107421875,0.0008210525847971439,-0.003035471076145768,0.011589810252189636
1782845825986079200,8.631079345703125,0.0054094125516712666,-0.004542287439107895,0.01714596338570118
1782845825996084200,8.641084228515625,0.0021755362395197153,-0.005988916382193565,0.0224459208548069
1782845826006089200,8.651089111328124,0.005771868862211704,0.012460397556424141,0.038789741694927216
1782845826016094200,8.66109423828125,-0.0000031957933970261365,0.011331483721733093,0.06634040921926498
1782845826026099200,8.67109912109375,0.002257561543956399,0.030186664313077927,0.02869263105094433
1782845826036104200,8.681104248046875,0.007700263988226652,0.01954467222094536,-0.013491041027009487
1782845826046109200,8.691109130859376,0.027097398415207863,-0.014237791299819946,-0.035705000162124634
1782845826056114200,8.7011142578125,0.04326491430401802,-0.033721476793289185,-0.04747191071510315
1782845826066119200,8.711119140625,0.041620947420597076,-0.04663754254579544,-0.04175996407866478
1782845826076123100,8.721123046875,0.04562314599752426,-0.03951278701424599,-0.027224963530898094
1782845826086128000,8.731128173828125,0.0430406779050827,-0.016634104773402214,-0.01654568687081337
1782845826096133000,8.741133056640624,0.04421939328312874,-0.0014325142838060856,-0.018915634602308273
1782845826106138000,8.75113818359375,0.042451053857803345,0.003352387109771371,-0.028200745582580566
