time,seconds_elapsed,z,y,x
1782845817434318300,0.079318359375,0.01635502651333809,-0.017128273844718933,-0.04365987330675125
1782845817444323300,0.0893232421875,0.014867282472550869,-0.020460231229662895,-0.043541308492422104
1782845817454328300,0.099328369140625,0.010225126519799232,-0.016860969364643097,-0.03386790677905083
1782845817464333300,0.109333251953125,0.006421782076358795,-0.014669356867671013,-0.02419496327638626
1782845817474338300,0.11933837890625,0.002566589741036296,-0.0067991833202540874,-0.021869758144021034
1782845817484343300,0.12934326171875,-0.004726561717689037,-0.004833674058318138,-0.01786721497774124
1782845817494348300,0.139348388671875,-0.010521067306399345,0.0014154332457110286,-0.00907079316675663
1782845817504353300,0.149353271484375,-0.02161245606839657,-0.004316460341215134,0.00757440272718668
1782845817514358300,0.159358154296875,-0.029067976400256157,-0.007148199714720249,0.017320239916443825
1782845817524363300,0.16936328125,-0.034754469990730286,-0.007869748398661613,0.02822623774409294
1782845817534368300,0.1793681640625,-0.040177199989557266,-0.009679101407527924,0.03700162097811699
1782845817544373200,0.189373291015625,-0.04283740371465683,-0.013646898791193962,0.04375666379928589
1782845817554378200,0.199378173828125,-0.051355525851249695,-0.015402719378471375,0.04440940544009209
1782845817564383200,0.20938330078125,-0.0499708354473114,-0.008044308051466942,0.03581157326698303
1782845817574388200,0.21938818359375,-0.05045952647924423,0.0012996590230613947,0.028588810935616493
1782845817584393200,0.229393310546875,-0.045657187700271606,0.007763272617012262,0.016865191981196404
1782845817594398200,0.239398193359375,-0.04489206150174141,0.009374218992888927,0.015557048842310905
1782845817604403200,0.2494033203125,-0.04118775576353073,0.0033033760264515877,0.01794475130736828
1782845817614408200,0.259408203125,-0.033803608268499374,0.000132350018247962,0.018652087077498436
1782845817624413200,0.2694130859375,-0.02577485516667366,-0.009853999130427837,0.019176824018359184
1782845817634418200,0.279418212890625,-0.017667127773165703,-0.01486207265406847,0.020017316564917564
1782845817644423200,0.289423095703125,-0.008283140137791634,-0.01578338071703911,0.011684773489832878
1782845817654428200,0.29942822265625,-0.0031022271141409874,-0.012172666378319263,0.00525323860347271
1782845817664433200,0.30943310546875,0.0021726537961512804,-0.00815151073038578,-0.00425766920670867
1782845817674438100,0.319438232421875,0.0031926447991281748,-0.009255658835172653,-0.010692132636904716
1782845817684443100,0.329443115234375,0.002039144979789853,-0.009008953347802162,-0.016075635328888893
1782845817694448000,0.3394482421875,0.0006915852427482605,-0.0062366025522351265,-0.01750362291932106
1782845817704453000,0.349453125,-0.0025886427611112595,-0.0025912905111908913,-0.01718640886247158
1782845817714458400,0.359458251953125,-0.0018333701882511377,0.000046304427087306976,-0.020175807178020477
1782845817724462300,0.36946240234375,0.0006279901135712862,-0.005292803049087524,-0.018189456313848495
1782845817734467300,0.37946728515625,0.002525492338463664,-0.011142702773213387,-0.013261809945106506
1782845817744472300,0.389472412109375,0.003792739240452647,-0.02091001346707344,-0.007656474132090807
1782845817754477300,0.399477294921875,0.005239368416368961,-0.0248754620552063,-0.008308948948979378
1782845817764482300,0.409482421875,0.0004126550629734993,-0.014465962536633015,-0.009654376655817032
1782845817774487300,0.4194873046875,0.00013914844021201134,-0.0021139555610716343,-0.008653027936816216
1782845817784492300,0.4294921875,-0.00207120249979198,0.00368575775064528,-0.006518818903714418
1782845817794497300,0.439497314453125,-0.006389518268406391,0.004499619826674461,-0.003771501826122403
1782845817804502300,0.449502197265625,-0.002308998256921768,0.004469837993383408,0.003462646622210741
1782845817814507300,0.45950732421875,-0.0035023607779294252,0.0025787274353206158,0.012026574462652206
1782845817824512300,0.46951220703125,-0.003931032959371805,0.004342199303209782,0.011304213665425777
1782845817834517200,0.479517333984375,0.000580628402531147,0.006326520349830389,0.007057537324726582
1782845817844522200,0.489522216796875,0.005240754224359989,0.0011491905897855759,0.00711947213858366
1782845817854527200,0.49952734375,0.006453291513025761,-0.004742254503071308,-0.0011115598026663065
1782845817864532200,0.5095322265625,0.013262171298265457,-0.0016642184928059578,-0.0048263403587043285
1782845817874537200,0.519537109375,0.013237403705716133,-0.0009299847297370434,-0.011007270775735378
1782845817884542500,0.52954248046875,0.011044484563171864,0.002262998139485717,-0.010485777631402016
1782845817894547500,0.53954736328125,0.008068935014307499,0.005870250053703785,-0.007441783789545298
1782845817904552400,0.549552490234375,0.005890414118766785,0.014217686839401722,-0.00542916264384985
1782845817914557400,0.559557373046875,0.004178267903625965,0.017048893496394157,0.001972028287127614
1782845817924562400,0.5695625,0.001558220013976097,0.016964010894298553,0.009566040709614754
1782845817934567400,0.5795673828125,-0.003179277293384075,0.014733878895640373,0.013323760591447353
1782845817944572400,0.589572509765625,-0.006922725588083267,0.009213462471961975,0.018055006861686707
1782845817954577400,0.599577392578125,-0.009398933500051498,-0.0027641039341688156,0.021312052384018898
1782845817964582400,0.60958251953125,-0.014360014349222183,-0.006702946498990059,0.020220249891281128
1782845817974587400,0.61958740234375,-0.018443970009684563,-0.004071743693202734,0.01943887770175934
1782845817984592400,0.62959228515625,-0.025365229696035385,0.0042769284918904305,0.016468381509184837
1782845817994597400,0.639597412109375,-0.03063349612057209,0.006861526519060135,0.01569207012653351
1782845818004602400,0.649602294921875,-0.03270778805017471,0.006822596304118633,0.014188410714268684
1782845818014607400,0.659607421875,-0.031089652329683304,0.004981819540262222,0.009626680985093117
1782845818024612400,0.6696123046875,-0.030261101201176643,0.0040680402889847755,0.006100084632635117
1782845818034617300,0.679617431640625,-0.02674759365618229,0.01014590635895729,0.00008134078234434128
1782845818044622300,0.689622314453125,-0.020342042669653893,0.016497112810611725,-0.004510302096605301
1782845818054627300,0.69962744140625,-0.017275679856538773,0.015730921179056168,-0.0037965746596455574
1782845818064632300,0.70963232421875,-0.011344347149133682,0.00712985172867775,0.0036925163585692644
1782845818074637300,0.71963720703125,-0.006439337506890297,0.0010168312583118677,0.014084969647228718
1782845818084642300,0.729642333984375,-0.0037669397424906492,0.000815326813608408,0.013413664884865284
1782845818094647300,0.739647216796875,-0.0003610230050981045,0.003826296655461192,0.01937195472419262
1782845818104652300,0.74965234375,-0.0009746698196977377,0.009869299829006195,0.017940044403076172
1782845818114657300,0.7596572265625,-0.007395018823444843,0.01255030557513237,0.011708781123161316
1782845818124663300,0.769663330078125,-0.012607666663825512,0.02264772728085518,0.005170492455363274
1782845818134668300,0.779668212890625,-0.017350222915410995,0.0278914924710989,0.0060365526005625725
1782845818144673300,0.78967333984375,-0.022417377680540085,0.022501206025481224,0.008288748562335968
1782845818154678300,0.79967822265625,-0.020974209532141685,0.008800040930509567,0.009417396038770676
1782845818164683300,0.809683349609375,-0.02241254225373268,-0.0029168501496315002,0.013868831098079681
1782845818174688300,0.819688232421875,-0.02379605546593666,-0.007225045934319496,0.016043834388256073
1782845818184693200,0.829693359375,-0.0230117104947567,-0.0055297259241342545,0.01563633233308792
1782845818194698200,0.8396982421875,-0.028544960543513298,-0.00003402656875550747,0.017898153513669968
1782845818204703200,0.849703125,-0.03165442496538162,0.00915622804313898,0.017714889720082283
1782845818214708200,0.859708251953125,-0.03182566538453102,0.00972401350736618,0.017250699922442436
1782845818224713200,0.869713134765625,-0.03332069143652916,0.010118575766682625,0.004769749008119106
1782845818234718200,0.87971826171875,-0.036362819373607635,0.009633081033825874,-0.00023779255570843816
1782845818244723200,0.88972314453125,-0.04154917970299721,0.012085869908332825,-0.002601053100079298
1782845818254728200,0.899728271484375,-0.04108579084277153,0.008457313291728497,-0.008789174258708954
1782845818264733400,0.9097333984375,-0.0396643728017807,0.004873816389590502,-0.010239286348223686
1782845818274738400,0.919738525390625,-0.03362139314413071,0.0014966619201004505,-0.013965846970677376
1782845818284743400,0.929743408203125,-0.026302792131900787,0.003335912013426423,-0.011630247347056866
1782845818294748400,0.93974853515625,-0.018296528607606888,0.0044019753113389015,-0.004128388594835997
1782845818304753400,0.94975341796875,-0.01702042669057846,0.005467602983117104,0.002926136599853635
1782845818314758400,0.95975830078125,-0.01181794237345457,0.008076967671513557,0.006891051307320595
1782845818324763400,0.969763427734375,-0.007972924038767815,0.011144954711198807,0.006773410364985466
1782845818334768400,0.979768310546875,-0.0045843180269002914,0.014910131692886353,0.007518296130001545
1782845818344773400,0.9897734375,0.0021491877268999815,0.009456582367420197,0.0004026033857371658
1782845818354778400,0.9997783203125,0.0014586301986128092,0.008109021931886673,-0.0016312528168782592
1782845818364783400,1.009783447265625,0.0010705406311899424,0.0036745951510965824,-0.002467382699251175
1782845818374788400,1.019788330078125,0.0034277045633643866,-0.0003952477127313614,-0.0038591506890952587
1782845818384793300,1.02979345703125,-0.0016988259740173817,0.0008462925907224417,-0.0012277518399059772
1782845818394798300,1.03979833984375,-0.0063247368671,-0.0006056628189980984,-0.0008229512604884803
1782845818404803300,1.04980322265625,-0.007201407104730606,-0.003040639217942953,0.0010718486737459898
1782845818414808300,1.059808349609375,-0.010217969305813313,-0.0030089477077126503,-0.0037545980885624886
1782845818424813300,1.069813232421875,-0.01184475515037775,0.0011153684463351965,-0.006897010840475559
1782845818434818300,1.079818359375,-0.018392935395240784,0.008616960607469082,-0.006195800378918648
1782845818444823300,1.0898232421875,-0.023785443976521492,0.012077061459422112,-0.004736505448818207
1782845818454828300,1.099828369140625,-0.025140458717942238,0.003820728976279497,0.00412036944180727
1782845818464833300,1.109833251953125,-0.024547766894102097,-0.00415342953056097,0.013075098395347595
1782845818474838300,1.11983837890625,-0.022175155580043793,-0.008473875932395458,0.01713588647544384
1782845818484843300,1.12984326171875,-0.02165951393544674,-0.017259404063224792,0.013846279121935368
1782845818494848300,1.13984814453125,-0.026208726689219475,-0.013994100503623486,0.011925607919692993
1782845818504853200,1.149853271484375,-0.02960914745926857,-0.008850663900375366,0.010019693523645401
1782845818514858200,1.159858154296875,-0.031377218663692474,0.002591873286291957,0.004633184056729078
1782845818524862200,1.1698623046875,-0.033122509717941284,0.010546497069299221,0.009705612435936928
1782845818534868200,1.1798681640625,-0.037290625274181366,0.011372077278792858,0.022741787135601044
1782845818544872200,1.1898720703125,-0.03888750448822975,0.010582081973552704,0.034918010234832764
1782845818554877200,1.199877197265625,-0.03759560361504555,0.006754852831363678,0.0474119633436203
1782845818564882200,1.209882080078125,-0.03760591894388199,0.005867368541657925,0.05137230455875397
1782845818574887200,1.21988720703125,-0.03413448855280876,0.006828236859291792,0.052267126739025116
1782845818584892200,1.22989208984375,-0.03228745609521866,-0.0003691003657877445,0.04946163669228554
1782845818594897200,1.239897216796875,-0.021933887153863907,0.003542284481227398,0.033556971698999405
1782845818604902100,1.249902099609375,-0.018598252907395363,0.005122117232531309,0.019009655341506004
1782845818614907400,1.259907470703125,-0.0124748470261693,0.008327764458954334,0.003765721106901765
1782845818624912400,1.269912353515625,-0.00776253454387188,0.013114096596837044,-0.0020496423821896315
1782845818634917400,1.27991748046875,-0.005375277251005173,0.018249735236167908,-0.006388997193425894
1782845818644922400,1.28992236328125,-0.0005146751645952463,0.02000981755554676,-0.006437037140130997
1782845818654927400,1.29992724609375,0.0009143771603703499,0.019063062965869904,0.001216088654473424
1782845818664932400,1.309932373046875,0.0008124380838125944,0.011927247047424316,0.005798043217509985
1782845818674937300,1.319937255859375,0.004048178903758526,0.011138951405882835,0.0050875116139650345
1782845818684942300,1.3299423828125,0.011811711825430393,0.00503781670704484,0.002626303816214204
1782845818694947300,1.339947265625,0.01609061099588871,-0.004854495637118816,-0.0027586077339947224
1782845818704952300,1.349952392578125,0.020774174481630325,-0.011626792140305042,-0.007564132567495108
1782845818714957300,1.359957275390625,0.024817384779453278,-0.008459494449198246,-0.014253727160394192
1782845818724962300,1.36996240234375,0.025556636974215508,-0.004681752063333988,-0.017399147152900696
1782845818734967300,1.37996728515625,0.029629675671458244,0.005651312880218029,-0.02525946870446205
1782845818744972300,1.38997216796875,0.03206360340118408,0.007010587491095066,-0.02496369555592537
1782845818754977300,1.399977294921875,0.033822353929281235,0.008200488053262234,-0.023317063227295876
1782845818764982300,1.409982177734375,0.03310965746641159,0.006835549138486385,-0.0182803962379694
1782845818774987300,1.4199873046875,0.03359594941139221,0.004244293551892042,-0.01215352676808834
1782845818784992300,1.4299921875,0.037210892885923386,0.00022325781174004078,-0.01327364519238472
1782845818794997200,1.439997314453125,0.044905032962560654,-0.008195793256163597,-0.011929547414183617
1782845818805002200,1.450002197265625,0.04436042904853821,-0.010665053501725197,-0.013608702458441257
1782845818815007200,1.46000732421875,0.04347865656018257,-0.006046599708497524,-0.011858206242322922
1782845818825012200,1.47001220703125,0.03460828587412834,-0.0017419622745364904,-0.013400521129369736
1782845818835017200,1.480017333984375,0.027938663959503174,0.00548878638073802,-0.017903661355376244
1782845818845022200,1.490022216796875,0.018399391323328018,0.009689996019005775,-0.018971744924783707
1782845818855027200,1.500027099609375,0.006729951594024897,0.010578692890703678,-0.01749182678759098
1782845818865032200,1.5100322265625,0.000020256731659173965,0.009017692878842354,-0.018684538081288338
1782845818875037200,1.520037109375,-0.005379036068916321,0.007036833558231592,-0.020526913926005363
1782845818885042200,1.530042236328125,-0.010593323968350887,0.011144855991005898,-0.01753317564725876
1782845818895047200,1.540047119140625,-0.009815680794417858,0.007837476208806038,-0.013749090023338795
1782845818905052400,1.550052490234375,-0.00871000811457634,0.0017054008785635233,0.0006336223450489342
1782845818915057400,1.560057373046875,-0.004570923745632172,-0.0030227755196392536,0.01503519807010889
1782845818925062400,1.5700625,-0.0013190044555813074,-0.0035271754022687674,0.021240733563899994
1782845818935067400,1.5800673828125,0.00037343427538871765,0.0019488162361085415,0.026562795042991638
1782845818945072400,1.590072265625,-0.0019803219474852085,0.005265009589493275,0.024137258529663086
1782845818955077400,1.600077392578125,-0.00780998170375824,0.005697506945580244,0.02108953706920147
1782845818965082400,1.610082275390625,-0.010196875780820847,0.010307897813618183,0.006753365509212017
1782845818975087400,1.62008740234375,-0.013032077811658382,0.0147780142724514,-0.004776524379849434
1782845818985092400,1.63009228515625,-0.0148033881559968,0.007726544514298439,-0.016643531620502472
1782845818995097300,1.640097412109375,-0.0147445322945714,-0.0005742625799030066,-0.02035224810242653
1782845819005102300,1.650102294921875,-0.012846944853663445,-0.004640473052859306,-0.023178473114967346
1782845819015107300,1.660107421875,-0.011049844324588776,-0.006354483775794506,-0.025568660348653793
1782845819025112300,1.6701123046875,-0.0066908784210681915,-0.004057433921843767,-0.016949230805039406
1782845819035117300,1.680117431640625,-0.003668989986181259,-0.004248116165399551,-0.01480538584291935
1782845819045122300,1.690122314453125,-0.0007189154857769608,0.0016108819982036948,-0.008403847925364971
1782845819055127300,1.700127197265625,0.0008470232132822275,0.0067033786326646805,-0.001124630100093782
1782845819065132300,1.71013232421875,-0.0005037684459239244,0.0027471836656332016,0.005201009102165699
1782845819075137300,1.72013720703125,0.003374593099579215,-0.0015375763177871704,0.01218994241207838
1782845819085142300,1.730142333984375,0.0029422773513942957,-0.004214489366859198,0.016973324120044708
1782845819095147300,1.740147216796875,0.002544134622439742,-0.012350979261100292,0.016933908686041832
1782845819105152300,1.75015234375,0.000489027937874198,-0.011903060600161552,0.01760016195476055
1782845819115157200,1.7601572265625,0.0005113983061164618,-0.01278696395456791,0.012071704491972923
1782845819125162200,1.770162353515625,-0.003186764195561409,-0.007396652363240719,0.004981148988008499
1782845819135167200,1.780167236328125,-0.007717067375779152,-0.004895145073533058,-0.005262434016913176
1782845819145172200,1.790172119140625,-0.00734289363026619,0.007327432744204998,-0.01159702893346548
1782845819155177200,1.80017724609375,-0.014439684338867664,0.012402086518704891,-0.013564838096499443
1782845819165182200,1.81018212890625,-0.014918733388185501,0.008970843628048897,-0.006496081594377756
1782845819175187200,1.820187255859375,-0.012949592433869839,0.003490857547149062,-0.0051237549632787704
1782845819185192200,1.830192138671875,-0.013781998306512833,-0.0021993257105350494,-0.002351248636841774
1782845819195197200,1.840197265625,-0.012420324608683586,-0.006860657129436731,0.0023889117874205112
1782845819205202200,1.8502021484375,-0.01229038741439581,-0.008183494210243225,0.00448222178965807
1782845819215207200,1.860207275390625,-0.012554572895169258,-0.011155316606163979,0.004361580591648817
1782845819225212200,1.870212158203125,-0.006953188218176365,-0.007596752606332302,0.002617249032482505
1782845819235217200,1.880217041015625,-0.005108948796987534,-0.0014360614586621523,-0.0027450257912278175
1782845819245222100,1.89022216796875,-0.003550915280357003,0.007418585941195488,-0.004837282933294773
1782845819255227100,1.90022705078125,-0.0021295861806720495,0.009388526901602745,-0.0028660111129283905
1782845819265232100,1.910232177734375,-0.0017207663040608168,0.006784533616155386,-0.0014106589369475842
1782845819275237000,1.920237060546875,0.0010145662818104029,0.002970354398712516,0.004534581676125526
1782845819285242000,1.9302421875,0.0029186776373535395,0.00015237205661833286,0.003687292104586959
1782845819295247000,1.9402470703125,0.0069959769025444984,0.0014951378107070923,-0.00008534197695553303
1782845819305252000,1.950252197265625,0.009027781896293163,-0.0016447086818516254,-0.005487165413796902
1782845819315257000,1.960257080078125,0.01661219820380211,-0.00627887574955821,-0.009273115545511246
1782845819325262000,1.970261962890625,0.018039314076304436,-0.009751783683896065,-0.013271274045109749
1782845819335267000,1.98026708984375,0.01679295301437378,-0.008328057825565338,-0.009894918650388718
1782845819345272000,1.99027197265625,0.015102270059287548,-0.002998223528265953,-0.007314705289900303
1782845819355277300,2.00027734375,0.009624946862459183,-0.0015827533788979053,-0.00007223821012303233
1782845819365282300,2.0102822265625,0.00628378801047802,0.0005298841279000044,0.003213797230273485
1782845819375287300,2.020287353515625,0.006635857746005058,-0.004098690114915371,0.0068282391875982285
1782845819385292300,2.030292236328125,0.003382582450285554,-0.009676994755864143,0.003471285803243518
1782845819395297300,2.04029736328125,-0.0026215142570436,-0.008369382470846176,0.0033423886634409428
1782845819405302300,2.05030224609375,-0.004617444239556789,-0.010162539780139923,-0.003779845777899027
1782845819415307300,2.060307373046875,-0.005077372305095196,-0.010462678037583828,-0.004019264131784439
1782845819425312300,2.070312255859375,-0.010256530717015266,-0.0085707176476717,-0.009240780957043171
1782845819435317200,2.080317138671875,-0.01319346483796835,-0.010146243497729301,-0.009353166446089745
1782845819445322200,2.090322265625,-0.011895760893821716,-0.008187197148799896,-0.011426366865634918
1782845819455326200,2.100326171875,-0.014420703053474426,-0.00494746258482337,-0.012249017134308815
1782845819465331200,2.110331298828125,-0.011596004478633404,0.0023295264691114426,-0.0030482427682727575
1782845819475336200,2.120336181640625,-0.010501178912818432,0.0012733169132843614,0.002409106818959117
1782845819485341200,2.130341064453125,-0.0052149007096886635,0.007156845647841692,0.004461449105292559
1782845819495346200,2.14034619140625,0.0032662025187164545,0.007842076942324638,0.010040504857897758
1782845819505351200,2.15035107421875,0.0078054750338196754,-0.0012762234546244144,0.01855044811964035
1782845819515356200,2.160356201171875,0.01225215569138527,-0.013545938767492771,0.03106064721941948
1782845819525361400,2.170361328125,0.01505912747234106,-0.011275860480964184,0.03153682127594948
1782845819535366400,2.180366455078125,0.01150194276124239,-0.0017654462717473507,0.02522486262023449
1782845819545371400,2.190371337890625,0.0060083745047450066,0.002960865618661046,0.00949197169393301
1782845819555376400,2.20037646484375,0.004324191249907017,0.014754141680896282,-0.002055494114756584
1782845819565381400,2.21038134765625,0.00022988999262452126,0.016591941937804222,-0.01163811981678009
1782845819575386400,2.220386474609375,-0.0011309853289276361,0.012084008194506168,-0.0118418512865901
1782845819585391400,2.230391357421875,-0.0013775393599644303,0.007736106403172016,-0.00880645215511322
1782845819595396400,2.240396240234375,0.0025783199816942215,0.002278490224853158,-0.0023205892648547888
1782845819605401300,2.2504013671875,0.005215539131313562,-0.008437220938503742,0.0051182946190238
1782845819615406300,2.26040625,0.005503693595528603,-0.013479383662343025,0.008225138299167156
1782845819625411300,2.270411376953125,0.008410056121647358,-0.014037075452506542,0.005830619018524885
1782845819635416300,2.280416259765625,0.010431927628815174,-0.008991716429591179,0.001808979781344533
1782845819645421300,2.29042138671875,0.007095912471413612,0.0004727474879473448,-0.007210997398942709
1782845819655426300,2.30042626953125,0.005156598519533873,0.007980731315910816,-0.012378595769405365
1782845819665431300,2.310431396484375,0.0044736070558428764,0.017281237989664078,-0.013983558863401413
1782845819675436300,2.320436279296875,0.008203097619116306,0.013517126441001892,-0.00939573161303997
1782845819685441300,2.330441162109375,0.007688089739531279,0.0091824010014534,-0.003918124362826347
1782845819695446300,2.3404462890625,0.0080135278403759,-0.003748045302927494,0.008633353747427464
1782845819705451300,2.350451171875,0.010516573674976826,-0.013210381381213665,0.010262690484523773
1782845819715456300,2.360456298828125,0.011915798299014568,-0.01608552783727646,0.009893043898046017
1782845819725461200,2.370461181640625,0.015963125973939896,-0.01123460941016674,0.0013704854063689709
1782845819735466200,2.38046630859375,0.018799126148223877,0.0032303500920534134,-0.0033084223978221416
1782845819745471200,2.39047119140625,0.010611491277813911,0.012131409719586372,-0.0037784366868436337
1782845819755476200,2.400476318359375,0.007925959303975105,0.01903885044157505,-0.0032724360935389996
1782845819765481200,2.410481201171875,0.003547710832208395,0.019853223115205765,-0.00017168460180982947
1782845819775486200,2.420486328125,-0.0026851515285670757,0.012371604330837727,0.010784294456243515
1782845819785491200,2.4304912109375,-0.006174988113343716,0.0014796130126342177,0.01582193560898304
1782845819795496200,2.44049609375,-0.013215852901339531,0.0009911891538649797,0.018388424068689346
1782845819805501200,2.450501220703125,-0.01547095738351345,-0.0023118050303310156,0.0185609832406044
1782845819815506200,2.460506103515625,-0.018753036856651306,-0.007198705337941647,0.012652227655053139
1782845819825511200,2.47051123046875,-0.022404655814170837,0.0032826466485857964,0.002347782487049699
1782845819835516200,2.48051611328125,-0.02061554417014122,0.011562148109078407,-0.008656931109726429
1782845819845521200,2.490521240234375,-0.020661022514104843,0.015766071155667305,-0.00890648365020752
1782845819855526100,2.500526123046875,-0.019714800640940666,0.01736796274781227,-0.009040439501404762
1782845819865531100,2.51053125,-0.02182224579155445,0.011332005262374878,-0.00008841243106871843
1782845819875536100,2.5205361328125,-0.01899822987616062,0.011173280887305737,0.0020831292495131493
1782845819885541000,2.530541015625,-0.01571420207619667,0.008360353298485279,0.00399866234511137
1782845819895546000,2.540546142578125,-0.014836156740784645,0.006806931458413601,0.007089527323842049
1782845819905551000,2.550551025390625,-0.014544667676091194,0.004140985663980246,0.008756782859563828
1782845819915556000,2.56055615234375,-0.00916907750070095,0.004523415584117174,0.012881486676633358
1782845819925561000,2.57056103515625,-0.00340301264077425,0.009145839139819145,0.011285384185612202
1782845819935566000,2.580566162109375,-0.0009776719380170107,0.00664885900914669,0.01259858813136816
1782845819945571000,2.590571044921875,0.0010962041560560465,0.005422620568424463,0.010274134576320648
1782845819955576000,2.600576171875,-0.001109425793401897,0.0027336266357451677,0.008129492402076721
1782845819965581000,2.6105810546875,-0.004361284896731377,0.005241647362709045,0.002584939356893301
1782845819975586000,2.6205859375,-0.006707795895636082,0.007959669455885887,-0.0030425863806158304
1782845819985591300,2.63059130859375,-0.011168493889272213,0.0007983557879924774,-0.007536247838288546
1782845819995596300,2.64059619140625,-0.01187476422637701,-0.00037236977368593216,-0.01621655561029911
1782845820005601300,2.650601318359375,-0.014456994831562042,0.0012682087253779173,-0.022909337654709816
1782845820015606300,2.660606201171875,-0.01426098681986332,0.0009438355918973684,-0.025309111922979355
1782845820025611300,2.670611328125,-0.010965857654809952,0.001847446197643876,-0.02557968907058239
1782845820035616300,2.6806162109375,-0.004587320610880852,0.00406000018119812,-0.025547465309500694
1782845820045621200,2.690621337890625,-0.0013253961224108934,-0.002588943811133504,-0.024677222594618797
1782845820055626200,2.700626220703125,0.0014024798292666674,-0.004555155523121357,-0.02385537140071392
1782845820065631200,2.71063134765625,0.00042890035547316074,-0.002217019908130169,-0.023198949173092842
1782845820075636200,2.72063623046875,0.0005950815975666046,0.011208508163690567,-0.02437846176326275
1782845820085641200,2.73064111328125,-0.004902318120002747,0.013915268704295158,-0.020498715341091156
1782845820095646200,2.740646240234375,-0.007853899151086807,0.020270103588700294,-0.015464277006685734
1782845820105651200,2.750651123046875,-0.008210860192775726,0.022153031080961227,-0.009042751975357533
1782845820115656200,2.76065625,-0.005148757249116898,0.026120075955986977,0.007154326885938644
1782845820125660400,2.770660400390625,0.005325050093233585,0.019676148891448975,0.020655371248722076
1782845820135665400,2.78066552734375,0.011085467413067818,0.017019111663103104,0.03195223584771156
1782845820145670400,2.79067041015625,0.015480287373065948,0.019337009638547897,0.0344984345138073
1782845820155675400,2.80067529296875,0.01940791681408882,0.014368881471455097,0.03855443000793457
1782845820165680400,2.810680419921875,0.02050403133034706,0.010969936847686768,0.033933088183403015
1782845820175685400,2.820685302734375,0.016623273491859436,0.009658063761889935,0.017377546057105064
1782845820185690400,2.8306904296875,0.012726997025310993,0.010026497766375542,0.00559470197185874
1782845820195695400,2.8406953125,0.0060587078332901,0.014134956523776054,-0.004106394946575165
1782845820205700400,2.850700439453125,-2.4959444999694824e-7,0.015278251841664314,-0.009902498684823513
1782845820215705300,2.860705322265625,-0.008926100097596645,0.0123288007453084,-0.013474596664309502
1782845820225710300,2.87071044921875,-0.012691356241703033,0.01029812078922987,-0.01649315468966961
1782845820235715300,2.88071533203125,-0.020525312051177025,0.0041997479274868965,-0.012991897761821747
1782845820245720300,2.89072021484375,-0.022559313103556633,-0.0037673928309231997,-0.007009013090282679
1782845820255725300,2.900725341796875,-0.026418499648571014,-0.011274045333266258,-0.006157866679131985
1782845820265730300,2.910730224609375,-0.025985663756728172,-0.010152973234653473,-0.004912086296826601
1782845820275735300,2.9207353515625,-0.027205923572182655,-0.004780312068760395,-0.005683071445673704
1782845820285740300,2.930740234375,-0.0263289175927639,0.0011631101369857788,-0.00428204657509923
1782845820295745300,2.940745361328125,-0.021002065390348434,0.005224164575338364,0.0018759809900075197
1782845820305750300,2.950750244140625,-0.01579727977514267,0.007128664292395115,0.011795034632086754
1782845820315755300,2.96075537109375,-0.00926987174898386,0.0024968949146568775,0.023162737488746643
1782845820325760300,2.97076025390625,-0.005403912626206875,-0.0038314759731292725,0.028738511726260185
1782845820335765200,2.98076513671875,0.0002094984520226717,-0.013030033558607101,0.030838148668408394
1782845820345770200,2.990770263671875,0.006499570328742266,-0.012561952695250511,0.022555699571967125
1782845820355775200,3.000775146484375,0.006199432071298361,-0.006834291387349367,0.01388524565845728
1782845820365780500,3.010780517578125,0.011273020878434181,-0.0016845366917550564,-0.0041203866712749004
1782845820375784400,3.020784423828125,0.009976061061024666,0.00023027602583169937,-0.00951515231281519
1782845820385790500,3.03079052734375,0.010764501988887787,-0.004432358779013157,-0.014570986852049828
1782845820395794400,3.04079443359375,0.011982099153101444,-0.009669198654592037,-0.0189252570271492
1782845820405800400,3.050800537109375,0.011447572149336338,-0.01341912429779768,-0.021650727838277817
1782845820415804400,3.060804443359375,0.011878471821546555,-0.01456055510789156,-0.026455337181687355
1782845820425809400,3.070809326171875,0.009713630191981792,-0.014423451386392117,-0.033042971044778824
1782845820435814400,3.080814453125,0.009096575900912285,-0.013498534448444843,-0.0387280210852623
1782845820445819400,3.0908193359375,0.010840153321623802,-0.011529776267707348,-0.04134345427155495
1782845820455824400,3.100824462890625,0.008999376557767391,-0.010381953790783882,-0.03235049545764923
1782845820465829400,3.110829345703125,0.008499452844262123,-0.013169053010642529,-0.01920781098306179
1782845820475834400,3.12083447265625,0.0031435696873813868,-0.007982813753187656,-0.00981457531452179
1782845820485839400,3.13083935546875,0.0029665420297533274,-0.006447088439017534,-0.004521322436630726
1782845820495844400,3.14084423828125,-0.001106229959987104,-0.001990288496017456,0.003796794917434454
1782845820505849300,3.150849365234375,-0.002951395232230425,0.00023599248379468918,0.01316085271537304
1782845820515854300,3.160854248046875,-0.005706701427698135,-0.00025349645875394344,0.02008693479001522
1782845820525859300,3.170859375,-0.005699680186808109,-0.0014434698969125748,0.01998882181942463
1782845820535864300,3.1808642578125,-0.00952211581170559,-0.002433100715279579,0.024662936106324196
1782845820545869300,3.190869384765625,-0.007015421520918608,-0.0034894549753516912,0.021130135282874107
1782845820555874300,3.200874267578125,-0.0068130213767290115,-0.003956573083996773,0.018895477056503296
1782845820565879300,3.21087939453125,-0.006138581782579422,-0.007292593829333782,0.013177553191781044
1782845820575884300,3.22088427734375,-0.006937529891729355,-0.01230439729988575,0.014965865761041641
1782845820585889300,3.23088916015625,-0.007379898801445961,-0.009521831758320332,0.006426680367439985
1782845820595894300,3.240894287109375,-0.00547920074313879,-0.0060922130942344666,-0.0018131404649466276
1782845820605899300,3.250899169921875,-0.009164689108729362,-0.0015386161394417286,-0.01564321666955948
1782845820615904300,3.260904296875,-0.009586000815033913,-0.000008097616955637932,-0.016533777117729187
1782845820625909200,3.2709091796875,-0.007220975123345852,0.0044267429038882256,-0.01614297367632389
1782845820635914200,3.280914306640625,-0.010123021900653839,0.004478940740227699,-0.011457142420113087
1782845820645919200,3.290919189453125,-0.007590173743665218,-0.0016382434405386448,-0.0053941113874316216
1782845820655924200,3.30092431640625,-0.004822350572794676,-0.013216601684689522,0.00026989984326064587
1782845820665929200,3.31092919921875,-0.0050590755417943,-0.018500916659832,-0.0006566211814060807
1782845820675934200,3.320934326171875,-0.006638596765697002,-0.01838720217347145,-0.004741111304610968
1782845820685939500,3.330939453125,-0.00839366763830185,-0.0057151829823851585,-0.0134528623893857
1782845820695944400,3.3409443359375,-0.012714380398392677,0.006608861498534679,-0.01679246686398983
1782845820705949400,3.350949462890625,-0.015148237347602844,0.012260504998266697,-0.020834822207689285
1782845820715954400,3.360954345703125,-0.014235039241611958,0.017379898577928543,-0.015513293445110321
1782845820725959400,3.37095947265625,-0.015233499929308891,0.009319357573986053,0.0025845239870250225
1782845820735964400,3.38096435546875,-0.01245529018342495,0.001113625941798091,0.019094524905085564
1782845820745969400,3.390969482421875,-0.008555654436349869,-0.003361478913575411,0.0339757464826107
1782845820755974700,3.400974609375,-0.006187571678310633,-0.012467625550925732,0.04213593527674675
1782845820765979600,3.410979736328125,-0.0028257365338504314,-0.015199907124042511,0.038019102066755295
1782845820775984600,3.420984619140625,0.0005839085206389427,-0.009455468505620956,0.025682276114821434
1782845820785989600,3.43098974609375,0.004710350185632706,-0.0052083805203437805,0.01280174870043993
1782845820795994600,3.44099462890625,0.006358313374221325,-0.002505272626876831,-0.002651776187121868
1782845820805999600,3.45099951171875,0.013072887435555458,0.0006223693490028381,-0.015345396474003792
1782845820816004600,3.461004638671875,0.011298689991235733,0.005312728695571423,-0.027933092787861824
1782845820826009600,3.471009521484375,0.0136251300573349,0.0072569092735648155,-0.031339697539806366
1782845820836014600,3.4810146484375,0.01323657389730215,0.007908318191766739,-0.030386287719011307
1782845820846019600,3.49101953125,0.014188654720783234,0.004240613430738449,-0.023818399757146835
1782845820856024600,3.501024658203125,0.007436742074787617,-0.0005703873466700315,-0.013605974614620209
1782845820866029600,3.511029541015625,0.010278068482875824,-0.0028159646317362785,-0.0025924728251993656
1782845820876034600,3.52103466796875,0.007410643622279167,-0.008682109415531158,0.009117180481553078
1782845820886039600,3.53103955078125,0.012911094352602959,-0.0063485996797680855,0.012188110500574112
1782845820896044500,3.54104443359375,0.012062078341841698,-0.0079358434304595,0.010662917047739029
1782845820906049500,3.551049560546875,0.014211109839379787,-0.004992129746824503,0.007011340465396643
1782845820916054500,3.561054443359375,0.015236693434417248,-0.0014152382500469685,0.0021582618355751038
1782845820926059500,3.5710595703125,0.013417135924100876,0.0006709119770675898,0.0011801610235124826
1782845820936064500,3.581064453125,0.01233083289116621,-0.0001381563488394022,-0.00457492982968688
1782845820946069500,3.591069580078125,0.009101387113332748,0.0010693944059312344,-0.008284337818622589
1782845820956074500,3.601074462890625,0.008823885582387447,0.0060673486441373825,-0.013989094644784927
1782845820966079500,3.61107958984375,0.005406978540122509,0.004158248193562031,-0.013279847800731659
1782845820976084500,3.62108447265625,0.0050429245457053185,0.001953683327883482,-0.012094475328922272
1782845820986089500,3.63108935546875,0.006219061091542244,-0.006932050455361605,-0.004491761326789856
1782845820996094500,3.641094482421875,0.008457981050014496,-0.007018336560577154,-0.0014251312240958214
1782845821006099500,3.651099365234375,0.007192670367658138,-0.009414867497980595,-0.003068262478336692
1782845821016104400,3.6611044921875,0.009031049907207489,-0.010235919617116451,0.003279648255556822
1782845821026109400,3.671109375,0.0064919376745820045,-0.007830260321497917,-0.005817905534058809
1782845821036114400,3.681114501953125,0.003953678533434868,-0.0017468021251261234,-0.012664892710745335
1782845821046119400,3.691119384765625,-0.001646428368985653,0.005040774121880531,-0.01662258431315422
1782845821056124400,3.70112451171875,0.0007496175821870565,0.0073702409863471985,-0.01727426052093506
1782845821066129400,3.71112939453125,0.0014130952768027782,0.003692053258419037,-0.010308309458196163
1782845821076134400,3.721134521484375,0.005613433197140694,0.00046616606414318085,-0.0016477094031870365
1782845821086139400,3.731139404296875,0.009602891281247139,-0.009698103182017803,0.004317998420447111
1782845821096144400,3.741144287109375,0.00948384776711464,-0.01992996782064438,0.00859636627137661
1782845821106149400,3.7511494140625,0.01411455124616623,-0.022380609065294266,-0.0009007318876683712
1782845821116154400,3.761154296875,0.009696101769804955,-0.0163261778652668,-0.0062369080260396
1782845821126160400,3.771160400390625,0.009060217067599297,-0.011825948022305965,-0.012913851998746395
1782845821136165400,3.781165283203125,0.004770131316035986,-0.007179264910519123,-0.020519839599728584
1782845821146170400,3.79117041015625,0.0007548835128545761,-0.004452187567949295,-0.02392948605120182
1782845821156175400,3.80117529296875,-0.003005499951541424,-0.004571763798594475,-0.020328359678387642
1782845821166179300,3.811179443359375,-0.005206432659178972,-0.008373087272047997,-0.012500151991844177
1782845821176184300,3.821184326171875,-0.0062711648643016815,-0.016906920820474625,-0.005701635032892227
1782845821186189300,3.831189208984375,-0.011274795979261398,-0.026221228763461113,0.0012857787078246474
1782845821196194300,3.8411943359375,-0.013466311618685722,-0.028291039168834686,0.000980846700258553
1782845821206199300,3.85119921875,-0.01631288044154644,-0.028943076729774475,-0.007577299606055021
1782845821216204300,3.861204345703125,-0.014611652120947838,-0.02825518324971199,-0.014046117663383484
1782845821226209300,3.871209228515625,-0.014374262653291225,-0.015471932478249073,-0.023143265396356583
1782845821236214300,3.88121435546875,-0.0175548754632473,-0.0077519603073596954,-0.023889483883976936
1782845821246219500,3.891219482421875,-0.011874637566506863,0.00018834718503057957,-0.021964574232697487
1782845821256224500,3.901224609375,-0.009168333373963833,0.005327981896698475,-0.015554876998066902
1782845821266229500,3.9112294921875,-0.006703032646328211,0.0019415293354541063,0.003643020521849394
1782845821276234500,3.921234375,-0.004410317167639732,-0.006419731304049492,0.02102786861360073
1782845821286239500,3.931239501953125,-0.00033863470889627934,-0.017263635993003845,0.031210795044898987
1782845821296244500,3.941244384765625,0.0041328128427267075,-0.02049192041158676,0.032758623361587524
1782845821306249500,3.95124951171875,0.005781237035989761,-0.019362354651093483,0.024588359519839287
1782845821316254500,3.96125439453125,0.008623895235359669,-0.008103042840957642,0.009765738621354103
1782845821326259500,3.971259521484375,0.013082347810268402,0.005495033226907253,-0.0024891351349651814
1782845821336264400,3.981264404296875,0.016540728509426117,0.018965302035212517,-0.0061139632016420364
1782845821346269400,3.99126953125,0.013816694729030132,0.01615123823285103,0.009698735550045967
1782845821356274400,4.0012744140625,0.009819823317229748,0.007726062089204788,0.029124364256858826
1782845821366279400,4.011279541015625,0.008196626789867878,0.002200535498559475,0.051819559186697006
1782845821376284400,4.021284423828125,0.005568353459239006,-0.005801464896649122,0.0685332864522934
1782845821386289400,4.031289306640625,0.003969893790781498,-0.022195013239979744,0.07742825895547867
1782845821396294400,4.04129443359375,0.0005695698782801628,-0.015692640095949173,0.07601465284824371
1782845821406299400,4.05129931640625,-0.003440896514803171,0.008793771266937256,0.06746220588684082
1782845821416304400,4.061304443359375,-0.00609713327139616,0.01777554862201214,0.056893184781074524
1782845821426309400,4.071309326171875,-0.010455354116857052,0.011085905134677887,0.05122673884034157
1782845821436314400,4.081314453125,-0.014537714421749115,0.00734443124383688,0.05038730800151825
1782845821446319400,4.0913193359375,-0.02166912518441677,-0.004119412042200565,0.05094710737466812
1782845821456324400,4.101324462890625,-0.02352135442197323,-0.0032642711885273457,0.04863628000020981
1782845821466329300,4.111329345703125,-0.025693021714687347,-0.002985825762152672,0.04208875074982643
1782845821476334300,4.121334228515625,-0.025747619569301605,-0.00008084974251687527,0.031401220709085464
1782845821486339300,4.13133935546875,-0.024295112118124962,0.005241650156676769,0.023378469049930573
1782845821496344300,4.14134423828125,-0.02349882759153843,0.005683735013008118,0.018575457856059074
1782845821506349300,4.151349365234375,-0.0179978609085083,-0.0011338158510625362,0.020290017127990723
1782845821516354300,4.161354248046875,-0.01846631057560444,-0.0023785773664712906,0.01677677594125271
1782845821526359300,4.171359375,-0.013210145756602287,-0.0037643187679350376,0.013756570406258106
1782845821536364300,4.1813642578125,-0.011416773311793804,-0.01435544341802597,0.014573361724615097
1782845821546369300,4.191369384765625,-0.004654045682400465,-0.01866530254483223,0.01224515400826931
1782845821556374500,4.20137451171875,0.0010986484121531248,-0.016711607575416565,0.01293464656919241
1782845821566379500,4.211379638671875,0.005447657313197851,-0.015616518445312977,0.0039434488862752914
1782845821576384500,4.221384521484375,0.006241012830287218,-0.007351398468017578,-0.004863358102738857
1782845821586389500,4.231389404296875,0.009784221649169922,-0.001516534946858883,-0.013712658546864986
1782845821596394500,4.24139453125,0.007072058506309986,0.0001335598062723875,-0.016073551028966904
1782845821606399500,4.2513994140625,0.006914890371263027,0.0031360560096800327,-0.020574521273374557
1782845821616404500,4.261404541015625,0.008901341818273067,-0.0026331497356295586,-0.014668428339064121
1782845821626409500,4.271409423828125,0.012480782344937325,-0.010672000236809254,-0.020947810262441635
1782845821636414500,4.28141455078125,0.015287220478057861,-0.011420082300901413,-0.024241873994469643
1782845821646419500,4.29141943359375,0.013084483332931995,-0.008817976340651512,-0.022685695439577103
1782845821656424400,4.301424560546875,0.01404242217540741,-0.004327886737883091,-0.022578902542591095
1782845821666429400,4.311429443359375,0.013160856440663338,-0.0013324874453246593,-0.02605670876801014
1782845821676434400,4.321434326171875,0.011092912405729294,-0.004437467083334923,-0.02670891582965851
1782845821686439400,4.331439453125,0.009547551162540913,-0.004943054169416428,-0.02064547874033451
1782845821696444400,4.3414443359375,0.0072612278163433075,-0.008267211727797985,-0.01919671893119812
1782845821706449400,4.351449462890625,0.002234257059171796,-0.007254921831190586,-0.018108315765857697
1782845821716454400,4.361454345703125,0.000884833512827754,-0.004081232473254204,-0.017613233998417854
1782845821726459400,4.37145947265625,-0.0002666325308382511,-0.0027537429705262184,-0.018769923597574234
1782845821736464400,4.38146435546875,0.0018820057157427073,0.0007025073282420635,-0.017031945288181305
1782845821746469400,4.391469482421875,0.003992464393377304,-0.00341413333080709,-0.010033047758042812
1782845821756474400,4.401474365234375,0.005668125115334988,-0.009615303948521614,-0.004142667632550001
1782845821766479600,4.411479736328125,0.00879916176199913,-0.009133756160736084,0.0004763579636346549
1782845821776484600,4.421484619140625,0.009042840451002121,-0.004745132755488157,0.0033568330109119415
1782845821786489600,4.431489501953125,0.007959229871630669,-0.0019733861554414034,0.011310887522995472
1782845821796494600,4.44149462890625,0.007714485749602318,-0.0035369277466088533,0.01621243543922901
1782845821806499600,4.45149951171875,0.00866416934877634,-0.003402970964089036,0.01201715786010027
1782845821816504600,4.461504638671875,0.007689984515309334,0.0006439685821533203,0.006847962271422148
1782845821826508500,4.471508544921875,0.00393671914935112,-0.0024355920031666756,0.0036828431766480207
1782845821836513500,4.481513427734375,0.006068579852581024,-0.001682449597865343,-0.0005348051781766117
1782845821846518500,4.4915185546875,0.003957322798669338,-0.008106600493192673,-0.004428722430020571
1782845821856523500,4.5015234375,0.0007961501833051443,-0.010109830647706985,-0.008284447714686394
1782845821866528500,4.511528564453125,0.0020222452003508806,-0.01069790218025446,-0.016635792329907417
1782845821876533500,4.521533447265625,-0.0010707502951845527,-0.00850052759051323,-0.0215248242020607
1782845821886538500,4.53153857421875,-0.008282299153506756,-0.0036692414432764053,-0.02481894940137863
1782845821896543500,4.54154345703125,-0.009747304022312164,-0.0026276791468262672,-0.021452980116009712
1782845821906548500,4.551548583984375,-0.006272575818002224,-0.009392831474542618,-0.01784205622971058
1782845821916553500,4.561553466796875,-0.008842526003718376,-0.006373605690896511,-0.013182589784264565
1782845821926558500,4.571558349609375,-0.006912678014487028,-0.005342191085219383,-0.013261856511235237
1782845821936563500,4.5815634765625,-0.00729883648455143,-0.006594142876565456,-0.007462556008249521
1782845821946568400,4.591568359375,-0.006925896741449833,-0.006532430648803711,-0.008057883009314537
1782845821956573400,4.601573486328125,-0.0033314283937215805,-0.004005357623100281,-0.008446970954537392
1782845821966578400,4.611578369140625,-0.003947496879845858,0.0013414506101980805,-0.008810093626379967
1782845821976583400,4.62158349609375,-0.0009618269978091121,0.009562362916767597,-0.0029159854166209698
1782845821986588400,4.63158837890625,-0.0022121018264442682,0.004836603067815304,0.004741801880300045
1782845821996593400,4.641593505859375,-0.0014610904036089778,0.004407035186886787,0.015585128217935562
1782845822006598400,4.651598388671875,-0.0016164194094017148,-0.00423412024974823,0.022585349157452583
1782845822016603400,4.661603271484375,0.002744506811723113,-0.006179293617606163,0.025794724002480507
1782845822026608400,4.6716083984375,-0.0030042051803320646,-0.0051033990457654,0.021822649985551834
1782845822036613400,4.68161328125,-0.002601002575829625,-0.004608583636581898,0.013894420117139816
1782845822046618400,4.691618408203125,-0.005671923980116844,0.0026312905829399824,0.0033373921178281307
1782845822056623400,4.701623291015625,-0.008405658416450024,0.010465512052178383,-0.009496381506323814
1782845822066628400,4.71162841796875,-0.01053632702678442,0.006049046758562326,-0.007485546637326479
1782845822076633300,4.72163330078125,-0.015049319714307785,0.00004255329258739948,-0.010699714533984661
1782845822086638300,4.731638427734375,-0.014949982985854149,-0.004325563088059425,-0.00642134714871645
1782845822096643300,4.741643310546875,-0.013614407740533352,-0.010937660001218319,-0.010067214258015156
1782845822106648300,4.7516484375,-0.01083484198898077,-0.008980723097920418,-0.011834284290671349
1782845822116653600,4.761653564453125,-0.009340276010334492,-0.008950097486376762,-0.009023584425449371
1782845822126658000,4.771657958984375,-0.008351299911737442,-0.009693090803921223,-0.010074296034872532
1782845822136663000,4.7816630859375,-0.005228477530181408,-0.008285078220069408,-0.012861560098826885
1782845822146668000,4.79166796875,-0.0008686584187671542,-0.003996807150542736,-0.013833042234182358
1782845822156673000,4.801673095703125,0.0011904977727681398,-0.0023938508238643408,-0.017236560583114624
1782845822166678000,4.811677978515625,0.003759999992325902,0.004326540045440197,-0.018992463126778603
1782845822176683000,4.82168310546875,0.0006880436558276415,0.006173974834382534,-0.007447925861924887
1782845822186688000,4.83168798828125,0.006404422223567963,0.0001451841089874506,0.004553185775876045
1782845822196693000,4.84169287109375,0.01038851123303175,-0.009477348998188972,0.014797301962971687
1782845822206698000,4.851697998046875,0.01993446797132492,-0.02066478319466114,0.0194438137114048
1782845822216703000,4.861702880859375,0.02551618590950966,-0.02162165753543377,0.01562377531081438
1782845822226708000,4.8717080078125,0.02643696777522564,-0.0219309963285923,0.007811808027327061
1782845822236713000,4.881712890625,0.02548808418214321,-0.017262475565075874,0.001290791784413159
1782845822246718000,4.891718017578125,0.025407839566469193,-0.010476376861333847,-0.008737529627978802
1782845822256723000,4.901722900390625,0.022069033235311508,-0.022510936483740807,-0.001636742614209652
1782845822266728000,4.91172802734375,0.0123311597853899,-0.0015135544817894697,-0.007759022060781717
1782845822276733000,4.92173291015625,0.008773709647357464,-0.0012829245533794165,-0.00036901666317135096
1782845822286738000,4.931738037109375,0.005126117262989283,-0.010933543555438519,0.008601958863437176
1782845822296743000,4.941742919921875,0.000571578973904252,-0.008333764970302582,0.01654377207159996
1782845822306748000,4.951747802734375,-0.0037201051600277424,-0.008180101402103901,0.015437228605151176
1782845822316753000,4.9617529296875,-0.007650398183614016,-0.007136940956115723,0.01743832789361477
1782845822326758000,4.9717578125,-0.018305832520127296,0.002695328090339899,0.010802913457155228
1782845822336763000,4.981762939453125,-0.02675524353981018,0.01159641146659851,0.007150121498852968
1782845822346768000,4.991767822265625,-0.02821268141269684,0.017070220783352852,0.008884232491254807
1782845822356772900,5.00177294921875,-0.029407909139990807,0.011646693572402,0.007520693354308605
1782845822366777900,5.01177783203125,-0.024594608694314957,0.011431584134697914,0.013486282899975777
1782845822376782800,5.021782958984375,-0.0217820443212986,0.013284612447023392,0.013798938132822514
1782845822386787800,5.031787841796875,-0.017113057896494865,0.009423564188182354,0.020166924223303795
1782845822396792800,5.041792724609375,-0.014185178093612194,-0.0022890183608978987,0.01604807935655117
1782845822406797800,5.0517978515625,-0.009660087525844574,-0.010946324095129967,0.012329152785241604
1782845822416802000,5.061802001953125,-0.008439027704298496,-0.01156497560441494,0.009467053227126598
1782845822426807000,5.07180712890625,-0.004424916580319405,-0.017190253362059593,-0.0016020602779462934
1782845822436812000,5.08181201171875,0.0000049853697419166565,-0.02415601722896099,-0.005986422300338745
1782845822446817000,5.091817138671875,0.0057004038244485855,-0.02625209651887417,-0.009455478750169277
1782845822456822000,5.101822021484375,0.008302045986056328,-0.01500956155359745,-0.018187183886766434
1782845822466827000,5.111826904296875,0.007994691841304302,-0.00708750169724226,-0.0230625718832016
1782845822476832000,5.12183203125,0.011925517581403255,-0.003890909953042865,-0.02221914939582348
1782845822486837000,5.1318369140625,0.015897145494818687,-0.009949360974133015,-0.016352273523807526
1782845822496842000,5.141842041015625,0.016411134973168373,-0.01573161594569683,-0.01014790777117014
1782845822506847000,5.151846923828125,0.01343056745827198,-0.0184978898614645,-0.004720957949757576
1782845822516852000,5.16185205078125,0.011273939162492752,-0.020742667838931084,-0.0037238704971969128
1782845822526857000,5.17185693359375,0.007428795099258423,-0.018104154616594315,0.0016919814515858889
1782845822536862000,5.181862060546875,0.0059712473303079605,-0.013959743082523346,-0.0011916894000023603
1782845822546867000,5.191866943359375,0.003749571507796645,-0.008858189918100834,-0.007658275775611401
1782845822556872000,5.201871826171875,-0.0020811534486711025,-0.0034607613924890757,-0.013670895248651505
1782845822566877000,5.211876953125,-0.011227022856473923,-0.0026961194816976786,-0.004768973682075739
1782845822576882000,5.2218818359375,-0.019258851185441017,0.0011825083056464791,0.005596848204731941
1782845822586887000,5.231886962890625,-0.021886035799980164,-0.000835855957120657,0.015298416838049889
1782845822596892000,5.241891845703125,-0.02204795554280281,-0.003207933623343706,0.020977074280381203
1782845822606897000,5.25189697265625,-0.018281621858477592,0.0002523651346564293,0.022539258003234863
1782845822616902000,5.26190185546875,-0.012197631411254406,-0.003201754530891776,0.019246526062488556
1782845822626907000,5.271906982421875,-0.007384161464869976,-0.00653561856597662,0.01303811464458704
1782845822636911900,5.281911865234375,-0.003657334018498659,0.002085566520690918,-0.0004539917572401464
1782845822646916900,5.291916748046875,-0.0009066748898476362,0.004650739952921867,-0.005084392614662647
1782845822656921900,5.301921875,0.00045100459828972816,0.0015476247062906623,-0.005977084394544363
1782845822666926800,5.3119267578125,0.00534991966560483,-0.0033912784419953823,-0.0031890294048935175
1782845822676931800,5.321931884765625,0.007231975439935923,-0.003743348177522421,-0.0014127008616924286
1782845822686936800,5.331936767578125,0.008733266964554787,-0.005607564002275467,0.0018346562283113599
1782845822696942000,5.341942138671875,0.01052370946854353,-0.0077945515513420105,0.005546303931623697
1782845822706947000,5.351947021484375,0.01144677959382534,-0.007595707196742296,0.005789740011096001
1782845822716952000,5.3619521484375,0.011795653030276299,-0.002563131507486105,-0.0013035896699875593
1782845822726957000,5.37195703125,0.016259783878922462,-0.003628784092143178,-0.009009062312543392
1782845822736962000,5.381962158203125,0.012974773533642292,-0.0037691325414925814,-0.01583234779536724
1782845822746967000,5.391967041015625,0.014263434335589409,-0.0014547975733876228,-0.026116371154785156
1782845822756972000,5.401971923828125,0.011952877044677734,-0.0020295078866183758,-0.02939125895500183
1782845822766977000,5.41197705078125,0.008708014152944088,-0.004252445884048939,-0.027669692412018776
1782845822776982000,5.42198193359375,0.00878151785582304,-0.0006457266863435507,-0.02600068971514702
1782845822786987000,5.431987060546875,0.007594401016831398,0.005341564305126667,-0.026412852108478546
1782845822796992000,5.441991943359375,0.009707086719572544,0.0059626130387187,-0.020935261622071266
1782845822806997000,5.4519970703125,0.00917398277670145,0.002879862207919359,-0.015798307955265045
1782845822817002000,5.462001953125,0.014622011221945286,0.007677813060581684,-0.0069235884584486485
1782845822827007000,5.472007080078125,0.014898980967700481,0.010158015415072441,-0.0016025929944589734
1782845822837012000,5.482011962890625,0.011323420330882072,0.010493840090930462,0.0068942224606871605
1782845822847017000,5.492016845703125,0.013599775731563568,0.012982465326786041,0.016620174050331116
1782845822857022000,5.50202197265625,0.009226864203810692,0.009616496041417122,0.021982714533805847
1782845822867027000,5.51202685546875,0.009754188358783722,0.011217494495213032,0.02748056687414646
1782845822877032000,5.522031982421875,0.01052197813987732,0.01676938682794571,0.031126966699957848
1782845822887037000,5.532036865234375,0.008344335481524467,0.020153243094682693,0.02738463133573532
1782845822897042000,5.5420419921875,0.010091102682054043,0.0173121839761734,0.030432885512709618
1782845822907047000,5.552046875,0.009835886768996716,0.015850471332669258,0.026224371045827866
1782845822917052000,5.562052001953125,0.009226555936038494,0.011386213824152946,0.018475370481610298
1782845822927057200,5.57205712890625,0.009349806234240532,0.008911363780498505,0.01032616849988699
1782845822937062100,5.582062255859375,0.005659463349729776,0.0069044060073792934,-0.0029350421391427517
1782845822947066000,5.592066162109375,0.007632557302713394,0.010225682519376278,-0.010138320736587048
1782845822957071000,5.602071044921875,0.006659437902271748,0.012257407419383526,-0.011548730544745922
1782845822967076000,5.612076171875,0.007938276045024395,0.01814190484583378,-0.011853099800646305
1782845822977081000,5.6220810546875,0.0075441282242536545,0.017111262306571007,-0.0114365816116333
1782845822987086000,5.632086181640625,0.0059587303549051285,0.009688327088952065,-0.002151226159185171
1782845822997091000,5.642091064453125,0.0004659609403461218,0.012462276965379715,0.003554329974576831
1782845823007096000,5.652095947265625,-0.004873084835708141,0.013406490907073021,0.009670262224972248
1782845823017101000,5.66210107421875,-0.0089288130402565,0.011781696230173111,0.007178076077252626
1782845823027106000,5.67210595703125,-0.01155801210552454,0.007431834004819393,0.0025509516708552837
1782845823037111000,5.682111083984375,-0.008802971802651882,0.006713579408824444,-0.0030643234495073557
1782845823047116000,5.692115966796875,-0.011494291014969349,0.0004097579512745142,-0.004007663577795029
1782845823057121000,5.70212109375,-0.007353873923420906,0.0018177712336182594,-0.007292140740901232
1782845823067126000,5.7121259765625,-0.008301553316414356,0.005457125138491392,-0.003709537908434868
1782845823077131000,5.722131103515625,-0.008217930793762207,0.010683312080800533,0.0016940159257501364
1782845823087136000,5.732135986328125,-0.003076461609452963,0.014035504311323166,0.007397184614092112
1782845823097141000,5.74214111328125,-0.0013560595689341426,0.015062686055898666,0.019375817850232124
1782845823107146000,5.75214599609375,-0.00024280347861349583,0.0009361885022372007,0.03053705394268036
1782845823117151000,5.76215087890625,0.0001974168699234724,-0.005108122248202562,0.03752785548567772
1782845823127156500,5.772156494140625,-0.004843396600335836,-0.012494492344558239,0.03734544664621353
1782845823137161500,5.782161376953125,-0.00680454820394516,-0.010688869282603264,0.02169644832611084
1782845823147166500,5.79216650390625,-0.014137132093310356,-0.0010645478032529354,0.01217836607247591
1782845823157171500,5.80217138671875,-0.017491649836301804,-0.0015604286454617977,0.00012276862980797887
1782845823167176400,5.812176513671875,-0.01617276854813099,0.003109594341367483,-0.005814827512949705
1782845823177181400,5.822181396484375,-0.02134515903890133,-0.0034247376024723053,-0.0033567300997674465
1782845823187186400,5.8321865234375,-0.023140983656048775,-0.003523249179124832,-0.006006504874676466
1782845823197191400,5.84219140625,-0.02871045283973217,-0.003581838682293892,-0.0034360222052782774
1782845823207196400,5.852196533203125,-0.034811511635780334,-0.011913849972188473,0.00236173951998353
1782845823217201400,5.862201416015625,-0.037770017981529236,-0.01526437234133482,0.0016429523238912225
1782845823227206400,5.872206298828125,-0.04230313003063202,-0.018340352922677994,0.0007170684402808547
1782845823237211400,5.88221142578125,-0.04063572362065315,-0.018478570505976677,0.00028164160903543234
1782845823247216400,5.89221630859375,-0.039726585149765015,-0.008428862318396568,-0.004674933850765228
1782845823257221400,5.902221435546875,-0.03620642051100731,-0.0014953229110687971,0.004410972818732262
1782845823267226400,5.912226318359375,-0.03447599709033966,-0.008617074228823185,0.008307551965117455
1782845823277231400,5.9222314453125,-0.027357900515198708,-0.019159730523824692,0.01778973825275898
1782845823287236400,5.932236328125,-0.020116722211241722,-0.019425828009843826,0.014830127358436584
1782845823297241300,5.942241455078125,-0.015231686644256115,-0.013661150820553303,0.0025798524729907513
1782845823307246300,5.952246337890625,-0.015559133142232895,-0.009257640689611435,-0.0070367250591516495
1782845823317251300,5.962251220703125,-0.010378751903772354,-0.0013800107408314943,-0.02190808206796646
1782845823327256300,5.97225634765625,-0.0006359528051689267,-0.002408206695690751,-0.039166826754808426
1782845823337261300,5.98226123046875,0.005126860924065113,-0.005329161882400513,-0.047523558139801025
1782845823347266600,5.9922666015625,0.009261406026780605,-0.010971090756356716,-0.04706946015357971
1782845823357271600,6.002271484375,0.011449192650616169,-0.012388691306114197,-0.04686066880822182
1782845823367276500,6.012276611328125,0.014265315607190132,-0.01385430246591568,-0.037839584052562714
1782845823377281500,6.022281494140625,0.014360124245285988,-0.012612471356987953,-0.03238942474126816
1782845823387286500,6.03228662109375,0.013948975130915642,-0.01066947728395462,-0.03598606213927269
1782845823397291500,6.04229150390625,0.009772606194019318,-0.003649916732683778,-0.029646143317222595
1782845823407296500,6.052296630859375,0.011405609548091888,0.004346389323472977,-0.02301621623337269
1782845823417301500,6.062301513671875,0.005890202708542347,0.009768851101398468,-0.016507983207702637
1782845823427306500,6.072306396484375,-0.0001029574777930975,0.015667926520109177,-0.009325681254267693
1782845823437311500,6.0823115234375,-0.007122517563402653,0.012952033430337906,-0.0006754679488949478
1782845823447315500,6.0923154296875,-0.008926276117563248,0.01274084486067295,0.0072136144153773785
1782845823457320400,6.102320556640625,-0.006027159281075001,0.008725597523152828,0.012798795476555824
1782845823467325400,6.112325439453125,-0.006261753849685192,0.008171589113771915,0.012277872301638126
1782845823477330400,6.122330322265625,-0.00970655307173729,0.005002427380532026,0.009882625192403793
1782845823487335400,6.13233544921875,-0.00999588705599308,0.006411407142877579,0.013650286942720413
1782845823497340400,6.14234033203125,-0.0075002387166023254,0.007830871269106865,0.014907564967870712
1782845823507345400,6.152345458984375,-0.002816325519233942,0.004069981165230274,0.021466467529535294
1782845823517350400,6.162350341796875,0.0018665771931409836,0.0010182647965848446,0.019787611439824104
1782845823527355400,6.17235546875,0.005913909990340471,0.0027233425062149763,0.014565566554665565
1782845823537360400,6.1823603515625,0.008301965892314911,0.013607948087155819,0.010884544812142849
1782845823547365400,6.192365478515625,0.009874406270682812,0.011513320729136467,0.0101301996037364
1782845823557370400,6.202370361328125,0.016298217698931694,0.009188381023705006,0.008410862646996975
1782845823567375400,6.212375244140625,0.019742120057344437,0.004152949899435043,-0.0007566942949779332
1782845823577380400,6.22238037109375,0.02729138359427452,-0.00015577860176563263,-0.009740069508552551
1782845823587385300,6.23238525390625,0.026059851050376892,-0.004830328747630119,-0.014749929308891296
1782845823597390300,6.242390380859375,0.029396526515483856,0.0013788314536213875,-0.018399789929389954
1782845823607395300,6.252395263671875,0.02447015605866909,-0.000038477592170238495,-0.020461007952690125
1782845823617400300,6.262400390625,0.022171583026647568,0.0001575311180204153,-0.017630068585276604
1782845823627405300,6.2724052734375,0.018826398998498917,0.0002675422001630068,-0.018804285675287247
1782845823637410300,6.282410400390625,0.016668172553181648,0.0033890334889292717,-0.01664925552904606
1782845823647415300,6.292415283203125,0.012256396934390068,0.002863232046365738,-0.012496834620833397
1782845823657420300,6.302420166015625,0.009900830686092377,0.004634766839444637,-0.013783673755824566
1782845823667425300,6.31242529296875,0.005699845962226391,0.00016348646022379398,-0.015129812993109226
1782845823677430300,6.32243017578125,0.0030385495629161596,-0.005530884489417076,-0.018822554498910904
1782845823687435300,6.332435302734375,-0.001433848636224866,-0.002649511443451047,-0.015742428600788116
1782845823697440500,6.3424404296875,-0.00848962739109993,0.004354602191597223,-0.010977234691381454
1782845823707445500,6.352445556640625,-0.012647245079278946,0.006979628931730986,-0.005007897969335318
1782845823717450500,6.362450439453125,-0.015119723975658417,0.004839778877794743,0.00625887094065547
1782845823727455500,6.37245556640625,-0.011931992135941982,0.001965015660971403,0.019859682768583298
1782845823737460500,6.38246044921875,-0.010610798373818398,0.0001000037882477045,0.025599593296647072
1782845823747465500,6.392465576171875,-0.009096646681427956,0.002176498994231224,0.024288421496748924
1782845823757470500,6.402470458984375,-0.00912008248269558,0.00023931567557156086,0.0190326739102602
1782845823767475500,6.412475341796875,-0.012011070735752583,-0.0021896089892834425,0.019951051101088524
1782845823777480400,6.42248046875,-0.011088019236922264,-0.005437600426375866,0.015255365520715714
1782845823787485400,6.4324853515625,-0.009597605094313622,-0.006077875383198261,0.007578131277114153
1782845823797490400,6.442490478515625,-0.005792479962110519,-0.004903154447674751,-0.00027446571039035916
1782845823807495400,6.452495361328125,-0.007857139222323895,0.00007647788152098656,-0.00444207526743412
1782845823817500700,6.462500732421875,-0.0041319094598293304,-0.003703613067045808,-0.0005021949182264507
1782845823827505700,6.472505615234375,0.00010465946979820728,-0.002962699392810464,0.004207310266792774
1782845823837510700,6.4825107421875,0.006004893220961094,-0.005392833612859249,0.0019617327488958836
1782845823847515600,6.492515625,0.014836928807199001,-0.007677973248064518,0.0012091725366190076
1782845823857520600,6.502520751953125,0.0211720559746027,-0.0077525414526462555,-0.004004231654107571
1782845823867525600,6.512525634765625,0.026487234979867935,-0.006190646439790726,-0.004676719196140766
1782845823877530600,6.522530517578125,0.028594860807061195,-0.006610892713069916,-0.0080964844673872
1782845823887535600,6.53253564453125,0.02926744893193245,-0.011325875297188759,-0.013532144017517567
1782845823897539300,6.542539306640625,0.031056825071573257,-0.011141850613057613,-0.018685361370444298
1782845823907544300,6.55254443359375,0.030429402366280556,-0.007960265502333641,-0.02310991659760475
1782845823917549300,6.56254931640625,0.024421043694019318,-0.007984766736626625,-0.02954597771167755
1782845823927554300,6.57255419921875,0.025527726858854294,-0.007165167480707169,-0.029379412531852722
1782845823937559300,6.582559326171875,0.012513392604887486,-0.008160923607647419,-0.03477151319384575
1782845823947564300,6.592564208984375,0.008693959563970566,0.007846953347325325,-0.03525039926171303
1782845823957569300,6.6025693359375,0.008857743814587593,0.005841592792421579,-0.02707955613732338
1782845823967574300,6.61257421875,0.013497685082256794,0.003710094839334488,-0.01845802739262581
1782845823977579300,6.622579345703125,0.016793346032500267,0.0017244418850168586,-0.008707660250365734
1782845823987584500,6.63258447265625,0.01751592755317688,0.0004639646504074335,0.006590237841010094
1782845823997589500,6.642589599609375,0.023987408727407455,-0.002360583981499076,0.018702561035752296
1782845824007594500,6.652594482421875,0.022103434428572655,-0.00284978118725121,0.02557065524160862
1782845824017599500,6.662599609375,0.021274659782648087,0.0006613302975893021,0.020004648715257645
1782845824027604500,6.6726044921875,0.01861497387290001,0.00007359310984611511,0.017527081072330475
1782845824037609500,6.682609375,0.01410730741918087,0.00996830128133297,0.0071189142763614655
1782845824047614500,6.692614501953125,0.008869092911481857,0.007600800134241581,0.009779984131455421
1782845824057619500,6.702619384765625,-0.0005158869316801429,0.010940137319266796,0.00940634310245514
1782845824067624400,6.71262451171875,-0.004159569274634123,0.009542485699057579,0.01179219875484705
1782845824077629400,6.72262939453125,-0.007929540239274502,0.004468630999326706,0.008902935311198235
1782845824087634700,6.732634765625,-0.0034614400938153267,-0.0011518716346472502,0.010849086567759514
1782845824097639700,6.7426396484375,-0.005019122734665871,-0.005318920128047466,0.007795505691319704
1782845824107644700,6.752644775390625,-0.0056074997410178185,-0.011551419273018837,0.00473401416093111
1782845824117649700,6.762649658203125,-0.005030925385653973,-0.008424601517617702,-0.000193099956959486
1782845824127654100,6.772654052734375,-0.006829654797911644,-0.0008758008480072021,-0.0066408696584403515
1782845824137659100,6.7826591796875,-0.011479000560939312,0.005506198387593031,-0.004460273776203394
1782845824147664100,6.7926640625,-0.015209163539111614,0.0015920060686767101,-0.0032901987433433533
1782845824157669000,6.802669189453125,-0.015057363547384739,0.0019334233365952969,0.0031397375278174877
1782845824167674000,6.812674072265625,-0.01754014380276203,0.006803183350712061,0.004155920818448067
1782845824177679000,6.82267919921875,-0.015554757788777351,0.003809523768723011,0.012148866429924965
1782845824187684000,6.83268408203125,-0.015047703869640827,-0.0029812930151820183,0.009992001578211784
1782845824197689000,6.842689208984375,-0.00989368837326765,-0.007301206700503826,0.008483586832880974
1782845824207694000,6.852694091796875,-0.008784076198935509,-0.005702899768948555,0.004199211951345205
1782845824217699000,6.862698974609375,-0.011975076049566269,0.0031039081513881683,-0.00014253932749852538
1782845824227704000,6.8727041015625,-0.015389121137559414,0.006767207756638527,0.001316221896559
1782845824237709000,6.882708984375,-0.016326554119586945,0.008869507350027561,0.0028549963608384132
1782845824247714000,6.892714111328125,-0.015071309171617031,0.001530027948319912,0.007266680710017681
1782845824257719000,6.902718994140625,-0.008228583261370659,-0.001536335563287139,0.010637976229190826
1782845824267724000,6.91272412109375,-0.009096477180719376,0.0010074451565742493,0.016683341935276985
1782845824277729000,6.92272900390625,-0.007157429587095976,0.005232017487287521,0.019489513710141182
1782845824287734000,6.932734130859375,-0.008539695292711258,0.004196676425635815,0.02100173756480217
1782845824297739000,6.942739013671875,-0.008355137892067432,-0.0005581311415880919,0.017608070746064186
1782845824307743000,6.952742919921875,-0.002733834320679307,-0.002604164183139801,0.01759486272931099
1782845824317748000,6.962748046875,0.00355868274345994,-0.005999694112688303,0.013534873723983765
1782845824327753000,6.9727529296875,0.006136816460639238,-0.006924757733941078,0.01110798493027687
1782845824337758000,6.982758056640625,0.009094256907701492,-0.00023649469949305058,0.005588050466030836
1782845824347763000,6.992762939453125,0.010001959279179573,0.0036244820803403854,-0.001202319865114987
1782845824357768000,7.002767822265625,0.011872297152876854,0.009047211147844791,-0.008270349353551865
1782845824367773200,7.012773193359375,0.009144281968474388,0.009604732505977154,-0.014829833060503006
1782845824377778200,7.022778076171875,0.007789798080921173,-0.0006574925500899553,-0.01654144562780857
1782845824387783200,7.032783203125,0.00867360457777977,-0.006912651471793652,-0.018597299233078957
1782845824397788200,7.0427880859375,0.00915616936981678,-0.007659401744604111,-0.019364820793271065
1782845824407793200,7.052793212890625,0.008621381595730782,-0.007555317133665085,-0.016957798972725868
1782845824417798100,7.062798095703125,0.00866851955652237,-0.010498909279704094,-0.017285367473959923
1782845824427803100,7.07280322265625,0.00942355114966631,-0.00738562922924757,-0.017698481678962708
1782845824437808000,7.08280810546875,0.005183531902730465,-0.0033091283403337,-0.015820687636733055
1782845824447813000,7.092813232421875,0.003733791643753648,-0.00421176990494132,-0.007566298358142376
1782845824457818000,7.102818115234375,-0.0019230287289246917,-0.0006572487764060497,-0.004392609465867281
1782845824467823000,7.112822998046875,-0.005459567531943321,0.0008957849349826574,-0.001275793300010264
1782845824477828000,7.122828125,-0.008963488042354584,0.008757969364523888,0.004035082645714283
1782845824487833000,7.1328330078125,-0.009392469190061092,0.013983864337205887,0.0065730055794119835
1782845824497838000,7.142838134765625,-0.011139502748847008,0.009807761758565903,0.012558193877339363
1782845824507843000,7.152843017578125,-0.011357416398823261,-0.0037988582625985146,0.01759805902838707
1782845824517848000,7.16284814453125,-0.008939266204833984,-0.003923493903130293,0.015637172386050224
1782845824527853000,7.17285302734375,-0.007450098637491465,-0.005375330336391926,0.005121997557580471
1782845824537858000,7.182858154296875,-0.006704413332045078,-0.0013539569918066263,-0.0027220770716667175
1782845824547863000,7.192863037109375,-0.006642555817961693,0.00805061124265194,-0.011420543305575848
1782845824557868000,7.202867919921875,-0.00233835494145751,0.016381511464715004,-0.013367846608161926
1782845824567873000,7.212873046875,-0.0009064034093171358,0.012439836747944355,-0.01156088151037693
1782845824577878000,7.2228779296875,-0.0017953665228560567,0.008208074606955051,-0.006601543165743351
1782845824587883000,7.232883056640625,0.0025150864385068417,0.004434497095644474,-0.0013232765486463904
1782845824597888000,7.242887939453125,0.007728757336735725,0.002478937851265073,0.003950048703700304
1782845824607893000,7.25289306640625,0.01108286902308464,-0.0012440395075827837,0.006246373988687992
1782845824617898000,7.26289794921875,0.014056287705898285,-0.007747478783130646,0.0009331012843176723
1782845824627903000,7.272903076171875,0.01770881377160549,-0.004527184180915356,-0.009146963246166706
1782845824637908000,7.282907958984375,0.014359621331095695,-0.003003057325258851,-0.016262663528323174
1782845824647913000,7.292912841796875,0.00975821353495121,-0.0015106217470020056,-0.02057139202952385
1782845824657918000,7.30291796875,0.0031418553553521633,0.0015155280707404017,-0.020228110253810883
1782845824667923000,7.3129228515625,-0.004479959607124329,0.0015330053865909576,-0.020762784406542778
1782845824677928000,7.322927978515625,-0.011720561422407627,0.002968182787299156,-0.01951003260910511
1782845824687933000,7.332932861328125,-0.017138902097940445,-0.0012940845917910337,-0.01239951141178608
1782845824697938000,7.34293798828125,-0.02113417722284794,-0.0027361863758414984,-0.006536828354001045
1782845824707942000,7.35294189453125,-0.02501269057393074,-0.003902551019564271,0.00401212926954031
1782845824717947000,7.36294677734375,-0.022635819390416145,-0.007781711407005787,0.011130759492516518
1782845824727952100,7.3729521484375,-0.020128590986132622,-0.012008292600512505,0.009916504845023155
1782845824737957000,7.38295703125,-0.019746161997318268,-0.009914515540003777,0.007871996611356735
1782845824747962000,7.392962158203125,-0.01916302740573883,-0.004695444833487272,0.006779409013688564
1782845824757967000,7.402967041015625,-0.014525397680699825,0.007461619097739458,0.003984687849879265
1782845824767972000,7.41297216796875,-0.012712208554148674,0.012398002669215202,0.0031800102442502975
1782845824777977000,7.42297705078125,-0.007402930874377489,0.01091382373124361,0.015424159355461597
1782845824787982000,7.432982177734375,-0.005596284754574299,0.006190222688019276,0.020936941727995872
1782845824797987000,7.442987060546875,0.001416084822267294,0.004762502387166023,0.024680813774466515
1782845824807992000,7.452991943359375,0.005010062828660011,0.0015157944289967418,0.024473048746585846
1782845824817997000,7.4629970703125,0.009963009506464005,-0.004253678023815155,0.01745082437992096
1782845824828002000,7.473001953125,0.01183371152728796,-0.0066894786432385445,0.006653995718806982
1782845824838007000,7.483007080078125,0.019595492631196976,0.0018233157461509109,-0.009449340403079987
1782845824848012000,7.493011962890625,0.01847434602677822,0.00489176157861948,-0.02261711284518242
1782845824858017000,7.50301708984375,0.02333168499171734,0.009067332372069359,-0.030420973896980286
1782845824868022000,7.51302197265625,0.0187405776232481,0.00616937642917037,-0.02850634977221489
1782845824878027000,7.523027099609375,0.016195394098758698,0.0045049008913338184,-0.022169889882206917
1782845824888032000,7.533031982421875,0.013593461364507675,0.0020904340781271458,-0.0173023734241724
1782845824898037000,7.543037109375,0.009067151695489883,0.0034374610986560583,-0.013126002624630928
1782845824908042000,7.5530419921875,0.008471906185150146,0.0025443071499466896,-0.014212296344339848
1782845824918047000,7.563046875,0.0039501250721514225,-0.0005662648472934961,-0.008444155566394329
1782845824928052000,7.573052001953125,-0.00555766886100173,-0.0053985221311450005,-0.006119974888861179
1782845824938057000,7.583056884765625,-0.0005333491135388613,0.000019678613170981407,-0.007764476351439953
1782845824948062000,7.59306201171875,-0.0033332398161292076,-0.0014074575155973434,-0.01017849612981081
1782845824958067000,7.60306689453125,-0.003575321286916733,0.0008730071131139994,-0.010820051655173302
1782845824968072200,7.613072265625,-0.0009024757891893387,0.005016811657696962,-0.009593507274985313
1782845824978077200,7.6230771484375,-0.0010635970393195748,0.014177553355693817,-0.009860355406999588
1782845824988082200,7.633082275390625,-0.004226130433380604,0.011622320860624313,-0.002105752704665065
1782845824998087200,7.643087158203125,-0.0005277986638247967,0.010578094981610775,0.00329300737939775
1782845825008092200,7.653092041015625,0.0012379493564367294,0.0030534809920936823,0.012150630354881287
1782845825018097200,7.66309716796875,0.0030265285167843103,-0.0010938597843050957,0.015262533910572529
1782845825028102100,7.67310205078125,0.0032323908526450396,0.003430051961913705,0.01198524795472622
1782845825038107100,7.683107177734375,0.005204994231462479,0.00007899641059339046,0.010329294949769974
1782845825048112000,7.693112060546875,0.0011531759519129992,0.0001486015971750021,0.007551697548478842
1782845825058117000,7.7031171875,0.0021444044541567564,0.0014407671988010406,-0.0012764155399054289
1782845825068120800,7.713120849609375,-0.002028223592787981,0.008066201582551003,-0.006816085893660784
1782845825078126000,7.7231259765625,-0.0028274382930248976,0.012536849826574326,-0.008681364357471466
1782845825088131000,7.733131103515625,-0.004697087220847607,0.006063289474695921,-0.008169900625944138
1782845825098136000,7.743135986328125,-0.0052616773173213005,0.008855880238115788,-0.012191273272037506
1782845825108141000,7.75314111328125,-0.0067183044739067554,0.007704034447669983,-0.015854617580771446
1782845825118146000,7.76314599609375,-0.005002696067094803,0.012634078040719032,-0.011877452954649925
1782845825128151300,7.7731513671875,-0.0023832356091588736,0.013791176490485668,-0.008642452768981457
1782845825138156300,7.78315625,0.0023875513579696417,0.010987933725118637,-0.0002694742870517075
1782845825148161500,7.79316162109375,0.008893860504031181,0.008971795439720154,0.006906433496624231
1782845825158166500,7.80316650390625,0.010103734210133553,0.0042034052312374115,0.009205007925629616
1782845825168171500,7.813171630859375,0.014009344391524792,0.007479263469576836,0.015261223539710045
1782845825178176500,7.823176513671875,0.011042582802474499,0.011634593829512596,0.01932147890329361
1782845825188181500,7.833181396484375,0.010930143296718597,0.012904680334031582,0.012569636106491089
1782845825198186500,7.8431865234375,0.008807869628071785,0.011564311571419239,0.012498529627919197
1782845825208191500,7.85319140625,0.004676162265241146,0.013204000890254974,0.007199230138212442
1782845825218196500,7.863196533203125,0.004390138201415539,0.008622032590210438,0.004637535661458969
1782845825228201500,7.873201416015625,0.0035704250913113356,0.004689213819801807,-0.0015067191561684012
1782845825238206500,7.88320654296875,0.005536903627216816,0.0018311095191165805,-0.0024683866649866104
1782845825248211500,7.89321142578125,0.007583322934806347,0.0013438540045171976,-0.008231725543737411
1782845825258216400,7.903216552734375,0.0017557942774146795,0.0018554471898823977,-0.01379293855279684
1782845825268221400,7.913221435546875,0.0006216939073055983,0.007489242125302553,-0.02411682903766632
1782845825278226400,7.923226318359375,-0.005975222215056419,0.013140469789505005,-0.024687809869647026
1782845825288231400,7.9332314453125,-0.0052499170415103436,0.013772027567029,-0.024516688659787178
1782845825298236400,7.943236328125,-0.00963561050593853,0.00866568274796009,-0.017578886821866035
1782845825308241400,7.953241455078125,-0.011989861726760864,0.0040273480117321014,-0.010699162259697914
1782845825318246400,7.963246337890625,-0.014071655459702015,0.00198683375492692,-0.005357659887522459
1782845825328251400,7.97325146484375,-0.017382927238941193,0.0003940742462873459,0.001038392772898078
1782845825338256400,7.98325634765625,-0.015319510363042355,0.0021432386711239815,0.006820381619036198
1782845825348261400,7.993261474609375,-0.010642090812325478,0.004423651844263077,0.00938540231436491
1782845825358266400,8.003266357421875,-0.009382948279380798,0.0020638247951865196,0.011674655601382256
1782845825368271400,8.013271240234374,-0.00868151430040598,-0.002672292524948716,0.014610297046601772
1782845825378276400,8.0232763671875,-0.004032966680824757,-0.0003382982686161995,0.015415105037391186
1782845825388281300,8.03328125,-0.005096966866403818,0.007033335044980049,0.018265049904584885
1782845825398286300,8.043286376953125,-0.00473291240632534,0.010581730864942074,0.01950262114405632
1782845825408291300,8.053291259765626,-0.0026143258437514305,0.004950162023305893,0.021260268986225128
1782845825418295300,8.06329541015625,0.002798282541334629,-0.0027208069805055857,0.021520191803574562
1782845825428300300,8.07330029296875,0.005074692890048027,-0.004519631154835224,0.012435106560587883
1782845825438305300,8.08330517578125,0.011348036117851734,-0.004123619291931391,-0.002466078381985426
1782845825448310300,8.093310302734375,0.012858246453106403,-0.0014862874522805214,-0.016145573928952217
1782845825458315300,8.103315185546874,0.018149681389331818,0.0030956813134253025,-0.030280834063887596
1782845825468320300,8.1133203125,0.014370504766702652,0.00023261643946170807,-0.03370628505945206
1782845825478325200,8.1233251953125,0.016487983986735344,0.0031463808845728636,-0.03246711567044258
1782845825488330200,8.133330322265625,0.015315950848162174,0.0015192339196801186,-0.02916591614484787
1782845825498335500,8.14333544921875,0.015620882622897625,-0.0008725509978830814,-0.019996386021375656
1782845825508340500,8.153340576171875,0.015717823058366776,-0.0007929224520921707,-0.015766752883791924
1782845825518345500,8.163345458984375,0.01450421940535307,-0.005399125628173351,-0.007892586290836334
1782845825528350500,8.1733505859375,0.015018293634057045,-0.00517897866666317,-0.0036116335541009903
1782845825538355500,8.18335546875,0.011447794735431671,-0.00466791819781065,-0.007509969174861908
1782845825548360400,8.1933603515625,0.009532938711345196,-0.004289167933166027,-0.007644685450941324
1782845825558365400,8.203365478515625,0.009294586256146431,-0.006041527725756168,-0.008706486783921719
1782845825568370400,8.213370361328124,0.00905083492398262,-0.0014887358993291855,-0.014495350420475006
1782845825578375400,8.22337548828125,0.005732802674174309,0.00043459911830723286,-0.01578458771109581
1782845825588380400,8.23338037109375,0.007113820873200893,0.0011502644047141075,-0.015219888649880886
1782845825598385400,8.243385498046875,0.005453872494399548,0.0025279175024479628,-0.006398433353751898
1782845825608390400,8.253390380859376,0.005705106072127819,-0.00008045625872910023,-0.005533813498914242
1782845825618395400,8.2633955078125,0.0018757465295493603,-0.004441382363438606,-0.003172920783981681
1782845825628400400,8.273400390625,0.003175199730321765,-0.0007607012521475554,0.003213230986148119
1782845825638405400,8.2834052734375,0.0017890243325382471,-0.000010488787665963173,0.00679811229929328
1782845825648410400,8.293410400390625,0.0023421505466103554,-0.0056244549341499805,0.012671743519604206
1782845825658415400,8.303415283203124,0.0050300792790949345,-0.0075259520672261715,0.0074263811111450195
1782845825668420400,8.31342041015625,0.003522886661812663,-0.005743446759879589,0.0017310809344053268
1782845825678425300,8.32342529296875,0.0072814058512449265,0.0014830408617854118,-0.003316940739750862
1782845825688430300,8.333430419921875,0.0017182014416903257,0.00444941408932209,-0.0038209580816328526
1782845825698435300,8.343435302734376,0.00005718809552490711,0.000595553545281291,-0.00024699594359844923
1782845825708440300,8.3534404296875,-0.0014689723029732704,0.0023600903805345297,-0.0005754714948125184
1782845825718445300,8.3634453125,-0.0052432045340538025,0.001353149302303791,0.007809491362422705
1782845825728450300,8.3734501953125,-0.00795160885900259,-0.0010514892637729645,0.010179160162806511
1782845825738455300,8.383455322265625,-0.008326582610607147,0.0006305631250143051,0.017836812883615494
1782845825748459300,8.393459228515624,-0.007143496535718441,0.0007961599621921778,0.018215112388134003
1782845825758464300,8.40346435546875,-0.006803943309932947,0.002097380580380559,0.016662755981087685
1782845825768469200,8.41346923828125,-0.0034582517109811306,0.004139691591262817,0.016698259860277176
1782845825778474200,8.42347412109375,0.001409740187227726,0.0006466896738857031,0.0137725118547678
1782845825788479200,8.433479248046876,0.006260877475142479,0.004881616216152906,0.007822481915354729
1782845825798484200,8.443484130859375,0.006416672840714455,0.00439319247379899,0.010975398123264313
1782845825808489200,8.4534892578125,0.005514271557331085,0.0025753474328666925,0.015731703490018845
1782845825818494200,8.463494140625,0.00032803136855363846,0.007539479993283749,0.014610246755182743
1782845825828499200,8.473499267578125,-0.0013258461840450764,0.010546481236815453,0.014774365350604057
1782845825838504200,8.483504150390624,-0.005722724832594395,0.014828843995928764,0.018317967653274536
1782845825848509200,8.49350927734375,-0.0068829795345664024,0.011789015494287014,0.023517444729804993
1782845825858514400,8.503514404296874,-0.00693065021187067,0.011247861199080944,0.02321038208901882
1782845825868519400,8.51351953125,-0.0023603872396051884,0.012163745239377022,0.028140930458903313
1782845825878524400,8.5235244140625,0.00018133362755179405,0.009489664807915688,0.03394262492656708
1782845825888529400,8.533529296875,-0.002037963131442666,0.0018723212415352464,0.03542369231581688
1782845825898534400,8.543534423828126,0.0012481112498790026,0.0007476683240383863,0.032140281051397324
1782845825908539400,8.553539306640625,0.0013638492673635483,-0.0027016063686460257,0.027733946219086647
1782845825918544400,8.56354443359375,-0.0018937294371426105,-0.005062765441834927,0.017093820497393608
1782845825928549400,8.57354931640625,-0.004246691707521677,-0.0004162068944424391,0.007045203819870949
1782845825938554400,8.583554443359375,-0.004693570081144571,0.004758048802614212,0.0018062330782413483
1782845825948559400,8.593559326171874,-0.004662985913455486,0.0043453071266412735,-0.0005460974643938243
1782845825958564400,8.603564453125,-0.0021260585635900497,0.006748809479176998,0.0039706239476799965
1782845825968569300,8.6135693359375,-0.0008815887849777937,0.0023132702335715294,0.01394128892570734
1782845825978574300,8.62357421875,0.0008209701627492905,-0.00007931375876069069,0.01566462032496929
1782845825988579300,8.633579345703126,0.0023833070881664753,-0.003704286413267255,0.021053940057754517
1782845825998584300,8.643584228515625,0.0018669203855097294,0.00010962667874991894,0.025432975962758064
1782845826008589300,8.65358935546875,0.002419175347313285,0.023064307868480682,0.05798407271504402
1782845826018594300,8.66359423828125,-0.00043093960266560316,0.018761437386274338,0.060173459351062775
1782845826028599300,8.673599365234375,0.002251814818009734,0.03647881746292114,0.019245026633143425
1782845826038604300,8.683604248046874,0.01090335939079523,0.013275225646793842,-0.022385507822036743
1782845826048609300,8.693609375,0.02966419793665409,-0.01714765653014183,-0.03923523426055908
1782845826058614300,8.7036142578125,0.0438508577644825,-0.03224298357963562,-0.04728730022907257
1782845826068619300,8.713619384765625,0.04273223131895065,-0.04419917240738869,-0.03733203187584877
1782845826078623200,8.723623291015626,0.04391254484653473,-0.03290470689535141,-0.02131764590740204
1782845826088628200,8.733628173828125,0.04096466302871704,-0.0088807949796319,-0.013148119673132896
1782845826098633200,8.74363330078125,0.04710404947400093,0.0018730496522039175,-0.019892575219273567
1782845826108638200,8.75363818359375,0.03887492045760155,0.00000852230004966259,-0.02783709019422531
