time,seconds_elapsed,z,y,x
1782846216960544500,0.06554443359375,-0.9964599609375,-0.022857666015625,0.0003814697265625
1782846216970549500,0.075549560546875,-0.9944000244140625,-0.0215301513671875,0.0005340576171875
1782846216980554500,0.085554443359375,-0.983642578125,-0.02227783203125,0.0048370361328125
1782846216990559500,0.0955595703125,-0.98736572265625,-0.0226898193359375,0.00299072265625
1782846217000564500,0.105564453125,-0.9958953857421875,-0.0211944580078125,0.0002899169921875
1782846217010569500,0.115569580078125,-0.987274169921875,-0.0220489501953125,0.004180908203125
1782846217020574500,0.125574462890625,-0.9863128662109375,-0.0216217041015625,0.005279541015625
1782846217030579500,0.135579345703125,-0.9916839599609375,-0.02117919921875,0.00299072265625
1782846217040584400,0.14558447265625,-0.9919891357421875,-0.02105712890625,0.00250244140625
1782846217050589400,0.15558935546875,-0.989349365234375,-0.021392822265625,0.0036773681640625
1782846217060594400,0.165594482421875,-0.9889678955078125,-0.022064208984375,0.0024566650390625
1782846217070599700,0.175599609375,-0.990936279296875,-0.0217437744140625,0.00225830078125
1782846217080604700,0.185604736328125,-0.991790771484375,-0.021820068359375,0.0015716552734375
1782846217090609700,0.195609619140625,-0.9880523681640625,-0.02227783203125,0.0012664794921875
1782846217100614700,0.20561474609375,-0.989837646484375,-0.0213470458984375,0.00225830078125
1782846217110619600,0.21561962890625,-0.9923095703125,-0.02032470703125,0.0034332275390625
1782846217120624600,0.225624755859375,-0.9907379150390625,-0.019378662109375,0.00274658203125
1782846217130629600,0.235629638671875,-0.98980712890625,-0.019744873046875,0.001678466796875
1782846217140634600,0.245634521484375,-0.9915771484375,-0.020172119140625,0.00262451171875
1782846217150639600,0.2556396484375,-0.9913787841796875,-0.02099609375,0.0012969970703125
1782846217160644600,0.26564453125,-0.9899444580078125,-0.021697998046875,0.0017242431640625
1782846217170649600,0.275649658203125,-0.9887237548828125,-0.0220184326171875,0.0017547607421875
1782846217180654600,0.285654541015625,-0.990570068359375,-0.0228118896484375,0.00286865234375
1782846217190659600,0.29565966796875,-0.9892578125,-0.023101806640625,0.00347900390625
1782846217200663600,0.30566357421875,-0.9881439208984375,-0.0222015380859375,0.0035858154296875
1782846217210668500,0.31566845703125,-0.9906768798828125,-0.0223388671875,0.0033721923828125
1782846217220673500,0.325673583984375,-0.99072265625,-0.0230255126953125,0.003662109375
1782846217230678500,0.335678466796875,-0.99005126953125,-0.0222625732421875,0.003753662109375
1782846217240683500,0.34568359375,-0.9901885986328125,-0.0208282470703125,0.0049896240234375
1782846217250688500,0.3556884765625,-0.990997314453125,-0.021026611328125,0.003875732421875
1782846217260693500,0.365693603515625,-0.988739013671875,-0.0202789306640625,0.001708984375
1782846217270698500,0.375698486328125,-0.988677978515625,-0.021575927734375,0.002349853515625
1782846217280703500,0.385703369140625,-0.9905242919921875,-0.021636962890625,0.001708984375
1782846217290708500,0.39570849609375,-0.9907684326171875,-0.01971435546875,0
1782846217300713500,0.40571337890625,-0.989959716796875,-0.0205535888671875,0.00177001953125
1782846217310718500,0.415718505859375,-0.990509033203125,-0.0210418701171875,0.003997802734375
1782846217320723500,0.425723388671875,-0.9891204833984375,-0.022369384765625,0.0034027099609375
1782846217330728400,0.435728515625,-0.9894866943359375,-0.0211334228515625,0.0027618408203125
1782846217340733400,0.4457333984375,-0.9895172119140625,-0.0218353271484375,0.0039825439453125
1782846217350738400,0.455738525390625,-0.9894866943359375,-0.021820068359375,0.00360107421875
1782846217360743400,0.465743408203125,-0.99163818359375,-0.0216217041015625,0.0037384033203125
1782846217370748400,0.47574853515625,-0.991424560546875,-0.02288818359375,0.003143310546875
1782846217380753400,0.48575341796875,-0.9898529052734375,-0.0213165283203125,0.0031890869140625
1782846217390758400,0.49575830078125,-0.9891510009765625,-0.02178955078125,0.003265380859375
1782846217400763400,0.505763427734375,-0.9894561767578125,-0.0206451416015625,0.001800537109375
1782846217410768400,0.515768310546875,-0.9896087646484375,-0.020721435546875,0.004730224609375
1782846217420773600,0.525773681640625,-0.9917755126953125,-0.021697998046875,0.0035552978515625
1782846217430778600,0.535778564453125,-0.9908599853515625,-0.022186279296875,0.0034637451171875
1782846217440783600,0.54578369140625,-0.9916839599609375,-0.0228118896484375,0.0030670166015625
1782846217450788600,0.55578857421875,-0.98992919921875,-0.0209808349609375,0.0016326904296875
1782846217460793600,0.565793701171875,-0.99127197265625,-0.0214080810546875,0.001800537109375
1782846217470798600,0.575798583984375,-0.990509033203125,-0.0219573974609375,0.0027008056640625
1782846217480803600,0.585803466796875,-0.990631103515625,-0.0229034423828125,0.0020599365234375
1782846217490808600,0.59580859375,-0.99090576171875,-0.0215301513671875,0.001708984375
1782846217500814000,0.60581396484375,-0.990570068359375,-0.021728515625,0.0012359619140625
1782846217510819000,0.615819091796875,-0.9904327392578125,-0.02154541015625,0.0028076171875
1782846217520824000,0.625823974609375,-0.99102783203125,-0.020355224609375,0.002899169921875
1782846217530829000,0.6358291015625,-0.9897918701171875,-0.0206451416015625,0.00067138671875
1782846217540833000,0.6458330078125,-0.9903411865234375,-0.0229339599609375,0.0023345947265625
1782846217550838000,0.655838134765625,-0.9910430908203125,-0.0209197998046875,0.0026702880859375
1782846217560843000,0.665843017578125,-0.9896697998046875,-0.0216827392578125,0.0030517578125
1782846217570848000,0.675847900390625,-0.990081787109375,-0.0216827392578125,0.0026397705078125
1782846217580853000,0.68585302734375,-0.9900970458984375,-0.022430419921875,0.0027008056640625
1782846217590858000,0.69585791015625,-0.9908905029296875,-0.0225677490234375,0.0063934326171875
1782846217600863000,0.705863037109375,-0.990570068359375,-0.0223541259765625,0.003387451171875
1782846217610868000,0.715867919921875,-0.9897918701171875,-0.0213623046875,0.002655029296875
1782846217620873000,0.725873046875,-0.99041748046875,-0.0216064453125,0.00286865234375
1782846217630878000,0.7358779296875,-0.9908294677734375,-0.0211944580078125,0.0035400390625
1782846217640883000,0.745883056640625,-0.989288330078125,-0.02069091796875,0.0029449462890625
1782846217650888000,0.755887939453125,-0.990875244140625,-0.02215576171875,0.0016326904296875
1782846217660893000,0.765892822265625,-0.990753173828125,-0.0220489501953125,0.0028533935546875
1782846217670898000,0.77589794921875,-0.9905548095703125,-0.02081298828125,0.0028533935546875
1782846217680903000,0.78590283203125,-0.99017333984375,-0.0203857421875,0.0021209716796875
1782846217690908000,0.795907958984375,-0.990570068359375,-0.0215911865234375,0.00201416015625
1782846217700913000,0.805912841796875,-0.990234375,-0.021820068359375,0.001312255859375
1782846217710918000,0.81591796875,-0.989532470703125,-0.02154541015625,0.0024871826171875
1782846217720923000,0.8259228515625,-0.991546630859375,-0.0214385986328125,0.0040130615234375
1782846217730927900,0.835927978515625,-0.991241455078125,-0.0217132568359375,0.00274658203125
1782846217740932900,0.845932861328125,-0.9890899658203125,-0.022308349609375,0.0025482177734375
1782846217750937900,0.855937744140625,-0.989654541015625,-0.0198974609375,0.00213623046875
1782846217760942800,0.86594287109375,-0.990875244140625,-0.020843505859375,0.002166748046875
1782846217770947800,0.87594775390625,-0.99090576171875,-0.0210723876953125,0.0022125244140625
1782846217780952800,0.885952880859375,-0.99041748046875,-0.021728515625,0.0029144287109375
1782846217790957800,0.895957763671875,-0.99139404296875,-0.0220184326171875,0.00274658203125
1782846217800962800,0.905962890625,-0.9903564453125,-0.0214080810546875,0.0041656494140625
1782846217810967800,0.9159677734375,-0.9909820556640625,-0.02252197265625,0.002105712890625
1782846217820972800,0.925972900390625,-0.990814208984375,-0.021575927734375,0.0026092529296875
1782846217830977800,0.935977783203125,-0.99078369140625,-0.02276611328125,0.0013427734375
1782846217840983000,0.945983154296875,-0.9908905029296875,-0.022125244140625,0.003326416015625
1782846217850988000,0.955988037109375,-0.9906463623046875,-0.021514892578125,0.001617431640625
1782846217860993000,0.965992919921875,-0.99151611328125,-0.021697998046875,0.000732421875
1782846217870997000,0.9759970703125,-0.99114990234375,-0.01995849609375,0.001434326171875
1782846217881002000,0.986001953125,-0.990203857421875,-0.02166748046875,0.0012664794921875
1782846217891007000,0.996007080078125,-0.990020751953125,-0.0221405029296875,0.0031280517578125
1782846217901012000,1.006011962890625,-0.990020751953125,-0.021484375,0.00201416015625
1782846217911017000,1.016016845703125,-0.988372802734375,-0.0203094482421875,0.0031280517578125
1782846217921022000,1.02602197265625,-0.990020751953125,-0.0205230712890625,0.003936767578125
1782846217931027000,1.03602685546875,-0.9911346435546875,-0.0218658447265625,0.004547119140625
1782846217941032000,1.046031982421875,-0.989990234375,-0.0202484130859375,0.001922607421875
1782846217951037000,1.056036865234375,-0.990478515625,-0.021820068359375,0.002227783203125
1782846217961042000,1.0660419921875,-0.990509033203125,-0.0217742919921875,0.0025787353515625
1782846217971047000,1.076046875,-0.9910736083984375,-0.0227203369140625,0.004058837890625
1782846217981052000,1.086052001953125,-0.9903411865234375,-0.022491455078125,0.0024261474609375
1782846217991057000,1.096056884765625,-0.9890289306640625,-0.0224456787109375,0.001953125
1782846218001062000,1.106061767578125,-0.990020751953125,-0.0224609375,0.002899169921875
1782846218011067000,1.11606689453125,-0.990020751953125,-0.0207672119140625,0.0027923583984375
1782846218021072000,1.12607177734375,-0.9898529052734375,-0.0203399658203125,0.003204345703125
1782846218031076900,1.136076904296875,-0.98968505859375,-0.019561767578125,0.0025482177734375
1782846218041082000,1.14608203125,-0.989654541015625,-0.020050048828125,0.0020599365234375
1782846218051087000,1.156087158203125,-0.9915313720703125,-0.0222320556640625,0.002716064453125
1782846218061092000,1.166092041015625,-0.990936279296875,-0.021881103515625,0.0036163330078125
1782846218071097000,1.17609716796875,-0.9903717041015625,-0.0195770263671875,0.002960205078125
1782846218081102000,1.18610205078125,-0.9908905029296875,-0.0212554931640625,0.0035247802734375
1782846218091107000,1.196107177734375,-0.9914703369140625,-0.0216064453125,0.0034942626953125
1782846218101112000,1.206112060546875,-0.9920654296875,-0.02142333984375,0.0015716552734375
1782846218111117000,1.216116943359375,-0.9902191162109375,-0.02130126953125,0.0028228759765625
1782846218121122000,1.2261220703125,-0.9886627197265625,-0.0213165283203125,0.0028228759765625
1782846218131127000,1.236126953125,-0.990325927734375,-0.021514892578125,0.0031890869140625
1782846218141132000,1.246132080078125,-0.9909210205078125,-0.0226593017578125,0.003448486328125
1782846218151137000,1.256136962890625,-0.9914398193359375,-0.0213623046875,0.002838134765625
1782846218161142000,1.26614208984375,-0.9904022216796875,-0.0198974609375,0.00250244140625
1782846218171147000,1.27614697265625,-0.990447998046875,-0.020599365234375,0.002960205078125
1782846218181152000,1.286152099609375,-0.9918975830078125,-0.02294921875,0.0037689208984375
1782846218191157000,1.296156982421875,-0.9902191162109375,-0.02056884765625,0.00421142578125
1782846218201162000,1.306161865234375,-0.990692138671875,-0.0214080810546875,0.004302978515625
1782846218211167000,1.3161669921875,-0.99102783203125,-0.0205078125,0.002044677734375
1782846218221171200,1.326171142578125,-0.9898529052734375,-0.019683837890625,0.0021514892578125
1782846218231176200,1.33617626953125,-0.9911041259765625,-0.0205230712890625,0.0033721923828125
1782846218241181200,1.34618115234375,-0.9904632568359375,-0.0220794677734375,0.00250244140625
1782846218251186200,1.356186279296875,-0.990936279296875,-0.0213775634765625,0.0016632080078125
1782846218261191200,1.366191162109375,-0.9908905029296875,-0.021331787109375,0.0022735595703125
1782846218271196200,1.376196044921875,-0.9912872314453125,-0.0225372314453125,0.0026702880859375
1782846218281201200,1.386201171875,-0.991119384765625,-0.02154541015625,0.001708984375
1782846218291206100,1.3962060546875,-0.99053955078125,-0.0223541259765625,0.001434326171875
1782846218301211100,1.406211181640625,-0.9900054931640625,-0.02288818359375,0.00128173828125
1782846218311216000,1.416216064453125,-0.991058349609375,-0.022216796875,0.0039215087890625
1782846218321221000,1.42622119140625,-0.989471435546875,-0.0217742919921875,0.0028839111328125
1782846218331226000,1.43622607421875,-0.9905853271484375,-0.0204925537109375,0.002410888671875
1782846218341231000,1.446231201171875,-0.9912109375,-0.021484375,0.0021514892578125
1782846218351236000,1.456236083984375,-0.991546630859375,-0.0219879150390625,0.0023345947265625
1782846218361241000,1.466240966796875,-0.9907073974609375,-0.021514892578125,0.0021820068359375
1782846218371246000,1.47624609375,-0.9894561767578125,-0.0231475830078125,0.002166748046875
1782846218381251000,1.4862509765625,-0.990386962890625,-0.0219573974609375,0.0016326904296875
1782846218391256000,1.496256103515625,-0.9903106689453125,-0.0214385986328125,0.0032958984375
1782846218401261000,1.506260986328125,-0.98992919921875,-0.020538330078125,0.001434326171875
1782846218411266000,1.51626611328125,-0.99072265625,-0.0211181640625,0.0008697509765625
1782846218421271000,1.52627099609375,-0.991424560546875,-0.022918701171875,0.00213623046875
1782846218431276000,1.536276123046875,-0.989959716796875,-0.02093505859375,0.004150390625
1782846218441281000,1.546281005859375,-0.9897918701171875,-0.02001953125,0.003143310546875
1782846218451286000,1.5562861328125,-0.99017333984375,-0.020751953125,0.0027313232421875
1782846218461291000,1.566291015625,-0.9902801513671875,-0.0215911865234375,0.0034942626953125
1782846218471296000,1.5762958984375,-0.989715576171875,-0.0225372314453125,0.00390625
1782846218481301000,1.586301025390625,-0.991363525390625,-0.020751953125,0.003326416015625
1782846218491306000,1.596305908203125,-0.9912261962890625,-0.020751953125,0.001983642578125
1782846218501311000,1.60631103515625,-0.989837646484375,-0.022125244140625,0.00177001953125
1782846218511316000,1.61631591796875,-0.9906005859375,-0.0219268798828125,0.0028839111328125
1782846218521321000,1.626321044921875,-0.990386962890625,-0.021759033203125,0.0024871826171875
1782846218531326000,1.636325927734375,-0.9888916015625,-0.02130126953125,0.0021820068359375
1782846218541331000,1.6463310546875,-0.9911346435546875,-0.0207061767578125,0.00347900390625
1782846218551336000,1.6563359375,-0.9908447265625,-0.0214996337890625,0.0022125244140625
1782846218561341000,1.6663408203125,-0.9900665283203125,-0.0209503173828125,0.0031890869140625
1782846218571346000,1.676345947265625,-0.991729736328125,-0.021148681640625,0.002777099609375
1782846218581350100,1.68635009765625,-0.98974609375,-0.0225067138671875,0.0017547607421875
1782846218591355100,1.696355224609375,-0.9903411865234375,-0.0209808349609375,0.0020751953125
1782846218601360100,1.706360107421875,-0.9916839599609375,-0.021575927734375,0.0025177001953125
1782846218611365000,1.716365234375,-0.9924774169921875,-0.020477294921875,0.0023651123046875
1782846218621370000,1.7263701171875,-0.9914703369140625,-0.02020263671875,0.00347900390625
1782846218631375000,1.736375,-0.989227294921875,-0.0207672119140625,0.003753662109375
1782846218641380000,1.746380126953125,-0.98895263671875,-0.022003173828125,0.0018157958984375
1782846218651385000,1.756385009765625,-0.991668701171875,-0.0220947265625,0.0020904541015625
1782846218661390000,1.76639013671875,-0.9888458251953125,-0.02093505859375,0.003387451171875
1782846218671395000,1.77639501953125,-0.991058349609375,-0.02215576171875,0.00274658203125
1782846218681400000,1.786400146484375,-0.9912109375,-0.0216522216796875,0.0019073486328125
1782846218691405000,1.796405029296875,-0.9917755126953125,-0.0214691162109375,0.003204345703125
1782846218701410000,1.80641015625,-0.9897613525390625,-0.01971435546875,0.0015106201171875
1782846218711415000,1.8164150390625,-0.99212646484375,-0.020904541015625,0.0025787353515625
1782846218721420000,1.826419921875,-0.990936279296875,-0.0201416015625,0.002960205078125
1782846218731425000,1.836425048828125,-0.9903564453125,-0.0211639404296875,0.0011138916015625
1782846218741430000,1.846429931640625,-0.992645263671875,-0.0214691162109375,0.0030059814453125
1782846218751435000,1.85643505859375,-0.9903564453125,-0.0205078125,0.0013885498046875
1782846218761440000,1.86643994140625,-0.9904937744140625,-0.0213165283203125,0.0010528564453125
1782846218771445000,1.876445068359375,-0.9898223876953125,-0.0212249755859375,0.0022735595703125
1782846218781450000,1.886449951171875,-0.9898834228515625,-0.02142333984375,0.0028533935546875
1782846218791455000,1.896455078125,-0.9918060302734375,-0.0215301513671875,0.001983642578125
1782846218801460000,1.9064599609375,-0.99041748046875,-0.0210418701171875,0.002349853515625
1782846218811465000,1.91646484375,-0.991180419921875,-0.021881103515625,0.0025787353515625
1782846218821470000,1.926469970703125,-0.9911041259765625,-0.022247314453125,0.001861572265625
1782846218831475000,1.936474853515625,-0.99163818359375,-0.021240234375,0.0021209716796875
1782846218841480000,1.94647998046875,-0.990264892578125,-0.020477294921875,0.001708984375
1782846218851485000,1.95648486328125,-0.9905242919921875,-0.021636962890625,0.00372314453125
1782846218861490000,1.966489990234375,-0.99053955078125,-0.0213470458984375,0.0024871826171875
1782846218871495000,1.976494873046875,-0.9906463623046875,-0.021820068359375,0.0018310546875
1782846218881500000,1.9865,-0.9911956787109375,-0.0230255126953125,0.0037078857421875
1782846218891505000,1.9965048828125,-0.9904022216796875,-0.0229339599609375,0.0007171630859375
1782846218901510000,2.006510009765625,-0.9906768798828125,-0.0215911865234375,0.0032196044921875
1782846218911515000,2.016514892578125,-0.9914703369140625,-0.0227813720703125,0.0030059814453125
1782846218921519900,2.026519775390625,-0.9901580810546875,-0.0211029052734375,0.005218505859375
1782846218931524900,2.03652490234375,-0.9901123046875,-0.0205841064453125,0.0044403076171875
1782846218941530000,2.046530029296875,-0.9890289306640625,-0.020538330078125,0.0042572021484375
1782846218951534000,2.0565341796875,-0.989959716796875,-0.0203857421875,0.003143310546875
1782846218961539000,2.0665390625,-0.9893646240234375,-0.022705078125,0.0027313232421875
1782846218971544000,2.0765439453125,-0.990325927734375,-0.0223541259765625,0.00177001953125
1782846218981549000,2.086549072265625,-0.9911651611328125,-0.0217742919921875,0.002044677734375
1782846218991554000,2.096553955078125,-0.990936279296875,-0.0223541259765625,0.0017852783203125
1782846219001559000,2.10655908203125,-0.9900665283203125,-0.0208892822265625,0.002777099609375
1782846219011564000,2.11656396484375,-0.9918975830078125,-0.0224456787109375,0.0014801025390625
1782846219021569000,2.126569091796875,-0.992156982421875,-0.021728515625,0.0030670166015625
1782846219031574000,2.136573974609375,-0.9905853271484375,-0.0223541259765625,0.0033416748046875
1782846219041579000,2.1465791015625,-0.9901123046875,-0.022216796875,0.0020599365234375
1782846219051584000,2.156583984375,-0.9892120361328125,-0.022003173828125,0.0016632080078125
1782846219061589000,2.166589111328125,-0.9902191162109375,-0.0209503173828125,0.0032958984375
1782846219071594000,2.176593994140625,-0.9910125732421875,-0.02166748046875,0.0027618408203125
1782846219081599000,2.186598876953125,-0.9903411865234375,-0.0208587646484375,0.0024871826171875
1782846219091604000,2.19660400390625,-0.9914703369140625,-0.021209716796875,0.004547119140625
1782846219101609000,2.20660888671875,-0.99102783203125,-0.0219879150390625,0.001953125
1782846219111614000,2.216614013671875,-0.9907684326171875,-0.02197265625,0.0012359619140625
1782846219121619000,2.226618896484375,-0.9911956787109375,-0.021514892578125,0.0018463134765625
1782846219131624000,2.2366240234375,-0.99139404296875,-0.021331787109375,0.0035858154296875
1782846219141629000,2.24662890625,-0.99139404296875,-0.0220794677734375,0.0017242431640625
1782846219151634000,2.256634033203125,-0.989898681640625,-0.0215301513671875,0.0016632080078125
1782846219161639000,2.266638916015625,-0.9905853271484375,-0.0225677490234375,0.0023345947265625
1782846219171644000,2.276643798828125,-0.9910736083984375,-0.020751953125,0.001708984375
1782846219181649000,2.28664892578125,-0.9897613525390625,-0.021942138671875,0.0015869140625
1782846219191654000,2.29665380859375,-0.991668701171875,-0.021392822265625,0.0027313232421875
1782846219201659000,2.306658935546875,-0.9907073974609375,-0.020111083984375,0.0026092529296875
1782846219211664000,2.316663818359375,-0.989471435546875,-0.022003173828125,0.001861572265625
1782846219221668900,2.3266689453125,-0.9883880615234375,-0.0220184326171875,0.001739501953125
1782846219231673900,2.336673828125,-0.9907379150390625,-0.0210723876953125,0.0040740966796875
1782846219241678800,2.346678955078125,-0.9902191162109375,-0.0223388671875,0.0026397705078125
1782846219251683800,2.356683837890625,-0.99102783203125,-0.021942138671875,0.0023345947265625
1782846219261688800,2.366688720703125,-0.9913330078125,-0.021240234375,0.00390625
1782846219271693800,2.37669384765625,-0.9901885986328125,-0.020904541015625,0.0026702880859375
1782846219281698800,2.38669873046875,-0.9898681640625,-0.022125244140625,0.00372314453125
1782846219291704000,2.3967041015625,-0.9905242919921875,-0.02197265625,0.0023651123046875
1782846219301709000,2.406708984375,-0.98992919921875,-0.0211639404296875,0.004486083984375
1782846219311714000,2.416714111328125,-0.9898223876953125,-0.020904541015625,0.00390625
1782846219321719000,2.426718994140625,-0.9910125732421875,-0.0208587646484375,0.0032958984375
1782846219331723000,2.436722900390625,-0.9918060302734375,-0.0217132568359375,0.0022430419921875
1782846219341728000,2.44672802734375,-0.991546630859375,-0.022247314453125,0.0029754638671875
1782846219351733000,2.45673291015625,-0.9902801513671875,-0.021820068359375,0.003448486328125
1782846219361738000,2.466738037109375,-0.9918365478515625,-0.021270751953125,0.00250244140625
1782846219371743000,2.476742919921875,-0.9905242919921875,-0.018890380859375,0.00250244140625
1782846219381748000,2.486748046875,-0.989501953125,-0.020416259765625,0.0030364990234375
1782846219391753000,2.4967529296875,-0.9898834228515625,-0.0216217041015625,0.0023956298828125
1782846219401758000,2.506758056640625,-0.9908294677734375,-0.0216522216796875,0.0037689208984375
1782846219411763000,2.516762939453125,-0.9901885986328125,-0.0219268798828125,0.0025787353515625
1782846219421768000,2.526767822265625,-0.9927978515625,-0.02191162109375,0.0017852783203125
1782846219431773000,2.53677294921875,-0.99102783203125,-0.0225677490234375,0.0032958984375
1782846219441778000,2.54677783203125,-0.990203857421875,-0.0222320556640625,0.0023956298828125
1782846219451783000,2.556782958984375,-0.992156982421875,-0.022064208984375,0.0009002685546875
1782846219461788000,2.566787841796875,-0.99139404296875,-0.021575927734375,0.0006561279296875
1782846219471793000,2.57679296875,-0.99005126953125,-0.02215576171875,0.00103759765625
1782846219481798000,2.5867978515625,-0.989837646484375,-0.0213165283203125,0.002685546875
1782846219491803000,2.596802978515625,-0.990631103515625,-0.0214080810546875,0.0027923583984375
1782846219501807900,2.606807861328125,-0.9904327392578125,-0.0213775634765625,0.0025787353515625
1782846219511812900,2.616812744140625,-0.9898681640625,-0.0223846435546875,0.0025787353515625
1782846219521817900,2.62681787109375,-0.9900360107421875,-0.021148681640625,0.0029449462890625
1782846219531822800,2.63682275390625,-0.9889984130859375,-0.02178955078125,0.0020294189453125
1782846219541827800,2.646827880859375,-0.9886474609375,-0.021240234375,0.001922607421875
1782846219551832800,2.656832763671875,-0.9894561767578125,-0.021331787109375,0.002288818359375
1782846219561837800,2.666837890625,-0.9902191162109375,-0.021759033203125,0.0019378662109375
1782846219571842800,2.6768427734375,-0.9908905029296875,-0.020843505859375,0.002593994140625
1782846219581847800,2.686847900390625,-0.9915008544921875,-0.0210418701171875,0.0036773681640625
1782846219591852800,2.696852783203125,-0.9903411865234375,-0.02117919921875,0.003021240234375
1782846219601857800,2.70685791015625,-0.99078369140625,-0.0223236083984375,0.0029296875
1782846219611862800,2.71686279296875,-0.9910736083984375,-0.021759033203125,0.00213623046875
1782846219621867800,2.72686767578125,-0.9893341064453125,-0.020843505859375,0.002960205078125
1782846219631872800,2.736872802734375,-0.99053955078125,-0.021636962890625,0.00311279296875
1782846219641878000,2.7468779296875,-0.99249267578125,-0.0213470458984375,0.0034637451171875
1782846219651883000,2.756883056640625,-0.9896697998046875,-0.0211944580078125,0.003692626953125
1782846219661888000,2.766887939453125,-0.990814208984375,-0.0210723876953125,0.00286865234375
1782846219671893000,2.77689306640625,-0.989501953125,-0.0233001708984375,0.001983642578125
1782846219681898000,2.78689794921875,-0.991455078125,-0.0230560302734375,0.00335693359375
1782846219691902000,2.79690185546875,-0.9901885986328125,-0.02178955078125,0.003570556640625
1782846219701908000,2.806907958984375,-0.9898681640625,-0.0218048095703125,0.0024261474609375
1782846219711912000,2.816911865234375,-0.9901885986328125,-0.0209808349609375,0.002960205078125
1782846219721917000,2.8269169921875,-0.990478515625,-0.020751953125,0.0009307861328125
1782846219731922000,2.836921875,-0.9922637939453125,-0.0196685791015625,0.0012664794921875
1782846219741927000,2.846927001953125,-0.989501953125,-0.022003173828125,0.00164794921875
1782846219751932000,2.856931884765625,-0.9910125732421875,-0.0223236083984375,0.0029144287109375
1782846219761937000,2.86693701171875,-0.9903717041015625,-0.022735595703125,0.0024261474609375
1782846219771942000,2.87694189453125,-0.9906768798828125,-0.0216217041015625,0.002716064453125
1782846219781947000,2.88694677734375,-0.9911346435546875,-0.021331787109375,0.0025634765625
1782846219791952000,2.896951904296875,-0.991729736328125,-0.02203369140625,0.0013885498046875
1782846219801956900,2.906956787109375,-0.990570068359375,-0.022186279296875,0.002532958984375
1782846219811961900,2.9169619140625,-0.99078369140625,-0.02117919921875,0.0018463134765625
1782846219821966800,2.926966796875,-0.9908905029296875,-0.0214080810546875,0.0035247802734375
1782846219831971800,2.936971923828125,-0.99017333984375,-0.020843505859375,0.00421142578125
1782846219841976800,2.946976806640625,-0.9900970458984375,-0.0226898193359375,0.0027008056640625
1782846219851981800,2.95698193359375,-0.991241455078125,-0.0203094482421875,0.0022735595703125
1782846219861986800,2.96698681640625,-0.9908294677734375,-0.020751953125,0.0025787353515625
1782846219871991800,2.97699169921875,-0.990478515625,-0.0225677490234375,0.0033721923828125
1782846219881996800,2.986996826171875,-0.990692138671875,-0.0216064453125,0.003387451171875
1782846219892001800,2.997001708984375,-0.990264892578125,-0.022430419921875,0.00201416015625
1782846219902006800,3.0070068359375,-0.9916839599609375,-0.021728515625,0.0034942626953125
1782846219912011800,3.01701171875,-0.990447998046875,-0.0209808349609375,0.0034942626953125
1782846219922016800,3.027016845703125,-0.990753173828125,-0.021575927734375,0.003265380859375
1782846219932021800,3.037021728515625,-0.9907073974609375,-0.020599365234375,0.001983642578125
1782846219942026800,3.04702685546875,-0.9896697998046875,-0.020477294921875,0.00177001953125
1782846219952031700,3.05703173828125,-0.9900054931640625,-0.0212860107421875,0.002410888671875
1782846219962036700,3.06703662109375,-0.9903106689453125,-0.021148681640625,0.0037078857421875
1782846219972041700,3.077041748046875,-0.989898681640625,-0.0221099853515625,0.001953125
1782846219982046700,3.087046630859375,-0.99041748046875,-0.0217132568359375,0.003204345703125
1782846219992051700,3.0970517578125,-0.992340087890625,-0.0215606689453125,0.0039520263671875
1782846220002057000,3.107056884765625,-0.9912872314453125,-0.0220794677734375,0.00384521484375
1782846220012062000,3.11706201171875,-0.9908905029296875,-0.022857666015625,0.0032501220703125
1782846220022067000,3.12706689453125,-0.9915771484375,-0.0213775634765625,0.0024871826171875
1782846220032072000,3.137072021484375,-0.99066162109375,-0.0212249755859375,0.0021209716796875
1782846220042077000,3.147076904296875,-0.9900970458984375,-0.0211639404296875,0.0021820068359375
1782846220052082000,3.15708203125,-0.990631103515625,-0.021759033203125,0.001708984375
1782846220062087000,3.1670869140625,-0.9909210205078125,-0.0220947265625,0.0027618408203125
1782846220072091000,3.1770908203125,-0.9905548095703125,-0.0214385986328125,0.00225830078125
1782846220082095900,3.187095947265625,-0.9893646240234375,-0.0215301513671875,0.00360107421875
1782846220092100900,3.197100830078125,-0.99090576171875,-0.02117919921875,0.002716064453125
1782846220102105900,3.20710595703125,-0.991058349609375,-0.021697998046875,0.0027313232421875
1782846220112110800,3.21711083984375,-0.9907073974609375,-0.02166748046875,0.0026397705078125
1782846220122115800,3.22711572265625,-0.9888458251953125,-0.02032470703125,0.002532958984375
1782846220132120800,3.237120849609375,-0.9895782470703125,-0.0211181640625,0.00262451171875
1782846220142125800,3.247125732421875,-0.990020751953125,-0.0220184326171875,0.0020751953125
1782846220152130800,3.257130859375,-0.991363525390625,-0.0210723876953125,0.0026702880859375
1782846220162135800,3.2671357421875,-0.99212646484375,-0.0199432373046875,0.0017852783203125
1782846220172140800,3.277140869140625,-0.9915771484375,-0.0211181640625,0.0030364990234375
1782846220182145800,3.287145751953125,-0.990570068359375,-0.0209197998046875,0.0026092529296875
1782846220192150800,3.29715087890625,-0.990509033203125,-0.0217132568359375,0.00360107421875
1782846220202155800,3.30715576171875,-0.989776611328125,-0.02020263671875,0.0037384033203125
1782846220212160800,3.317160888671875,-0.9899444580078125,-0.0236358642578125,0.0018310546875
1782846220222165800,3.327165771484375,-0.9905242919921875,-0.021514892578125,0.002899169921875
1782846220232170800,3.337170654296875,-0.991180419921875,-0.020294189453125,0.0021820068359375
1782846220242175700,3.34717578125,-0.9912872314453125,-0.021209716796875,0.0023193359375
1782846220252180700,3.3571806640625,-0.9897918701171875,-0.0222015380859375,0.001708984375
1782846220262185700,3.367185791015625,-0.9906768798828125,-0.02239990234375,0.0034332275390625
1782846220272190700,3.377190673828125,-0.9898834228515625,-0.022796630859375,0.0036468505859375
1782846220282195700,3.38719580078125,-0.990814208984375,-0.021881103515625,0.003326416015625
1782846220292200700,3.39720068359375,-0.9901580810546875,-0.0207977294921875,0.0027008056640625
1782846220302205700,3.407205810546875,-0.99072265625,-0.0210723876953125,0.002288818359375
1782846220312210700,3.417210693359375,-0.9920196533203125,-0.0213775634765625,0.002105712890625
1782846220322215700,3.427215576171875,-0.990875244140625,-0.0215301513671875,0.0024566650390625
1782846220332220700,3.437220703125,-0.989501953125,-0.0213470458984375,0.00311279296875
1782846220342225700,3.4472255859375,-0.9910736083984375,-0.0215301513671875,0.0019378662109375
1782846220352231000,3.45723095703125,-0.9906768798828125,-0.0222930908203125,0.0014801025390625
1782846220362236000,3.46723583984375,-0.9886932373046875,-0.02294921875,0.0026397705078125
1782846220372241000,3.477240966796875,-0.9904022216796875,-0.02252197265625,0.002288818359375
1782846220382246100,3.48724609375,-0.990631103515625,-0.0209808349609375,0.00396728515625
1782846220392251100,3.497251220703125,-0.9912109375,-0.0213470458984375,0.00384521484375
1782846220402256100,3.507256103515625,-0.991455078125,-0.02178955078125,0.0034637451171875
1782846220412261000,3.51726123046875,-0.991943359375,-0.0201873779296875,0.003204345703125
1782846220422266000,3.52726611328125,-0.9915771484375,-0.0216217041015625,0.003814697265625
1782846220432269800,3.537269775390625,-0.9918060302734375,-0.0211639404296875,0.0027008056640625
1782846220442274800,3.54727490234375,-0.9912261962890625,-0.0205535888671875,0.003875732421875
1782846220452279800,3.55727978515625,-0.9895477294921875,-0.021453857421875,0.002471923828125
1782846220462284800,3.567284912109375,-0.98992919921875,-0.021575927734375,0.002410888671875
1782846220472289800,3.577289794921875,-0.9909210205078125,-0.02252197265625,0.0034332275390625
1782846220482294800,3.587294677734375,-0.9915618896484375,-0.0216064453125,0.0037994384765625
1782846220492299800,3.5972998046875,-0.9920196533203125,-0.0198822021484375,0.002960205078125
1782846220502304800,3.6073046875,-0.990020751953125,-0.0206298828125,0.0023193359375
1782846220512309800,3.617309814453125,-0.9888458251953125,-0.0201873779296875,0.002410888671875
1782846220522314800,3.627314697265625,-0.9896087646484375,-0.0210113525390625,0.00140380859375
1782846220532319700,3.63731982421875,-0.9902801513671875,-0.020965576171875,0.002655029296875
1782846220542324700,3.64732470703125,-0.9897613525390625,-0.0214996337890625,0.001739501953125
1782846220552329700,3.657329833984375,-0.989288330078125,-0.0222320556640625,0.0030670166015625
1782846220562334700,3.667334716796875,-0.990631103515625,-0.0211029052734375,0.00396728515625
1782846220572339700,3.677339599609375,-0.9911041259765625,-0.0211944580078125,0.0023345947265625
1782846220582344700,3.6873447265625,-0.990570068359375,-0.021453857421875,0.0033111572265625
1782846220592349700,3.697349609375,-0.9899139404296875,-0.021942138671875,0.004302978515625
1782846220602354700,3.707354736328125,-0.9904022216796875,-0.022216796875,0.0033111572265625
1782846220612359700,3.717359619140625,-0.9897308349609375,-0.0222320556640625,0.0028228759765625
1782846220622364700,3.72736474609375,-0.9896392822265625,-0.0224151611328125,0.00250244140625
1782846220632369700,3.73736962890625,-0.9895782470703125,-0.0210723876953125,0.0018157958984375
1782846220642374700,3.747374755859375,-0.989837646484375,-0.02227783203125,0.002685546875
1782846220652379600,3.757379638671875,-0.9904327392578125,-0.0215301513671875,0.0024871826171875
1782846220662384600,3.767384521484375,-0.989959716796875,-0.0220794677734375,0.0036468505859375
1782846220672389600,3.7773896484375,-0.9913482666015625,-0.02008056640625,0.0025634765625
1782846220682394600,3.78739453125,-0.9906005859375,-0.0204925537109375,0.002532958984375
1782846220692399600,3.797399658203125,-0.9912109375,-0.0220184326171875,0.003265380859375
1782846220702404900,3.80740478515625,-0.9915771484375,-0.0207977294921875,0.0024261474609375
1782846220712409900,3.817409912109375,-0.9908905029296875,-0.0220489501953125,0.0034942626953125
1782846220722414800,3.827414794921875,-0.9891815185546875,-0.021240234375,0.0027923583984375
1782846220732419800,3.837419921875,-0.989990234375,-0.021820068359375,0.002655029296875
1782846220742424800,3.8474248046875,-0.989837646484375,-0.02252197265625,0.0026702880859375
1782846220752429800,3.857429931640625,-0.9919586181640625,-0.021942138671875,0.00341796875
1782846220762433800,3.867433837890625,-0.9908599853515625,-0.02142333984375,0.0014190673828125
1782846220772438800,3.877438720703125,-0.9901123046875,-0.022064208984375,0.0021820068359375
1782846220782443800,3.88744384765625,-0.99237060546875,-0.02178955078125,0.003326416015625
1782846220792448800,3.89744873046875,-0.9901275634765625,-0.02008056640625,0.002532958984375
1782846220802453800,3.907453857421875,-0.9911041259765625,-0.0204620361328125,0.0026702880859375
1782846220812458800,3.917458740234375,-0.9883880615234375,-0.0222320556640625,0.002349853515625
1782846220822463700,3.927463623046875,-0.99066162109375,-0.02178955078125,0.0029144287109375
1782846220832468700,3.93746875,-0.990325927734375,-0.0220947265625,0.00396728515625
1782846220842473700,3.9474736328125,-0.9906768798828125,-0.02056884765625,0.0026092529296875
1782846220852478700,3.957478759765625,-0.990203857421875,-0.02069091796875,0.0022430419921875
1782846220862483700,3.967483642578125,-0.9907379150390625,-0.0201568603515625,0.0041046142578125
1782846220872488700,3.97748876953125,-0.9903411865234375,-0.020172119140625,0.00347900390625
1782846220882493700,3.98749365234375,-0.990325927734375,-0.021270751953125,0.0023956298828125
1782846220892498700,3.997498779296875,-0.98956298828125,-0.021240234375,0.0026702880859375
1782846220902503700,4.007503662109375,-0.9903106689453125,-0.0208892822265625,0.002410888671875
1782846220912508700,4.0175087890625,-0.9902191162109375,-0.0214385986328125,0.0032806396484375
1782846220922513700,4.027513671875,-0.991943359375,-0.0221710205078125,0.003326416015625
1782846220932518700,4.0375185546875,-0.9910430908203125,-0.0224456787109375,0.0020904541015625
1782846220942523600,4.047523681640625,-0.9899444580078125,-0.021270751953125,0.00189208984375
1782846220952528600,4.057528564453125,-0.989715576171875,-0.0221099853515625,0.004241943359375
1782846220962533600,4.06753369140625,-0.98956298828125,-0.0218505859375,0.003570556640625
1782846220972538600,4.07753857421875,-0.990386962890625,-0.0214691162109375,0.00225830078125
1782846220982543600,4.087543701171875,-0.9913787841796875,-0.0220489501953125,0.0032806396484375
1782846220992548600,4.097548583984375,-0.99090576171875,-0.021453857421875,0.0023040771484375
1782846221002553600,4.1075537109375,-0.9906005859375,-0.0205535888671875,0.002227783203125
1782846221012558800,4.117558837890625,-0.991424560546875,-0.0225677490234375,0.0025787353515625
1782846221022563800,4.127563720703125,-0.989593505859375,-0.02276611328125,0.0029144287109375
1782846221032568800,4.13756884765625,-0.9909820556640625,-0.0222625732421875,0.002593994140625
1782846221042573800,4.14757373046875,-0.9908905029296875,-0.0222320556640625,0.0037994384765625
1782846221052578800,4.157578857421875,-0.990875244140625,-0.0222015380859375,0.0028839111328125
1782846221062583800,4.167583740234375,-0.9898681640625,-0.02117919921875,0.0020599365234375
1782846221072588800,4.1775888671875,-0.9911651611328125,-0.021270751953125,0.00299072265625
1782846221082593800,4.18759375,-0.9909210205078125,-0.0203094482421875,0.00286865234375
1782846221092599000,4.19759912109375,-0.9913177490234375,-0.02069091796875,0.0025787353515625
1782846221102602800,4.207602783203125,-0.9907684326171875,-0.0213165283203125,0.0023193359375
1782846221112607700,4.217607666015625,-0.98883056640625,-0.0208740234375,0.0026702880859375
1782846221122612700,4.22761279296875,-0.9898529052734375,-0.0198974609375,0.001617431640625
1782846221132617700,4.23761767578125,-0.9898681640625,-0.022125244140625,0.003936767578125
1782846221142622700,4.247622802734375,-0.9911346435546875,-0.0230712890625,0.0018463134765625
1782846221152627700,4.257627685546875,-0.990447998046875,-0.022125244140625,0.0031280517578125
1782846221162632700,4.2676328125,-0.9896392822265625,-0.0208892822265625,0.0019683837890625
1782846221172637700,4.2776376953125,-0.9907989501953125,-0.02313232421875,0.002899169921875
1782846221182643000,4.287642822265625,-0.9906463623046875,-0.02398681640625,0.0031890869140625
1782846221192648000,4.29764794921875,-0.98980712890625,-0.0218048095703125,-0.0000457763671875
1782846221202653000,4.30765283203125,-0.99102783203125,-0.0217437744140625,0.0026702880859375
1782846221212658000,4.317657958984375,-0.9905242919921875,-0.0221405029296875,0.0023040771484375
1782846221222663000,4.327662841796875,-0.989898681640625,-0.021209716796875,0.002899169921875
1782846221232668000,4.33766796875,-0.9904937744140625,-0.02227783203125,0.00396728515625
1782846221242673000,4.3476728515625,-0.9916229248046875,-0.021270751953125,0.001434326171875
1782846221252678000,4.357677978515625,-0.9891510009765625,-0.0214996337890625,0.0022125244140625
1782846221262683000,4.367682861328125,-0.9893798828125,-0.0221710205078125,0.0029449462890625
1782846221272687900,4.37768798828125,-0.99072265625,-0.021942138671875,0.002655029296875
1782846221282692900,4.38769287109375,-0.9903717041015625,-0.021453857421875,0.0010986328125
1782846221292697900,4.39769775390625,-0.9902801513671875,-0.0218505859375,0.0027008056640625
1782846221302702800,4.407702880859375,-0.99102783203125,-0.0218048095703125,0.0032501220703125
1782846221312707800,4.417707763671875,-0.9897613525390625,-0.022430419921875,0.00238037109375
1782846221322712800,4.427712890625,-0.9909210205078125,-0.0206451416015625,0.003173828125
1782846221332717800,4.4377177734375,-0.9901580810546875,-0.0212860107421875,0.002227783203125
1782846221342722800,4.447722900390625,-0.9902801513671875,-0.021484375,0.0032196044921875
1782846221352727800,4.457727783203125,-0.9897613525390625,-0.02215576171875,0.00299072265625
1782846221362732800,4.46773291015625,-0.99072265625,-0.0214080810546875,0.002471923828125
1782846221372737800,4.47773779296875,-0.991729736328125,-0.021636962890625,0.0023956298828125
1782846221382742800,4.48774267578125,-0.9903411865234375,-0.0224151611328125,0.0028076171875
1782846221392747800,4.497747802734375,-0.9912261962890625,-0.0213165283203125,0.0021514892578125
1782846221402752800,4.507752685546875,-0.9901885986328125,-0.0206298828125,0.00244140625
1782846221412757800,4.5177578125,-0.9896392822265625,-0.0210418701171875,0.00408935546875
1782846221422762800,4.5277626953125,-0.9905548095703125,-0.0214080810546875,0.002166748046875
1782846221432767000,4.53776708984375,-0.990936279296875,-0.021331787109375,0.0042572021484375
1782846221442772000,4.54777197265625,-0.9905548095703125,-0.0233306884765625,0.0021209716796875
1782846221452777000,4.55777685546875,-0.9901123046875,-0.0224761962890625,0.0009307861328125
1782846221462782000,4.567781982421875,-0.9900054931640625,-0.0215911865234375,0.0040283203125
1782846221472787000,4.577786865234375,-0.9910736083984375,-0.0218048095703125,0.00341796875
1782846221482792000,4.5877919921875,-0.9913177490234375,-0.0211639404296875,0.002227783203125
1782846221492797000,4.597796875,-0.99041748046875,-0.0213165283203125,0.00140380859375
1782846221502801700,4.6078017578125,-0.990203857421875,-0.0206146240234375,0.001007080078125
1782846221512806700,4.617806640625,-0.9907379150390625,-0.0222015380859375,0.0008697509765625
1782846221522811600,4.627811767578125,-0.991058349609375,-0.021575927734375,0.001312255859375
1782846221532816600,4.637816650390625,-0.9897613525390625,-0.0218505859375,0.003875732421875
1782846221542821600,4.647821533203125,-0.9896392822265625,-0.02197265625,0.001861572265625
1782846221552826600,4.65782666015625,-0.990631103515625,-0.0213470458984375,0.00390625
1782846221562831600,4.66783154296875,-0.9889068603515625,-0.0211334228515625,0.0045318603515625
1782846221572836600,4.677836669921875,-0.989959716796875,-0.0209503173828125,0.0033721923828125
1782846221582841600,4.687841552734375,-0.9896240234375,-0.0209197998046875,0.0020904541015625
1782846221592846600,4.6978466796875,-0.9897613525390625,-0.02093505859375,0.001373291015625
1782846221602851600,4.7078515625,-0.9908599853515625,-0.0218505859375,0.0028533935546875
1782846221612856600,4.717856689453125,-0.990509033203125,-0.0214691162109375,0.002838134765625
1782846221622861600,4.727861572265625,-0.990509033203125,-0.0209808349609375,0.0022125244140625
1782846221632866600,4.737866455078125,-0.98980712890625,-0.0213165283203125,0.0022125244140625
1782846221642871600,4.74787158203125,-0.9905548095703125,-0.020965576171875,0.0027923583984375
1782846221652876500,4.75787646484375,-0.9915618896484375,-0.0206146240234375,0.0032501220703125
1782846221662881500,4.767881591796875,-0.990447998046875,-0.022674560546875,0.0016021728515625
1782846221672886500,4.777886474609375,-0.98974609375,-0.022491455078125,0.0035552978515625
1782846221682891500,4.7878916015625,-0.9907684326171875,-0.019775390625,0.003814697265625
1782846221692896500,4.797896484375,-0.9907684326171875,-0.02081298828125,0.0021209716796875
1782846221702901500,4.807901611328125,-0.989837646484375,-0.0214385986328125,0.00274658203125
1782846221712906500,4.817906494140625,-0.9918975830078125,-0.020751953125,0.0024566650390625
1782846221722911500,4.827911376953125,-0.9908599853515625,-0.0217742919921875,0.0043792724609375
1782846221732916500,4.83791650390625,-0.9911956787109375,-0.0208740234375,0.004058837890625
1782846221742921500,4.84792138671875,-0.991607666015625,-0.02154541015625,0.0023956298828125
1782846221752925700,4.85792578125,-0.9905853271484375,-0.0231781005859375,0.0023651123046875
1782846221762930700,4.8679306640625,-0.98919677734375,-0.0200958251953125,0.002197265625
1782846221772935700,4.877935791015625,-0.9904937744140625,-0.0203399658203125,0.0023040771484375
1782846221782940700,4.887940673828125,-0.9912109375,-0.02203369140625,0.0034027099609375
1782846221792945700,4.897945556640625,-0.9903564453125,-0.021697998046875,0.004150390625
1782846221802950700,4.90795068359375,-0.9916839599609375,-0.021636962890625,0.0014190673828125
1782846221812955600,4.91795556640625,-0.990753173828125,-0.02117919921875,0.0020294189453125
1782846221822960600,4.927960693359375,-0.9893646240234375,-0.0213470458984375,0.0025177001953125
1782846221832965600,4.937965576171875,-0.9910430908203125,-0.0212860107421875,0.00238037109375
1782846221842970600,4.947970703125,-0.98980712890625,-0.020660400390625,0.001129150390625
1782846221852975600,4.9579755859375,-0.9904937744140625,-0.02105712890625,0.00250244140625
1782846221862980600,4.967980712890625,-0.9915618896484375,-0.021270751953125,0.0014801025390625
1782846221872985600,4.977985595703125,-0.9893341064453125,-0.022308349609375,0.0025482177734375
1782846221882990600,4.987990478515625,-0.9906463623046875,-0.020965576171875,0.00286865234375
1782846221892995600,4.99799560546875,-0.9903564453125,-0.0217132568359375,0.0030670166015625
1782846221903000600,5.00800048828125,-0.991790771484375,-0.0219879150390625,0.00311279296875
1782846221913005600,5.018005615234375,-0.991363525390625,-0.020751953125,0.0015869140625
1782846221923010600,5.028010498046875,-0.98980712890625,-0.0211944580078125,0.0032958984375
1782846221933015600,5.038015625,-0.9896697998046875,-0.0216064453125,0.0029144287109375
1782846221943020500,5.0480205078125,-0.989593505859375,-0.022216796875,0.001953125
1782846221953025500,5.058025634765625,-0.9899139404296875,-0.0218505859375,0.00286865234375
1782846221963030500,5.068030517578125,-0.9886932373046875,-0.0210418701171875,0.0027618408203125
1782846221973035500,5.078035400390625,-0.991424560546875,-0.0202178955078125,0.0023956298828125
1782846221983040500,5.08804052734375,-0.9908447265625,-0.021575927734375,0.005096435546875
1782846221993045500,5.09804541015625,-0.990692138671875,-0.0218963623046875,0.0034637451171875
1782846222003050500,5.108050537109375,-0.9906158447265625,-0.0226898193359375,0.0010986328125
1782846222013055500,5.118055419921875,-0.9892425537109375,-0.021209716796875,0.0011138916015625
1782846222023060500,5.128060546875,-0.9909210205078125,-0.0208892822265625,0.0010528564453125
1782846222033065500,5.1380654296875,-0.991363525390625,-0.02105712890625,0.001251220703125
1782846222043069700,5.148069580078125,-0.99041748046875,-0.02294921875,0.0019683837890625
1782846222053074700,5.15807470703125,-0.9905548095703125,-0.0205535888671875,0.0026092529296875
1782846222063079700,5.16807958984375,-0.9906463623046875,-0.0213623046875,0.0025634765625
1782846222073084700,5.178084716796875,-0.9917449951171875,-0.02056884765625,0.0026092529296875
1782846222083089700,5.188089599609375,-0.9901275634765625,-0.022857666015625,0.003570556640625
1782846222093094700,5.1980947265625,-0.98992919921875,-0.02288818359375,0.0044708251953125
1782846222103099600,5.208099609375,-0.989715576171875,-0.021148681640625,0.0045013427734375
1782846222113104600,5.218104736328125,-0.9893341064453125,-0.0222930908203125,0.0028228759765625
1782846222123109600,5.228109619140625,-0.989898681640625,-0.021942138671875,0.0020599365234375
1782846222133114600,5.238114501953125,-0.989837646484375,-0.0203094482421875,0.0017242431640625
1782846222143119600,5.24811962890625,-0.9901123046875,-0.0209503173828125,0.0031585693359375
1782846222153124600,5.25812451171875,-0.9907073974609375,-0.02215576171875,0.001861572265625
1782846222163129600,5.268129638671875,-0.9907073974609375,-0.0218658447265625,0.002960205078125
1782846222173134600,5.278134521484375,-0.9913330078125,-0.02044677734375,0.0032806396484375
1782846222183139600,5.2881396484375,-0.9897308349609375,-0.0208892822265625,0.0040435791015625
1782846222193144600,5.29814453125,-0.991424560546875,-0.0211639404296875,0.0025177001953125
1782846222203149600,5.308149658203125,-0.9906005859375,-0.0220794677734375,0.00213623046875
1782846222213154600,5.318154541015625,-0.9902801513671875,-0.0211944580078125,0.00164794921875
1782846222223159600,5.32815966796875,-0.9903411865234375,-0.0215606689453125,0.0019073486328125
1782846222233164500,5.33816455078125,-0.990478515625,-0.021575927734375,0.0028228759765625
1782846222243169500,5.34816943359375,-0.98919677734375,-0.021087646484375,0.0022430419921875
1782846222253174500,5.358174560546875,-0.99072265625,-0.0213165283203125,0.0025634765625
1782846222263179500,5.368179443359375,-0.991668701171875,-0.0209197998046875,0.00341796875
1782846222273184500,5.3781845703125,-0.991912841796875,-0.022430419921875,0.002899169921875
1782846222283189500,5.388189453125,-0.9912872314453125,-0.0211334228515625,0.003662109375
1782846222293194500,5.398194580078125,-0.9900054931640625,-0.0218353271484375,0.0029296875
1782846222303199500,5.408199462890625,-0.9901580810546875,-0.0221710205078125,0.0015106201171875
1782846222313204500,5.41820458984375,-0.9910736083984375,-0.020782470703125,0.0023193359375
1782846222323209500,5.42820947265625,-0.991363525390625,-0.0205841064453125,0.0026397705078125
1782846222333214500,5.43821435546875,-0.9913177490234375,-0.0221710205078125,0.0013580322265625
1782846222343218700,5.44821875,-0.98944091796875,-0.02130126953125,0.003204345703125
1782846222353223700,5.4582236328125,-0.9900054931640625,-0.02191162109375,0.002532958984375
1782846222363228700,5.468228759765625,-0.9910736083984375,-0.0213775634765625,0.0019989013671875
1782846222373233700,5.478233642578125,-0.991485595703125,-0.0206756591796875,0.0037841796875
1782846222383238700,5.48823876953125,-0.9909210205078125,-0.020111083984375,0.002960205078125
1782846222393243600,5.49824365234375,-0.990081787109375,-0.020233154296875,0.00299072265625
1782846222403248600,5.50824853515625,-0.9902496337890625,-0.0203399658203125,0.0035400390625
1782846222413253600,5.518253662109375,-0.9923095703125,-0.0211181640625,0.0024871826171875
1782846222423258600,5.528258544921875,-0.9913482666015625,-0.0222625732421875,0.002471923828125
1782846222433263600,5.538263671875,-0.99127197265625,-0.02154541015625,0.00335693359375
1782846222443268600,5.5482685546875,-0.99139404296875,-0.0218963623046875,0.0031890869140625
1782846222453273600,5.558273681640625,-0.9908294677734375,-0.0208740234375,0.00439453125
1782846222463278600,5.568278564453125,-0.9907379150390625,-0.0222320556640625,0.0027923583984375
1782846222473283600,5.57828369140625,-0.9913330078125,-0.0210723876953125,0.00396728515625
1782846222483288600,5.58828857421875,-0.99114990234375,-0.02197265625,0.00323486328125
1782846222493293600,5.59829345703125,-0.991363525390625,-0.0220489501953125,0.001312255859375
1782846222503298600,5.608298583984375,-0.990997314453125,-0.02142333984375,0.002227783203125
1782846222513303600,5.618303466796875,-0.9899444580078125,-0.0213470458984375,0.0012969970703125
1782846222523308500,5.62830859375,-0.9898529052734375,-0.0224456787109375,0.000823974609375
1782846222533313500,5.6383134765625,-0.9907989501953125,-0.0228424072265625,0.0015716552734375
1782846222543318500,5.648318603515625,-0.990631103515625,-0.02166748046875,0.0017547607421875
1782846222553323500,5.658323486328125,-0.9906463623046875,-0.0201873779296875,0.0025787353515625
1782846222563328500,5.66832861328125,-0.9911651611328125,-0.0222015380859375,0.0047149658203125
1782846222573333500,5.67833349609375,-0.9906158447265625,-0.0222320556640625,0.003509521484375
1782846222583338500,5.68833837890625,-0.9902496337890625,-0.020843505859375,0.0048980712890625
1782846222593343500,5.698343505859375,-0.9904632568359375,-0.02130126953125,0.0029754638671875
1782846222603348500,5.708348388671875,-0.9910430908203125,-0.0210113525390625,0.00335693359375
1782846222613353500,5.718353515625,-0.99072265625,-0.0216522216796875,0.0028228759765625
1782846222623357400,5.728357421875,-0.9910888671875,-0.02142333984375,0.0018310546875
1782846222633362400,5.738362548828125,-0.991302490234375,-0.0200958251953125,0.0037841796875
1782846222643367400,5.748367431640625,-0.9905242919921875,-0.02130126953125,0.003448486328125
1782846222653372400,5.758372314453125,-0.9914398193359375,-0.0230865478515625,0.00537109375
1782846222663377400,5.76837744140625,-0.990631103515625,-0.0225830078125,0.00341796875
1782846222673382400,5.77838232421875,-0.9908599853515625,-0.020416259765625,0.0033721923828125
1782846222683387400,5.788387451171875,-0.991943359375,-0.0216064453125,0.0025787353515625
1782846222693392600,5.798392578125,-0.99090576171875,-0.0211181640625,0.0014190673828125
1782846222703397600,5.808397705078125,-0.9897613525390625,-0.0211334228515625,0.0017852783203125
1782846222713402600,5.818402587890625,-0.9909210205078125,-0.02191162109375,0.0006561279296875
1782846222723407600,5.82840771484375,-0.99114990234375,-0.0219268798828125,0.0017547607421875
1782846222733412600,5.83841259765625,-0.9896392822265625,-0.0218505859375,0.0025634765625
1782846222743417600,5.84841748046875,-0.9910125732421875,-0.0224151611328125,0.0024261474609375
1782846222753422600,5.858422607421875,-0.9902801513671875,-0.0209503173828125,0.0045318603515625
1782846222763427600,5.868427490234375,-0.9907073974609375,-0.0211639404296875,0.0024566650390625
1782846222773432600,5.8784326171875,-0.9913482666015625,-0.0224609375,0.0023040771484375
1782846222783437600,5.8884375,-0.9911956787109375,-0.02008056640625,0.0029144287109375
1782846222793442600,5.898442626953125,-0.9908294677734375,-0.0210113525390625,0.0017547607421875
1782846222803447600,5.908447509765625,-0.990753173828125,-0.0222015380859375,0.002410888671875
1782846222813452500,5.91845263671875,-0.991241455078125,-0.0220947265625,0.0030975341796875
1782846222823457500,5.92845751953125,-0.9903106689453125,-0.0222015380859375,0.0007476806640625
1782846222833462500,5.938462646484375,-0.9911651611328125,-0.021209716796875,0.00274658203125
1782846222843467500,5.948467529296875,-0.990081787109375,-0.020111083984375,0.0026397705078125
1782846222853472500,5.958472412109375,-0.9896392822265625,-0.02301025390625,0.001373291015625
1782846222863477500,5.9684775390625,-0.9908599853515625,-0.0215606689453125,0.0015869140625
1782846222873482500,5.978482421875,-0.988494873046875,-0.0218505859375,0.003509521484375
1782846222883487500,5.988487548828125,-0.9901275634765625,-0.0197906494140625,0.001800537109375
1782846222893492500,5.998492431640625,-0.9919281005859375,-0.0210113525390625,0.0026092529296875
1782846222903496400,6.008496337890625,-0.9912567138671875,-0.0214996337890625,0.004058837890625
1782846222913501400,6.01850146484375,-0.9905853271484375,-0.021697998046875,0.0022125244140625
1782846222923506400,6.02850634765625,-0.991790771484375,-0.021697998046875,0.0025482177734375
1782846222933511400,6.038511474609375,-0.99114990234375,-0.021240234375,0.0032196044921875
1782846222943516400,6.048516357421875,-0.9911041259765625,-0.0219573974609375,0.002716064453125
1782846222953521400,6.058521484375,-0.990966796875,-0.022613525390625,0.00213623046875
1782846222963526400,6.0685263671875,-0.9895782470703125,-0.0215911865234375,0.002593994140625
1782846222973531400,6.078531494140625,-0.9909210205078125,-0.021759033203125,0.001129150390625
1782846222983536400,6.088536376953125,-0.990509033203125,-0.0212860107421875,0.0024871826171875
1782846222993541400,6.098541259765625,-0.9897003173828125,-0.022979736328125,0.0034637451171875
1782846223003546400,6.10854638671875,-0.99017333984375,-0.021942138671875,0.0042724609375
1782846223013551400,6.11855126953125,-0.99237060546875,-0.0203704833984375,0.0015411376953125
1782846223023556400,6.128556396484375,-0.9911651611328125,-0.0210113525390625,0.002960205078125
1782846223033561300,6.138561279296875,-0.9889068603515625,-0.0224761962890625,0.0019989013671875
1782846223043566600,6.148566650390625,-0.9896087646484375,-0.02197265625,0.002777099609375
1782846223053571600,6.158571533203125,-0.9915771484375,-0.0221405029296875,0.0033416748046875
1782846223063576600,6.16857666015625,-0.990692138671875,-0.02197265625,0.00360107421875
1782846223073581600,6.17858154296875,-0.9904937744140625,-0.0223846435546875,0.0038299560546875
1782846223083586600,6.188586669921875,-0.9906768798828125,-0.021209716796875,0.0019073486328125
1782846223093591600,6.198591552734375,-0.9912261962890625,-0.0214080810546875,0.0023040771484375
1782846223103596500,6.208596435546875,-0.9906158447265625,-0.0221405029296875,0.0042572021484375
1782846223113601500,6.2186015625,-0.991424560546875,-0.0208740234375,0.0014801025390625
1782846223123606500,6.2286064453125,-0.9885406494140625,-0.022613525390625,0.0037689208984375
1782846223133611500,6.238611572265625,-0.98980712890625,-0.0217742919921875,0.00469970703125
1782846223143616500,6.248616455078125,-0.990386962890625,-0.02130126953125,0.0022125244140625
1782846223153621500,6.25862158203125,-0.990203857421875,-0.0198822021484375,0.0023345947265625
1782846223163626500,6.26862646484375,-0.9904937744140625,-0.0194244384765625,0.001617431640625
1782846223173630500,6.27863037109375,-0.991455078125,-0.02203369140625,0.002593994140625
1782846223183635500,6.288635498046875,-0.9904327392578125,-0.0196075439453125,0.0023040771484375
1782846223193640400,6.298640380859375,-0.9922332763671875,-0.022216796875,0.00238037109375
1782846223203645400,6.3086455078125,-0.9906768798828125,-0.0215911865234375,0.0023956298828125
1782846223213650400,6.318650390625,-0.9911956787109375,-0.0212860107421875,0.0025787353515625
1782846223223655400,6.328655517578125,-0.9899139404296875,-0.02081298828125,0.001068115234375
1782846223233660400,6.338660400390625,-0.989837646484375,-0.0215301513671875,0.0012969970703125
1782846223243665400,6.34866552734375,-0.991241455078125,-0.02056884765625,0.001617431640625
1782846223253670400,6.35867041015625,-0.988800048828125,-0.023101806640625,0.0023956298828125
1782846223263675400,6.36867529296875,-0.9900054931640625,-0.021636962890625,0.0037689208984375
1782846223273680400,6.378680419921875,-0.990936279296875,-0.0211639404296875,0.0035858154296875
1782846223283685400,6.388685302734375,-0.9902191162109375,-0.020904541015625,0.0014495849609375
1782846223293690400,6.3986904296875,-0.991241455078125,-0.0227508544921875,0.003448486328125
1782846223303695400,6.4086953125,-0.99005126953125,-0.021728515625,0.0020294189453125
1782846223313700400,6.418700439453125,-0.989288330078125,-0.0212249755859375,0.0022430419921875
1782846223323705300,6.428705322265625,-0.9897613525390625,-0.0221099853515625,0.003082275390625
1782846223333710300,6.43871044921875,-0.9908599853515625,-0.0225677490234375,0.0022735595703125
1782846223343715300,6.44871533203125,-0.99017333984375,-0.021697998046875,0.0037689208984375
1782846223353720300,6.45872021484375,-0.9904632568359375,-0.021820068359375,0.0031280517578125
1782846223363725300,6.468725341796875,-0.991912841796875,-0.022705078125,0.00238037109375
1782846223373730300,6.478730224609375,-0.99066162109375,-0.0222930908203125,0.002838134765625
1782846223383735300,6.4887353515625,-0.9910125732421875,-0.021759033203125,0.0024566650390625
1782846223393740300,6.498740234375,-0.991424560546875,-0.0198516845703125,0.0019073486328125
1782846223403745500,6.50874560546875,-0.9898834228515625,-0.0214385986328125,0.001708984375
1782846223413750500,6.51875048828125,-0.990997314453125,-0.0208740234375,0.002471923828125
1782846223423755500,6.528755615234375,-0.990264892578125,-0.0217132568359375,0.0042724609375
1782846223433759500,6.538759521484375,-0.9890899658203125,-0.02142333984375,0.0029754638671875
1782846223443764500,6.548764404296875,-0.9902191162109375,-0.021484375,0.002044677734375
1782846223453769500,6.55876953125,-0.9930419921875,-0.02178955078125,0.00152587890625
1782846223463774500,6.5687744140625,-0.9891357421875,-0.0202484130859375,0.0030364990234375
1782846223473779500,6.578779541015625,-0.989288330078125,-0.0218658447265625,0.0030059814453125
1782846223483784400,6.588784423828125,-0.990478515625,-0.022735595703125,0.0023040771484375
1782846223493789400,6.59878955078125,-0.98944091796875,-0.021575927734375,0.00189208984375
1782846223503795200,6.608795166015625,-0.9910736083984375,-0.0212860107421875,0.0038909912109375
1782846223513800200,6.61880029296875,-0.990264892578125,-0.022216796875,0.0036468505859375
1782846223523805200,6.62880517578125,-0.989654541015625,-0.0214691162109375,0.0030517578125
1782846223533810200,6.63881005859375,-0.99066162109375,-0.020751953125,0.0017242431640625
1782846223543815200,6.648815185546875,-0.9915924072265625,-0.0215911865234375,0.002227783203125
1782846223553820200,6.658820068359375,-0.9906768798828125,-0.0216064453125,0.002838134765625
1782846223563825200,6.6688251953125,-0.9902496337890625,-0.0222320556640625,0.002532958984375
1782846223573830100,6.678830078125,-0.9903411865234375,-0.020111083984375,0.0013885498046875
1782846223583835100,6.688835205078125,-0.9900054931640625,-0.0207366943359375,0.0024566650390625
1782846223593840000,6.698840087890625,-0.990753173828125,-0.021820068359375,0.0033111572265625
1782846223603845000,6.70884521484375,-0.99072265625,-0.0220184326171875,0.0045623779296875
1782846223613850000,6.71885009765625,-0.9906463623046875,-0.02264404296875,0.0049896240234375
1782846223623855000,6.728855224609375,-0.99151611328125,-0.0219268798828125,0.0023651123046875
1782846223633860000,6.738860107421875,-0.989959716796875,-0.021453857421875,0.001678466796875
1782846223643865000,6.748864990234375,-0.99041748046875,-0.021026611328125,0.0021209716796875
1782846223653870000,6.7588701171875,-0.99066162109375,-0.0215911865234375,0.00360107421875
1782846223663875000,6.768875,-0.9903411865234375,-0.022186279296875,0.0027618408203125
1782846223673880000,6.778880126953125,-0.9904937744140625,-0.0216064453125,0.0026092529296875
1782846223683885000,6.788885009765625,-0.9912109375,-0.020751953125,0.002532958984375
1782846223693889000,6.798888916015625,-0.9915924072265625,-0.02288818359375,0.002471923828125
1782846223703894000,6.80889404296875,-0.99114990234375,-0.0224609375,0.0018463134765625
1782846223713899000,6.81889892578125,-0.9905853271484375,-0.022430419921875,0.0029296875
1782846223723904300,6.828904296875,-0.9909210205078125,-0.022186279296875,0.0038909912109375
1782846223733909200,6.8389091796875,-0.990020751953125,-0.0220947265625,0.0025177001953125
1782846223743914200,6.848914306640625,-0.9901123046875,-0.0211639404296875,0.0023651123046875
1782846223753919200,6.858919189453125,-0.989593505859375,-0.021728515625,0.003173828125
1782846223763924200,6.86892431640625,-0.9915771484375,-0.0204620361328125,0.0030517578125
1782846223773929200,6.87892919921875,-0.9918212890625,-0.0214691162109375,0.0030517578125
1782846223783934200,6.888934326171875,-0.989837646484375,-0.022552490234375,0.003173828125
1782846223793939200,6.898939208984375,-0.9906463623046875,-0.022613525390625,0.003082275390625
1782846223803944200,6.908944091796875,-0.991485595703125,-0.0207977294921875,0.0024261474609375
1782846223813949200,6.91894921875,-0.9903717041015625,-0.021331787109375,0.0026702880859375
1782846223823954200,6.9289541015625,-0.990814208984375,-0.0228118896484375,0.0033721923828125
1782846223833959200,6.938959228515625,-0.9896240234375,-0.0219268798828125,0.00250244140625
1782846223843964200,6.948964111328125,-0.9904022216796875,-0.0206756591796875,0.0028228759765625
1782846223853969200,6.95896923828125,-0.9896392822265625,-0.02069091796875,0.0027313232421875
1782846223863974100,6.96897412109375,-0.9915924072265625,-0.0209808349609375,0.0040740966796875
1782846223873979100,6.978979248046875,-0.99072265625,-0.0212554931640625,0.0031280517578125
1782846223883984100,6.988984130859375,-0.989349365234375,-0.020904541015625,0.0033111572265625
1782846223893989000,6.998989013671875,-0.9903717041015625,-0.022186279296875,0.0027008056640625
1782846223903994000,7.008994140625,-0.990325927734375,-0.022247314453125,0.0033721923828125
1782846223913999000,7.0189990234375,-0.989501953125,-0.0211639404296875,0.002593994140625
1782846223924004000,7.029004150390625,-0.990692138671875,-0.02056884765625,0.0025787353515625
1782846223934008000,7.039008056640625,-0.989715576171875,-0.021514892578125,0.002532958984375
1782846223944013000,7.049012939453125,-0.99066162109375,-0.021148681640625,0.001495361328125
1782846223954018000,7.05901806640625,-0.9891510009765625,-0.021942138671875,0.0022735595703125
1782846223964023000,7.06902294921875,-0.9907989501953125,-0.021240234375,0.002471923828125
1782846223974028000,7.079028076171875,-0.990325927734375,-0.022369384765625,0.0018310546875
1782846223984033000,7.089032958984375,-0.989654541015625,-0.021270751953125,0.00250244140625
1782846223994038000,7.0990380859375,-0.9909820556640625,-0.021759033203125,0.0031585693359375
1782846224004043000,7.10904296875,-0.98956298828125,-0.0205535888671875,0.0024261474609375
1782846224014048000,7.119048095703125,-0.9914703369140625,-0.0208587646484375,0.003173828125
1782846224024053000,7.129052978515625,-0.9898834228515625,-0.0221710205078125,0.0030670166015625
1782846224034058000,7.13905810546875,-0.9908905029296875,-0.02105712890625,0.0025787353515625
1782846224044063000,7.14906298828125,-0.9902801513671875,-0.021331787109375,0.00390625
1782846224054068000,7.15906787109375,-0.9919586181640625,-0.0206146240234375,0.0030364990234375
1782846224064073000,7.169072998046875,-0.9903564453125,-0.0221710205078125,0.0032501220703125
1782846224074078200,7.179078125,-0.9892578125,-0.0213623046875,0.0030517578125
1782846224084083200,7.189083251953125,-0.99029541015625,-0.022125244140625,0.0016632080078125
1782846224094088200,7.199088134765625,-0.99029541015625,-0.022125244140625,0.0009613037109375
1782846224104093200,7.20909326171875,-0.990386962890625,-0.021728515625,0.003387451171875
1782846224114098200,7.21909814453125,-0.9898223876953125,-0.0218963623046875,0.0034027099609375
1782846224124103200,7.229103271484375,-0.99029541015625,-0.0218048095703125,0.000732421875
1782846224134108200,7.239108154296875,-0.9910888671875,-0.0208587646484375,0.00238037109375
1782846224144113200,7.249113037109375,-0.9893798828125,-0.0223846435546875,0.0035858154296875
1782846224154118100,7.2591181640625,-0.990753173828125,-0.0210723876953125,0.0022430419921875
1782846224164123100,7.269123046875,-0.99053955078125,-0.0217132568359375,0.00140380859375
1782846224174128000,7.279128173828125,-0.9909210205078125,-0.0219573974609375,0.002044677734375
1782846224184132000,7.289132080078125,-0.9920806884765625,-0.0223388671875,0.001800537109375
1782846224194137000,7.29913720703125,-0.991058349609375,-0.0217132568359375,0.0014801025390625
1782846224204142000,7.30914208984375,-0.98980712890625,-0.021881103515625,0.0017852783203125
1782846224214147000,7.31914697265625,-0.991119384765625,-0.021881103515625,0.0017242431640625
1782846224224152000,7.329152099609375,-0.9925994873046875,-0.021240234375,0.0017547607421875
1782846224234157000,7.339156982421875,-0.9894866943359375,-0.02227783203125,0.002960205078125
1782846224244162000,7.349162109375,-0.990020751953125,-0.021759033203125,0.003265380859375
1782846224254167000,7.3591669921875,-0.9915008544921875,-0.021209716796875,0.0037994384765625
1782846224264172000,7.369172119140625,-0.9908294677734375,-0.0211639404296875,0.0030975341796875
1782846224274177000,7.379177001953125,-0.991058349609375,-0.0208892822265625,0.00213623046875
1782846224284182000,7.38918212890625,-0.9896240234375,-0.0208740234375,0.00360107421875
1782846224294187000,7.39918701171875,-0.9897918701171875,-0.021697998046875,0.0025787353515625
1782846224304192000,7.40919189453125,-0.9897918701171875,-0.0214691162109375,0.001861572265625
1782846224314197000,7.419197021484375,-0.990478515625,-0.0211029052734375,0.00262451171875
1782846224324202000,7.429201904296875,-0.99041748046875,-0.02203369140625,0.003631591796875
1782846224334207000,7.43920703125,-0.989715576171875,-0.022674560546875,0.0027313232421875
1782846224344212000,7.4492119140625,-0.990386962890625,-0.02191162109375,0.002655029296875
1782846224354217000,7.459217041015625,-0.99053955078125,-0.021392822265625,0.0035400390625
1782846224364222000,7.469221923828125,-0.98980712890625,-0.022216796875,0.003326416015625
1782846224374227000,7.47922705078125,-0.990753173828125,-0.021392822265625,0.002655029296875
1782846224384232000,7.48923193359375,-0.99114990234375,-0.020782470703125,0.0021820068359375
1782846224394237000,7.49923681640625,-0.9897613525390625,-0.021484375,0.00152587890625
1782846224404242000,7.509241943359375,-0.9894866943359375,-0.0213470458984375,0.00213623046875
1782846224414246100,7.51924609375,-0.99017333984375,-0.022003173828125,0.0023651123046875
1782846224424251100,7.529251220703125,-0.9906158447265625,-0.0211944580078125,0.0035247802734375
1782846224434256100,7.539256103515625,-0.989990234375,-0.0223541259765625,0.0016937255859375
1782846224444261000,7.54926123046875,-0.98944091796875,-0.021636962890625,0.00347900390625
1782846224454266000,7.55926611328125,-0.9906463623046875,-0.02374267578125,0.003326416015625
1782846224464271000,7.56927099609375,-0.99090576171875,-0.0222015380859375,0.0024566650390625
1782846224474276000,7.579276123046875,-0.990081787109375,-0.02117919921875,0.0036468505859375
1782846224484281000,7.589281005859375,-0.9889984130859375,-0.0206451416015625,0.003326416015625
1782846224494286000,7.5992861328125,-0.9912261962890625,-0.0208587646484375,0.004180908203125
1782846224504291000,7.609291015625,-0.9892425537109375,-0.0219879150390625,0.001495361328125
1782846224514296000,7.619296142578125,-0.9915313720703125,-0.0218048095703125,0.0027008056640625
1782846224524301000,7.629301025390625,-0.9911346435546875,-0.020599365234375,0.004119873046875
1782846224534306000,7.63930615234375,-0.9924468994140625,-0.021240234375,0.0035552978515625
1782846224544311000,7.64931103515625,-0.9907684326171875,-0.021575927734375,0.0019378662109375
1782846224554316000,7.65931591796875,-0.99066162109375,-0.020599365234375,0.0018463134765625
1782846224564321000,7.669321044921875,-0.9899139404296875,-0.0217742919921875,0.0025482177734375
1782846224574326000,7.679325927734375,-0.9899749755859375,-0.021026611328125,0.0037841796875
1782846224584331000,7.6893310546875,-0.989166259765625,-0.022125244140625,0.0044097900390625
1782846224594336000,7.6993359375,-0.9897918701171875,-0.0205841064453125,0.002899169921875
1782846224604341000,7.709341064453125,-0.9903411865234375,-0.01971435546875,0.002716064453125
1782846224614346000,7.719345947265625,-0.990875244140625,-0.02093505859375,0.0026702880859375
1782846224624351000,7.72935107421875,-0.990020751953125,-0.02105712890625,0.0033111572265625
1782846224634356000,7.73935595703125,-0.9910888671875,-0.0205230712890625,0.00457763671875
1782846224644360200,7.749360107421875,-0.9906768798828125,-0.0219268798828125,0.0030517578125
1782846224654365200,7.759365234375,-0.988922119140625,-0.0219879150390625,0.0036163330078125
1782846224664370200,7.7693701171875,-0.990875244140625,-0.0209503173828125,0.002227783203125
1782846224674375200,7.779375244140625,-0.9905242919921875,-0.021240234375,0.00311279296875
1782846224684380200,7.789380126953125,-0.99139404296875,-0.0208587646484375,0.0014495849609375
1782846224694385200,7.79938525390625,-0.989837646484375,-0.02105712890625,0.002655029296875
1782846224704390100,7.80939013671875,-0.9911346435546875,-0.02081298828125,0.0021820068359375
1782846224714395100,7.81939501953125,-0.9916534423828125,-0.021148681640625,0.0034027099609375
1782846224724400000,7.829400146484375,-0.991119384765625,-0.02203369140625,0.0042572021484375
1782846224734405000,7.839405029296875,-0.99005126953125,-0.021881103515625,0.0017852783203125
1782846224744410000,7.84941015625,-0.99114990234375,-0.0207061767578125,0.002105712890625
1782846224754415000,7.8594150390625,-0.9910125732421875,-0.022186279296875,0.00274658203125
1782846224764420000,7.869420166015625,-0.9909515380859375,-0.0210723876953125,0.002655029296875
1782846224774425000,7.879425048828125,-0.9898529052734375,-0.0226898193359375,0.0030517578125
1782846224784430000,7.88943017578125,-0.9889068603515625,-0.0223541259765625,0.0031585693359375
1782846224794435000,7.89943505859375,-0.990264892578125,-0.0219268798828125,0.00286865234375
1782846224804440000,7.909440185546875,-0.99078369140625,-0.02191162109375,0.00396728515625
1782846224814445000,7.919445068359375,-0.99212646484375,-0.022125244140625,0.0033416748046875
1782846224824450000,7.929449951171875,-0.9901580810546875,-0.0213470458984375,0.0006256103515625
1782846224834455000,7.939455078125,-0.989410400390625,-0.0231475830078125,0.002777099609375
1782846224844460000,7.9494599609375,-0.9907684326171875,-0.0225372314453125,0.0008392333984375
1782846224854465000,7.959465087890625,-0.989990234375,-0.0211944580078125,0.0021514892578125
1782846224864470000,7.969469970703125,-0.989715576171875,-0.0199432373046875,0.00213623046875
1782846224874474000,7.979473876953125,-0.9899444580078125,-0.021575927734375,0.0027313232421875
1782846224884479000,7.98947900390625,-0.990570068359375,-0.0217437744140625,0.0033111572265625
1782846224894484000,7.99948388671875,-0.9885101318359375,-0.0214385986328125,0.00433349609375
1782846224904489000,8.009489013671875,-0.9900054931640625,-0.0214691162109375,0.001312255859375
1782846224914494000,8.019493896484375,-0.98974609375,-0.0225677490234375,0.00152587890625
1782846224924499000,8.0294990234375,-0.9907684326171875,-0.021759033203125,0.0026702880859375
1782846224934504000,8.03950390625,-0.989288330078125,-0.02142333984375,0.0027618408203125
1782846224944509000,8.049509033203124,-0.9910430908203125,-0.0216064453125,0.001953125
1782846224954514000,8.059513916015625,-0.990753173828125,-0.022735595703125,0.00286865234375
1782846224964519000,8.069518798828126,-0.9900054931640625,-0.0206756591796875,0.0024871826171875
1782846224974524000,8.07952392578125,-0.9906005859375,-0.021942138671875,0.00225830078125
1782846224984529000,8.08952880859375,-0.9901580810546875,-0.0226898193359375,0.0032958984375
1782846224994534000,8.099533935546875,-0.989898681640625,-0.01983642578125,0.002410888671875
1782846225004539100,8.1095390625,-0.9907684326171875,-0.020416259765625,0.0031280517578125
1782846225014544100,8.119544189453125,-0.99041748046875,-0.0213165283203125,0.0036163330078125
1782846225024549000,8.129549072265625,-0.9913482666015625,-0.0201263427734375,0.003082275390625
1782846225034554000,8.13955419921875,-0.989166259765625,-0.02099609375,0.0033111572265625
1782846225044559000,8.14955908203125,-0.98858642578125,-0.021392822265625,0.0021820068359375
1782846225054564000,8.159564208984374,-0.9900054931640625,-0.0223388671875,0.002349853515625
1782846225064569000,8.169569091796875,-0.990234375,-0.0212554931640625,0.002197265625
1782846225074574000,8.179573974609376,-0.9902191162109375,-0.02020263671875,0.0038299560546875
1782846225084579000,8.1895791015625,-0.9915924072265625,-0.02105712890625,0.0034027099609375
1782846225094583000,8.1995830078125,-0.990509033203125,-0.0221099853515625,0.00439453125
1782846225104588000,8.209588134765625,-0.9904632568359375,-0.0218963623046875,0.003143310546875
1782846225114593000,8.219593017578125,-0.99066162109375,-0.0219879150390625,0.001800537109375
1782846225124598000,8.229597900390624,-0.9911346435546875,-0.022125244140625,0.0029754638671875
1782846225134603000,8.23960302734375,-0.9896240234375,-0.022003173828125,0.0026092529296875
1782846225144608000,8.24960791015625,-0.99005126953125,-0.022857666015625,0.0030975341796875
1782846225154613000,8.259613037109375,-0.9905242919921875,-0.02239990234375,0.00030517578125
1782846225164618000,8.269617919921876,-0.9908294677734375,-0.0211181640625,0.0020294189453125
1782846225174623000,8.279623046875,-0.99169921875,-0.0198516845703125,0.002899169921875
1782846225184628000,8.2896279296875,-0.990325927734375,-0.0221099853515625,0.0018463134765625
1782846225194633000,8.299633056640625,-0.98895263671875,-0.020904541015625,0.001556396484375
1782846225204638000,8.309637939453125,-0.9922332763671875,-0.0212860107421875,0.0027923583984375
1782846225214643000,8.319642822265624,-0.991851806640625,-0.02142333984375,0.00213623046875
1782846225224648000,8.32964794921875,-0.990325927734375,-0.0220184326171875,0.001312255859375
1782846225234653000,8.33965283203125,-0.9898223876953125,-0.0222015380859375,0.0018768310546875
1782846225244658000,8.349657958984375,-0.99053955078125,-0.02069091796875,0.0022125244140625
1782846225254663000,8.359662841796874,-0.9911956787109375,-0.0219268798828125,0.002227783203125
1782846225264668000,8.36966796875,-0.9901123046875,-0.02178955078125,0.0022125244140625
1782846225274673000,8.3796728515625,-0.9918975830078125,-0.0208587646484375,0.002197265625
1782846225284678000,8.389677978515625,-0.99078369140625,-0.02001953125,0.00244140625
1782846225294683000,8.399682861328126,-0.9905853271484375,-0.0220794677734375,0.0018463134765625
1782846225304687900,8.40968798828125,-0.9894561767578125,-0.02154541015625,0.0040130615234375
1782846225314692900,8.41969287109375,-0.9904022216796875,-0.022003173828125,0.003021240234375
1782846225324697000,8.429697021484374,-0.9912109375,-0.0228118896484375,0.0019989013671875
1782846225334702000,8.4397021484375,-0.990325927734375,-0.021209716796875,0.0019683837890625
1782846225344707000,8.44970703125,-0.9903411865234375,-0.0215301513671875,0.0025482177734375
1782846225354712000,8.459712158203125,-0.9900665283203125,-0.0205230712890625,0.0031890869140625
1782846225364717000,8.469717041015626,-0.9908294677734375,-0.021514892578125,0.001800537109375
1782846225374722000,8.47972216796875,-0.9904632568359375,-0.0221099853515625,0.0030517578125
1782846225384727000,8.48972705078125,-0.9900665283203125,-0.02227783203125,0.0036773681640625
1782846225394732000,8.49973193359375,-0.989044189453125,-0.0220947265625,0.0036163330078125
1782846225404737000,8.509737060546875,-0.9910430908203125,-0.0214080810546875,0.0030517578125
1782846225414742000,8.519741943359374,-0.990570068359375,-0.0216064453125,0.00286865234375
1782846225424747000,8.5297470703125,-0.9900360107421875,-0.0228271484375,0.0033721923828125
1782846225434752000,8.539751953125,-0.9902496337890625,-0.0211639404296875,0.00341796875
1782846225444757000,8.549757080078125,-0.990264892578125,-0.0225372314453125,0.00262451171875
1782846225454762000,8.559761962890626,-0.9905548095703125,-0.0203399658203125,0.002532958984375
1782846225464767000,8.56976708984375,-0.9903564453125,-0.02081298828125,0.0028076171875
1782846225474772000,8.57977197265625,-0.991546630859375,-0.0194244384765625,0.00341796875
1782846225484777000,8.58977685546875,-0.9911651611328125,-0.02117919921875,0.0031890869140625
1782846225494782000,8.599781982421876,-0.9913787841796875,-0.021453857421875,0.0020294189453125
1782846225504787000,8.609786865234375,-1.0211181640625,-0.0203857421875,-0.004119873046875
1782846225514792000,8.6197919921875,-0.9517364501953125,-0.023040771484375,0.0164031982421875
1782846225524797000,8.629796875,-1.0030059814453125,-0.022216796875,-0.0023040771484375
1782846225534801000,8.63980078125,-0.9781494140625,-0.0214385986328125,0.010833740234375
1782846225544806000,8.649805908203126,-1.0023345947265625,-0.021759033203125,-0.0045623779296875
1782846225554811000,8.659810791015625,-0.9754791259765625,-0.0230255126953125,0.0046844482421875
1782846225564816000,8.66981591796875,-1.0022125244140625,-0.018524169921875,-0.000701904296875
1782846225574821000,8.679821044921875,-0.986785888671875,-0.0205078125,0.009124755859375
