time,seconds_elapsed,z,y,x
1782846216978052600,0.083052490234375,0.0032207665499299765,-0.007143660914152861,-0.002189495600759983
1782846216988057600,0.0930576171875,-0.000009381445124745369,-0.0008468828164041042,-0.0032683422323316336
1782846216998062600,0.1030625,0.000328561058267951,0.007149236276745796,0.002038033911958337
1782846217008067600,0.113067626953125,-0.001504226354882121,0.0010796256829053164,-0.0006826514727436006
1782846217018072600,0.123072509765625,0.0009186877869069576,-0.004225853364914656,-0.0014379117637872696
1782846217028077600,0.13307763671875,0.0015732927713543177,0.0017010116716846824,-0.0035703047178685665
1782846217038082600,0.14308251953125,-0.00008055544458329678,0.0043769110925495625,0.0005587150226347148
1782846217048086500,0.15308642578125,-0.0001484658569097519,-0.0023401137441396713,-0.0010493017034605145
1782846217058091500,0.163091552734375,0.000748384976759553,-0.004426245577633381,0.00017714797286316752
1782846217068096500,0.173096435546875,-0.00027639931067824364,0.002998913871124387,0.0019420247990638018
1782846217078101800,0.183101806640625,-0.0007329498184844851,-0.0003794755320996046,0.000779367983341217
1782846217088106800,0.193106689453125,-0.0006080475868657231,-0.0025068086106330156,-0.00017590791685506701
1782846217098111700,0.20311181640625,0.001254499889910221,-0.0022388913203030825,-0.0015015335520729423
1782846217108116700,0.21311669921875,0.0023618421982973814,0.001201113685965538,0.002158714924007654
1782846217118121700,0.223121826171875,0.0007411397527903318,-0.00024718698114156723,-0.0010901825735345483
1782846217128126700,0.233126708984375,0.0006236941553652287,0.0012369926553219557,-0.0013335953699424863
1782846217138131700,0.243131591796875,0.00037398654967546463,0.0015053654788061976,-0.001972595229744911
1782846217148136700,0.25313671875,-0.0013341649901121855,0.0007447667885571718,0.0013936402974650264
1782846217158141700,0.2631416015625,0.0005038767121732235,0.00004766974598169327,-0.00032111862674355507
1782846217168146700,0.273146728515625,0.0008455603383481503,-0.002257029991596937,0.0018887724727392197
1782846217178151700,0.283151611328125,0.000346670625731349,0.004282076843082905,-0.004790311213582754
1782846217188156700,0.29315673828125,-0.0002602639142423868,0.0009999971371144056,-0.0033269040286540985
1782846217198161700,0.30316162109375,-0.00047299545258283615,0.0022798865102231503,-0.001285658567212522
1782846217208166700,0.313166748046875,-0.0012738080695271492,-0.00029432494193315506,-0.00036873214412480593
1782846217218171600,0.323171630859375,0.0014176967088133097,0.0005755629390478134,-0.001432756893336773
1782846217228176600,0.3331767578125,-0.0005202855682000518,0.0007880832999944687,-0.0001597660011611879
1782846217238181600,0.343181640625,0.0007992514874786139,-0.0006698567885905504,0.000380879791919142
1782846217248186600,0.3531865234375,-0.0011834719916805625,-0.001197695266455412,0.0014152515213936567
1782846217258191600,0.363191650390625,-0.0003973068669438362,0.0005807636771351099,-0.00001806172076612711
1782846217268196600,0.373196533203125,-0.0005578954005613923,-0.0009055463597178459,0.0005811494775116444
1782846217278201600,0.38320166015625,0.001052843639627099,-0.0006159353069961071,0.0006173444562591612
1782846217288206600,0.39320654296875,-0.0006316057406365871,0.0018112696707248688,0.0004599516396410763
1782846217298211600,0.403211669921875,0.0016563159879297018,0.0010251046624034643,-0.00004924478707835078
1782846217308216600,0.413216552734375,0.0010448540560901165,0.00046184612438082695,0.0013995148474350572
1782846217318221600,0.4232216796875,0.0010896797757595778,0.0010457811877131462,-0.0007553286268375814
1782846217328226600,0.4332265625,0.000023882603272795677,-0.0009326811414211988,-0.0012048701755702496
1782846217338231600,0.4432314453125,0.001752371434122324,0.0012787339510396123,0.001171628013253212
1782846217348236500,0.453236572265625,-0.0015960208838805556,-0.0008296906016767025,0.0011974606895819306
1782846217358241500,0.463241455078125,-0.0016679982654750347,-0.0003661822993308306,-0.0009601804777048528
1782846217368246500,0.47324658203125,0.00016212603077292442,-0.0006191825959831476,-0.0020062702242285013
1782846217378250500,0.48325048828125,0.0012947979848831892,-0.00009727315045893192,0.00029894994804635644
1782846217388255500,0.49325537109375,-0.0002248017117381096,-0.0014690675307065248,0.0034878188744187355
1782846217398260500,0.503260498046875,0.0007492811419069767,-0.0003580742049962282,0.0016497682081535459
1782846217408265500,0.513265380859375,0.001982058398425579,0.0005822880193591118,-0.004089077468961477
1782846217418270500,0.5232705078125,-0.0017540607368573546,0.0015015408862382174,0.002222602954134345
1782846217428275700,0.533275634765625,-0.000046708155423402786,-0.001155494712293148,-0.0012834484223276377
1782846217438280700,0.54328076171875,0.0022611909080296755,-0.0008576575201004744,0.0005816424963995814
1782846217448285700,0.55328564453125,-0.0016248936299234629,0.001340249553322792,-0.0005885504651814699
1782846217458290700,0.563290771484375,-0.0007401903858408332,0.0006565933581441641,-0.0005728098913095891
1782846217468295700,0.573295654296875,-0.001004109624773264,0.00009040534496307373,-0.003443431342020631
1782846217478300700,0.58330078125,0.0007934840396046638,0.00008282344788312912,-0.0037808953784406185
1782846217488305700,0.5933056640625,-0.0008688612142577767,-0.0014250585809350014,-0.0020538356620818377
1782846217498311200,0.603311279296875,0.0014311335980892181,0.0011516751255840063,-0.0017613712698221207
1782846217508316200,0.613316162109375,-0.001443482469767332,-0.0005458237137645483,0.000691932684276253
1782846217518321200,0.623321044921875,0.0019427528604865074,-0.00025510601699352264,-0.0013016362208873034
1782846217528326100,0.633326171875,-0.0005358508788049221,-0.0023699221201241016,-0.0017117629759013653
1782846217538331100,0.6433310546875,0.00017316616140305996,-0.0008734278380870819,-0.0011263431515544653
1782846217548336000,0.653336181640625,-0.00033256830647587776,0.0004211349878460169,0.0011104459408670664
1782846217558341000,0.663341064453125,-0.0003612893633544445,0.0005529110785573721,-0.0034111058339476585
1782846217568346000,0.67334619140625,-0.0018217668402940035,-0.0014002509415149689,-0.0012813761131837964
1782846217578351000,0.68335107421875,0.0011394363828003407,0.0007151230238378048,0.0009056428680196404
1782846217588356000,0.693356201171875,0.0005508777685463428,0.0009132621344178915,-0.0003375207306817174
1782846217598361000,0.703361083984375,-0.0017920320387929678,-0.00038363109342753887,-0.0004167987499386072
1782846217608366000,0.713365966796875,-0.002346235793083906,-0.002135724760591984,0.00029160204576328397
1782846217618371000,0.72337109375,0.00005513499490916729,-0.0013481678906828165,-0.00008802022784948349
1782846217628376000,0.7333759765625,0.000523851253092289,0.0001898077316582203,0.0019730001222342253
1782846217638381000,0.743381103515625,0.0013107832055538893,0.0002420202363282442,0.0012157774763181806
1782846217648386000,0.753385986328125,-0.0003297240473330021,0.0002444172278046608,-0.0007746691117063165
1782846217658391000,0.76339111328125,-0.0001580505631864071,-0.0012617644388228655,-0.0006405364256352186
1782846217668396000,0.77339599609375,-0.0003178403712809086,-0.0014745511580258608,0.0014135596575215459
1782846217678401000,0.783401123046875,0.0002460600808262825,0.0007007902022451162,-0.000803465663921088
1782846217688406000,0.793406005859375,0.002053547417744994,0.0013878857716917992,-0.00304345041513443
1782846217698411000,0.803410888671875,0.0020451208110898733,0.00031965854577720165,-0.0013444318901747465
1782846217708415000,0.8134150390625,-0.00017036264762282372,-0.001646553399041295,-0.0006759786629118025
1782846217718420000,0.823419921875,-0.000359582481905818,0.0025903265923261642,0.004648522008210421
1782846217728425000,0.833425048828125,0.00009714975021779537,-0.0013399666640907526,-0.00030122912721708417
1782846217738430000,0.843429931640625,0.0018620039336383343,0.0014332978753373027,-0.0002915837103500962
1782846217748435000,0.85343505859375,-0.00033936486579477787,0.00004312791861593723,0.00039018550887703896
1782846217758440000,0.86343994140625,0.000025196699425578117,0.0006601710338145494,0.00021463236771523952
1782846217768445000,0.87344482421875,0.00015569152310490608,-0.0008695486467331648,0.0004668337060138583
1782846217778450000,0.883449951171875,0.0021676644682884216,0.0025992225855588913,0.0019979248754680157
1782846217788455000,0.893454833984375,0.0014755090232938528,0.001212781062349677,-0.0022636656649410725
1782846217798460000,0.9034599609375,-0.001244245795533061,-0.0005745873786509037,-0.0013712979853153229
1782846217808465000,0.91346484375,-0.001050900318659842,-0.00013809534721076488,-0.0011153682135045528
1782846217818470000,0.923469970703125,0.0012542123440653086,0.001505152671597898,-0.001209201174788177
1782846217828475000,0.933474853515625,0.00005898578092455864,-0.00054734549485147,0.000020114006474614143
1782846217838480000,0.94347998046875,-0.0009643529774621129,0.0006071468815207481,-0.0003693988546729088
1782846217848485000,0.953485107421875,0.00025111366994678974,0.00012564752250909805,-0.0014815349131822586
1782846217858490000,0.963489990234375,0.002430069027468562,-0.0002875139471143484,0.0029792876448482275
1782846217868495000,0.9734951171875,0.0005962166469544172,0.0015388819156214595,0.0015244026435539126
1782846217878500000,0.9835,-0.0006165205268189311,0.0021385932341217995,0.0009631276479922235
1782846217888505000,0.993505126953125,-0.0017038891091942787,-0.0013834373094141483,0.00006351183401420712
1782846217898510000,1.003510009765625,-0.0009032534435391426,0.0013455987209454179,0.000004970876034349203
1782846217908515000,1.01351513671875,-0.001719512278214097,0.0013562513049691916,0.00115865224506706
1782846217918520000,1.02352001953125,0.001049623591825366,-0.0008776192553341389,-0.00011271721450611949
1782846217928525000,1.033525146484375,-0.000994352507404983,-0.00035324273630976677,-0.0013537502381950617
1782846217938530000,1.043530029296875,0.001524933846667409,0.0008762266952544451,-0.0003015469410456717
1782846217948535000,1.05353515625,0.0004902957007288933,0.0014155167154967785,-0.0005391009035520256
1782846217958540000,1.0635400390625,-0.00010237027890980244,-0.00013196514919400215,-0.00016268168110400438
1782846217968545000,1.073544921875,0.0006691473536193371,-0.0016771312803030014,-0.0031387642957270145
1782846217978550000,1.083550048828125,0.0005984802264720201,-0.002904642838984728,0.003381578717380762
1782846217988555000,1.093554931640625,-0.0006263075629249215,-0.0004761063028126955,-0.0005228817462921143
1782846217998560000,1.10356005859375,-0.0016288356855511665,0.0026038535870611668,-0.0019413570407778025
1782846218008565000,1.11356494140625,-0.0003526490181684494,-0.0036942563019692898,0.002456587040796876
1782846218018570000,1.123570068359375,-0.0024645451921969652,-0.0031999279744923115,-0.0012473759707063437
1782846218028575000,1.133574951171875,-0.0025630821473896503,0.0009998769965022802,0.0002674299757927656
1782846218038579000,1.143578857421875,0.00021031196229159832,0.0017735088476911187,0.0028967077378183603
1782846218048584000,1.153583984375,0.0012007413897663355,-0.0008691458497196436,-0.0011851191520690918
1782846218058589000,1.1635888671875,0.00008929939940571785,0.00017037568613886833,0.003176004160195589
1782846218068594000,1.173593994140625,0.0002016848884522915,-0.0021284648682922125,0.0013751746155321598
1782846218078599000,1.183598876953125,0.00011435779742896557,0.0010251207277178764,0.00212491094134748
1782846218088604000,1.19360400390625,-0.002139209071174264,0.0002450807951390743,-0.00044530583545565605
1782846218098609000,1.20360888671875,0.0034250146709382534,0.0002347819972783327,-0.002052784664556384
1782846218108614000,1.21361376953125,-0.0011918413219973445,-0.0003913270775228739,-0.00033264898229390383
1782846218118619000,1.223618896484375,0.004487394355237484,0.0018581191543489695,-0.0034131379798054695
1782846218128623900,1.233623779296875,-0.0012562449555844069,0.0005718122702091932,-0.0013862063642591238
1782846218138628900,1.24362890625,-0.0012527815997600555,-0.0034703067503869534,0.0018787019653245807
1782846218148633900,1.2536337890625,-0.0014242891920730472,0.0010778398718684912,-0.0005783304222859442
1782846218158638800,1.263638916015625,0.00009218347258865833,0.0020040152594447136,0.0009303392143920064
1782846218168643800,1.273643798828125,0.0018509349320083857,0.0012716460041701794,-0.0031980930361896753
1782846218178648800,1.28364892578125,-0.0005359331844374537,0.0032595505472272635,0.0014200488803908229
1782846218188653800,1.29365380859375,0.002067040419206023,-0.0014848709106445312,0.0017899619415402412
1782846218198658800,1.303658935546875,0.0016425680369138718,0.003391656093299389,-0.004208029247820377
1782846218208664000,1.3136640625,-0.000418452313169837,-0.00046886224299669266,-0.00020769506227225065
1782846218218669000,1.3236689453125,-0.00023437407799065113,0.00235829409211874,-0.000257640378549695
1782846218228674000,1.333674072265625,-0.001198704820126295,0.0008898270316421986,-0.0034768693149089813
1782846218238679000,1.343678955078125,-0.000725843827240169,-0.002494080225005746,-0.00022341887233778834
1782846218248684000,1.35368408203125,-0.001412673038430512,-0.00018698349595069885,-0.0020894957706332207
1782846218258689000,1.36368896484375,0.0012914836406707764,0.0010290234349668026,0.0003011354710906744
1782846218268694000,1.373694091796875,-0.0012052298989146948,0.00043939962051808834,0.00030166812939569354
1782846218278699000,1.383698974609375,-0.0002876841463148594,-0.0007488757837563753,0.0021676081232726574
1782846218288704000,1.3937041015625,-0.0006288350559771061,-0.00036351638846099377,0.0010394931305199862
1782846218298709000,1.403708984375,0.0010476966854184866,-0.002320348983630538,0.0008980414131656289
1782846218308714000,1.4137138671875,0.001123596914112568,-0.0013773234095424414,-0.0016519352793693542
1782846218318719000,1.423718994140625,-0.00018066656775772572,-0.00021523772738873959,-0.0015826885355636477
1782846218328724000,1.433723876953125,0.0012087046634405851,0.0008596142288297415,0.0017015216872096062
1782846218338729200,1.443729248046875,-0.0007172274636104703,-0.0003692992031574249,-0.001234735012985766
1782846218348734200,1.453734130859375,-0.00017048045992851257,0.0015540355816483498,-0.0017223599134013057
1782846218358739200,1.4637392578125,-0.0006038733990862966,-0.0017824848182499409,-0.001210998510941863
1782846218368744200,1.473744140625,-0.001241700490936637,-0.0006090959068387747,-0.0017902362160384655
1782846218378749200,1.483749267578125,0.0010929838754236698,0.0007637192029505968,0.0014921198599040508
1782846218388754200,1.493754150390625,-0.0012045251205563545,0.0004161766264587641,0.00104284449480474
1782846218398758000,1.5037578125,0.0015039111021906137,-0.0005511301569640636,0.0017893381882458925
1782846218408763000,1.513762939453125,-0.001788821304216981,0.0012236004695296288,-0.0010485262610018253
1782846218418768000,1.523767822265625,-0.00029642414301633835,-0.0005268850363790989,0.0011909148888662457
1782846218428772900,1.53377294921875,0.0008932100608944893,0.001771955518051982,0.0009469693177379668
1782846218438777900,1.54377783203125,-0.00008393963798880577,-0.0013452423736453056,-0.00010093033779412508
1782846218448782800,1.553782958984375,0.0012300638481974602,0.000017230864614248276,0.00013955315807834268
1782846218458787800,1.563787841796875,-0.00005844235420227051,-0.0008056692313402891,0.0032150372862815857
1782846218468792800,1.573792724609375,0.0014720764011144638,-0.0004890190903097391,0.0002304326626472175
1782846218478797800,1.5837978515625,-0.0011330795241519809,0.00041696615517139435,-0.00044070882722735405
1782846218488802800,1.593802734375,-0.0019344247411936522,0.00016742805019021034,0.0012474689865484834
1782846218498807800,1.603807861328125,-0.00039119203574955463,0.001997162587940693,0.0025342621374875307
1782846218508813000,1.61381298828125,-0.001862055854871869,-0.0018042332958430052,0.00242533884011209
1782846218518818000,1.623818115234375,0.0007411851547658443,-0.0026968359015882015,-0.002410588786005974
1782846218528823000,1.633822998046875,-0.0034881806932389736,-0.0021082772873342037,0.0014014601474627852
1782846218538828000,1.643828125,-0.0004040852654725313,-0.0003167116083204746,-0.00008979777339845896
1782846218548833000,1.6538330078125,0.0004856768064200878,-0.000013910001143813133,0.0010316594270989299
1782846218558838000,1.663838134765625,0.0010024229995906353,0.0003365150187164545,-0.000014741090126335621
1782846218568843000,1.673843017578125,0.000695360591635108,0.0003266613930463791,0.0010092443553730845
1782846218578848000,1.683847900390625,0.0012777324300259352,-0.00017513101920485497,0.003471486736088991
1782846218588853200,1.693853271484375,-0.0020901011303067207,-0.00024810153990983963,-0.0032825563102960587
1782846218598858200,1.703858154296875,0.0015559368766844273,0.0012151709524914622,0.0001957732019945979
1782846218608863200,1.71386328125,0.0008832225576043129,-0.0004836595617234707,-0.00040476967114955187
1782846218618868200,1.7238681640625,0.001244641374796629,-0.003110627643764019,-0.0012750496389344335
1782846218628873200,1.733873291015625,0.0010619484819471836,0.000012727687135338783,-0.003638072405010462
1782846218638878200,1.743878173828125,0.0009219185449182987,0.001133166253566742,-0.0022501382045447826
1782846218648883200,1.75388330078125,-0.0017367152031511068,0.0033004467841237783,0.0003328615566715598
1782846218658888200,1.76388818359375,-0.0006094789132475853,0.003199085360392928,-0.00007051997818052769
1782846218668893200,1.77389306640625,-0.0007117443019524217,0.0010373974218964577,-0.0014271341497078538
1782846218678898200,1.783898193359375,-0.0006380012491717935,-0.000568316550925374,-0.002666452433913946
1782846218688903200,1.793903076171875,0.001309568528085947,-0.0013148004654794931,-0.0007348617073148489
1782846218698908200,1.803908203125,-0.0011246205540373921,-0.00043542031198740005,0.0006269662408158183
1782846218708913200,1.8139130859375,0.0000485018827021122,0.00024208799004554749,0.0021566860377788544
1782846218718918100,1.823918212890625,-0.00042848451994359493,-0.0014521162956953049,-0.0009917498100548983
1782846218728923100,1.833923095703125,0.0011675478890538216,0.0007298116106539965,-0.0007054598536342382
1782846218738928000,1.84392822265625,-0.000012797769159078598,-0.0006509646773338318,0.0002863729023374617
1782846218748933000,1.85393310546875,-0.0010607517324388027,-0.0015074373222887516,-0.00008247490040957928
1782846218758938000,1.863938232421875,-0.0005440829554572701,-0.001136938575655222,0.00011615088442340493
1782846218768942000,1.873942138671875,-0.0016192011535167694,0.0008598996791988611,-0.00013738207053393126
1782846218778947000,1.883947021484375,0.0007465570233762264,0.0013883650535717607,-0.0025654411874711514
1782846218788952000,1.8939521484375,0.0009521530009806156,0.0008067307062447071,-0.00042772165033966303
1782846218798957000,1.90395703125,0.0005656278226524591,-0.0005993435624986887,-0.000874929828569293
1782846218808962000,1.913962158203125,-0.0020075184293091297,-0.0001644494477659464,0.001207928522489965
1782846218818967000,1.923967041015625,-0.003787220921367407,-0.00006262469105422497,0.0012719149235635996
1782846218828972000,1.933971923828125,-0.0005229844246059656,0.002662588143721223,0.002725201891735196
1782846218838977000,1.94397705078125,0.0012699253857135773,-0.0024616827722638845,0.0015319446101784706
1782846218848982000,1.95398193359375,0.0018323850817978382,-0.0005034604109823704,0.0007678837282583117
1782846218858987000,1.963987060546875,0.0011974917724728584,-0.0011130513157695532,-0.0017407236155122519
1782846218868992000,1.973991943359375,-0.0012941616587340832,-0.0006824180018156767,-0.00020674278493970633
1782846218878997000,1.9839970703125,-0.0017349885310977697,0.0002212338149547577,-0.0017530758632346988
1782846218889002000,1.994001953125,-0.0016068904660642147,0.0009599947370588779,-0.002719270996749401
1782846218899007000,2.004007080078125,-0.000007133232429623604,0.001746971276588738,0.0008073638891801238
1782846218909012000,2.014011962890625,0.0006749022286385298,-0.00008235406130552292,0.0003634149907156825
1782846218919017000,2.024016845703125,-0.0012082124594599009,0.0014058721717447042,-0.00353577290661633
1782846218929022000,2.03402197265625,-0.0013983622193336487,-0.0003305089194327593,0.000897324993275106
1782846218939027000,2.04402685546875,0.0006624774541705847,0.0006195192690938711,-0.0005792952142655849
1782846218949032200,2.0540322265625,-0.00009359396062791348,0.0017897122306749225,0.005827205255627632
1782846218959037200,2.064037109375,-0.002200312213972211,0.0003782778512686491,-0.002247334225103259
1782846218969042200,2.074042236328125,-0.00120988255366683,-0.00025155977346003056,-0.0005793964955955744
1782846218979047200,2.084047119140625,-0.0018950882367789745,0.00040380493737757206,-0.0016389712691307068
1782846218989052200,2.09405224609375,-0.0014641886809840798,-0.0003317601513117552,0.0021634900476783514
1782846218999057200,2.10405712890625,-0.001204821513965726,0.0023617350962013006,-0.00127556046936661
1782846219009062100,2.114062255859375,0.00011291052214801311,0.00029086112044751644,-0.0006459890864789486
1782846219019067100,2.124067138671875,-0.0016472942661494017,0.00022677797824144363,0.0019068388501182199
1782846219029072100,2.134072021484375,-0.001228645327500999,0.00011066393926739693,-0.002129980595782399
1782846219039077000,2.1440771484375,-0.000739001203328371,0.0019438929157331586,-0.0006055973935872316
1782846219049082000,2.15408203125,-0.0024050746578723192,0.00019020121544599533,-0.0021893794182687998
1782846219059087000,2.164087158203125,-0.002744060941040516,-0.000926328357309103,0.0035141208209097385
1782846219069092000,2.174092041015625,0.002803569659590721,0.00005504651926457882,0.001938062021508813
1782846219079097000,2.18409716796875,-0.00146843574475497,0.00048646749928593636,-0.00009970797691494226
1782846219089102000,2.19410205078125,-0.0011089090257883072,0.0011804873356595635,-0.0018206426175311208
1782846219099107000,2.204107177734375,-0.0017764517106115818,-0.0002475101500749588,0.0014176638796925545
1782846219109112000,2.214112060546875,0.00016659055836498737,-0.00021395436488091946,0.0027124928310513496
1782846219119117000,2.224116943359375,0.000037736957892775536,-0.0012513725087046623,-0.000024746637791395187
1782846219129122000,2.2341220703125,-0.0008339155465364456,0.0006469287909567356,-0.0021307743154466152
1782846219139126000,2.2441259765625,0.000841623404994607,-0.0011079094838351011,-0.0010581646347418427
1782846219149131000,2.254131103515625,-0.0013725286116823554,-0.0005148234777152538,0.0011698359157890081
1782846219159136000,2.264135986328125,0.002155683934688568,-0.0018999117892235518,0.0013192812912166119
1782846219169141000,2.27414111328125,0.00021210918202996254,0.00000744406133890152,0.0008194058900699019
1782846219179146000,2.28414599609375,-0.000013892073184251785,0.00001767813228070736,0.0017158890841528773
1782846219189151000,2.29415087890625,-0.002340962179005146,-0.000682200537994504,0.0018072355305776
1782846219199156000,2.304156005859375,-0.0015442571602761745,0.00004696520045399666,0.0005203775363042951
1782846219209161000,2.314160888671875,-0.0011354618472978473,0.0008360599167644978,-0.00015952740795910358
1782846219219166000,2.324166015625,-0.002119435230270028,-0.0003548434469848871,0.0014519827673211694
1782846219229171000,2.3341708984375,0.00032348232343792915,0.00190351705532521,0.0028139231726527214
1782846219239176000,2.344176025390625,0.0022091087885200977,0.0005989591591060162,-0.0022508243564516306
1782846219249181000,2.354180908203125,-0.0013478092150762677,-0.00023114820942282677,0.0018230131827294827
1782846219259186000,2.36418603515625,-0.00020861811935901642,0.0001534535549581051,0.00024375016801059246
1782846219269191000,2.37419091796875,-0.001673889346420765,0.0023779920302331448,-0.0003408136544749141
1782846219279196000,2.38419580078125,-0.0010130716254934669,0.0008031192701309919,0.0016805045306682587
1782846219289201000,2.394200927734375,0.0006418165285140276,-0.001055234344676137,-0.003533165669068694
1782846219299206100,2.4042060546875,0.0007727770134806633,-0.000055376673117280006,-0.0014162136940285563
1782846219309211100,2.414211181640625,0.00028355419635772705,0.00027192593552172184,-0.0014028978766873479
1782846219319216000,2.424216064453125,0.001065580639988184,0.0014158589765429497,0.003209264948964119
1782846219329221000,2.43422119140625,-0.0012495053233578801,-0.0004659306723624468,0.002107781358063221
1782846219339226000,2.44422607421875,0.00006110663525760174,0.0004652587231248617,0.0007269870257005095
1782846219349231000,2.454231201171875,-0.0004779172595590353,0.0014189367648214102,0.00045907305320724845
1782846219359236000,2.464236083984375,-0.00191230489872396,-0.0006611209828406572,0.00040905753849074244
1782846219369241000,2.474240966796875,0.001433690544217825,-0.00010904762893915176,0.0004596575745381415
1782846219379246000,2.48424609375,-0.000024415086954832077,0.00013413839042186737,0.001207814086228609
1782846219389251000,2.4942509765625,0.0007995669730007648,0.0008084508590400219,0.000663464015815407
1782846219399256000,2.504256103515625,0.001859515905380249,0.001428687828592956,-0.00034322310239076614
1782846219409261000,2.514260986328125,0.0008600314613431692,-0.0016057179309427738,-0.001630595070309937
1782846219419266000,2.52426611328125,0.00006402051076292992,-0.0007289391942322254,0.0003720686654560268
1782846219429271000,2.53427099609375,0.0007945257239043713,0.002098006196320057,-0.0003536427393555641
1782846219439276000,2.544276123046875,-0.0015129121020436287,-0.0027320496737957,-0.001784030464477837
1782846219449281000,2.554281005859375,0.0002903142012655735,0.000436312984675169,-0.0015075943665578961
1782846219459286000,2.5642861328125,-0.002205795841291547,-0.0007258201949298382,0.0022369844373315573
1782846219469291000,2.574291015625,-0.00266119628213346,-0.0007410002872347832,0.0003613200387917459
1782846219479296000,2.5842958984375,-0.0007515257457271218,-0.0026411961298435926,0.00026121526025235653
1782846219489301000,2.594301025390625,-0.0005810834700241685,0.0006137192249298096,-0.00010576832573860884
1782846219499306000,2.604305908203125,-0.0023768639657646418,0.0007290167268365622,-0.00011482415720820427
1782846219509311000,2.61431103515625,-0.0004452732391655445,-0.0015764820855110884,-0.003346569836139679
1782846219519315000,2.62431494140625,-0.0017087601590901613,0.0011920370161533356,0.0018050988437607884
1782846219529320000,2.63431982421875,0.0016574757173657417,-0.0012026773765683174,-0.0009691159939393401
1782846219539325000,2.644324951171875,0.00041354098357260227,0.0018808053573593497,-0.0014648413052782416
1782846219549330000,2.654329833984375,-0.0005121738649904728,-0.00022415723651647568,-0.00035776535514742136
1782846219559335000,2.6643349609375,-0.0017783273942768574,-0.0004276654217392206,0.0007856744341552258
1782846219569340000,2.67433984375,-0.0007562062237411737,0.00001575099304318428,-0.001295585883781314
1782846219579345000,2.684344970703125,0.00006563006900250912,0.001265549217350781,0.003285669954493642
1782846219589350000,2.694349853515625,0.0011008009314537048,0.001277533476240933,-0.0023149577900767326
1782846219599355000,2.70435498046875,-0.00006568245589733124,0.0005186956841498613,0.0015164976939558983
1782846219609360000,2.71435986328125,0.0009814724326133728,-0.002123959129676223,0.0021356826182454824
1782846219619364900,2.72436474609375,-0.00016581732779741287,-0.001643648836761713,0.0018836345989257097
1782846219629369900,2.734369873046875,-0.0006803399883210659,0.0005939393304288387,0.0012631179997697473
1782846219639374800,2.744374755859375,-0.00075225078035146,0.0000939865130931139,0.0016171331517398357
1782846219649380000,2.754380126953125,-0.0007381361210718751,0.001486819819547236,-0.0010598762892186642
1782846219659385000,2.764385009765625,0.0017837837804108858,-0.0024016029201447964,0.0010265470482409
1782846219669390000,2.77439013671875,-0.0006322358967736363,0.0005201511085033417,-0.0007148939184844494
1782846219679395000,2.78439501953125,-0.0008658090373501182,-0.0027089081704616547,0.0003899738658219576
1782846219689400000,2.794400146484375,-0.0022301464341580868,0.0012123301858082414,-0.0010068542324006557
1782846219699405000,2.804405029296875,-0.000825808965601027,-0.00015453691594302654,0.0004211692721582949
1782846219709410000,2.81441015625,0.0004280072171241045,0.0018684003734961152,0.00032076810020953417
1782846219719415000,2.8244150390625,0.0012929914519190788,0.00045351521112024784,0.0003167581162415445
1782846219729420000,2.834419921875,-0.00015310500748455524,0.0006540513131767511,-0.0002544899471104145
1782846219739425000,2.844425048828125,-0.002413309644907713,0.001629190519452095,-0.0011294379364699125
1782846219749430000,2.854429931640625,-0.0009634847519919276,0.00040893000550568104,0.002587269525974989
1782846219759435000,2.86443505859375,-0.00008005206473171711,0.0008296307642012835,-0.0022007939405739307
1782846219769440000,2.87443994140625,-0.0005274631548672915,-0.001450035022571683,0.002684242557734251
1782846219779445000,2.884445068359375,0.00044446857646107674,0.002237363252788782,0.0013580915983766317
1782846219789450000,2.894449951171875,-0.0003313103225082159,0.0003334695938974619,-0.00003687210846692324
1782846219799455000,2.904455078125,-0.0003245142288506031,0.002162677003070712,-0.0009591055568307638
1782846219809460000,2.9144599609375,0.00041557825170457363,0.0011498768581077456,-0.0011937299277633429
1782846219819465000,2.92446484375,-0.001176471821963787,-0.001228233566507697,-0.0009159884648397565
1782846219829470000,2.934469970703125,0.00019878451712429523,-0.001498277997598052,0.0019437139853835106
1782846219839475000,2.944474853515625,0.0011516786180436611,0.0009266466367989779,0.0009729458251968026
1782846219849480000,2.95447998046875,0.00041984207928180695,0.0010062751825898886,-0.0006526476936414838
1782846219859485000,2.96448486328125,-0.0015294111799448729,-0.00000211130827665329,0.00212514353916049
1782846219869490000,2.974489990234375,-0.0012846667086705565,0.0022330796346068382,-0.0010565349366515875
1782846219879495000,2.984494873046875,-0.0014734130818396807,-0.002107095206156373,0.0013273294316604733
1782846219889499000,2.994498779296875,-0.0008025628048926592,0.000577104976400733,-0.002794711384922266
1782846219899503900,3.00450390625,0.001044457545503974,0.0008745437953621149,0.00042552477680146694
1782846219909508900,3.0145087890625,-0.0018181742634624243,0.002358723431825638,0.0017547084717079997
1782846219919513900,3.024513916015625,-0.0017227373318746686,0.0010460242629051208,0.0005584338796325028
1782846219929518800,3.034518798828125,-0.0001299006398767233,-0.0008517445530742407,0.00007054279558360577
1782846219939523800,3.04452392578125,0.0017636080738157034,0.0006366560701280832,0.002402286045253277
1782846219949528800,3.05452880859375,-0.0008406972046941519,-0.0007580411620438099,-0.0004137404030188918
1782846219959533800,3.064533935546875,0.0000031497329473495483,-0.0004605341237038374,0.0011330947745591402
1782846219969538800,3.074538818359375,-0.002428848994895816,-0.0007534818723797798,0.0021480254363268614
1782846219979543800,3.084543701171875,0.00014223787002265453,0.0007264802698045969,0.00027356587816029787
1782846219989548800,3.094548828125,0.0006671471055597067,-0.002331893891096115,-0.0011205991031602025
1782846219999553800,3.1045537109375,0.0008347551338374615,0.0009589982219040394,0.0008016038918867707
1782846220009559000,3.11455908203125,0.0007716382388025522,0.0011888289591297507,-0.000035960227251052856
1782846220019564000,3.12456396484375,-0.0026790255215018988,0.000740766292437911,0.0017591154901310802
1782846220029569000,3.134569091796875,0.0010568567086011171,0.002147714141756296,0.0007497774786315858
1782846220039574000,3.144573974609375,0.0009061216842383146,-0.0018380330875515938,0.00033978524152189493
1782846220049579000,3.1545791015625,-0.0018156289588660002,0.00023976527154445648,0.00003911438398063183
1782846220059584000,3.164583984375,-0.00037036510184407234,-0.0003275300841778517,0.0004637783858925104
1782846220069589000,3.174589111328125,-0.0025672067422419786,-0.0013776144478470087,0.003895794041454792
1782846220079594000,3.184593994140625,-0.0013720173155888915,-0.0002357950434088707,-0.00016504304949194193
1782846220089599000,3.194598876953125,0.00003786012530326843,0.00004969583824276924,-0.0011272431584075093
1782846220099604000,3.20460400390625,-0.00212261825799942,-0.0016591709572821856,0.00045882543781772256
1782846220109609000,3.21460888671875,-0.0012938425643369555,-0.00006819865666329861,-0.0014631778467446566
1782846220119614000,3.224614013671875,-0.00017686164937913418,0.0010137101635336876,0.0032987724989652634
1782846220129619000,3.234618896484375,-0.0007545013213530183,-0.0003679376095533371,0.0003738226369023323
1782846220139624000,3.2446240234375,0.000519823981449008,-0.0016214530915021896,-0.00005136174149811268
1782846220149629000,3.25462890625,0.001201060600578785,-0.0005857499781996012,0.0009742215625010431
1782846220159634000,3.264634033203125,0.00007772096432745457,-0.0011955949012190104,-0.0013036278542131186
1782846220169639000,3.274638916015625,0.0006457732524722815,-0.00026322202757000923,0.0014753807336091995
1782846220179644000,3.284643798828125,0.0003104482311755419,0.0010866820812225342,0.0001494729658588767
1782846220189649000,3.29464892578125,-0.0019204816780984402,0.0012478033313527703,-0.0008697186131030321
1782846220199654000,3.30465380859375,0.0017795634921640158,0.0011736892629414797,0.0011073919013142586
1782846220209659000,3.314658935546875,-0.0005235380958765745,0.0004916538018733263,0.002340968232601881
1782846220219664000,3.324663818359375,-0.0005367596168071032,-0.0020386076066643,0.0014652463141828775
1782846220229668900,3.3346689453125,-0.001178847742266953,0.00041096797212958336,0.00018959224689751863
1782846220239673900,3.344673828125,0.0010009030811488628,-0.0012612100690603256,0.000011408585123717785
1782846220249678800,3.354678955078125,-0.0027781224343925714,0.0014533501816913486,0.0013195533538237214
1782846220259682800,3.364682861328125,-0.0016743273008614779,-0.000422345707193017,-0.00177109579090029
1782846220269687800,3.374687744140625,-0.002766755875200033,0.0015182996867224574,0.0015171092236414552
1782846220279692800,3.38469287109375,0.0013902569189667702,0.00009974418208003044,-0.0011498858220875263
1782846220289697800,3.39469775390625,-0.0002558431588113308,-0.000991619424894452,0.0014765236992388964
1782846220299702800,3.404702880859375,-0.0022613147739320993,-0.0010198948439210653,-0.0011357052717357874
1782846220309707800,3.414707763671875,0.0013555241748690605,-0.00009817490354180336,-0.0016084164381027222
1782846220319712800,3.424712646484375,0.0012230053544044495,0.0017874245531857014,0.0003071142127737403
1782846220329717800,3.4347177734375,-0.0002148353960365057,0.0011874143965542316,-0.00323489005677402
1782846220339722800,3.44472265625,0.00008938973769545555,0.0024958879221230745,0.003623135155066848
1782846220349727700,3.454727783203125,0.000055034877732396126,-0.00036274921149015427,-0.0008371269796043634
1782846220359733000,3.46473291015625,-0.00044052861630916595,-0.0013262203428894281,0.0025198678486049175
1782846220369738000,3.474738037109375,-0.002731113461777568,-0.001291332533583045,0.0020412977319210768
1782846220379743000,3.484742919921875,0.00012328056618571281,0.00039614923298358917,0.0021610362455248833
1782846220389748000,3.494748046875,0.000998395262286067,-0.0014331762213259935,0.00046620058128610253
1782846220399753000,3.5047529296875,0.0017497485969215631,-0.00039119645953178406,-0.00006545695941895247
1782846220409758000,3.514758056640625,0.0002613076940178871,0.00040295813232660294,0.0013183215633034706
1782846220419763000,3.524762939453125,-0.0003174238372594118,-0.0020687165670096874,-0.0004565850831568241
1782846220429768000,3.534767822265625,-0.00011662137694656849,0.0006210762076079845,0.0010177409276366234
1782846220439773000,3.54477294921875,0.00017973757348954678,-0.0022560860961675644,-0.00034370122011750937
1782846220449778000,3.55477783203125,0.0017121206037700176,-0.0002182351890951395,0.0031668776646256447
1782846220459783000,3.564782958984375,0.0022851931862533092,-0.0004224581643939018,-0.001303160679526627
1782846220469788000,3.574787841796875,-0.0009039421565830708,0.0008012645412236452,-0.0013457712484523654
1782846220479793000,3.58479296875,-0.00032565067522227764,0.0020698681473731995,0.0018373159691691399
1782846220489798000,3.5947978515625,0.000004048692062497139,-0.0014915773645043373,-0.0020815255120396614
1782846220499803000,3.604802978515625,-0.0017369791166856885,-0.0007033904548734426,0.0001260371645912528
1782846220509807900,3.614807861328125,0.00016798009164631367,0.00004176190122961998,0.0012445647735148668
1782846220519812900,3.624812744140625,0.0008509717881679535,0.0010001661721616983,0.0006068794755265117
1782846220529817900,3.63481787109375,0.0002469669561833143,0.002447860548272729,-0.0003047205973416567
1782846220539822800,3.64482275390625,-0.001345213269814849,-0.00008177710697054863,0.00070801010588184
1782846220549827800,3.654827880859375,0.0023459279909729958,0.0007336828857660294,0.004492362029850483
1782846220559832800,3.664832763671875,-0.0010672807693481445,0.0003457772545516491,0.0007491386495530605
1782846220569837800,3.674837890625,-0.00019669346511363983,-0.0011045802384614944,-0.00008602859452366829
1782846220579842800,3.6848427734375,0.00047373026609420776,0.002418339252471924,0.0017181221628561616
1782846220589847800,3.694847900390625,-0.00016462942585349083,-0.0007383055053651333,0.0005186344496905804
1782846220599851800,3.704851806640625,0.0019817701540887356,-0.0011970123741775751,0.0015126190846785903
1782846220609856800,3.714856689453125,-0.0004915074678137898,0.000014459481462836266,-0.00021204398944973946
1782846220619861800,3.72486181640625,0.0005971216596662998,-0.002270931378006935,0.0031338082626461983
1782846220629866800,3.73486669921875,0.001979568274691701,-0.0013311016373336315,0.0004940830986015499
1782846220639871700,3.744871826171875,-0.00026666815392673016,-0.0006083380430936813,0.0010790415108203888
1782846220649876700,3.754876708984375,-0.0009596226736903191,-0.0010424335487186909,-0.0008637343998998404
1782846220659881700,3.7648818359375,-0.0006944332271814346,-0.000942162936553359,-0.00013731117360293865
1782846220669886700,3.77488671875,-0.0010715367970988154,0.000016308855265378952,-0.0003482335014268756
1782846220679891700,3.7848916015625,-0.0009568702662363648,0.000131688779219985,-0.00026071909815073013
1782846220689896700,3.794896728515625,0.0006596685852855444,0.0023967071902006865,0.0015941725578159094
1782846220699901700,3.804901611328125,0.00036838348023593426,-0.0002748635597527027,0.002349365968257189
1782846220709907000,3.814906982421875,-0.0012870373902842402,0.0002449855674058199,-0.00017078325618058443
1782846220719912000,3.824911865234375,-0.000588749535381794,-0.002182343043386936,-0.0009895998518913984
1782846220729917000,3.8349169921875,-0.0007706433534622192,0.00034233368933200836,0.0011217542923986912
1782846220739922000,3.844921875,-0.00023277080617845058,0.0009927076753228903,-0.0008402852108702064
1782846220749927000,3.854927001953125,-0.00021466147154569626,-0.00039346772246062756,0.005624271929264069
1782846220759932000,3.864931884765625,-0.00131419172976166,0.0006689222063869238,0.0007047107792459428
1782846220769937000,3.87493701171875,-0.0004784917691722512,-0.0001827566884458065,-0.00027266936376690865
1782846220779942000,3.88494189453125,-0.0010823491029441357,-0.0009079859592020512,0.0005151949590072036
1782846220789947000,3.89494677734375,0.0006724076811224222,-0.00037908204831182957,0.0012643422232940793
1782846220799952000,3.904951904296875,-0.0006905492627993226,-0.00033898744732141495,0.005520569160580635
1782846220809956900,3.914956787109375,-0.0005541953723877668,-0.0028127976693212986,-0.00040043704211711884
1782846220819961900,3.9249619140625,-0.0011042283149436116,-0.0004877501633018255,-0.0009887649212032557
1782846220829966800,3.934966796875,-0.0007199341198429465,0.0024369333405047655,0.0010458900360390544
1782846220839971800,3.944971923828125,0.0010602441616356373,0.0008427384309470654,-0.0012665885733440518
1782846220849976800,3.954976806640625,0.0018847589381039143,0.0023237222339957952,0.002240261994302273
1782846220859981800,3.96498193359375,0.0007821447215974331,-0.00034820474684238434,0.0003023807657882571
1782846220869986800,3.97498681640625,-0.0003512965049594641,-0.0008129263296723366,0.0025948297698050737
1782846220879991800,3.98499169921875,0.000029227230697870255,-0.0020074481144547462,0.0020630275830626488
1782846220889996800,3.994996826171875,-0.0007441547932103276,-0.000739783514291048,0.00039961718721315265
1782846220900001800,4.005001708984375,-0.0010026125237345695,0.00020454451441764832,-0.001153153134509921
1782846220910006800,4.0150068359375,-0.0008350997231900692,0.0012615532614290714,-0.0009922981262207031
1782846220920011800,4.02501171875,-0.0007104687392711639,0.00019093742594122887,-0.002385128289461136
1782846220930016800,4.035016845703125,-0.00020606606267392635,-0.0005685959476977587,0.002752642147243023
1782846220940021800,4.045021728515625,-0.001040648203343153,0.0024443375878036022,0.000044810003601014614
1782846220950025700,4.055025634765625,-0.00013943458907306194,-0.00030031614005565643,0.0005273747956380248
1782846220960030700,4.06503076171875,0.001181355444714427,0.0013615299249067903,-0.0009273036848753691
1782846220970035700,4.07503564453125,-0.0008916491642594337,-0.00048217643052339554,-0.0013355661649256945
1782846220980040700,4.085040771484375,-0.0013251546770334244,-0.001001009251922369,0.0001952662132680416
1782846220990045700,4.095045654296875,-0.0024237085599452257,0.002464295830577612,0.0005444066482596099
1782846221000050700,4.10505078125,0.0011954889632761478,-0.0005061978008598089,0.0015787738375365734
1782846221010055700,4.1150556640625,-0.00010040518827736378,0.0017417764756828547,0.0018400299595668912
1782846221020060700,4.125060791015625,0.003134808037430048,-0.0004300877917557955,-0.00013234559446573257
1782846221030065700,4.135065673828125,-0.0010215872898697853,0.0021526457276195288,-0.00010944250971078873
1782846221040070700,4.145070556640625,0.001304612960666418,0.00013818521983921528,-0.0005123520968481898
1782846221050075600,4.15507568359375,0.00023615267127752304,-0.00022933096624910831,0.0011808857088908553
1782846221060080600,4.16508056640625,-0.00003524310886859894,0.001331510953605175,-0.0021525672636926174
1782846221070086000,4.1750859375,-0.002545804949477315,-0.0031061144545674324,-0.0008769130799919367
1782846221080091000,4.1850908203125,0.001231152331456542,-0.0009043838363140821,-0.0011951610213145614
1782846221090095900,4.195095947265625,-0.0014748857356607914,-0.0014178415294736624,0.0011947598541155457
1782846221100100900,4.205100830078125,-0.0010448379907757044,-0.0004999509546905756,-0.00018395145889371634
1782846221110105900,4.21510595703125,-0.0023633691016584635,-0.0000621273647993803,-0.0014928951859474182
1782846221120110800,4.22511083984375,0.0014535835944116116,0.0021730251610279083,0.0045698294416069984
1782846221130115800,4.23511572265625,0.0010442559141665697,0.001424943096935749,0.0010512609733268619
1782846221140120800,4.245120849609375,-0.0005366123514249921,-0.0005180563312023878,0.0013119984650984406
1782846221150125800,4.255125732421875,0.0008548893965780735,0.001691834651865065,-0.00037271727342158556
1782846221160130800,4.265130859375,0.0007349217776209116,-0.0006916611455380917,-0.00034547364339232445
1782846221170135800,4.2751357421875,0.0002531560603529215,0.00026494613848626614,0.0015309895388782024
1782846221180140800,4.285140869140625,-0.00197043688967824,-0.002630052622407675,0.0010914338054135442
1782846221190145800,4.295145751953125,0.0009859383571892977,-0.00037968135438859463,-0.0021656122989952564
1782846221200150800,4.30515087890625,0.0006636038888245821,-0.00002326956018805504,-0.0011470657773315907
1782846221210155800,4.31515576171875,0.0004705246537923813,0.0018428073963150382,-0.000576882972382009
1782846221220160800,4.325160888671875,0.0006642462685704231,-0.0014300707262009382,-0.0002104484010487795
1782846221230165800,4.335165771484375,0.00015052244998514652,-0.0006100833415985107,0.002453511580824852
1782846221240170800,4.345170654296875,0.0002547039184719324,0.0000567843671888113,0.0015732074389234185
1782846221250175700,4.35517578125,-0.0012675590114668012,0.002161214128136635,-0.0008611880475655198
1782846221260180700,4.3651806640625,-0.002617268357425928,-0.0008192884270101786,0.001611464424058795
1782846221270184700,4.375184814453125,-0.0010065885726362467,0.0001690106000751257,0.0006167738465592265
1782846221280189700,4.385189697265625,-0.0016013202257454395,0.0003698994405567646,0.00043541775085031986
1782846221290194700,4.395194580078125,0.001494870986789465,-0.0008857811335474253,0.0010255742818117142
1782846221300199700,4.40519970703125,-0.0008334630401805043,-0.00024434318765997887,0.00022408977383747697
1782846221310204700,4.41520458984375,0.000765498960390687,0.002959439530968666,-0.0009562232298776507
1782846221320209700,4.425209716796875,-0.0012987665832042694,-0.001006527105346322,-0.0015002733562141657
1782846221330214700,4.435214599609375,0.0022626786958426237,-0.0005282233469188213,0.0005703343776986003
1782846221340219600,4.4452197265625,-0.0008703529601916671,0.00045704818330705166,0.0014804219827055931
1782846221350224600,4.455224609375,-0.002591820200905204,-0.00017864839173853397,0.001509983092546463
1782846221360229600,4.465229736328125,0.0008864598348736763,0.0005047961603850126,-0.001664413372054696
1782846221370234600,4.475234619140625,0.0006662164814770222,0.003728286363184452,-0.0034748301841318607
1782846221380239600,4.485239501953125,-0.00005953735671937466,0.00004023918882012367,-0.000273028330411762
1782846221390244600,4.49524462890625,0.0013391547836363316,-0.0003203528467565775,0.0018489784561097622
1782846221400249600,4.50524951171875,0.0013012038543820381,-0.0007609042804688215,-0.0003155757440254092
1782846221410254600,4.515254638671875,0.00020451401360332966,-0.00219634803943336,0.0035838247276842594
1782846221420259800,4.525259765625,-0.00297561171464622,-0.0009646897669881582,-0.0024572534020990133
1782846221430264800,4.535264892578125,-0.000854137702845037,0.0016577247297391295,0.0016871578991413116
1782846221440269800,4.545269775390625,-0.0014794179005548358,-0.0000978612806648016,-0.0015358150703832507
1782846221450274800,4.55527490234375,0.0019936105236411095,0.001981002278625965,0.003099683206528425
1782846221460279800,4.56527978515625,0.00023503554984927177,0.00016975379548966885,0.0012144983047619462
1782846221470284800,4.575284912109375,-0.00018494506366550922,-0.002615113742649555,0.0011806761613115668
1782846221480290000,4.5852900390625,-0.0013680437114089727,0.0012414940865710378,0.001054252265021205
1782846221490295000,4.595294921875,-0.0003501835744827986,-0.0004991481546312571,-0.0011007776483893394
1782846221500299500,4.605299560546875,0.001128803240135312,0.002274672267958522,-0.00012738339137285948
1782846221510304500,4.615304443359375,0.0007088226266205311,0.001216065720655024,0.0017826356925070286
1782846221520309800,4.625309814453125,-0.0004634312354028225,-0.000319233862683177,-0.00014449754962697625
1782846221530314800,4.635314697265625,0.0022276928648352623,0.0009747960139065981,0.0013503347290679812
1782846221540319700,4.64531982421875,0.00019391579553484917,-0.0006017631385475397,0.0006126672960817814
1782846221550324700,4.65532470703125,0.00044585089199244976,0.002125846454873681,-0.0013061403296887875
1782846221560329700,4.665329833984375,0.0013004501815885305,0.001027046935632825,-0.0015324379783123732
1782846221570334700,4.675334716796875,0.003159868996590376,-0.00042837043292820454,0.00009715039050206542
1782846221580339700,4.685339599609375,0.0001296780537813902,0.00018859258852899075,-0.00033332640305161476
1782846221590343400,4.695343505859375,0.0010625834111124277,-0.0008676170837134123,-0.0017930050380527973
1782846221600348400,4.705348388671875,0.0010242427233606577,0.002085203304886818,0.0005082801799289882
1782846221610353400,4.715353515625,-0.0007230571936815977,0.0012910488294437528,0.0011306608794257045
1782846221620358400,4.7253583984375,0.001242288388311863,-0.000037905992940068245,-0.0009433071245439351
1782846221630363400,4.73536328125,0.0003016598057001829,0.0021253798622637987,0.003085523145273328
1782846221640368400,4.745368408203125,0.0008617821149528027,0.0014812512090429664,-0.001849927706643939
1782846221650373400,4.755373291015625,0.000758717767894268,-0.0007723155431449413,-0.001347655663266778
1782846221660378400,4.76537841796875,-0.0018396773375570774,0.001146520720794797,-0.00019273237558081746
1782846221670383400,4.77538330078125,0.00020429887808859348,0.0010716859251260757,0.0019399269949644804
1782846221680388400,4.785388427734375,0.00020753080025315285,-0.002945034997537732,0.0009709476144053042
1782846221690393600,4.7953935546875,0.00035506999120116234,0.00189206434879452,0.002493743086233735
1782846221700398600,4.805398681640625,-0.0021201930940151215,-0.0014786876272410154,0.0015924029285088181
1782846221710403600,4.815403564453125,-0.0014416198246181011,0.00038366089574992657,-0.002319780644029379
1782846221720408600,4.82540869140625,0.000791012542322278,0.00331132672727108,-0.003059640061110258
1782846221730413600,4.83541357421875,0.000544403912499547,0.0012982431799173355,0.0019851860124617815
1782846221740418600,4.84541845703125,0.0024354674387723207,-0.0011787766125053167,-0.0009670725557953119
1782846221750423600,4.855423583984375,-0.00020638853311538696,0.0006281780079007149,-0.0009295219788327813
1782846221760428500,4.865428466796875,0.0015737791545689106,-0.003274147631600499,-0.0027750784065574408
1782846221770433800,4.875433837890625,0.00120945880189538,-0.00166985928080976,-0.0006464138859882951
1782846221780438800,4.885438720703125,0.0005297488532960415,0.0007554106414318085,0.00032331765396520495
1782846221790443800,4.89544384765625,0.00023120851255953312,0.002010026015341282,0.000906816276255995
1782846221800448800,4.90544873046875,-0.0005086696473881602,-0.00012566056102514267,0.0008184135658666492
1782846221810453800,4.915453857421875,0.001356874592602253,-0.001492927549406886,-0.0005909312167204916
1782846221820458800,4.925458740234375,-0.0005537144606932998,0.001121119363233447,-0.001773179043084383
1782846221830463700,4.935463623046875,-0.0011137771653011441,-0.0012581488117575645,0.0008769326377660036
1782846221840468700,4.94546875,0.000961807556450367,-0.0006401424761861563,-0.000223438604734838
1782846221850473700,4.9554736328125,-0.0003870836226269603,-0.0011597254779189825,0.0017638122662901878
1782846221860478700,4.965478759765625,-0.0006703470135107636,0.0008527981117367744,0.000005362380761653185
1782846221870483700,4.975483642578125,-0.0006841954309493303,-0.00035814126022160053,0.0008421275997534394
1782846221880488700,4.98548876953125,-0.0017490619793534279,-0.0017605305183678865,0.0009088703081943095
1782846221890493700,4.99549365234375,0.0010243540164083242,0.0013684172881767154,0.0020630843937397003
1782846221900497700,5.00549755859375,0.0016553073655813932,-0.0001800190657377243,-0.0025717285461723804
1782846221910502700,5.015502685546875,-0.0005388709250837564,-0.00044207414612174034,-0.001963196089491248
1782846221920507600,5.025507568359375,-0.00014916900545358658,-0.003374770050868392,0.0011292733252048492
1782846221930512600,5.0355126953125,-0.0014852768508717418,-0.0006921680178493261,-0.0021714484319090843
1782846221940517600,5.045517578125,-0.00006731669418513775,0.00020111515186727047,-0.0006100879982113838
1782846221950522600,5.055522705078125,-0.000010058749467134476,-0.0018391325138509274,0.0012184383813291788
1782846221960527600,5.065527587890625,0.001247265376150608,-0.0014618830755352974,0.00045283226063475013
1782846221970532600,5.07553271484375,-0.00011467537842690945,-0.0025010486133396626,0.0010368634248152375
1782846221980537600,5.08553759765625,0.0005503606516867876,-0.0031390695367008448,0.002624121028929949
1782846221990542600,5.09554248046875,-0.0019586035050451756,-0.0014413043390959501,0.0013886806555092335
1782846222000547600,5.105547607421875,-0.001125663984566927,-0.0015029306523501873,-0.001571719185449183
1782846222010552600,5.115552490234375,0.0007710393983870745,-0.001018767710775137,0.0002892976626753807
1782846222020557600,5.1255576171875,0.0022591284941881895,0.0004512839950621128,-0.000007912109140306711
1782846222030562600,5.1355625,0.0009856047108769417,-0.0006238343194127083,-0.0018508195644244552
1782846222040567600,5.145567626953125,-0.0006898565916344523,0.0011507843155413866,0.0009105830104090273
1782846222050572500,5.155572509765625,0.00001881062053143978,0.0010173600167036057,0.0004890045966021717
1782846222060577500,5.16557763671875,0.0005679666064679623,0.001305288984440267,-0.00006262649549171329
1782846222070582500,5.17558251953125,0.003027129452675581,-0.00240449421107769,-0.0009630411514081061
1782846222080587500,5.18558740234375,-0.002017816063016653,-0.0004437484312802553,-0.0008318047039210796
1782846222090592500,5.195592529296875,0.0020536244846880436,-0.000845619710162282,-0.0027282414957880974
1782846222100597500,5.205597412109375,-0.0017693405970931053,-0.0013833516277372837,-0.000939301447942853
1782846222110602500,5.2156025390625,-0.0004500106442719698,0.000045434338971972466,0.0007163857808336616
1782846222120607500,5.225607421875,-0.0018799176905304193,0.0007349078077822924,-0.0003609721316024661
1782846222130612700,5.23561279296875,-0.0007241058629006147,0.000171649269759655,0.0023953993804752827
1782846222140617700,5.24561767578125,-0.0004151221364736557,0.00012893835082650185,-0.0011745663359761238
1782846222150622700,5.255622802734375,0.002330597024410963,-0.0016897341702133417,-0.0004563117981888354
1782846222160627700,5.265627685546875,-0.001331581617705524,0.0004220756236463785,0.000035701494198292494
1782846222170632700,5.2756328125,0.00023409072309732437,0.0014524526195600629,0.0001230531488545239
1782846222180637700,5.2856376953125,0.0009314864873886108,-0.0015280840452760458,0.0014769601402804255
1782846222190641700,5.2956416015625,-0.0007271303329616785,0.00006155669689178467,-0.00009057647548615932
1782846222200646700,5.305646728515625,-0.0004793400876224041,0.0023402052465826273,0.000775656895712018
1782846222210651600,5.315651611328125,0.000972615322098136,-0.0011408126447349787,-0.0029703457839787006
1782846222220656600,5.32565673828125,0.0014020344242453575,-0.0006719054654240608,-0.0004734884714707732
1782846222230661600,5.33566162109375,-0.0005609815707430243,0.002356641460210085,-0.0004156979266554117
1782846222240666600,5.34566650390625,-0.0007888585096225142,0.0008260014001280069,-0.00046923296758905053
1782846222250671600,5.355671630859375,0.0011366070248186588,0.001825219369493425,0.0008551569771952927
1782846222260676600,5.365676513671875,0.001239854609593749,-0.0006760242395102978,-0.0019230875186622143
1782846222270681600,5.375681640625,-0.0013508684933185577,-0.0007095800247043371,-0.00017498846864327788
1782846222280686600,5.3856865234375,-0.00010577752254903316,-0.0004061588551849127,-0.0020232193637639284
1782846222290691600,5.395691650390625,-0.0013912853319197893,0.0013592506293207407,0.0014564668526872993
1782846222300696600,5.405696533203125,0.0009242165833711624,0.0012699085054919124,0.0001489953720010817
1782846222310701600,5.41570166015625,0.0010898651089519262,0.0009764281567186117,0.0006957423174753785
1782846222320706600,5.42570654296875,0.00018503982573747635,0.0003349154721945524,0.0011365123791620135
1782846222330711600,5.435711669921875,-0.0014876916538923979,-0.00263504171743989,0.00468490831553936
1782846222340716500,5.445716552734375,0.001640882110223174,-0.001520578982308507,-0.00363087747246027
1782846222350721500,5.455721435546875,0.0013609838206321,0.0011748065007850528,0.0008608100470155478
1782846222360726500,5.4657265625,-0.00012101675383746624,-0.0010538646019995213,-0.0010024753864854574
1782846222370731500,5.4757314453125,0.0008193452376872301,-0.0008836886845529079,-0.00048342521768063307
1782846222380736500,5.485736572265625,0.0009041083976626396,-0.001175576588138938,0.0029230518266558647
1782846222390741500,5.495741455078125,0.00025083497166633606,-0.0013175231870263815,0.0014433995820581913
1782846222400746500,5.50574658203125,0.0029394575394690037,0.00012037018314003944,0.0010469196131452918
1782846222410751500,5.51575146484375,0.0009753762278705835,0.0009115952998399734,0.0007457161555066705
1782846222420756500,5.525756591796875,0.0010448831599205732,0.0007764347828924656,-0.0009540896862745285
1782846222430761500,5.535761474609375,0.0016590082086622715,0.001092818332836032,-0.002142924815416336
1782846222440766500,5.545766357421875,0.0002084753941744566,-0.00013179169036448002,-0.0005977110704407096
1782846222450771500,5.555771484375,0.004400823265314102,0.0012836783425882459,0.0012792848283424973
1782846222460776400,5.5657763671875,0.0007295983377844095,-0.0005244880449026823,0.0009994233259931207
1782846222470781400,5.575781494140625,-0.0007164981216192245,-0.0013993363827466965,0.0022045038640499115
1782846222480786700,5.58578662109375,0.0007094768807291985,-0.0010488394182175398,-0.0008518440881744027
1782846222490790700,5.595790771484375,0.0011912425979971886,-0.0005140765570104122,-0.0011527814203873277
1782846222500795600,5.605795654296875,-0.00005069701001048088,-0.00042808428406715393,-0.0011222980683669448
1782846222510800600,5.615800537109375,-0.0016880084294825792,0.00018790480680763721,-0.0018077957211062312
1782846222520805600,5.6258056640625,-0.0007750530494377017,0.000736595131456852,-0.0011773734586313367
1782846222530810600,5.635810546875,0.0006412160582840443,0.000751775223761797,-0.00218777684494853
1782846222540815600,5.645815673828125,0.0006552082486450672,0.0010818212758749723,-0.0026366773527115583
1782846222550820600,5.655820556640625,0.0005327027756720781,-0.0012540374882519245,0.001264320919290185
1782846222560825600,5.66582568359375,0.0000525154173374176,0.0006184778176248074,-0.0004389201058074832
1782846222570830600,5.67583056640625,0.00032841903157532215,0.0005891830660402775,0.0013477946631610394
1782846222580835600,5.685835693359375,0.0007830685935914516,-0.0016904235817492008,-0.00022637768415734172
1782846222590840600,5.695840576171875,-0.0007527762791141868,-0.0009583206847310066,0.001356072723865509
1782846222600845600,5.705845458984375,-0.00025115814059972763,-0.0010842522606253624,-0.0013526628026738763
1782846222610850600,5.7158505859375,0.001295073190703988,0.0004973988980054855,-0.0025992882438004017
1782846222620855600,5.72585546875,0.0013389377854764462,-0.00008884817361831665,0.00045337132178246975
1782846222630860500,5.735860595703125,-0.0004847949603572488,-0.0011554441880434752,0.0024906895123422146
1782846222640865500,5.745865478515625,-0.000882713939063251,-0.00019617285579442978,0.001190586481243372
1782846222650870500,5.75587060546875,0.00014446722343564034,0.0006959862075746059,0.0009556957520544529
1782846222660875500,5.76587548828125,-0.0006290596211329103,0.0019619532395154238,-0.0021955231204628944
1782846222670880500,5.775880615234375,0.0001669593621045351,0.0002910860348492861,-0.00033557123970240355
1782846222680885500,5.785885498046875,-0.0012492731912061572,-0.001537242205813527,0.0021732645109295845
1782846222690890500,5.795890380859375,-0.0003291510511189699,0.0010332409292459488,0.001341825583949685
1782846222700895500,5.8058955078125,0.001142930705100298,0.00015966827049851418,0.0012911378871649504
1782846222710900500,5.815900390625,0.00035330350510776043,-0.0011013385374099016,-0.0016388718504458666
1782846222720905500,5.825905517578125,0.00021210196428000927,0.0003950658719986677,0.001454860088415444
1782846222730910500,5.835910400390625,-0.0014047031290829182,-0.0007764585316181183,0.00010303955059498549
1782846222740915500,5.84591552734375,0.0007603783160448074,-0.0011451772879809141,-0.0008036346407607198
1782846222750920400,5.85592041015625,0.00010364293120801449,-0.0015883271116763353,-0.002098996192216873
1782846222760924700,5.865924560546875,-0.0008341624634340405,-0.00014636549167335033,-0.0008675256394781172
1782846222770929700,5.8759296875,-0.0000011257361620664597,0.0012307550059631467,-0.0043067317456007
1782846222780934700,5.8859345703125,0.0016413405537605286,-0.00000911857932806015,0.0002094038063660264
1782846222790939600,5.895939697265625,0.0022128550335764885,0.001993312267586589,0.0004285819595679641
1782846222800944600,5.905944580078125,0.0003208001144230366,0.00008419808000326157,-0.0012124262284487486
1782846222810949600,5.91594970703125,-0.002771662548184395,0.0013947396073490381,-0.0010260050185024738
1782846222820954600,5.92595458984375,-0.001809501787647605,-0.0003393460065126419,0.002035881858319044
1782846222830959600,5.935959716796875,0.00110905640758574,-0.002824341645464301,0.00009630166459828615
1782846222840964600,5.945964599609375,-0.0012673669261857867,0.0003472503740340471,0.001822353806346655
1782846222850969600,5.955969482421875,-0.0002987752668559551,0.002083897590637207,0.0017973200883716345
1782846222860974600,5.965974609375,-0.00022786343470215797,0.00042675738222897053,-0.00045533094089478254
1782846222870979600,5.9759794921875,-0.0021900807041674852,-0.00004382315091788769,-0.0010923591908067465
1782846222880984600,5.985984619140625,0.0018022572621703148,-0.0006715597119182348,0.0038782181218266487
1782846222890989600,5.995989501953125,-0.0004252104554325342,0.0015548428054898977,0.0017032145988196135
1782846222900994600,6.00599462890625,-0.00041011779103428125,-0.00003534089773893356,0.004539284389466047
1782846222910999600,6.01599951171875,0.0012080189771950245,-0.00016769999638199806,0.0022396445274353027
1782846222921004500,6.026004638671875,-0.0005873312475159764,-0.0004409316461533308,0.0000564005458727479
1782846222931009500,6.036009521484375,-0.0005697543965652585,-0.00018926290795207024,0.0012486977502703667
1782846222941014500,6.0460146484375,0.0020568601321429014,0.0005052948836237192,-0.0010365966008976102
1782846222951019500,6.05601953125,0.002173506421968341,-0.0013165734708309174,-0.0014025148702785373
1782846222961024500,6.0660244140625,-0.0011417053174227476,0.0012758582597598433,-0.0002729208208620548
1782846222971029500,6.076029541015625,0.001487367320805788,-0.00048236059956252575,-0.0009035572875291109
1782846222981034500,6.086034423828125,-0.0016005970537662506,-0.0026480499655008316,0.0018083520699292421
1782846222991039500,6.09603955078125,-0.0011782196816056967,0.001344561344012618,-0.0017677407013252378
1782846223001044500,6.10604443359375,-0.0004467964172363281,0.0016716767568141222,0.0004725819453597069
1782846223011049500,6.116049560546875,0.0007494955789297819,0.0012892468366771936,-0.000359922181814909
1782846223021054500,6.126054443359375,-0.0004416919546201825,0.000226237578317523,0.0010572947794571519
1782846223031058400,6.136058349609375,-0.0017953767674043775,0.0004273061640560627,-0.0005302155623212457
1782846223041063400,6.1460634765625,-0.0015271573793143034,0.00021253316663205624,-0.0003422871232032776
1782846223051068700,6.156068603515625,-0.001180413761176169,-0.0014053371269255877,0.0003301610122434795
1782846223061073700,6.16607373046875,0.000016209902241826057,-0.00020406651310622692,-0.00041842705104500055
1782846223071078700,6.17607861328125,0.000527270371094346,-0.0006749134045094252,0.00014003785327076912
1782846223081083600,6.186083740234375,-0.00046544813085347414,0.000711384229362011,0.0020558652468025684
1782846223091088600,6.196088623046875,-0.0007956800982356071,-0.0008127428591251373,0.003619140712544322
1782846223101093600,6.20609375,0.0005625120829790831,0.0012834274675697088,0.001347237266600132
1782846223111098600,6.2160986328125,-0.00067798828240484,-0.0026527245063334703,0.0021224834490567446
1782846223121103600,6.226103515625,-0.002674813149496913,-0.0009770747274160385,0.001807962078601122
1782846223131108600,6.236108642578125,0.000522577902302146,-0.00004230532795190811,-0.0024147462099790573
1782846223141113600,6.246113525390625,-0.000813707010820508,0.000016405014321208,0.0002884829882532358
1782846223151118600,6.25611865234375,-0.0010643104324117303,0.0017043165862560272,-0.0012122081825509667
1782846223161123600,6.26612353515625,-0.0009130870457738638,0.001440908177755773,0.0018559186719357967
1782846223171128600,6.276128662109375,0.001287216553464532,-0.0022512981668114662,0.0015677646733820438
1782846223181133600,6.286133544921875,-0.00015322514809668064,-0.0005279805045574903,0.0016919777262955904
1782846223191138600,6.296138671875,-0.0012954549165442586,0.0014081377303227782,-0.0007288357010111213
1782846223201143600,6.3061435546875,-0.003705617506057024,-0.0006769713945686817,0.0008383931126445532
1782846223211148500,6.3161484375,0.0018673134036362171,0.001009608618915081,-0.0018529973458498716
1782846223221153500,6.326153564453125,-0.00073022092692554,0.001205740962177515,0.002211270621046424
1782846223231158500,6.336158447265625,-0.00023540551774203777,-0.00036605680361390114,-0.00007878162432461977
1782846223241163500,6.34616357421875,-0.00024791457690298557,0.0017861842643469572,-0.0012381940614432096
1782846223251168500,6.35616845703125,-0.0011906735599040985,-0.00026578130200505257,-0.001381205627694726
1782846223261173500,6.366173583984375,-0.00014856806956231594,-0.0005259967874735594,-0.00048290693666785955
1782846223271178500,6.376178466796875,0.0007326719351112843,-0.0015302749816328287,0.000040670507587492466
1782846223281183500,6.38618359375,-0.0019644079729914665,0.0019465801306068897,-0.001228466397151351
1782846223291188500,6.3961884765625,-0.002120202872902155,-0.0007165810093283653,0.0014836967457085848
1782846223301193500,6.406193359375,0.0012809059116989374,0.0001798172015696764,0.0012366757728159428
1782846223311197400,6.416197509765625,-0.000892233569175005,-0.0026796190068125725,0.00016315560787916183
1782846223321202400,6.426202392578125,-0.00044262828305363655,-0.0003100689500570297,0.0007480550557374954
1782846223331207400,6.43620751953125,-0.0008958983235061169,-0.0012227341067045927,0.0023211841471493244
1782846223341212400,6.44621240234375,-0.00003613787703216076,0.0005578659474849701,0.0034547746181488037
1782846223351217400,6.456217529296875,0.00019875308498740196,-0.0033572472166270018,0.0029133539646863937
1782846223361222400,6.466222412109375,-0.00004406273365020752,0.0009618843905627728,-0.002443864708766341
1782846223371227400,6.476227294921875,-0.0012781715486198664,-0.0001510505098849535,0.0005577842239290476
1782846223381232400,6.486232421875,-0.000402610981836915,-0.0003854706883430481,0.0007269015768542886
1782846223391237400,6.4962373046875,0.0023809249978512526,-0.002639303682371974,0.00039933278458192945
1782846223401242400,6.506242431640625,-0.00014122109860181808,0.0012602652423083782,0.001369307516142726
1782846223411247600,6.51624755859375,-0.0015612186398357153,-0.0007136696949601173,0.0017032679170370102
1782846223421252600,6.526252685546875,-0.001315594301559031,0.00007256842218339443,0.002023771870881319
1782846223431257600,6.536257568359375,-0.0010796382557600737,0.0021801942493766546,-0.0014074449427425861
1782846223441262600,6.5462626953125,-0.000757484114728868,-0.00011600996367633343,0.00040016788989305496
1782846223451267600,6.556267578125,-0.0017921221442520618,-0.0016137717757374048,0.0014957922976464033
1782846223461272600,6.5662724609375,0.0022592528257519007,-0.0017828524578362703,-0.0002795885084196925
1782846223471277600,6.576277587890625,0.001005969475954771,0.0023242742754518986,-0.0007861218182370067
1782846223481282600,6.586282470703125,0.0011516057420521975,-0.0010992262978106737,-0.0005733179859817028
1782846223491287600,6.59628759765625,-0.00010407459922134876,0.0002011952456086874,0.0024642834905534983
1782846223501292500,6.60629248046875,-0.0022327143233269453,-0.0016430073883384466,0.0014284346252679825
1782846223511298300,6.61629833984375,-0.001419917680323124,-0.0007287440821528435,-0.00012312305625528097
1782846223521303300,6.62630322265625,-0.0012399908155202866,-0.000645368592813611,0.00044895155588164926
1782846223531308300,6.636308349609375,0.0016191790346056223,0.001745883608236909,-0.0033511128276586533
1782846223541313300,6.646313232421875,0.0007441246416419744,-0.00005100877024233341,0.0014676956925541162
1782846223551318300,6.656318359375,-0.003633579472079873,-0.0008028191514313221,-0.0017528650350868702
1782846223561322200,6.666322265625,0.001138591207563877,0.00018650759011507034,0.0009339312673546374
1782846223571327200,6.6763271484375,-0.00125026423484087,0.0002064811997115612,0.0011999810812994838
1782846223581332200,6.686332275390625,-0.0016037977766245604,-0.0016400173772126436,-0.004075529985129833
1782846223591337200,6.696337158203125,-0.00010656844824552536,0.00133393460419029,-0.0035386367235332727
1782846223601342200,6.70634228515625,-0.0005466315196827054,-0.0009584147483110428,-0.00017044402193278074
1782846223611347200,6.71634716796875,0.0009607176762074232,0.0004629143513739109,-0.00006951019167900085
1782846223621352200,6.726352294921875,0.00004843343049287796,-0.00037922197952866554,0.0005105516756884754
1782846223631357200,6.736357177734375,-0.0009398657130077481,-0.0008335572201758623,0.0021452000364661217
1782846223641362200,6.746362060546875,-0.0017026273999363184,0.0022513791918754578,-0.0011521689593791962
1782846223651367200,6.7563671875,-0.00033296365290880203,-0.0004709041677415371,-0.001469884067773819
1782846223661372200,6.7663720703125,0.0004131037276238203,0.001120390952564776,-0.00024998816661536694
1782846223671377200,6.776377197265625,0.0008434704504907131,0.0010735193500295281,-0.001270245062187314
1782846223681382100,6.786382080078125,0.0007045548409223557,-0.00023538502864539623,-0.0009967600926756859
1782846223691387100,6.79638720703125,0.0013162828981876373,-0.0013214221689850092,-0.0011922360863536596
1782846223701392100,6.80639208984375,-0.0007283689919859171,-0.00016963551752269268,0.0005125409225001931
1782846223711397000,6.816397216796875,-0.0015187952667474747,0.0009361088741570711,0.0015775390202179551
1782846223721402000,6.826402099609375,-0.0003473120741546154,0.0008776055183261633,0.0017952152993530035
1782846223731407000,6.836406982421875,0.0006907880306243896,-0.00022094836458563805,-0.001140120904892683
1782846223741412000,6.846412109375,-0.002642518375068903,0.0007290025241672993,-0.0008912925841286778
1782846223751417000,6.8564169921875,-0.0027005751617252827,-0.0021394884679466486,-0.0005874258931726217
1782846223761422000,6.866422119140625,0.0012675898615270853,-0.00007131439633667469,-0.0015515481354668736
1782846223771427000,6.876427001953125,0.00007449369877576828,0.0008506719022989273,-0.0016444924985989928
1782846223781432000,6.88643212890625,0.0005495250225067139,0.00028027966618537903,0.00008049176540225744
1782846223791437000,6.89643701171875,0.00039958907291293144,-0.001183393644168973,0.0004440132761374116
1782846223801442000,6.906442138671875,0.0007058465853333473,0.0025277966633439064,-0.0034680874086916447
1782846223811447000,6.916447021484375,-0.0002752619329839945,-0.0010126095730811357,0.0014779351186007261
1782846223821451300,6.926451171875,0.0012192570138722658,-0.0012162646744400263,0.0005866886931471527
1782846223831456300,6.936456298828125,0.0016967616975307465,0.0021028330083936453,-0.0002474134089425206
1782846223841461200,6.946461181640625,-0.0008676622528582811,-0.0006745883729308844,-0.00039294734597206116
1782846223851466200,6.95646630859375,-0.0010152013273909688,-0.00017071818001568317,-0.0012568767415359616
1782846223861471200,6.96647119140625,-0.001411163480952382,-0.0030501261353492737,-0.001082930713891983
1782846223871476200,6.976476318359375,0.0015739738009870052,0.001098812441341579,-0.003314659697934985
1782846223881481200,6.986481201171875,-0.0004216862143948674,0.0001509718131273985,0.001512222457677126
1782846223891486200,6.996486328125,-0.002529578283429146,0.0012897393899038434,0.0017300690524280071
1782846223901491200,7.0064912109375,-0.0019715852104127407,0.00018897117115557194,0.0014619252178817987
1782846223911496200,7.01649609375,-0.0038512442260980606,-0.0005535180680453777,-0.0014433171600103378
1782846223921501200,7.026501220703125,-0.0016875574365258217,-0.0007427488453686237,0.0000026382040232419968
1782846223931506200,7.036506103515625,-0.0017932849004864693,0.0012002935400232673,0.0006159642362035811
1782846223941511200,7.04651123046875,-0.000031338538974523544,-0.000403454527258873,-0.0006754916394129395
1782846223951516200,7.05651611328125,-0.00012641330249607563,-0.001720920205116272,-0.001962863840162754
1782846223961521200,7.066521240234375,-0.0005974444793537259,0.0009191569406539202,-0.0035845288075506687
1782846223971526100,7.076526123046875,-0.00004084385000169277,-0.0017000618390738964,-0.0008286894299089909
1782846223981531100,7.08653125,0.000755595974624157,-0.0017353182192891836,-0.0012524902122095227
1782846223991536000,7.0965361328125,0.0012163228821009398,-0.00028815632686018944,0.0009534060955047607
1782846224001541000,7.106541015625,-0.0014049394521862268,0.0018476045224815607,0.0022425944916903973
1782846224011546000,7.116546142578125,0.00039961840957403183,-0.001715172315016389,-0.0007915449095889926
1782846224021551000,7.126551025390625,-0.0012149619869887829,-0.00044263689778745174,-0.0005628393264487386
1782846224031556000,7.13655615234375,0.0005334033630788326,0.000044987769797444344,0.0007437075255438685
1782846224041561000,7.14656103515625,0.001308782259002328,-0.000005398644134402275,0.0014465062413364649
1782846224051566000,7.156566162109375,-0.0012499828590080142,0.0016561475349590182,0.00009335414506494999
1782846224061570000,7.166570068359375,-0.0011721194023266435,-0.001734924502670765,0.001651583705097437
1782846224071575000,7.176574951171875,0.003452459815889597,0.0010962821543216705,-0.00020943325944244862
1782846224081580300,7.186580322265625,-0.001996192615479231,-0.0005060331895947456,-0.0019071234855800867
1782846224091585300,7.196585205078125,0.0006350104231387377,-0.0017883451655507088,0.0018732337048277259
1782846224101590300,7.20659033203125,-0.0014385436661541462,0.0008016745559871197,0.001992084551602602
1782846224111595300,7.21659521484375,0.0013343396130949259,0.0012394982622936368,0.0003411910147406161
1782846224121600300,7.226600341796875,-0.0000213689636439085,0.00074180425144732,-0.0016061743954196572
1782846224131605200,7.236605224609375,0.0011482913978397846,-0.002141067525371909,0.00041010475251823664
1782846224141610200,7.2466103515625,0.0012246489059180021,0.0006750775501132011,-0.0020897057838737965
1782846224151615200,7.256615234375,0.0004861543420702219,0.0014077130472287536,-0.0012231131549924612
1782846224161620200,7.2666201171875,0.000010275514796376228,-0.0005711100529879332,-0.003256978001445532
1782846224171625200,7.276625244140625,0.001790598500519991,0.0002938846591860056,-0.0013490893179550767
1782846224181630200,7.286630126953125,0.00008697272278368473,-0.00021121022291481495,-0.0016154998447746038
1782846224191635200,7.29663525390625,-0.00045418168883770704,0.0007896057795733213,-0.0009944506455212831
1782846224201640200,7.30664013671875,-0.0005295131122693419,-0.0015238616615533829,0.0014266015496104956
1782846224211645200,7.316645263671875,-0.0006150006083771586,-0.00018695509061217308,0.002237267792224884
1782846224221650200,7.326650146484375,-0.001633759937249124,-0.0013855986762791872,-0.0011446470161899924
1782846224231655200,7.3366552734375,0.0006610860582441092,-0.0011147551704198122,0.0005901360418647528
1782846224241660200,7.34666015625,-0.000764761702157557,0.00008915434591472149,0.0008992315270006657
1782846224251665200,7.3566650390625,0.0014682989567518234,0.0015027603367343545,-0.0033431840129196644
1782846224261670100,7.366670166015625,0.0028778412379324436,-0.0005202691536396742,0.002593015320599079
1782846224271675100,7.376675048828125,-0.0010761539451777935,-0.00041028065606951714,0.0022510653361678123
1782846224281680100,7.38668017578125,-0.000594710698351264,-0.00008636293932795525,-0.0011649095686152577
1782846224291685000,7.39668505859375,-0.0005885855061933398,0.0006097874138504267,0.001136860460974276
1782846224301690000,7.406690185546875,-0.0005762778455391526,0.00004504341632127762,0.0006172443390823901
1782846224311694000,7.416694091796875,0.0001150788739323616,0.0019406814826652408,-0.001384920091368258
1782846224321699000,7.426698974609375,-0.0008307305397465825,-0.004910523537546396,0.003125793067738414
1782846224331704000,7.4367041015625,0.0020580003038048744,-0.0003735623322427273,-0.0032061387319117785
1782846224341709000,7.446708984375,-0.001600867137312889,-0.0009728178847581148,-0.00047536834608763456
1782846224351714000,7.456714111328125,-0.0005497174570336938,-0.0005831972230225801,0.0003930884995497763
1782846224361719000,7.466718994140625,-0.0009300200035795569,0.0012846122262999415,0.0015590733382850885
1782846224371724000,7.47672412109375,-0.0009574504802003503,0.0019088571425527334,0.0003473350661806762
1782846224381729000,7.48672900390625,-0.0002474309876561165,0.0014872212195768952,0.0013408532831817865
1782846224391734000,7.496734130859375,0.0007661681156605482,0.0013769663637503982,-0.00009751995094120502
1782846224401739000,7.506739013671875,-0.0015419316478073597,0.000592801021412015,-0.002141048666089773
1782846224411744000,7.516743896484375,-0.0004018323961645365,0.0007957338821142912,0.0014813831076025963
1782846224421749000,7.5267490234375,-0.000694663031026721,-0.00024161767214536667,-0.00030885275918990374
1782846224431754200,7.536754150390625,-0.00012687710113823414,-0.00117931654676795,-0.0012484159087762237
1782846224441759200,7.54675927734375,-0.002615092322230339,-0.0006998635362833738,-0.0015548125375062227
1782846224451764200,7.55676416015625,0.0007274411618709564,0.001584063284099102,-0.00011803710367530584
1782846224461769200,7.566769287109375,-0.0001847927924245596,-0.0025763956364244223,-0.001323825679719448
1782846224471774200,7.576774169921875,-0.0002660192549228668,0.0022055762819945812,-0.0001248705666512251
1782846224481779200,7.586779296875,-0.0011515339137986302,-0.0008167647756636143,-0.000402593519538641
1782846224491784200,7.5967841796875,0.0024013894144445658,-0.001353657804429531,-0.0003309545572847128
1782846224501789200,7.6067890625,0.0006641705986112356,-0.0016166097484529018,0.002157011302188039
1782846224511794200,7.616794189453125,0.000573090510442853,-0.0005867653526365757,0.0009671109146438539
1782846224521799200,7.626799072265625,-0.001285707694478333,0.00036753807216882706,0.0026884712278842926
1782846224531804200,7.63680419921875,-0.0005453488556668162,-0.0008082475978881121,0.0034527983516454697
1782846224541808000,7.64680810546875,-0.003543782513588667,0.00013565504923462868,0.002495430177077651
1782846224551813000,7.656813232421875,-0.0013227062299847603,0.0006722819525748491,-0.0012138206511735916
1782846224561818000,7.666818115234375,-0.00040275289211422205,0.00006680143997073174,-0.0023175799287855625
1782846224571823000,7.676822998046875,-0.0017047722358256578,-0.0016719766426831484,-0.0020475354976952076
1782846224581828000,7.686828125,-0.000606863759458065,-0.0013454030267894268,0.0005923561984673142
1782846224591833000,7.6968330078125,-0.0004691783105954528,0.0008639553561806679,-0.0010843699565157294
1782846224601838000,7.706838134765625,0.0010464729275554419,-0.0013515553437173367,0.00018895254470407963
1782846224611843000,7.716843017578125,-0.0002233223058283329,0.0008277094457298517,-0.00018761842511594296
1782846224621848000,7.72684814453125,0.0011865508276969194,-0.0026037106290459633,-0.0013232846977189183
1782846224631853000,7.73685302734375,-0.0004656744422391057,0.0015241890214383602,0.0012732973555102944
1782846224641858000,7.746858154296875,0.0020783059298992157,-0.00011263997294008732,-0.000023185391910374165
1782846224651863000,7.756863037109375,-0.00023624743334949017,-0.00165567547082901,0.0014447489520534873
1782846224661868000,7.766867919921875,0.0015782685950398445,-0.000049851369112730026,-0.0003266665153205395
1782846224671873000,7.776873046875,0.001035250024870038,-0.0006541225593537092,0.0023900240194052458
1782846224681878000,7.7868779296875,0.00067492900416255,-0.0007001124322414398,-0.00018738419748842716
1782846224691883000,7.796883056640625,0.00007092393934726715,-0.000546448165550828,0.0036880478728562593
1782846224701888000,7.806887939453125,-0.0008082062704488635,0.0004691996145993471,-0.0003521792823448777
1782846224711893000,7.81689306640625,0.0009942210745066404,0.0019139645155519247,-0.0020086653530597687
1782846224721898000,7.82689794921875,0.00014552217908203602,0.0013579907827079296,0.0012500840239226818
1782846224731903000,7.836903076171875,0.0033189449459314346,0.004510641098022461,0.002563022542744875
1782846224741908000,7.846907958984375,0.0020246340427547693,0.0008073344361037016,0.00023291900288313627
1782846224751913000,7.856912841796875,-0.0016366798663511872,0.0019769947975873947,0.0021541235037148
1782846224761918000,7.86691796875,0.00030256668105721474,0.0024807034060359,-0.0025341063737869263
1782846224771922200,7.876922119140625,0.0004668836481869221,-0.001674892846494913,0.0013312054798007011
1782846224781927200,7.88692724609375,0.0001499643549323082,0.00005873851478099823,0.0017856366466730833
1782846224791932200,7.89693212890625,-0.001692144200205803,-0.0020448926370590925,-0.0009158740285784006
1782846224801937200,7.906937255859375,0.00043110945262014866,-0.0007758215069770813,0.001457127509638667
1782846224811942100,7.916942138671875,-0.0017087403684854507,0.0002612133976072073,0.0013942769728600979
1782846224821947100,7.926947021484375,-0.003495205892249942,0.003982595168054104,-0.002208581194281578
1782846224831952100,7.9369521484375,-0.0029170336201786995,0.0011862760875374079,0.001516648568212986
1782846224841957000,7.94695703125,0.0010568092111498117,-0.000017288140952587128,-0.0013481025816872716
1782846224851962000,7.956962158203125,0.00023309350945055485,-0.0012644464150071144,0.0015323723200708628
1782846224861967000,7.966967041015625,0.0007737493142485619,-0.0018755150958895683,-0.0006285207346081734
1782846224871972000,7.97697216796875,-0.0006688849534839392,-0.0015002759173512459,0.0006431386573240161
1782846224881977000,7.98697705078125,0.0006634402088820934,0.0018394205253571272,-0.0010569264413788915
1782846224891982000,7.996982177734375,0.0009047226049005985,0.0023126641754060984,-0.0009354864014312625
1782846224901987000,8.006987060546875,0.002287907525897026,0.002182154916226864,-0.00007287005428224802
1782846224911992000,8.016991943359375,-0.0007177359657362103,-0.002657074946910143,0.0010030469857156277
1782846224921997000,8.0269970703125,-0.0007034401642158628,-0.0019422231707721949,0.00045333977323025465
1782846224932002000,8.037001953125,-0.000005692010745406151,-0.0005376723129302263,0.0002003394765779376
1782846224942007000,8.047007080078124,0.0002061808481812477,-0.0011388221755623817,0.00048352673184126616
1782846224952012000,8.057011962890625,-0.00031979335471987724,0.000020452076569199562,-0.0009306117426604033
1782846224962017000,8.06701708984375,-0.0005590217188000679,-0.00004332978278398514,-0.0007167101139202714
1782846224972022000,8.07702197265625,-0.0014658281579613686,-0.0020345754455775023,0.0008838496287353337
1782846224982027000,8.087027099609376,-0.0003905331250280142,-0.00045708357356488705,0.0010268500773236156
1782846224992031000,8.097031005859375,-0.0004541827365756035,0.0003642353694885969,0.0011434965999796987
1782846225002036000,8.107035888671875,0.000310985604301095,0.0011045399587601423,0.00018274906324222684
1782846225012041200,8.117041259765625,-0.002003567758947611,-0.001539978664368391,0.0026688100770115852
1782846225022046200,8.127046142578125,-0.0004888668190687895,-0.0010663014836609364,0.0012283835094422102
1782846225032051200,8.13705126953125,0.000589447095990181,0.0009457168634980917,-0.0013530184514820576
1782846225042056200,8.14705615234375,-0.0008755342569202185,-0.00015587126836180687,0.004524932708591223
1782846225052061200,8.157061279296874,0.00047042733058333397,0.00045452523045241833,-0.0018147221999242902
1782846225062066200,8.167066162109375,0.0002981692086905241,0.0007790408562868834,-0.0007033321307972074
1782846225072071200,8.1770712890625,0.0033490865025669336,0.0013854426797479391,-0.0009382228599861264
1782846225082076200,8.187076171875,-0.000878223916515708,-0.0036148468498140574,-0.0017018495127558708
1782846225092081200,8.1970810546875,0.002306117909029126,-0.00023609423078596592,0.0007362745236605406
1782846225102086100,8.207086181640625,0.0014552357606589794,0.0029831998981535435,0.00009995186701416969
1782846225112091100,8.217091064453125,0.0022864085622131824,0.0036047818139195442,-0.002576258732005954
1782846225122096000,8.22709619140625,0.002381148748099804,0.0025645026471465826,0.0006195793976075947
1782846225132101000,8.23710107421875,-0.0004588463343679905,0.0014438445214182138,0.0011793759185820818
1782846225142106000,8.247106201171874,-0.0008219106821343303,0.0015051427762955427,0.001135625527240336
1782846225152111000,8.257111083984375,-0.0006908831419423223,0.002571472432464361,-0.001095304498448968
1782846225162116000,8.2671162109375,-0.00009396718814969063,-0.001290318090468645,0.002125523053109646
1782846225172121000,8.27712109375,0.00035237870179116726,-0.0005640743765980005,0.0024333843030035496
1782846225182126000,8.2871259765625,-0.0017575891688466072,-0.0018286723643541336,0.004184231627732515
1782846225192131000,8.297131103515625,0.0016203643754124641,0.0006358169484883547,-0.0005551298381760716
1782846225202136000,8.307135986328126,-0.0004631608026102185,0.000799108762294054,0.0013951897853985429
1782846225212140000,8.31714013671875,0.00147162564098835,0.002383955754339695,-0.0010450647678226233
1782846225222145000,8.32714501953125,0.0013955223839730024,-0.0003796592354774475,-0.001698890933766961
1782846225232150000,8.33714990234375,0.0009571660775691271,0.0015934767434373498,-0.0022248653694987297
1782846225242155000,8.347155029296875,-0.0006561212940141559,0.0023717423900961876,0.0015512260142713785
1782846225252160000,8.357159912109376,-0.001043078606016934,-0.0020613553933799267,-0.001669867429882288
1782846225262165000,8.3671650390625,0.0006417457479983568,-0.0016173887997865677,0.0006929161609150469
1782846225272170000,8.377169921875,0.0001416041050106287,-0.00033427774906158447,-0.0004935221513733268
1782846225282175000,8.387175048828125,-0.0003556804731488228,0.001034445594996214,0.0013800810556858778
1782846225292180000,8.397179931640625,-0.0015117586590349674,-0.0026636195834726095,-0.0009627017425373197
1782846225302185000,8.40718505859375,-0.002575542777776718,-0.0006666660774499178,-0.0004197194939479232
1782846225312190000,8.41718994140625,0.0007115970365703106,0.0006819586269557476,0.0002450054744258523
1782846225322195000,8.42719482421875,0.0007144464179873466,0.0011806281981989741,0.002385583706200123
1782846225332200000,8.437199951171875,0.0011461449321359396,0.0003670325968414545,-0.00032205204479396343
1782846225342205000,8.447204833984374,0.00014799716882407665,-0.0012110539246350527,0.0009914045222103596
1782846225352210000,8.4572099609375,-0.0010645401198416948,0.0026995320804417133,-0.00002006406430155039
1782846225362215200,8.467215087890626,0.0011753656435757875,-0.0002500216942280531,0.00020300433970987797
1782846225372220200,8.47722021484375,0.0006917356513440609,-0.000001016072928905487,0.0033718994818627834
1782846225382225200,8.48722509765625,0.0001770765520632267,0.000004393979907035828,0.0025730577763170004
1782846225392230100,8.497230224609375,-0.0014410600997507572,-0.00119642517529428,-0.0001300506992265582
1782846225402235100,8.507235107421875,0.00005223951302468777,0.0010950651485472918,0.0005985002499073744
1782846225412240100,8.517240234375,-0.0006971738766878843,0.0005541772115975618,0.0008728058892302215
1782846225422245000,8.5272451171875,0.0006185588426887989,-0.0007791919633746147,-0.0017779481131583452
1782846225432249000,8.5372490234375,0.001785822445526719,-0.0010713408701121807,-0.00024130416568368673
1782846225442254000,8.547254150390625,0.0005432625766843557,-0.0011318123433738947,0.0012711543822661042
1782846225452259000,8.557259033203126,0.0021805742289870977,-0.0013877421151846647,0.00048552185762673616
1782846225462264000,8.56726416015625,0.002343112137168646,0.00014492962509393692,0.0004539209767244756
1782846225472269000,8.57726904296875,0.000196071807295084,-0.0004702606238424778,0.0031732746865600348
1782846225482274000,8.587274169921875,-0.000047066714614629745,-0.0016295593231916428,0.0012796011287719011
1782846225492279000,8.597279052734375,-0.0007802349282428622,-0.00043513160198926926,0.0002686652587726712
1782846225502284000,8.607283935546874,-0.005484900437295437,0.12608930468559265,0.015533411875367165
1782846225512288800,8.617288818359375,0.009441051632165909,-0.03848472982645035,-0.009308287873864174
1782846225522293800,8.627293701171874,-0.004892334807664156,0.03381609916687012,0.00009213772136718035
1782846225532298800,8.637298828125,0.0005447748117148876,-0.018190111964941025,-0.005344439297914505
1782846225542303700,8.6473037109375,0.00003105541691184044,0.003704001195728779,-0.002130802720785141
1782846225552308700,8.657308837890625,0.0008550374768674374,-0.020075630396604538,-0.0018732751486822963
1782846225562313700,8.667313720703126,-0.002155017340555787,0.0010702353902161121,-0.0020669824443757534
1782846225572318700,8.677318603515625,0.00044609210453927517,-0.003329839091747999,-0.0023423531092703342
