time,seconds_elapsed,z,y,x
1782845627731254500,0.075254638671875,0.019285130706429482,-0.25576895100921393,-0.28486769278682766
1782845627741259500,0.085259521484375,0.05108019889593124,-0.150286861448735,-0.4699916204694658
1782845627751264500,0.095264404296875,0.11012567758262157,-0.15356763668507337,-0.5393216887399553
1782845627761269500,0.10526953125,0.24489479803442954,-0.22796251406446097,-0.5098647811744362
1782845627771274500,0.1152744140625,0.34759821666181084,-0.2888552280530333,-0.46381526992209254
1782845627781279500,0.125279541015625,0.44035190368294713,-0.2792129549607634,-0.4271066376626491
1782845627791284500,0.135284423828125,0.49521980442404745,-0.29583310424163933,-0.4961573044698685
1782845627801289500,0.14528955078125,0.38989655868709083,-0.2925035214275121,-0.5427173955928534
1782845627811294500,0.15529443359375,0.15077742144465445,-0.28560616312921044,-0.5406690116956829
1782845627821299500,0.165299560546875,-0.06334931336045264,-0.2601948046274483,-0.5697746946707367
1782845627831304400,0.175304443359375,-0.3424415645509958,-0.3065329235628247,-0.6631812195774167
1782845627841309400,0.185309326171875,-0.5017366389721631,-0.3602902327135205,-0.7010077499508858
1782845627851314400,0.195314453125,-0.6014169103860855,-0.39697117324844,-0.6837052444290369
1782845627861319400,0.2053193359375,-0.6593775164455175,-0.4471913943141699,-0.5888927982471883
1782845627871324400,0.215324462890625,-0.5986152969688177,-0.4408525466814637,-0.45546047935709355
1782845627881329700,0.22532958984375,-0.46723464991152286,-0.4272638740509748,-0.3603681933205575
1782845627891334700,0.235334716796875,-0.25643501370251176,-0.3887013575531542,-0.29381708824411035
1782845627901339600,0.245339599609375,-0.07938274879455566,-0.42215193786472077,-0.24563407209441065
1782845627911344600,0.2553447265625,-0.07545125456452369,-0.5158341379076242,-0.15054054394885896
1782845627921349600,0.265349609375,-0.10711597437262535,-0.6234241595327854,-0.028743060207739472
1782845627931354600,0.275354736328125,-0.009392682245373726,-0.7118808800123632,0.09310520387254655
1782845627941359600,0.285359619140625,0.14434709613621233,-0.744539287032932,0.20511939861550926
1782845627951364000,0.295364013671875,0.3156014884203672,-0.7865750325992703,0.27720271111689504
1782845627961369000,0.305369140625,0.4356342275112867,-0.7700235646404325,0.32430151222646236
1782845627971374000,0.3153740234375,0.5328232666313648,-0.7490304609723388,0.2734578255001455
1782845627981379000,0.325379150390625,0.545135635715723,-0.8228396474182605,0.2185267963949591
1782845627991384000,0.335384033203125,0.5234311689078808,-0.9839859026640653,0.2163430956803262
1782845628001389000,0.34538916015625,0.5684878697305917,-1.045815166850388,0.15207915169298647
1782845628011394000,0.35539404296875,0.40802725866138934,-1.047487337846309,0.035417715666070576
1782845628021399000,0.36539892578125,0.2386877600878477,-0.9882862302064895,-0.1522115459010005
1782845628031404000,0.375404052734375,-0.02886018378138542,-0.8484811614140868,-0.36354989209659394
1782845628041409000,0.385408935546875,-0.25036650744378564,-0.7860178371079266,-0.603902370526269
1782845628051414000,0.3954140625,-0.3198381030768156,-0.7669865350320935,-0.8707121363140642
1782845628061419000,0.4054189453125,-0.40717385670244693,-0.76629358433187,-0.9858372296191752
1782845628071424000,0.415424072265625,-0.493719336733222,-0.6953301427058876,-1.0808170682571827
1782845628081429000,0.425428955078125,-0.5772726492106914,-0.5718303120262921,-1.233865503373742
1782845628091434000,0.43543408203125,-0.6301601897895336,-0.41890579555034635,-1.3776380144923925
1782845628101439000,0.44543896484375,-0.4551058207005262,-0.21052944096550344,-1.5483650219015777
1782845628111444000,0.45544384765625,-0.10588555579483508,-0.048977235267311334,-1.6649175176613031
1782845628121449000,0.465448974609375,0.28899112939238547,0.0068473816767334935,-1.7061995222508906
1782845628131454000,0.475453857421875,0.7094903316140174,0.04046849624961615,-1.6868506786584854
1782845628141458000,0.4854580078125,0.9255664469212294,0.11472878746390341,-1.5821147312901913
1782845628151463000,0.495462890625,0.8826987805753945,0.2117383783638477,-1.3875041594684123
1782845628161468000,0.505468017578125,0.627345132368803,0.35147768844366073,-1.0580145770795644
1782845628171473200,0.51547314453125,0.26913199819028377,0.4452265239819884,-0.7835104573968797
1782845628181478100,0.52547802734375,-0.20817279483675954,0.5760960066467523,-0.5438396045558155
1782845628191483100,0.535483154296875,-0.7304641460597515,0.6828751502804458,-0.31338593126274644
1782845628201488100,0.545488037109375,-1.0683166292548179,0.8074883490294218,-0.1117954374257475
1782845628211493000,0.5554931640625,-1.1361387041151523,0.939612507930398,-0.09652392627485096
1782845628221498000,0.565498046875,-1.0758031856179238,0.9621502106919884,-0.14603446470126508
1782845628231503000,0.575503173828125,-0.8637801450937986,0.8145752385504543,-0.1821220424529165
1782845628241508000,0.585508056640625,-0.41573359525501724,0.6193833597093821,-0.1298371439423412
1782845628251513000,0.59551318359375,-0.17162790177166462,0.40819764679223297,0.006738770203106105
1782845628261518000,0.60551806640625,-0.05964402910172939,0.21055589058101176,0.10915058547277003
1782845628271523000,0.615523193359375,-0.05475742610394954,0.07615443439781665,0.07874401249960064
1782845628281528000,0.625528076171875,0.009506079491972923,-0.00029079964011907575,0.09438439349550753
1782845628291533000,0.635532958984375,0.16149229220449923,0.1864998922109604,0.10563676866553723
1782845628301538000,0.6455380859375,0.3270616245895624,0.42398645981550215,0.22116010404061526
1782845628311543000,0.65554296875,0.5099439108252525,0.4902946229815483,0.3156072240414098
1782845628321548300,0.66554833984375,0.5097703078240156,0.5631234200879931,0.4331957117853686
1782845628331553300,0.67555322265625,0.6450678360641002,0.6429243942946196,0.44346543259359894
1782845628341558300,0.685558349609375,0.7171773789852857,0.782403592133522,0.4092766376679763
1782845628351563300,0.695563232421875,0.6568921293705702,0.8863421055138111,0.5180377854317426
1782845628361568300,0.705568359375,0.5789858828693628,0.9640823477983474,0.6624491789758205
1782845628371573200,0.7155732421875,0.3837812906771898,1.014054293191433,0.7352277802649885
1782845628381578200,0.725578125,0.00590074847638607,1.0374909906193612,0.8253300029292702
1782845628391583200,0.735583251953125,-0.546131661015749,1.0817410512343049,0.9274006766110658
1782845628401588200,0.745588134765625,-0.9633218848198651,1.0461726019859314,1.0669015017598866
1782845628411593200,0.75559326171875,-1.1280313855051993,0.9655120883405208,1.157455852105841
1782845628421598200,0.76559814453125,-1.2251157952070235,0.855673995527625,1.227822716078162
1782845628431603200,0.775603271484375,-1.2099345926880836,0.6784653710141778,1.3130226267188787
1782845628441608200,0.785608154296875,-1.0737591125696897,0.5196235933184623,1.3088953176558018
1782845628451613200,0.79561328125,-0.8033703923165798,0.4531646235048771,1.311959819792956
1782845628461618200,0.8056181640625,-0.5844061543524265,0.4091787667840719,1.2509851266093552
1782845628471623200,0.815623046875,-0.3362894716620445,0.39112726952582594,1.0946472214933485
1782845628481628200,0.825628173828125,-0.21262860520184038,0.34936639537811276,0.8822930493187159
1782845628491633200,0.835633056640625,-0.03969078987538814,0.24055296943783758,0.5753832552675158
1782845628501638100,0.84563818359375,0.19826164167523383,0.3007581395536661,0.4669759259101003
1782845628511643100,0.85564306640625,0.2173819372087717,0.32814883530437944,0.4054406031690538
1782845628521648000,0.865648193359375,0.27880875807404515,0.32840397910922764,0.3014812661964446
1782845628531653000,0.875653076171875,0.30970892325043675,0.3803182907417416,0.31404205708391963
1782845628541658000,0.885658203125,0.40339141555428504,0.42208413332551714,0.29045528366081413
1782845628551663000,0.8956630859375,0.536594017341733,0.45378976966589685,0.2632745773989707
1782845628561668000,0.905668212890625,0.5955734450548887,0.5332882537946104,0.22227058603316543
1782845628571673000,0.915673095703125,0.661954088935256,0.6169342129915952,0.12639094901122153
1782845628581678000,0.925677978515625,0.8267840011298656,0.6259668297529221,0.06254121184796095
1782845628591683000,0.93568310546875,0.9860182852745055,0.5698404533833265,0.04722388879396021
1782845628601688000,0.94568798828125,1.1503005004584788,0.49850627874881026,0.16156988748535514
1782845628611693000,0.955693115234375,1.2287146964818239,0.4721174535170197,0.3801254715833813
1782845628621698000,0.965697998046875,1.2057084994256495,0.4492655702397227,0.5165515654619783
1782845628631703000,0.975703125,1.0796832419216633,0.39462358720898627,0.6286022197578102
1782845628641708000,0.9857080078125,0.9371563469499349,0.28950609317719933,0.6512373915445059
1782845628651713000,0.995713134765625,0.7292448333978653,0.19573621485084294,0.6930177741102874
1782845628661718000,1.005718017578125,0.469069464123249,0.14116612801253794,0.67993215563111
1782845628671723000,1.015722900390625,0.18194237503707408,0.1030225675791502,0.5421425913795829
1782845628681728000,1.02572802734375,-0.03970657196640968,0.1049614266872406,0.45499330023676154
1782845628691733200,1.035733154296875,-0.13557926779091356,0.15302870750278233,0.3878372150044888
1782845628701738200,1.04573828125,-0.13990180716514586,0.12440145569443702,0.30183314837403596
1782845628711743200,1.0557431640625,-0.03011632132232189,0.10213818596005439,0.2193417660396546
1782845628721748200,1.065748291015625,0.02285363684296608,0.044566286957263945,0.16756562076881526
1782845628731753200,1.075753173828125,0.09950316128134727,0.10342267281264066,0.1844740854717791
1782845628741758200,1.08575830078125,0.15854104118347168,0.0843652133822441,0.18005882631279527
1782845628751763200,1.09576318359375,0.121387660831213,0.024491467177867886,0.19238040161691605
1782845628761768200,1.105768310546875,0.09653320555984973,-0.04075403519272804,0.17398023705147206
1782845628771773200,1.115773193359375,0.22609365145266055,-0.06819792243540286,0.1429143599193543
1782845628781778200,1.125778076171875,0.389676193934679,-0.06859422827661037,0.09029971799775957
1782845628791783200,1.135783203125,0.5437953270226716,-0.09926379956752061,-0.03966711673885584
1782845628801788200,1.1457880859375,0.6958698025405406,-0.15476064586192367,-0.10346797325909138
1782845628811793200,1.155793212890625,0.7561702497243881,-0.22048048774600026,-0.1529014278613031
1782845628821798100,1.165798095703125,0.7757312747627496,-0.23029811740517614,-0.16268661655560135
1782845628831803100,1.17580322265625,0.6646072337925434,-0.3238724731594324,-0.20824359505064785
1782845628841808100,1.18580810546875,0.5492652828663587,-0.3704658820301294,-0.17564510152377188
1782845628851813000,1.195813232421875,0.29970600015223026,-0.38888533581793305,-0.20398900634609163
1782845628861818000,1.205818115234375,0.025113398468494415,-0.4525882849216461,-0.2768351199135184
1782845628871823000,1.215822998046875,0.00857902777493,-0.5291296728104352,-0.14073803879357874
1782845628881828000,1.225828125,-0.037651977524161336,-0.6639841334581374,-0.11995309798344969
1782845628891833000,1.2358330078125,-0.006434416961669922,-0.723219289498031,-0.123267117902264
1782845628901838000,1.245838134765625,0.06989771209061145,-0.7766317307338119,-0.13333119660317896
1782845628911843000,1.255843017578125,0.23307050472795962,-0.7797060236126184,-0.13280140057541429
1782845628921848000,1.26584814453125,0.35020869142115113,-0.7630158778354525,-0.12040091481618583
1782845628931853000,1.27585302734375,0.3851005565822124,-0.6598749445736408,-0.17307327827438712
1782845628941858000,1.285858154296875,0.32953882835805415,-0.5181541052877903,-0.2781426953807473
1782845628951864000,1.295864013671875,0.30279812094867226,-0.4073912988454103,-0.4361136085260659
1782845628961869000,1.305869140625,0.18986556925177572,-0.26503742235302924,-0.47460196380913255
1782845628971874000,1.3158740234375,0.1020633671581745,-0.11837357370704411,-0.5286861668266356
1782845628981879000,1.325879150390625,0.17971242402791976,-0.09358253906071186,-0.5402588965248316
1782845628991884000,1.335884033203125,0.3060013009041548,-0.0771431531742215,-0.39571423198990524
1782845629001889000,1.345888916015625,0.42510932636559007,-0.0991165000513196,-0.25987580180615183
1782845629011894000,1.35589404296875,0.563509496796131,-0.1908206780195236,-0.10512947673052549
1782845629021899300,1.365899169921875,0.5670750803232193,-0.2713824074655771,0.08425488487556576
1782845629031904300,1.375904296875,0.5146949047446251,-0.33761838217824697,0.22556129814162848
1782845629041909200,1.3859091796875,0.5601444042772055,-0.3875309985995292,0.3239316560007632
1782845629051914200,1.395914306640625,0.6044499944716691,-0.4848290510520339,0.43154272041395303
1782845629061919200,1.405919189453125,0.49345454831719393,-0.5699328078418969,0.49916357361376285
1782845629071924200,1.41592431640625,0.2885328642308712,-0.5913850534543394,0.6465075134783983
1782845629081929200,1.42592919921875,0.017218261304497717,-0.719122083312273,0.6707962976910173
1782845629091934200,1.435934326171875,-0.1365402217775583,-0.8695043679594993,0.5818368883863091
1782845629101939200,1.445939208984375,-0.1395294667214155,-0.8831246047720313,0.5247868213005363
1782845629111944200,1.455944091796875,0.010443068081140518,-0.9353326386541128,0.41550205152146513
1782845629121949200,1.46594921875,0.14797989968061445,-0.996605145740509,0.22846542208530007
1782845629131954200,1.4759541015625,0.23587913240790365,-1.0688342233881354,0.10754252922162413
1782845629141959200,1.485959228515625,0.273199101498723,-1.1089663272902368,-0.010416545400395988
1782845629151964200,1.495964111328125,0.19715631078183649,-1.153451950226724,-0.07401223473735154
1782845629161969200,1.50596923828125,0.049555765807628625,-1.2918477367430925,-0.11943798806816339
1782845629171974100,1.51597412109375,-0.04999591079056263,-1.495359846292436,-0.13472221257016062
1782845629181979100,1.525979248046875,-0.09052782766520977,-1.5961957174822687,-0.04804287702664733
1782845629191984000,1.535984130859375,-0.140296943962574,-1.5970748384043574,-0.12277765388488769
1782845629201989000,1.545989013671875,-0.316709741923213,-1.5893752238124608,-0.19071612166650592
1782845629211994000,1.555994140625,-0.44152737720310686,-1.6120038197278976,-0.25098500466831025
1782845629221999000,1.5659990234375,-0.487389549189806,-1.524530411197245,-0.28258250445909794
1782845629232004000,1.576004150390625,-0.48858781906366344,-1.240687750609219,-0.12445881190486252
1782845629242009000,1.586009033203125,-0.4980564891546964,-1.011308793875575,-0.1046239383611828
1782845629252014000,1.59601416015625,-0.41827918808460235,-0.8739747913718223,0.026168460479378697
1782845629262019000,1.60601904296875,-0.32925065906643863,-0.5935957152411341,0.3789631498057395
1782845629272024000,1.616024169921875,-0.28661212530136104,-0.28140228169858456,0.7987056884411722
1782845629282029000,1.626029052734375,-0.27588673314750195,-0.12636691054850815,1.0925490071050823
1782845629292034000,1.636033935546875,-0.2132809316307306,0.002851297777891159,1.2941758874297142
1782845629302039000,1.6460390625,-0.22897768245637415,0.1770467119500041,1.3760358399927615
1782845629312044000,1.6560439453125,-0.2224801371306181,0.2784726579874754,1.3448796542286872
1782845629322049000,1.666049072265625,-0.17449790425002573,0.3660182549715042,1.2065836017597467
1782845629332054000,1.676053955078125,-0.18720307204425335,0.40152766750901936,1.1197734063781797
1782845629342059000,1.68605908203125,-0.16764496961534023,0.3912719386935234,0.9761596660178155
1782845629352064300,1.696064208984375,-0.13768471563756465,0.33200229586213825,0.8805419678676873
1782845629362069200,1.7060693359375,-0.12504852142632006,0.27461364447176456,0.7867443978168069
1782845629372074200,1.71607421875,-0.09083820878863334,0.10026450104266404,0.5777846173208206
1782845629382079200,1.726079345703125,-0.03131634476184845,-0.023261633121967315,0.5299406238671391
1782845629392084200,1.736084228515625,0.0596434445798397,0.15723258893340825,0.514497336345911
1782845629402089200,1.746089111328125,-0.0460801986515522,0.10530863268971442,0.3951289794478565
1782845629412094200,1.75609423828125,0.07642915968596935,-0.06745411833077669,0.19843670598119495
1782845629422099200,1.76609912109375,0.3329717254161835,-0.0874807150542736,0.05588708772100508
1782845629432104200,1.776104248046875,0.5498311000555753,-0.04535480698645115,-0.03150901778973639
1782845629442109200,1.786109130859375,0.8422475277215242,-0.08612257844358683,-0.05059460733607411
1782845629452114200,1.7961142578125,1.1110165378183126,0.18830343450158835,-0.1314094347603619
1782845629462119200,1.806119140625,1.1608429372608662,0.49406215882152316,-0.21507957855053245
1782845629472124200,1.816124267578125,1.1991565935641526,0.6052940440803766,-0.31205146778859194
1782845629482129200,1.826129150390625,1.0894535253077744,0.7631596702203154,-0.43889702869951724
1782845629492134100,1.836134033203125,0.9124193805783987,0.9362693349823356,-0.4017068234682083
1782845629502139100,1.84613916015625,0.7696773815512656,0.9643766545698046,-0.20358035247996448
1782845629512144100,1.85614404296875,0.6030278527140617,0.9423699899449944,-0.1042148461036384
1782845629522149000,1.866149169921875,0.46370589126348494,0.970405413340032,0.07309628893621266
1782845629532154000,1.876154052734375,0.4039993183195591,1.0575146647334097,0.23719635248631238
1782845629542159000,1.8861591796875,0.35047289531528947,1.2591074966579674,0.28117146861739456
1782845629552164000,1.8961640625,0.31976562236249445,1.4568895381227134,0.2874392968405038
1782845629562169000,1.906169189453125,0.26575579975545405,1.5892513051718473,0.2420847090497613
1782845629572174000,1.916174072265625,0.29340134705007076,1.6296154642641543,0.23128427889831363
1782845629582179000,1.926178955078125,0.305558817833662,1.6878364748254417,0.29856442890167234
1782845629592184000,1.93618408203125,0.2488964348912239,1.7038029825031757,0.3816512563785538
1782845629602189000,1.94618896484375,0.18392331972122192,1.608219040492177,0.30997889929823574
1782845629612194000,1.956194091796875,0.0027478374034166334,1.5613398004174233,0.21287417746074497
1782845629622199000,1.966198974609375,-0.18544073854684828,1.3910454853370784,0.3422481608707458
1782845629632204000,1.9762041015625,-0.40652620644867415,1.020866165163368,0.027788901288062332
1782845629642209000,1.986208984375,-0.5558826551795005,0.8664848740078508,0.15818528654836117
1782845629652214000,1.996214111328125,-0.4737503154158592,0.48208062912672756,0.354456923450157
1782845629662219000,2.006218994140625,-0.5505681821584701,0.14482991121709346,0.2949466037306934
1782845629672224000,2.01622412109375,-0.5557669198453427,0.03553863863199949,0.21586897536255417
1782845629682229000,2.02622900390625,-0.5844529161036014,0.0025054069496691224,0.1421486362438649
1782845629692234000,2.03623388671875,-0.6737012253522873,-0.051641339910030365,0.07220562370680272
1782845629702239000,2.046239013671875,-0.6273112300992012,-0.16140607522577047,0.045017464790865776
1782845629712244000,2.056243896484375,-0.5214169064760208,-0.16177183979824183,0.023024901756644248
1782845629722249000,2.0662490234375,-0.5403548311799764,-0.10962181971371174,-0.06236190975829958
1782845629732254000,2.07625390625,-0.5342781416147947,-0.04885097853913903,-0.128438309995085
1782845629742259000,2.086259033203125,-0.5185971728801727,-0.0007280220136046409,-0.236779296118021
1782845629752264000,2.096263916015625,-0.4904506903260946,0.1050181253105402,-0.27849136268794533
1782845629762269000,2.10626904296875,-0.42416883064508437,0.21337562417685985,-0.35488998110517855
1782845629772274000,2.11627392578125,-0.28325404704511165,0.2638604875281453,-0.4092570927172899
1782845629782279000,2.12627880859375,0.01866787559092045,0.25484160703122616,-0.38774449521973725
1782845629792284000,2.136283935546875,0.26755203552246093,0.31731735242754217,-0.32551205706000325
1782845629802289000,2.146288818359375,0.43175826286077496,0.3374824808388948,-0.3429929148234427
1782845629812294000,2.1562939453125,0.6413835945934057,0.37223245331123467,-0.36997623534966256
1782845629822299000,2.166298828125,0.887923821747303,0.40787075292542574,-0.3715959820386022
1782845629832304000,2.17630419921875,0.9815940390914678,0.4212621494181454,-0.4004537546671927
1782845629842309000,2.18630908203125,0.8702823665946722,0.456240085427463,-0.40139118164777754
1782845629852314000,2.196314208984375,0.7692875054508447,0.4646846731677651,-0.35663580185919996
1782845629862319000,2.206319091796875,0.6355185019522905,0.4340190473996103,-0.34512079369761045
1782845629872324000,2.216323974609375,0.46465749289989466,0.3615098376363516,-0.26278007188029584
1782845629882329000,2.2263291015625,0.2507359252780676,0.24927549733668564,-0.1527542744755745
1782845629892334300,2.236334228515625,0.053607671546936034,0.13753186316341162,-0.07209587972201406
1782845629902339300,2.24633935546875,-0.1548971317231655,0.0768264884404838,0.020063056276366113
1782845629912344300,2.25634423828125,-0.2889981436550617,-0.012199994751065969,0.0042379298307001585
1782845629922349300,2.266349365234375,-0.4255605772644281,-0.14439020462557672,-0.004196282646059989
1782845629932354300,2.276354248046875,-0.5542196904033422,-0.2566505561493337,0.0075778148431330915
1782845629942359300,2.286359375,-0.6957195804148912,-0.25702888794243334,0.015620689914748073
1782845629952364300,2.2963642578125,-0.7311334236234426,-0.30331761477813124,0.0025501228742301463
1782845629962369300,2.306369384765625,-0.5884183126032352,-0.3368869991637766,-0.04845934887304902
1782845629972374300,2.316374267578125,-0.46514264606833455,-0.3047569999314844,-0.03164835319519043
1782845629982379300,2.326379150390625,-0.3568979599267244,-0.2992372135967016,0.016314371267333625
1782845629992384300,2.33638427734375,-0.2348188097000122,-0.28096023701950906,0.00864836668409407
1782845630002389200,2.34638916015625,-0.13076163837611673,-0.26769378208070993,0.01210508300922811
1782845630012394200,2.356394287109375,-0.018260463833808898,-0.2795826650559902,0.026573680279403922
1782845630022399200,2.366399169921875,0.1303057113021612,-0.29818375902101396,-0.0020690613590180875
1782845630032404200,2.376404296875,0.2610918995976448,-0.2847074607238173,-0.027071912125125525
1782845630042409200,2.3864091796875,0.42674014243781566,-0.2619089150689542,0.03347001566439867
1782845630052414200,2.396414306640625,0.618150603044033,-0.2657952549830079,-0.000694119744002819
1782845630062419200,2.406419189453125,0.7154448561042547,-0.2930285682149231,-0.06959266472943126
1782845630072424200,2.416424072265625,0.7836948009878396,-0.3633941900782287,-0.07755655628070235
1782845630082429200,2.42642919921875,0.8276087615162133,-0.4207409020230174,-0.11618724264390766
1782845630092434200,2.43643408203125,0.8206652259886265,-0.4828181496210396,-0.14853541467152534
1782845630102439200,2.446439208984375,0.6935773076891899,-0.5093427300617098,-0.1569661930821836
1782845630112444200,2.456444091796875,0.4928823013871908,-0.5311832443393767,-0.2756453986722976
1782845630122449200,2.46644921875,0.3314969766885042,-0.48140258373469114,-0.3930103067934513
1782845630132454100,2.4764541015625,0.24444588522315025,-0.45492944122031326,-0.5025765969276428
1782845630142459100,2.486459228515625,0.1120978544384241,-0.38892654461115594,-0.5842032521914691
1782845630152464100,2.496464111328125,-0.010278232908248901,-0.33496260697245595,-0.6632560383792966
1782845630162469000,2.50646923828125,-0.057435120880603784,-0.3652775196067989,-0.704457232817635
1782845630172474000,2.51647412109375,-0.038238837501406664,-0.3869932384610176,-0.6695584995243697
1782845630182479000,2.52647900390625,0.057817398196458814,-0.45669206697866316,-0.6047278615649789
1782845630192484000,2.536484130859375,0.06529752481877804,-0.516744823011756,-0.49450354591347273
1782845630202489000,2.546489013671875,0.11649521261453628,-0.6322891646422445,-0.3778431327998638
1782845630212494000,2.556494140625,0.1879115125745535,-0.6899160087026656,-0.3157019531201571
1782845630222499000,2.5664990234375,0.2400117021679878,-0.7449924376279116,-0.2536282857187092
1782845630232504000,2.576504150390625,0.2112123086631298,-0.8016464911334216,-0.24321605116724967
1782845630242509000,2.586509033203125,0.13268705348074436,-0.8335127248629927,-0.24072883746139703
1782845630252514000,2.59651416015625,0.08555822255909443,-0.8486888128153979,-0.2558682466652244
1782845630262519000,2.60651904296875,0.07518705067038535,-0.8852142705276608,-0.31452355699054896
1782845630272524000,2.61652392578125,0.033605332481861115,-0.9464167811177671,-0.3574861350782215
1782845630282529000,2.626529052734375,-0.05157470441460609,-1.0112671466909349,-0.4355855660639703
1782845630292534000,2.636533935546875,-0.17372107465863226,-1.131490732178837,-0.4694711037266999
1782845630302539300,2.646539306640625,-0.2019184106171131,-1.2606016807384788,-0.49358350845910604
1782845630312544300,2.656544189453125,-0.16628303361237048,-1.3186506957337258,-0.5286320254866034
1782845630322549200,2.66654931640625,-0.1739198121011257,-1.3159715396523475,-0.537269505450502
1782845630332554200,2.67655419921875,-0.12680091805160046,-1.224713644146919,-0.5925100388962775
1782845630342559200,2.686559326171875,-0.0863040724903345,-1.0235706018164754,-0.6949433353453874
1782845630352564200,2.696564208984375,-0.047726796814799306,-0.7364850137844682,-0.8222754376642406
1782845630362569200,2.7065693359375,0.01693359914422035,-0.4419827197551727,-0.9640715341433882
1782845630372574200,2.71657421875,0.01519172391295433,-0.2267480237081647,-1.0715494006309658
1782845630382579200,2.7265791015625,0.05902209781110286,-0.07800298487395048,-1.0815943362399936
1782845630392584400,2.73658447265625,0.2540899118810892,-0.01388064131438732,-0.9983476785589009
1782845630402589400,2.74658935546875,0.3302998758584261,0.04777852700203657,-0.7844525605525821
1782845630412594400,2.756594482421875,0.11429857935309409,0.17973668168634174,-0.5811249407246708
1782845630422599400,2.766599365234375,-0.4158043224036693,0.30760932062268254,-0.3493490789171308
1782845630432604400,2.7766044921875,-1.1394564503610134,0.38423239544555543,-0.02473214406594634
1782845630442609400,2.786609375,-1.7197808883577583,0.4998587162710726,0.21036270609647034
1782845630452614400,2.796614501953125,-2.0378841304659843,0.6502089983448386,0.31574593839235604
1782845630462619400,2.806619384765625,-2.088554579517245,0.8115078138038515,0.3386290935907513
1782845630472624400,2.816624267578125,-1.8566987112760542,0.706592125954479,0.26287257246933876
1782845630482629400,2.82662939453125,-1.44957570797801,0.4935683839552104,0.18368512705117462
1782845630492634400,2.83663427734375,-0.8121288683116435,0.33038010148778557,0.2129182357981801
1782845630502639400,2.846639404296875,-0.2440601007759571,0.18023542498871684,0.17121778660081327
1782845630512644400,2.856644287109375,0.26530571790039537,0.13231120590567588,0.12965133904665707
1782845630522649300,2.8666494140625,0.6365244641244411,0.0692350103981793,0.08518500533252954
1782845630532654300,2.876654296875,0.9093675917923449,0.01586217052042484,0.10474902604557573
1782845630542659300,2.886659423828125,1.1262310580849646,-0.0041571196794509884,0.030290654975920914
1782845630552664300,2.896664306640625,1.2269786664694546,0.04492518339753151,0.010668912726268171
1782845630562669300,2.90666943359375,1.1831500461369753,0.15857757380157708,-0.02227415645457804
1782845630572674300,2.91667431640625,1.148610647675395,0.17960457973927257,-0.14364764262996613
1782845630582679300,2.92667919921875,1.1191145040780306,0.08610475052595139,-0.24485315084978937
1782845630592684300,2.936684326171875,1.210795593431592,0.11788958958238363,-0.13646167664863168
1782845630602689300,2.946689208984375,1.3569289884626865,0.12455576947331427,-0.07118146829083562
1782845630612694300,2.9566943359375,1.4464005850732327,0.14091244551241397,0.07316716221533716
1782845630622699300,2.96669921875,1.4664683905899525,0.31607699697762726,0.2189854268826544
1782845630632704300,2.976704345703125,1.3932774821728466,0.5418807255730033,0.208454022930935
1782845630642709200,2.986709228515625,1.1167886914789675,0.6780562056913971,0.23918526128120718
1782845630652714200,2.99671435546875,0.6134112995624542,0.7936445325940847,0.34863727738596495
1782845630662719200,3.00671923828125,0.16357085204422472,0.9724415953427552,0.41374950876571237
1782845630672724200,3.01672412109375,-0.12683891197443006,1.10451256275177,0.4507860578052699
1782845630682730200,3.026730224609375,-0.25008769050240515,1.1656091287493706,0.4390362179744988
1782845630692735200,3.0367353515625,-0.3477496078312397,1.1795631275609135,0.3703732353106141
1782845630702740200,3.046740234375,-0.47950376437604425,1.1078767784878611,0.2805884810976684
1782845630712745200,3.0567451171875,-0.5716325974971056,1.0209244712218641,0.22379326555579898
1782845630722750200,3.066750244140625,-0.5218716645061969,0.8278104215681552,0.2197291579220444
1782845630732755200,3.076755126953125,-0.37330432032644745,0.5968038636326789,0.17347820581346748
1782845630742760200,3.08676025390625,-0.39080315213799477,0.43135494275689124,0.2937155275657773
1782845630752765200,3.09676513671875,-0.45989597758650774,0.23918694178164004,0.32595768193565305
1782845630762770200,3.106770263671875,-0.4638654657393694,0.09682648941799998,0.30494601969756185
1782845630772775200,3.116775146484375,-0.5074579392284154,0.016766133622825145,0.2653255185794085
1782845630782780200,3.1267802734375,-0.5825467902213335,-0.0640827422015369,0.21276399508453905
1782845630792785200,3.13678515625,-0.6608785686582327,-0.06561185146495699,0.27829963950812814
1782845630802790100,3.1467900390625,-0.6967348949372768,-0.11068798764050006,0.34298546216934916
1782845630812795100,3.156795166015625,-0.7389864752113818,-0.2483605744488537,0.34705256547778845
1782845630822800100,3.166800048828125,-0.7633505166172981,-0.22488237596675753,0.41409832220338283
1782845630832805000,3.17680517578125,-0.8272095330655574,-0.06152604345604777,0.4963490276496857
1782845630842810000,3.18681005859375,-0.7773118219524622,0.06470642705783247,0.5011528477348387
1782845630852815000,3.196815185546875,-0.6981038452029228,0.18217384570538997,0.49040991992428895
1782845630862820000,3.206820068359375,-0.6078080727279186,0.35564869051799175,0.5042888076730072
1782845630872825000,3.2168251953125,-0.4762929856359958,0.448252301543951,0.4893455055631697
1782845630882830000,3.226830078125,-0.25249767425358294,0.5122898894295096,0.48051454885378475
1782845630892835000,3.2368349609375,0.11249123767018318,0.6150957455180585,0.4695411732882261
1782845630902840000,3.246840087890625,0.4427203863799572,0.6270780058652162,0.46363319135345515
1782845630912845000,3.256844970703125,0.72063833309412,0.6379321389652788,0.47631351696737106
1782845630922850000,3.26685009765625,0.963922773322463,0.6138552439376711,0.4205788433291018
1782845630932855000,3.27685498046875,1.1364707125484943,0.5518424398779869,0.40824755034856497
1782845630942860000,3.286860107421875,1.2838649212956428,0.49534006980285045,0.36005496265292164
1782845630952864300,3.2968642578125,1.270412150004506,0.45413668340742586,0.40536607662811874
1782845630962869200,3.306869140625,1.1973539280563592,0.4235866468429565,0.3796205908011645
1782845630972874200,3.316874267578125,1.158657409915328,0.32831557017341256,0.31442857218347486
1782845630982879200,3.326879150390625,1.0929781923025845,0.2763558119639754,0.33913244000300763
1782845630992884200,3.33688427734375,1.0135983661174774,0.20497297588214278,0.3950635129962116
1782845631002889200,3.34688916015625,0.9458312363147735,0.08543167356997727,0.4262185297165066
1782845631012894200,3.356894287109375,0.8927414511620998,0.00599661006629467,0.4112812189560383
1782845631022899200,3.366899169921875,0.7346329561769962,-0.012706190707534551,0.47462958246842024
1782845631032904200,3.376904296875,0.6788076085805893,-0.024522446838021277,0.5093406111698597
1782845631042909200,3.3869091796875,0.6313502763569354,-0.1019613680884242,0.48873994088545436
1782845631052914200,3.3969140625,0.7247147887527943,-0.13270663496404886,0.47381015584431585
1782845631062919200,3.406919189453125,0.7749597058683634,-0.15405220533162353,0.46065271423794324
1782845631072924200,3.416924072265625,0.6694955903559923,-0.2649744401194155,0.44828693446591494
1782845631082929200,3.42692919921875,0.5911784249663352,-0.36822555575743315,0.4812243045583367
1782845631092934100,3.43693408203125,0.5736497825384139,-0.47274829876646396,0.4870214465297758
1782845631102939100,3.446939208984375,0.554908257189393,-0.6031231297820806,0.4408864489510655
1782845631112944000,3.456944091796875,0.4731932660549879,-0.7272254563994706,0.42443171936497087
1782845631122949000,3.46694921875,0.41003976752758026,-0.8167284710615873,0.3410637003265321
1782845631132954000,3.4769541015625,0.33577041622400283,-0.8333385373398661,0.24576960810758172
1782845631142959000,3.486958984375,0.21486440142989158,-0.8839245229780673,0.1566799234867096
1782845631152964000,3.496964111328125,0.05993921265602112,-1.012271939819306,0.032733810344338414
1782845631162969000,3.506968994140625,-0.1344844582915306,-1.0894209382124245,-0.07929068659693002
1782845631172974000,3.51697412109375,-0.22785773851573465,-1.1094299992792307,-0.1969789083883166
1782845631182979000,3.52697900390625,-0.23361294104158878,-1.149340569385141,-0.31470059405788775
1782845631192984000,3.536984130859375,-0.18211422447264194,-1.1603969470590352,-0.4121354246325791
1782845631202989000,3.546989013671875,-0.033227146819233895,-1.1050690275907515,-0.511415956139192
1782845631212994000,3.556994140625,0.06984042894542217,-1.049517236238718,-0.6331627326063811
1782845631222999000,3.5669990234375,0.04138590335547924,-1.033996718762815,-0.6999465504601597
1782845631233004000,3.577004150390625,0.050445992645621295,-1.08435605603829,-0.7951574944403023
1782845631243009000,3.587009033203125,0.17570786456167697,-1.1296367748752236,-0.8677508022904395
1782845631253014000,3.597013916015625,0.28002631717026233,-1.084661030334234,-0.8944486934714019
1782845631263019000,3.60701904296875,0.3966787661731243,-1.0507206206791102,-0.8986798282351345
1782845631273024000,3.61702392578125,0.5386152940362692,-1.116315374878794,-0.8601786134704947
1782845631283029000,3.627029052734375,0.6627583910554647,-1.1428137979649007,-0.7996006645195186
1782845631293034000,3.637033935546875,0.6664829645365477,-1.1218353073440492,-0.6468441980868578
1782845631303039000,3.6470390625,0.5618231511443853,-1.1080742007561026,-0.5023847276173532
1782845631313044000,3.6570439453125,0.4803460604190826,-1.0722206509560346,-0.40764059743136166
1782845631323049000,3.667049072265625,0.24763971282839772,-1.0194894699826835,-0.27098982795141635
1782845631333054000,3.677053955078125,-0.11152151585519313,-1.0134075197204946,-0.13386764156743883
1782845631343059000,3.687058837890625,-0.44140053595304485,-1.0230363488093017,0.02349390750788152
1782845631353065000,3.69706494140625,-0.6258060862332582,-1.1513400726392864,0.1243000411465764
1782845631363069200,3.707069091796875,-0.5948907234877348,-1.305091103067249,0.19968787508606908
1782845631373075000,3.717074951171875,-0.42338381774723527,-1.297111648620665,0.3401189668223262
1782845631383079200,3.7270791015625,-0.1284106913357973,-1.1943627834163606,0.4689747715771198
1782845631393085000,3.7370849609375,0.1372989311903715,-1.0244738342665136,0.590033273519203
1782845631403090000,3.74708984375,0.18590718701481818,-0.918251593863219,0.6860204625688493
1782845631413095000,3.757094970703125,0.15271744959652422,-0.6191033737242222,0.8579708012279122
1782845631423100000,3.767099853515625,-0.058009705898165696,-0.4462753023825586,0.9663339991826564
1782845631433105000,3.77710498046875,-0.5192313791304827,-0.23033011997863648,1.3779540947042406
1782845631443110000,3.78710986328125,-1.0051865116029977,-0.06111629361137747,1.6284050655610858
1782845631453115000,3.797114990234375,-1.440357213255763,0.18395269194617866,1.7189231024846434
1782845631463120000,3.807119873046875,-1.7537854492902756,0.3513507010631263,1.6554378877848386
1782845631473124900,3.817124755859375,-1.9363392342239618,0.4269473554477095,1.5337253789134322
1782845631483129900,3.8271298828125,-1.742313038161397,0.37281390646100043,1.2906518049567937
1782845631493134800,3.837134765625,-1.5908178238362074,0.21784429402351377,1.0966986741304396
1782845631503140000,3.84714013671875,-1.4483774381041525,0.1501626505471766,0.9363855817731469
1782845631513145000,3.85714501953125,-1.3257868312239647,0.11366188888475298,0.7898068541273474
1782845631523150000,3.867150146484375,-1.0195067133784295,0.05922916469052433,0.6550186636488884
1782845631533155000,3.877155029296875,-0.608200871437788,0.018999884024262427,0.49346711553782224
1782845631543160000,3.88716015625,-0.310939341828227,-0.00933627588301897,0.36531134881116445
1782845631553165000,3.8971650390625,-0.06437047310173512,0.03304273016303778,0.2413901874469593
1782845631563170000,3.907170166015625,0.21648118897676466,0.158455554857105,0.15433642910048365
1782845631573175000,3.917175048828125,0.5214788657963275,0.34650603751093145,0.04866879037264734
1782845631583180000,3.927179931640625,0.8156997125357389,0.4408379336342215,-0.02800762207265943
1782845631593185000,3.93718505859375,1.1093471433013677,0.5274947650849819,-0.10835234776716679
1782845631603190000,3.94718994140625,1.2198849088162182,0.6830380857571959,-0.11538926066663116
1782845631613195300,3.9571953125,1.2863193287104366,0.8575533795334398,-0.12073343470618128
1782845631623200300,3.9672001953125,1.448995862263441,0.9295429493367672,-0.17466558896712958
1782845631633205200,3.977205322265625,1.6140315261632203,1.0155481850109993,-0.1416249046307057
1782845631643210200,3.987210205078125,1.647411817717552,1.1214509842015803,-0.11123889952152967
1782845631653215200,3.99721533203125,1.6611773082196712,1.2471012709133327,-0.07062365174498408
1782845631663220200,4.00722021484375,1.5633657532870768,1.3069377538472413,-0.038507461842335756
1782845631673225200,4.01722509765625,1.3161240998655557,1.2433034860655665,0.02952270281072706
1782845631683230200,4.027230224609375,1.0366869807600974,1.2241511879585683,0.10777743395604193
1782845631693235200,4.037235107421875,0.6788461870253085,1.2830538971737027,0.14478402624875306
1782845631703240200,4.047240234375,0.39741584827601906,1.3812461219869554,0.14180113798044622
1782845631713245200,4.0572451171875,0.10759703588783741,1.4838944494262336,0.18836922974679618
1782845631723250200,4.067250244140625,-0.07946049020588397,1.4841438941426575,0.1994853017186746
1782845631733255200,4.077255126953125,-0.20999825669825076,1.4061904474988578,0.1404500886976719
1782845631743260200,4.08726025390625,-0.3587444645762443,1.3604657842867076,0.3093072836469859
1782845631753265200,4.09726513671875,-0.5495739104241132,1.1853148229554296,0.1926034332504496
1782845631763270100,4.107270263671875,-0.49910453690290446,1.189576425922662,0.1363369542904198
1782845631773275100,4.117275146484375,-0.4925561381727457,1.1467885468147694,0.06273004895094782
1782845631783280000,4.127280029296875,-0.36504385698139663,1.112356846511364,0.1311554965319112
1782845631793285000,4.13728515625,-0.1838157676935196,0.8249453875258564,-0.23423037882018832
1782845631803290000,4.1472900390625,0.17014906139075756,0.5989832534983753,0.029510647046752273
1782845631813295000,4.157295166015625,0.2946919713824987,0.5627791366949677,0.027544205811992285
1782845631823300000,4.167300048828125,0.11280629496872424,0.5890494501136243,-0.25068989417925475
1782845631833305000,4.17730517578125,0.026439678636193273,0.58528556753546,-0.1266345119761303
1782845631843310000,4.18731005859375,-0.07037818908393383,0.3989801749832928,-0.10130403669085353
1782845631853315000,4.197315185546875,-0.16496318318545816,0.22903847273290157,-0.2021864139035344
1782845631863320000,4.207320068359375,-0.3009013474166393,0.1789363250888884,-0.2238379084151238
1782845631873325000,4.217324951171875,-0.4686263965308666,0.20610446413010358,-0.22945567523166535
1782845631883330000,4.227330078125,-0.6951666227072477,0.29873452477157114,-0.19438954948224127
1782845631893335000,4.2373349609375,-0.8501520172357558,0.3398452644474804,-0.23325148731805384
1782845631903340000,4.247340087890625,-0.8187327966213226,0.34541692709997296,-0.2505775198459625
1782845631913345000,4.257344970703125,-0.6600941402822732,0.2910362253539264,-0.2765630980391055
1782845631923350000,4.26735009765625,-0.5372136105448008,0.21114786512479186,-0.40701932372786104
1782845631933355000,4.27735498046875,-0.24264088162779807,0.24213702375888824,-0.48495384647548195
1782845631943360000,4.287360107421875,0.0894762727856636,0.32409912152215836,-0.39355193938948213
1782845631953365000,4.297364990234375,0.2943272297233343,0.40201968880966304,-0.4897405692953616
1782845631963370000,4.307369873046875,0.6051046589881182,0.44901495647951956,-0.554416820410639
1782845631973375000,4.317375,0.7994663706153631,0.42079336286261676,-0.5101063348453492
1782845631983380000,4.3273798828125,0.818814045163989,0.3635967269130051,-0.5473569650270045
1782845631993386000,4.337385986328125,0.8118255014508963,0.3525879877731204,-0.579047622993961
1782845632003391000,4.347390869140625,0.8203110057234764,0.36666020613685246,-0.4743471853304654
1782845632013396000,4.35739599609375,0.7787076602250337,0.2971504704505205,-0.3488257856953889
1782845632023401000,4.36740087890625,0.7814502369314432,0.2138162075512111,-0.3149291421167552
1782845632033406000,4.377406005859375,0.8193442065179347,0.0892494782924652,-0.24528116700351238
1782845632043411000,4.387410888671875,0.6487661060601473,-0.018802754016965628,-0.2605248402994126
1782845632053416000,4.397416015625,0.38671617508530615,-0.005155336936563253,-0.21696948395036159
1782845632063421000,4.4074208984375,0.16876491355597972,-0.03022109687104821,-0.1562248731955886
1782845632073426000,4.417426025390625,-0.0266302327722311,-0.11438991089835762,-0.17269794215597212
1782845632083431000,4.427430908203125,-0.17381226007342337,-0.16088073617741463,-0.16850841804426162
1782845632093436000,4.437435791015625,-0.24275544791817663,-0.18198212252557278,-0.1617053869659081
1782845632103441000,4.44744091796875,-0.27607202658653257,-0.2621224116891622,-0.12680566729195417
1782845632113446000,4.45744580078125,-0.26664076589643954,-0.35582594678103924,-0.14652082344610243
1782845632123451000,4.467450927734375,-0.26626024214625355,-0.43534211269691586,-0.18806378052681683
1782845632133456000,4.477455810546875,-0.35874797170758244,-0.5432805093683302,-0.25027466444186863
1782845632143460900,4.4874609375,-0.4302677320420742,-0.49027898702099915,-0.1647837714979425
1782845632153466000,4.497466064453125,-0.40196459762156006,-0.45943815081641076,-0.03524809472020715
1782845632163471000,4.50747119140625,-0.2528320207744837,-0.4847843351274729,0.01286455960702151
1782845632173476000,4.51747607421875,-0.044324879416823386,-0.4765457913532853,0.014281038808822632
1782845632183481300,4.5274814453125,0.15836802270412445,-0.42231005103588104,-0.03654551411960274
1782845632193486300,4.537486328125,0.3204214559227228,-0.37323359317779536,-0.14014789088070392
1782845632203491300,4.5474912109375,0.483859036976099,-0.4118406794697046,-0.2421779402911663
1782845632213496300,4.557496337890625,0.6079682317256927,-0.44060383261740205,-0.2946290256815031
1782845632223501300,4.567501220703125,0.6601081688076257,-0.42267669239118694,-0.31263186149243266
1782845632233506300,4.57750634765625,0.6022013387620448,-0.42605654408782717,-0.3056964362060651
1782845632243511300,4.58751123046875,0.5748164882302284,-0.46464244146123523,-0.2983164820225909
1782845632253516300,4.597516357421875,0.46848552675545213,-0.49076282501518725,-0.2790983886703849
1782845632263521300,4.607521240234375,0.35197394752800465,-0.47821562426164743,-0.28039767123330384
1782845632273526300,4.6175263671875,0.29752222637236114,-0.4385182585150003,-0.2664644594814628
1782845632283531300,4.62753125,0.17400456777513026,-0.3286956555321812,-0.1541814577344805
1782845632293536300,4.637536376953125,-0.06624386575818061,-0.21332447851151226,-0.12360716351158917
1782845632303541200,4.647541259765625,-0.13580255515277384,-0.154980133831501,-0.13551314375214277
1782845632313546200,4.657546142578125,-0.14789339044094085,-0.17849515719264744,-0.28255598177835345
1782845632323551200,4.66755126953125,-0.04618073641657829,-0.16419336785674093,-0.23340631255358457
1782845632333556200,4.67755615234375,0.3742325410872698,-0.4377160022214055,-0.4521270971506834
1782845632343561200,4.687561279296875,0.12344985405802726,-0.23509850342422722,-0.28548260981477797
1782845632353566200,4.697566162109375,0.09249883547723292,-0.11269348224401474,-0.21577406362071633
1782845632363571200,4.7075712890625,0.05712707784473896,-0.13782237054258584,-0.35656207903586323
1782845632373576200,4.717576171875,-0.008780687826871872,-0.2899311867214739,-0.492838023854047
1782845632383581200,4.727581298828125,0.07187456512153148,-0.6068446345232427,-0.40301615250110623
1782845632393586200,4.737586181640625,0.10232874009609222,-0.8530074066668748,-0.27182277164421975
1782845632403591200,4.747591064453125,0.04839139820337295,-0.875420898526907,-0.2857072854161262
1782845632413596200,4.75759619140625,-0.11713175695240496,-0.8145105027511715,-0.24441001019217073
1782845632423601200,4.76760107421875,-0.35507892780601974,-0.8468233112044632,-0.20300890926755963
1782845632433606100,4.777606201171875,-0.6566361087828875,-0.9666524905472993,-0.117046855147928
1782845632443611100,4.787611083984375,-0.7693886277377605,-1.177771860229969,-0.006845116654410958
1782845632453616000,4.7976162109375,-0.8471499128103256,-1.260844695714116,-0.027422332997992634
1782845632463621000,4.80762109375,-0.7753735473662614,-1.234229368250072,-0.04563895769007504
1782845632473626000,4.817626220703125,-0.5351788898468017,-1.1947520749948919,-0.12775551536269486
1782845632483631000,4.827631103515625,-0.34362989755272866,-1.0964020292714238,-0.22418036517724393
1782845632493636000,4.837635986328125,-0.22124036620259283,-0.8974918605595826,-0.38014293417483563
1782845632503641000,4.84764111328125,-0.06961363445222378,-0.7034276705741882,-0.524307367220521
1782845632513646000,4.85764599609375,0.17233225064873695,-0.5264307891152799,-0.586291675838083
1782845632523651000,4.867651123046875,0.3814204067647457,-0.4852843936040997,-0.5497936175893992
1782845632533656000,4.877656005859375,0.5366384410053491,-0.38970483550727364,-0.3428826593820005
1782845632543661000,4.8876611328125,0.5370604658097028,-0.19926570415124295,-0.22079291469603776
1782845632553666000,4.897666015625,0.16536942589879036,-0.02722761414349079,-0.1593256156899035
1782845632563671000,4.907671142578125,-0.3587590776234865,0.1020538686774671,-0.05661357536464929
1782845632573676000,4.917676025390625,-0.9169710525333881,0.19055384377688167,-0.010931947576627134
1782845632583681000,4.927680908203125,-1.3827555036365986,0.28104849982485175,0.0394987744346261
1782845632593687000,4.93768701171875,-1.706271418443322,0.3723252461612224,0.07306918173357844
1782845632603692000,4.947692138671875,-1.7402812400728462,0.38353856796249747,-0.03775383046343923
1782845632613697000,4.957697021484375,-1.5381161612182854,0.35062516326755283,-0.15850589680485427
1782845632623702000,4.967701904296875,-1.0557266122728586,0.26924554156735536,-0.3607276012174785
1782845632633707000,4.97770703125,-0.49491877565085884,0.13064473399817944,-0.4853551207527518
1782845632643712000,4.9877119140625,-0.13810206426680088,0.03716141752824187,-0.5489079207960516
1782845632653717000,4.997717041015625,0.11158172160983085,-0.035600890213251114,-0.57896761656031
1782845632663722000,5.007721923828125,0.21419044769108295,-0.0616936551079154,-0.6502602170754224
1782845632673727000,5.01772705078125,0.2952460981339216,0.07320040689781308,-0.6723605513330548
1782845632683732000,5.02773193359375,0.406052743718028,0.15513985443785785,-0.6417899834372103
1782845632693737000,5.037737060546875,0.678007982635498,0.18345453316569327,-0.6505768818091601
1782845632703742000,5.047741943359375,0.9853998611152172,0.2794777433767915,-0.5924002218462526
1782845632713747000,5.057746826171875,1.2718851451665163,0.35836364856511355,-0.48773675519227977
1782845632723752000,5.067751953125,1.4883821162343025,0.442627447399497,-0.3609256080076098
1782845632733757000,5.0777568359375,1.5855302388221024,0.5646984143197536,-0.2109483970299363
1782845632743762000,5.087761962890625,1.573882471126318,0.7275356913924217,-0.06575681289359926
1782845632753767000,5.097766845703125,1.4580863466918468,0.8939014348521828,0.07279365272782742
1782845632763772000,5.10777197265625,1.2383984706282616,1.0404396112918852,0.2529143652956933
1782845632773777000,5.11777685546875,1.0043103132903575,1.1880021623432635,0.4498765417449176
1782845632783782000,5.127781982421875,0.7232394555032253,1.3445002995222806,0.6263602129846811
1782845632793787000,5.137786865234375,0.34725393326878545,1.4419564651459456,0.7392606890428811
1782845632803792000,5.1477919921875,-0.0856423937112093,1.4988798371121286,0.765487455580756
1782845632813797000,5.157797119140625,-0.3957376859307289,1.530308410076797,0.7207189240496605
1782845632823802000,5.167802001953125,-0.6139496442228556,1.5584747663751244,0.6989996980641037
1782845632833807000,5.17780712890625,-0.7362655258148908,1.5431754904344677,0.7396727769751101
1782845632843812000,5.18781201171875,-0.6857201644480228,1.4068679083690045,0.7251335256215184
1782845632853817300,5.1978173828125,-0.41656010920703407,1.2934607248976826,0.7104384261190891
1782845632863822300,5.207822265625,-0.05819441481530666,1.1627274358332156,0.6415522291585802
1782845632873827300,5.217827392578125,0.1684475181698799,1.035370929725468,0.6588315730005503
1782845632883832300,5.227832275390625,0.28465689958035945,0.913483502678573,0.6750904146883636
1782845632893837300,5.23783740234375,0.23831951129734516,0.7534633288532495,0.6374506390586495
1782845632903842300,5.24784228515625,0.1061637882143259,0.6024731414407491,0.6104269499894232
1782845632913847300,5.257847412109375,-0.020475801795721053,0.4767126723527908,0.6047792264260351
1782845632923852300,5.267852294921875,-0.09220657453238963,0.35613954277485604,0.6073880206849426
1782845632933857300,5.277857177734375,-0.1965373021006584,0.256119371882081,0.6119567168399691
1782845632943862300,5.2878623046875,-0.26740064435303207,0.02969721912741661,0.5996846797659993
1782845632953867500,5.297867431640625,-0.3104793231010437,-0.14382190321832894,0.6202963098358363
1782845632963872500,5.30787255859375,-0.35632162134349343,-0.14854571686983106,0.6170654381558298
1782845632973877500,5.31787744140625,-0.34407354966700077,-0.08752250836938619,0.5245522088270634
1782845632983882500,5.327882568359375,-0.29968378832042214,-0.05400485417097806,0.3474805816315114
1782845632993887500,5.337887451171875,-0.3260580005049705,-0.0615039777547121,0.1891941727962345
1782845633003892500,5.347892578125,-0.4101034804135561,-0.019411679695546625,0.09648352119922637
1782845633013897500,5.3578974609375,-0.4606991106629371,0.06413929469436407,0.06725925334580242
1782845633023902500,5.36790234375,-0.5242670352101325,0.13949877932220697,-0.018022271163761615
1782845633033907500,5.377907470703125,-0.5138689753144979,0.06580430529713631,-0.18132826172672212
1782845633043912400,5.387912353515625,-0.46086102322638034,0.10910890175551176,-0.11014314017407595
1782845633053917400,5.39791748046875,-0.3313999460548162,0.06752455321848393,0.015556319441646337
1782845633063922400,5.40792236328125,-0.15723989545702932,0.023562954156100747,-0.034942280174046755
1782845633073927400,5.417927490234375,-0.02821662518084049,0.08769085067361593,-0.1011249172642827
1782845633083932400,5.427932373046875,0.16285890438258646,0.13577128323167562,-0.11971790098808704
1782845633093937400,5.4379375,0.37945641321539875,0.17848843519091606,-0.08161701065264641
1782845633103942400,5.4479423828125,0.5725315921634435,0.22240444154590366,-0.044865342969074844
1782845633113947400,5.457947509765625,0.7094821483075618,0.21980594948530197,0.027939123413711783
1782845633123952400,5.467952392578125,0.845284118938446,0.17651245894283055,0.09865713891126215
1782845633133957400,5.477957275390625,0.8930956714272499,0.17398761664032936,0.11516520611979067
1782845633143962400,5.48796240234375,0.9117512720584869,0.1881061583638191,0.0729926824312657
1782845633153967400,5.49796728515625,0.9321154301732778,0.14744243180304764,0.04734006251953542
1782845633163972400,5.507972412109375,1.0183616349965334,0.04954115276038647,0.016855273211002348
1782845633173978400,5.517978271484375,1.055104680982232,-0.04698094688355922,-0.00920227423980832
1782845633183982300,5.527982421875,1.0205085838973522,-0.0777647922039032,-0.031249563135951754
1782845633193987300,5.5379873046875,1.004012791648507,-0.05866816980689764,0.02121419907286763
1782845633203993300,5.547993408203125,0.9575111527144908,-0.08477876261919737,0.06147723587825894
1782845633213998300,5.557998291015625,0.8216402085006237,-0.14864479333013295,0.09357618238516151
1782845633224003300,5.56800341796875,0.6973264310896397,-0.17963672844320536,0.16048464953191577
1782845633234008300,5.57800830078125,0.5779238065958022,-0.2110948197633028,0.2602845287375152
1782845633244013300,5.588013427734375,0.3488391566336155,-0.27067864311039447,0.31313422152400017
1782845633254018300,5.598018310546875,0.10356208128333091,-0.3660892743811011,0.29435733260065317
1782845633264023300,5.608023193359375,-0.18113281221985816,-0.3534174243345857,0.3665766925718635
1782845633274028300,5.6180283203125,-0.39567397304475305,-0.3070356123879552,0.3907061215043068
1782845633284033300,5.628033203125,-0.5502987175673246,-0.28160569531619545,0.41980785895660516
1782845633294038300,5.638038330078125,-0.4737409630656242,-0.30452275278419255,0.39241657868400215
1782845633304043300,5.648043212890625,-0.284575651037693,-0.361854121029377,0.3321288448512554
1782845633314048300,5.65804833984375,-0.09770166481733322,-0.36078532275408504,0.3236795078705996
1782845633324053200,5.66805322265625,0.04370820882320404,-0.36888328901380296,0.2664703047003597
1782845633334058200,5.678058349609375,0.28391455678045746,-0.4030003704100847,0.16052052456289528
1782845633344063200,5.688063232421875,0.4723644140154123,-0.45893385455608365,0.03952515098489821
1782845633354068200,5.698068115234375,0.5868722522050142,-0.5207195718616247,-0.06666464845351874
1782845633364073200,5.7080732421875,0.6114946522861718,-0.5664093098908662,-0.15727708566226065
1782845633374078200,5.718078125,0.5514391197741031,-0.6520820987403393,-0.2418350451376289
1782845633384083200,5.728083251953125,0.5427952100694179,-0.671230451324582,-0.32319581600688396
1782845633394088200,5.738088134765625,0.5121837987065315,-0.602454729001224,-0.3364581062272191
1782845633404093200,5.74809326171875,0.44103988594710825,-0.5239817885279655,-0.322867972292006
1782845633414098200,5.75809814453125,0.42448564150929446,-0.5635834388151765,-0.4146707883290946
1782845633424103200,5.768103271484375,0.43051323123574253,-0.5891431197464466,-0.4260398852139711
1782845633434108200,5.778108154296875,0.4297913467019796,-0.5793950481921434,-0.3986917864959687
1782845633444113200,5.788113037109375,0.3928285204857588,-0.5869610995322465,-0.359834305639565
1782845633454118100,5.7981181640625,0.40100305911302564,-0.6240057588130236,-0.2894218489598483
1782845633464123100,5.808123046875,0.4946960728108883,-0.6510770133510232,-0.18087364982701837
1782845633474128100,5.818128173828125,0.5223059642702341,-0.6838187147408723,-0.06821173176504672
1782845633484133000,5.828133056640625,0.5227507854282856,-0.6488192975521088,-0.06207549403235316
1782845633494138400,5.838138427734375,0.42287119204998014,-0.6046060618162155,-0.06824987181834877
1782845633504143400,5.848143310546875,0.31066695462763305,-0.5694342106699943,-0.05797587669380009
1782845633514148400,5.8581484375,0.25160803193747994,-0.5719274887904524,-0.05968538402542471
1782845633524153300,5.8681533203125,0.15409809029996394,-0.6092331370949745,0.019850509504228828
1782845633534158600,5.87815869140625,0.03244914818406105,-0.6608326836898922,0.08536832601018249
1782845633544163600,5.88816357421875,-0.1280313366293907,-0.7067004086345434,0.06844846313036977
1782845633554168600,5.89816845703125,-0.3095569475591183,-0.7375348150983453,0.12075089729763566
1782845633564173600,5.908173583984375,-0.3516302486568689,-0.8468903850913048,0.1365015702676028
1782845633574178600,5.918178466796875,-0.3009054390698671,-0.9447110001131892,0.08896277030557394
1782845633584183600,5.92818359375,-0.2671253345429897,-0.9878650821849703,0.08711911520026623
1782845633594188500,5.9381884765625,-0.16805881111323834,-0.9729901691362262,0.04585040848366916
1782845633604193500,5.948193603515625,-0.05635433990657329,-0.9332222223713994,0.09222016466632485
1782845633614198500,5.958198486328125,-0.05986965455114841,-0.8292018759265541,0.12998458958901465
1782845633624203500,5.96820361328125,-0.2030944686591625,-0.7119803948640823,0.13619944551587104
1782845633634208500,5.97820849609375,-0.46777825526893135,-0.5680605842292309,0.18982647935040295
1782845633644213500,5.988213623046875,-0.7871423110932111,-0.418415966206789,0.287713510672003
1782845633654218500,5.998218505859375,-1.0211381139725446,-0.25332418820559977,0.4930803081773221
1782845633664223500,6.008223388671875,-1.1841589309185743,-0.248107330340147,0.6243810949314386
1782845633674228500,6.018228515625,-1.1815332585901022,-0.2607093300208449,0.699043098814413
1782845633684233500,6.0282333984375,-1.0641858130604027,-0.15933131477832793,0.76828914206326
1782845633694238500,6.038238525390625,-0.9200345317572355,-0.11636983266919851,0.7358151516988873
1782845633704243500,6.048243408203125,-0.7452420284748077,-0.13073153549879787,0.6161903358217329
1782845633714248400,6.05824853515625,-0.6256862592458725,-0.024748949070274827,0.6095384036518633
1782845633724253400,6.06825341796875,-0.5372194557636976,0.034237639036029575,0.5930159425918012
1782845633734258400,6.078258544921875,-0.5263514402687549,0.12375818935483693,0.5796852633103728
1782845633744263400,6.088263427734375,-0.49924073050320145,0.20225173422470688,0.5154619435943663
1782845633754268400,6.098268310546875,-0.3869675194978714,0.2564472886621952,0.4582645039271563
1782845633764273400,6.1082734375,-0.19595570282042024,0.2626584182620048,0.368052902604267
1782845633774278400,6.1182783203125,0.04985854814648628,0.2494777419105172,0.23000118028521535
1782845633784283400,6.128283447265625,0.3217629336595535,0.19951456434577702,0.11904343579262494
1782845633794288400,6.138288330078125,0.6458493418306112,0.18351327761560676,0.007720840043015777
1782845633804293400,6.14829345703125,0.866735487768054,0.13417758429944515,-0.13284213444460183
1782845633814298400,6.15829833984375,0.9936199924498796,0.11632687031030654,-0.30070162359345703
1782845633824304400,6.168304443359375,1.0487135186403989,0.3162947313815355,-0.26300292085073884
1782845633834308400,6.178308349609375,1.0742635549604893,0.46665480419695377,-0.3254882012603804
1782845633844313300,6.188313232421875,1.1802642615675925,0.496654805663228,-0.3647429012734443
1782845633854319400,6.1983193359375,1.2098802321523427,0.5419786329895258,-0.2935489753598347
1782845633864324400,6.208324462890625,1.1920435466885566,0.6432222081974148,-0.1433570621855557
1782845633874329300,6.218329345703125,1.1379787790238856,0.7114855970844626,0.07955726511124521
1782845633884334300,6.228334228515625,1.0190046090751885,0.7166489711970091,0.21397512443996963
1782845633894339300,6.23833935546875,0.9131558781594038,0.7412675718858838,0.2608969615474343
1782845633904344300,6.24834423828125,0.7515735695838928,0.8358771159067749,0.26920086217541245
1782845633914349300,6.258349365234375,0.5587859754055738,0.8924033052489161,0.2991575724892318
1782845633924354300,6.268354248046875,0.3537304358065128,0.9125205028653144,0.3839597159840166
1782845633934359300,6.278359375,0.19505027841329572,0.9112643653243779,0.4806214432943612
1782845633944364300,6.2883642578125,-0.004370470169186592,0.952973217023909,0.5027015019489451
1782845633954369500,6.29836962890625,-0.18171382697820662,0.9900669761434197,0.4759463276227936
1782845633964374500,6.30837451171875,-0.21478432193100452,0.9513882859200239,0.42591443220339714
1782845633974379500,6.318379638671875,-0.19989538035690782,0.9528434531643987,0.40552539537567645
1782845633984384500,6.328384521484375,-0.2027811649262905,0.9623211833447217,0.40777679103165865
1782845633994389500,6.338389404296875,-0.1706523347377777,0.9316372912675142,0.40245577867198734
1782845634004394500,6.34839453125,-0.08823357924818992,0.9284677213206887,0.42646665925867855
1782845634014399500,6.3583994140625,-0.00021627309918403624,0.9463879934146999,0.36588030780553815
1782845634024404500,6.368404541015625,0.13262334059476852,0.9076043815121054,0.3264666543710977
1782845634034409500,6.378409423828125,0.21222586961984632,0.8729188525781035,0.32870577506739646
1782845634044414500,6.38841455078125,0.13696867632269857,0.8684507672533393,0.3303681553216651
1782845634054419500,6.39841943359375,0.12535773350596427,0.8174605847284198,0.27872560983523725
1782845634064424400,6.408424560546875,0.20299977611303327,0.7430217220768333,0.23293007334396243
1782845634074429400,6.418429443359375,0.1946943045824766,0.6810211929768324,0.22031287609413264
1782845634084434400,6.428434326171875,0.1682289069831371,0.6140194945886731,0.21888028600774703
1782845634094439400,6.438439453125,0.07492284677624703,0.5688777458310127,0.1831570480564609
1782845634104444400,6.4484443359375,-0.0637783524274826,0.5345929066523909,0.15536332446280865
1782845634114449400,6.458449462890625,-0.26800679355263707,0.5060311212956905,0.17483199504259972
1782845634124454400,6.468454345703125,-0.4470546161919832,0.4751975916147232,0.1985301198856905
1782845634134459400,6.47845947265625,-0.5789543186873197,0.4537300023026764,0.1560171852616593
1782845634144464400,6.48846435546875,-0.7131728195190429,0.44938247461766,0.20020619987174867
1782845634154469400,6.498469482421875,-0.8299065170645713,0.4539779857143759,0.21759229202382266
1782845634164474400,6.508474365234375,-0.8483318160712718,0.48866044590845703,0.09734854053072631
1782845634174479400,6.518479248046875,-0.7537783861517906,0.4926501000665128,0.05728351051546633
1782845634184484600,6.528484619140625,-0.4449322172105312,0.4598046460412442,0.0101317371096462
1782845634194489600,6.538489501953125,-0.11409575025737285,0.47484629395902156,-0.0019352789115160702
1782845634204494600,6.54849462890625,0.2286053420126438,0.5375527793712914,-0.011907258882187306
1782845634214499600,6.55849951171875,0.5205991603523492,0.5792340124115347,-0.03662161156311631
1782845634224504600,6.568504638671875,0.7494996859192847,0.5366366874396801,-0.061363655968569214
1782845634234509600,6.578509521484375,0.8259615788310766,0.48364670939967036,-0.05024263382693752
1782845634244514600,6.5885146484375,0.7646399719059467,0.4357636991098523,-0.027722357124183326
1782845634254519600,6.59851953125,0.5783177743494511,0.3412720823802054,-0.06263139261575415
1782845634264524500,6.608524658203125,0.3135889795541763,0.2619518774278462,-0.15685264970511198
1782845634274529500,6.618529541015625,0.15421674824357032,0.21096856303513048,-0.2701105608988553
1782845634284534500,6.628534423828125,0.08423954117596148,0.1783639320284128,-0.2831015781634487
1782845634294539500,6.63853955078125,0.12010288171768188,0.06938347895815968,-0.2517703828923404
1782845634304544500,6.64854443359375,0.21714929749667644,-0.04012129024714231,-0.19626001952923833
1782845634314549500,6.658549560546875,0.2752349912405014,-0.07531798357367515,-0.1715717511376366
1782845634324554800,6.6685546875,0.22891689217984676,-0.12744345373883842,-0.19910032098907976
1782845634334559700,6.678559814453125,0.13763678484261035,-0.22282266695797442,-0.17894695608075706
1782845634344564700,6.688564697265625,0.05161445190310478,-0.3616252807095647,-0.10932331169117242
1782845634354569700,6.69856982421875,-0.019411387434601784,-0.4599482922956347,-0.03126377432439476
1782845634364574700,6.70857470703125,-0.07370119602680206,-0.5343021070122719,0.0016677140165120361
1782845634374579700,6.718579833984375,-0.0957020154327154,-0.5906843578390777,0.008121675928868352
1782845634384584700,6.728584716796875,-0.10840075348615645,-0.5884577678307891,0.034255686149373646
1782845634394589700,6.738589599609375,-0.017260931402444838,-0.5684687266387045,0.043684572219289834
1782845634404594700,6.7485947265625,0.0629115064650774,-0.5632547913827002,0.025741978695616126
1782845634414599700,6.758599609375,0.09943418769836425,-0.5661212867297232,-0.011308744999766349
1782845634424604700,6.768604736328125,0.14945172579884528,-0.5274313444599509,-0.029360205725394186
1782845634434609700,6.778609619140625,0.2035305219888687,-0.49263694832399485,-0.083161536680907
1782845634444614700,6.78861474609375,0.2687508899182081,-0.5313862195655703,-0.09742734138797968
1782845634454619600,6.79861962890625,0.2858259433597326,-0.5779945337444543,-0.1372428901541978
1782845634464624600,6.808624755859375,0.2586737325400114,-0.6317211554959417,-0.18038217651564628
1782845634474629600,6.818629638671875,0.2216986313641071,-0.6931563057981431,-0.20571776636745778
1782845634484634600,6.828634521484375,0.2026245130598545,-0.7102708144672215,-0.22893099377043544
1782845634494639600,6.8386396484375,0.06467383996248245,-0.7196333938352764,-0.28083891219478097
1782845634504644600,6.84864453125,-0.054093409237265584,-0.6794887227125466,-0.33792280848491935
1782845634514649600,6.858649658203125,-0.19676585015952586,-0.632828239955008,-0.3832129527373239
1782845634524654600,6.868654541015625,-0.29737083520293234,-0.552020280662924,-0.41293673107810314
1782845634534660600,6.87866064453125,-0.30245266851186753,-0.5018922679252922,-0.43943741918653245
1782845634544664600,6.88866455078125,-0.2166501158028841,-0.46630306814983485,-0.4314830261159688
1782845634554669600,6.898669677734375,-0.05966916354298591,-0.4452215555459261,-0.4531381738893687
1782845634564675600,6.908675537109375,0.09977847109138965,-0.47230201630368823,-0.48133386588003485
1782845634574680600,6.9186806640625,0.2573392690658569,-0.547001575718075,-0.5037727113770321
1782845634584685600,6.928685546875,0.4114776913762092,-0.6147763043053448,-0.44776780596263704
1782845634594690600,6.938690673828125,0.4731494269132614,-0.7179584463603794,-0.40672512655425813
1782845634604695600,6.948695556640625,0.44186756894290447,-0.7807168080903589,-0.37683505173586307
1782845634614700500,6.958700439453125,0.3427829253345728,-0.8508294781059026,-0.377439447369799
1782845634624705500,6.96870556640625,0.1780254938542843,-0.8615126385532319,-0.36107108089290557
1782845634634710500,6.97871044921875,0.07424597042798996,-0.8660149184085428,-0.331433848324418
1782845634644715500,6.988715576171875,0.029985388419032095,-0.9038662178970873,-0.33664529936239124
1782845634654720500,6.998720458984375,-0.22223697602450845,-0.9815784031309187,-0.3104862642984837
1782845634664725500,7.0087255859375,-0.3692196813613176,-1.0134972438305616,-0.24443112604543565
1782845634674730500,7.01873046875,-0.39387130753695965,-1.0509029915086925,-0.16648527818620204
1782845634684735500,7.028735595703125,-0.4207189824521541,-1.1048090614803134,-0.12425064904689788
1782845634694740500,7.038740478515625,-0.3126549135744571,-1.1643141205027698,-0.1600317911978811
1782845634704745500,7.048745361328125,-0.24642215373218057,-1.1429809712253511,-0.2457986150063574
1782845634714750500,7.05875048828125,-0.2226578317850828,-1.0631764898873866,-0.4073609037071466
1782845634724755500,7.06875537109375,-0.13538111487030982,-1.0192286270894109,-0.568308786836639
1782845634734760400,7.078760498046875,-0.060625441354513164,-0.944915436644107,-0.6792195503823458
1782845634744765400,7.088765380859375,-0.09383096086382865,-0.846224030137062,-0.7631343896485865
1782845634754770400,7.0987705078125,-0.11760463516116142,-0.6888157923758029,-0.8099707404296844
1782845634764775400,7.108775390625,-0.08289397178590298,-0.5289370728477836,-0.916004107197374
1782845634774780400,7.118780517578125,-0.012155132696032524,-0.37778497287184,-1.122654514772445
1782845634784785400,7.128785400390625,0.03718786714375019,-0.28965047008395195,-1.3088307279869913
1782845634794790400,7.138790283203125,-0.0469558124423027,-0.24922610523700714,-1.346937463541329
1782845634804795400,7.14879541015625,-0.5143938759714365,-0.1612064610004425,-1.0858727442115546
1782845634814800400,7.15880029296875,-1.3004828786194325,-0.06977057857960463,-0.7200125293459743
1782845634824805400,7.168805419921875,-2.0435025548696517,0.0290483998298645,-0.48869201009050006
1782845634834810400,7.178810302734375,-2.4963375080287453,0.19558102428913116,-0.37445312503539024
1782845634844815600,7.188815673828125,-2.4997277349889275,0.4043360029280185,-0.28679486145712435
1782845634854820600,7.198820556640625,-2.2475322585523125,0.5885673656851053,-0.15231767315659672
1782845634864825600,7.20882568359375,-1.8094383629292248,0.6324959392607211,-0.07537588777337223
1782845634874830600,7.21883056640625,-1.2508189762622117,0.7270636899664997,-0.08469601623918861
1782845634884835600,7.228835693359375,-0.7011527113795281,0.7681281062826514,-0.1701298452336341
1782845634894840600,7.238840576171875,-0.22495675637722015,0.8946551758289336,-0.36033681180160493
1782845634904845600,7.248845458984375,0.3527116141527891,1.0603393667653203,-0.574657973200269
1782845634914850600,7.2588505859375,0.9330641092002391,1.1184762061744928,-0.710870241665095
1782845634924855600,7.26885546875,1.3741244534134864,1.1804060081258416,-0.6626945320390164
1782845634934860500,7.278860595703125,1.7992378714323043,1.2062383685186504,-0.5645609055452049
1782845634944865500,7.288865478515625,2.098049553093314,1.1361723141238094,-0.3578056493561715
1782845634954870300,7.298870361328125,2.4132868843764066,1.0098422284543513,-0.2322473883094266
1782845634964875300,7.308875244140625,2.7157448135852813,0.8089137056574225,-0.19533709599804133
1782845634974880300,7.31888037109375,2.836500606253743,0.7378995567575096,-0.12643913553450256
1782845634984885200,7.32888525390625,2.751535088890791,0.7271493224233389,-0.03620561464074999
1782845634994890200,7.33889013671875,2.4719243667840956,0.6782631264403463,-0.01885718761794269
1782845635004895200,7.348895263671875,1.898107995507121,0.6670134181514382,0.05746390858367085
1782845635014900200,7.358900146484375,1.3863427144736051,0.6857678029820322,0.2388019610520452
1782845635024905200,7.3689052734375,0.9350409622311592,0.7164245147913694,0.2767491586631164
1782845635034910200,7.37891015625,0.3471510574162006,0.8144149334222078,0.43713885992057616
1782845635044915200,7.388915283203125,-0.29585926159620285,0.8838038192078471,0.6372520477466285
1782845635054920200,7.398920166015625,-1.0328408267259597,0.9393526879504323,0.7804632717207074
1782845635064925200,7.40892529296875,-1.8484142825335264,1.0177341507479547,0.915031608903408
1782845635074930200,7.41893017578125,-2.3798323585420844,1.0548229414314032,0.9253831262435763
1782845635084935200,7.42893505859375,-2.583333069914579,1.0313701696515083,0.9259488703675568
1782845635094940200,7.438940185546875,-2.4010119246929884,1.0159800005570054,0.9893431919135153
1782845635104945200,7.448945068359375,-1.8545640373349188,1.0134373303368687,1.1214393668290228
1782845635114950100,7.4589501953125,-1.0982564249664544,0.9196022778198123,1.318794195857644
1782845635124955100,7.468955078125,-0.46983518779873845,0.7710705894753337,1.413931855405867
1782845635134960000,7.478960205078125,-0.06708382371366024,0.6984440369427204,1.4505461604453622
1782845635144965000,7.488965087890625,0.23948680151104926,0.5882222055092453,1.3552993414342402
1782845635154970000,7.49897021484375,0.5278589222222566,0.5073825359046459,1.144298921956122
1782845635164975000,7.50897509765625,0.8644435774385929,0.44479631587117907,0.9507131631374358
1782845635174980000,7.51897998046875,1.0433101982921362,0.4067743359908461,0.8481429424356669
1782845635184985000,7.528985107421875,1.0597826096653937,0.38833296263217926,0.7405608118560165
1782845635194990000,7.538989990234375,0.9839595991790294,0.25219489191472527,0.6327917073369026
1782845635204995000,7.5489951171875,0.8353565991640091,0.12993132503181695,0.5771988533221185
1782845635215000000,7.559,0.7077613158643246,0.06323942324519156,0.5509591542374342
1782845635225005000,7.569005126953125,0.5800199020922183,-0.00810059660822153,0.5314053626574575
1782845635235010000,7.579010009765625,0.45438861234188077,-0.11966653612703085,0.5035108821030706
1782845635245015000,7.58901513671875,0.2987017915457487,-0.11657236950397491,0.488328072148934
1782845635255020000,7.59902001953125,0.17816227197647094,-0.02686637961566448,0.48229229911603033
1782845635265025000,7.60902490234375,0.03197451640963554,0.04284399320930242,0.47255467589050526
1782845635275030000,7.619030029296875,-0.1307815121203661,0.08847498678863049,0.41971163204051554
1782845635285035000,7.629034912109375,-0.2607639828175306,0.18704057495892046,0.4194495470382273
1782845635295040300,7.639040283203125,-0.37618893585205077,0.2864908370092511,0.41101467697434124
1782845635305045200,7.649045166015625,-0.3303349471718073,0.3666413553059101,0.3402541375093162
1782845635315050200,7.65905029296875,-0.19003917225301264,0.3696247550308704,0.25635785681307316
1782845635325055200,7.66905517578125,-0.1740343783915043,0.33090660957992074,0.16519728420227764
1782845635335060200,7.679060302734375,-0.18202771523296832,0.31414339856654405,0.17503887925893066
1782845635345065200,7.689065185546875,-0.12926584686040876,0.3023325492635369,0.2284662988681346
1782845635355070200,7.6990703125,-0.09839198516905308,0.2057131267249584,0.282828222848475
1782845635365075200,7.7090751953125,0.011216390541195869,0.1009784945309162,0.2963886192325502
1782845635375080200,7.719080078125,0.13771452625393868,0.10587444987893103,0.27147973036020995
1782845635385085200,7.729085205078125,0.2534545365869999,0.11597118874043226,0.25399916485771534
1782845635395090200,7.739090087890625,0.4048842844605446,0.10902326929867268,0.235678933660686
1782845635405095200,7.74909521484375,0.5744985083222389,0.08868658371269703,0.20318777296580373
1782845635415101000,7.759100830078125,0.7308037532776593,0.008185936804115772,0.17166648021638392
1782845635425106200,7.769106201171875,0.8548176709592342,-0.08274521096497774,0.13696765340939163
1782845635435111200,7.779111083984375,0.9421727138072252,-0.07057254261225461,0.17082644919566808
1782845635445116200,7.7891162109375,0.9417793305754661,-0.04642915821969509,0.1702411966536194
1782845635455121200,7.79912109375,0.882877059751749,-0.08026274649947882,0.19135807283185421
1782845635465126100,7.809126220703125,0.7440583716481923,-0.1468026725947857,0.23377068888656793
1782845635475131100,7.819131103515625,0.5565688838779926,-0.21685352942049502,0.24861447614468632
1782845635485136100,7.82913623046875,0.4287421299099922,-0.2556067461848259,0.2316709401283413
1782845635495141000,7.83914111328125,0.3228858002096414,-0.22650340129733085,0.24481837179735302
1782845635505146000,7.84914599609375,0.2237216616243124,-0.19633038135170935,0.2295754291538149
1782845635515151000,7.859151123046875,0.20911445960104463,-0.27342414242625235,0.19344013980291783
1782845635525156000,7.869156005859375,0.28630174417793747,-0.3496612866714597,0.11135887263938785
1782845635535161000,7.8791611328125,0.3050333326548338,-0.42040334063172335,0.03524528170861303
1782845635545166000,7.889166015625,0.29438100573718545,-0.5043111656352878,0.0035918139468878504
1782845635555171000,7.899171142578125,0.19637012884020805,-0.5788222167402506,0.019409633868932723
1782845635565176000,7.909176025390625,0.08437924190759659,-0.6607827070683241,0.06454122655875981
1782845635575181000,7.91918115234375,-0.0045090018570423124,-0.7229989247456192,0.1377573424823582
1782845635585186000,7.92918603515625,-0.03560439734458923,-0.6968509225323796,0.09551138823144137
1782845635595191000,7.93919091796875,0.0006441431224346161,-0.6427773870393634,0.05259980967864394
1782845635605196000,7.949196044921875,0.12560966244041918,-0.6135755502134561,0.05451316901929676
1782845635615201000,7.959200927734375,0.3106967652440071,-0.5814399980232119,0.08639737679697573
1782845635625206000,7.9692060546875,0.45502048050463195,-0.5451715838119388,0.09609094168506561
1782845635635211000,7.9792109375,0.5998077216237783,-0.5584259099215269,0.0345044732786715
1782845635645216000,7.989216064453125,0.7973878107756376,-0.6045484864100813,-0.011041472365707159
1782845635655221200,7.99922119140625,0.954681482246518,-0.6412403867304325,-0.03295264072678983
1782845635665226200,8.009226318359374,1.0495236659795044,-0.67934712228477,-0.1062596498042345
1782845635675231200,8.019231201171875,1.0764034895986319,-0.6943973919004202,-0.16402319892160594
1782845635685236200,8.029236328125,1.1096230376332998,-0.7009075044468045,-0.11413885874673724
1782845635695241200,8.0392412109375,1.1821405768334865,-0.7521414325997233,-0.10222571811303496
1782845635705246200,8.04924609375,1.1465075379163026,-0.8297326218023896,-0.0724275958944112
1782845635715251200,8.059251220703125,0.8445850307583809,-0.9150327779471874,-0.0791771432198584
1782845635725256200,8.069256103515626,0.479662754330039,-0.9597375965923071,-0.0505418542355299
1782845635735261200,8.07926123046875,0.18460545676648615,-1.0079343490064143,-0.0012661474782973527
1782845635745266200,8.08926611328125,-0.02381634439527988,-1.0368021315723657,-0.042491599575057624
1782845635755271200,8.099271240234375,-0.1396820269346237,-1.0691942888721824,-0.11539879567995667
1782845635765276200,8.109276123046875,-0.21460662727653979,-1.0850783789634704,-0.17185148139446974
1782845635775281200,8.11928125,-0.18963877475857732,-1.1031979730218648,-0.18657814507894216
1782845635785286100,8.1292861328125,-0.13713994123637677,-1.1501406337216495,-0.17580774473957717
1782845635795291100,8.139291015625,-0.09487374791502952,-1.1925970889180897,-0.18224654561541972
1782845635805296000,8.149296142578125,-0.07763678191006183,-1.2214458745226264,-0.09146759273335336
1782845635815301000,8.159301025390626,-0.06951777286231517,-1.2008712885275483,-0.057087841812893746
1782845635825306000,8.16930615234375,-0.08495207335948944,-1.209969079479575,0.009943228800222277
1782845635835311000,8.17931103515625,-0.2008727009564638,-1.1899699552848935,0.1037712670546025
1782845635845316000,8.189316162109375,-0.3953203373014927,-1.2299161812260746,0.14321984567195176
1782845635855321000,8.199321044921875,-0.5143915378838777,-1.3602964190691709,0.22534034886732696
1782845635865326000,8.209326171875,-0.4115536792218685,-1.4536851891234517,0.25185974167622627
1782845635875331000,8.2193310546875,-0.20343582944273947,-1.447681272533536,0.2675491859782487
1782845635885336000,8.229336181640624,-0.03588262976408005,-1.434350081795454,0.38209516422115264
1782845635895341000,8.239341064453125,0.052799277773499485,-1.3996008399754762,0.547263222328946
1782845635905346000,8.249345947265626,0.22269465666413304,-1.2361778719693421,0.6012995676167309
1782845635915351000,8.25935107421875,0.1693628794491291,-0.8660857916876673,0.5674630567274987
1782845635925356000,8.26935595703125,-0.09970131420195102,-0.6035621057212353,0.6196808082859963
1782845635935361000,8.279361083984375,-0.3374865724921226,-0.33627427409291266,0.7268660485025494
1782845635945366300,8.2893662109375,-0.7368576464891433,-0.12267127090096473,0.9178013658776879
1782845635955372000,8.2993720703125,-1.2713076375395058,0.10456482858508824,1.2004371348939835
1782845635965377000,8.309376953125,-1.7317706013590097,0.2638315536946058,1.5243417567573487
1782845635975382000,8.319382080078125,-1.9904227065891027,0.2857148842006922,1.6861527595221995
1782845635985387000,8.329386962890625,-1.967515878254175,0.38236119474619623,1.6573533660173416
1782845635995392000,8.33939208984375,-1.606756566724181,0.5113260128334164,1.5501583350591361
1782845636005397000,8.34939697265625,-1.055190605700016,0.46819063546210526,1.587860435335338
1782845636015402000,8.359402099609374,-0.46970483941733837,0.4287622959151864,1.532492183856666
1782845636025407000,8.369406982421875,0.13082535126209258,0.2987707651287317,1.3041358481690286
1782845636035412000,8.379411865234376,0.7033762326478957,0.18844108940660953,1.006433589054644
1782845636045417000,8.3894169921875,1.12469201194942,0.18142302733808754,0.7946374891541897
1782845636055422000,8.399421875,1.284733520823717,0.21154460935741662,0.6057451488487422
1782845636065427000,8.409427001953125,1.3276385965704918,0.3288014539942145,0.47083837349191304
1782845636075432000,8.419431884765626,1.3309528356850147,0.4353492730900645,0.21134974437244236
1782845636085437200,8.429437255859375,1.3880635469168423,0.48463002134859556,0.026831454432755707
1782845636095442200,8.439442138671875,1.2965806104838848,0.5037812965422869,-0.15269523776471614
1782845636105447200,8.449447265625,0.8843138145565986,0.6054229311570525,-0.35962840780392286
1782845636115452200,8.4594521484375,0.7654004348844289,0.8486632399827242,-0.4709096851624548
1782845636125457200,8.46945703125,0.8402806115627288,1.0740057808071375,-0.5384009206332266
1782845636135462100,8.479462158203125,0.9493839603602886,1.2268518252193927,-0.5924117661535739
1782845636145467100,8.489467041015626,1.0140332504034042,1.3237915657535195,-0.5856685755036771
1782845636155472100,8.49947216796875,0.9434820428401232,1.3250278295502065,-0.4231780660420656
1782845636165477000,8.50947705078125,0.825886175507307,1.2795523187935351,-0.26131365258954464
1782845636175482000,8.519482177734375,0.7510095059603452,1.2986974565073848,-0.05095628025531768
1782845636185487000,8.529487060546876,0.5501677846640348,1.3427487796798347,0.20117636007815598
1782845636195492000,8.5394921875,0.27738544727265835,1.4023822873875498,0.37756862670741975
1782845636205497000,8.5494970703125,0.08031038503348827,1.4499147306740283,0.46187736066207286
1782845636215502000,8.559502197265624,-0.11124036082625388,1.4997472675964236,0.570275922191143
1782845636225507000,8.569507080078125,-0.2735398777604103,1.4140207027330993,0.5671672886513173
1782845636235512000,8.579511962890624,-0.4819786300569772,1.3958195678710936,0.5353014202479273
1782845636245517000,8.58951708984375,-0.6256167011409998,1.4314859245359897,0.5579737822398543
1782845636255522000,8.59952197265625,-0.7065320663303136,1.4521446816831827,0.5187520711809397
1782845636265527000,8.609527099609375,-0.726733142837882,1.4492188573643565,0.46682555765397843
1782845636275532000,8.619531982421876,-0.7369763044327498,1.413637256373465,0.4257169368699193
1782845636285537000,8.629537109375,-0.7823182519376277,1.3518711205512284,0.394138653236255
1782845636295542000,8.6395419921875,-0.6628928310900927,1.219346564155817,0.3512011365246028
1782845636305547000,8.649547119140625,-0.44045127240419385,1.066013028487563,0.36287096992172296
1782845636315552000,8.659552001953125,-0.3419026353687048,0.9113955904886126,0.3468898491967469
1782845636325557000,8.669556884765624,-0.3088677962511778,0.8234133556529879,0.3067571607727557
1782845636335562000,8.67956201171875,-0.34012510430216786,0.6934189022570848,0.22233897509425876
1782845636345567000,8.68956689453125,-0.3386410032242536,0.5435322921723127,0.17576171364076434
1782845636355572000,8.699572021484375,-0.3086088530540466,0.38472427061572667,0.17537943632490932
1782845636365577000,8.709576904296876,-0.3166279088586569,0.29253128621727226,0.2623066091496497
1782845636375582000,8.71958203125,-0.3680979838550091,0.30649872903227804,0.31587906325273213
1782845636385587000,8.7295869140625,-0.3585416354805231,0.3196324975021183,0.2705074512619525
1782845636395592000,8.739592041015625,-0.2414022797435522,0.3485455805145204,0.19840777214765548
1782845636405597000,8.749596923828125,-0.08457096508741378,0.39713016320243477,0.1566976052738726
1782845636415602000,8.759601806640624,0.06188508602678775,0.4840259179756045,0.11358429360389709
1782845636425607000,8.76960693359375,0.24461656561493872,0.6115326462090015,-0.01411360982004553
1782845636435612000,8.77961181640625,0.4392208538264036,0.722967652824521,-0.1386503457993269
1782845636445617000,8.789616943359375,0.2549392221868038,0.7502063728839159,-0.22677476558461784
1782845636455622000,8.799621826171874,0.7270908702343701,0.7404992178618908,-0.18702267397604883
1782845636465627000,8.809626953125,1.0079232430905103,0.5669187207177281,0.2920448178745806
1782845636475631900,8.8196318359375,0.5032330150097608,0.3066334613278508,0.391358447933197
1782845636485636900,8.829636962890625,0.1632616399645805,0.35932971711829303,0.35301242373026903
1782845636495643000,8.839642822265626,0.11548632783293723,0.5141216349013149,0.23178817329984158
1782845636505647900,8.84964794921875,0.2280833639651537,0.3682565354175865,-0.01865479691363871
