time,seconds_elapsed,z,y,x
1782845627731254500,0.075254638671875,0.2664177119731903,0.04196351766586304,0.019923023879528046
1782845627741259500,0.085259521484375,0.27250534296035767,0.07661090046167374,0.023754028603434563
1782845627751264500,0.095264404296875,0.27750861644744873,0.08616365492343903,0.003132641315460205
1782845627761269500,0.10526953125,0.2754388451576233,0.07309681177139282,-0.02696724236011505
1782845627771274500,0.1152744140625,0.2725951075553894,0.051256224513053894,-0.07814547419548035
1782845627781279500,0.125279541015625,0.2618997395038605,0.027425585314631462,-0.11731057614088058
1782845627791284500,0.135284423828125,0.24209246039390564,0.0016461851773783565,-0.1389988213777542
1782845627801289500,0.14528955078125,0.22587750852108002,-0.019855447113513947,-0.14896346628665924
1782845627811294500,0.15529443359375,0.20706947147846222,-0.013639096170663834,-0.12848056852817535
1782845627821299500,0.165299560546875,0.17967884242534637,0.035337064415216446,-0.08788470178842545
1782845627831304400,0.175304443359375,0.14775899052619934,0.08180203288793564,-0.041777126491069794
1782845627841309400,0.185309326171875,0.1105915755033493,0.10730964690446854,0.013829721137881279
1782845627851314400,0.195314453125,0.08458207547664642,0.11499712616205215,0.07509414851665497
1782845627861319400,0.2053193359375,0.0648287907242775,0.10899750888347626,0.12212254106998444
1782845627871324400,0.215324462890625,0.050656508654356,0.10268794745206833,0.16021879017353058
1782845627881329700,0.22532958984375,0.037934135645627975,0.11276190727949142,0.1879751980304718
1782845627891334700,0.235334716796875,0.026814371347427368,0.14347560703754425,0.20924878120422363
1782845627901339600,0.245339599609375,0.0247667096555233,0.19025638699531555,0.22852763533592224
1782845627911344600,0.2553447265625,0.039114754647016525,0.2279001623392105,0.24294519424438477
1782845627921349600,0.265349609375,0.05969620868563652,0.24317555129528046,0.2449159026145935
1782845627931354600,0.275354736328125,0.09033960849046707,0.24654418230056763,0.22329449653625488
1782845627941359600,0.285359619140625,0.1288890540599823,0.22698789834976196,0.19375476241111755
1782845627951364000,0.295364013671875,0.1662345677614212,0.19241394102573395,0.17363324761390686
1782845627961369000,0.305369140625,0.19371356070041656,0.1651410162448883,0.15697255730628967
1782845627971374000,0.3153740234375,0.24030371010303497,0.14657078683376312,0.14783897995948792
1782845627981379000,0.325379150390625,0.3002846837043762,0.128870889544487,0.12700040638446808
1782845627991384000,0.335384033203125,0.3786569833755493,0.10536875575780869,0.0904218778014183
1782845628001389000,0.34538916015625,0.4461962878704071,0.10568756610155106,0.059976156800985336
1782845628011394000,0.35539404296875,0.4934365153312683,0.0765155628323555,0.06739359349012375
1782845628021399000,0.36539892578125,0.5324118137359619,0.039649635553359985,0.10873599350452423
1782845628031404000,0.375404052734375,0.5531663298606873,0.007983321323990822,0.1686352789402008
1782845628041409000,0.385408935546875,0.5711756348609924,-0.009432174265384674,0.23671354353427887
1782845628051414000,0.3954140625,0.5877364873886108,-0.015806185081601143,0.3281550407409668
1782845628061419000,0.4054189453125,0.6011552214622498,-0.014561639167368412,0.42267075181007385
1782845628071424000,0.415424072265625,0.6063963174819946,0.010846516117453575,0.5229776501655579
1782845628081429000,0.425428955078125,0.5976525545120239,0.03313574194908142,0.6227414011955261
1782845628091434000,0.43543408203125,0.5578036904335022,0.045608922839164734,0.6863600611686707
1782845628101439000,0.44543896484375,0.49980250000953674,0.07723630964756012,0.691399872303009
1782845628111444000,0.45544384765625,0.4170975089073181,0.11522603780031204,0.6114078760147095
1782845628121449000,0.465448974609375,0.33585822582244873,0.15141412615776062,0.4579201340675354
1782845628131454000,0.475453857421875,0.2625619173049927,0.167470321059227,0.2752715051174164
1782845628141458000,0.4854580078125,0.1920975148677826,0.15341956913471222,0.0885467380285263
1782845628151463000,0.495462890625,0.12905091047286987,0.1301746964454651,-0.08610815554857254
1782845628161468000,0.505468017578125,0.0730561912059784,0.0891406461596489,-0.22308635711669922
1782845628171473200,0.51547314453125,0.03781937062740326,0.022284379228949547,-0.29377198219299316
1782845628181478100,0.52547802734375,0.019349997863173485,-0.06776098906993866,-0.2999810576438904
1782845628191483100,0.535483154296875,0.01359783485531807,-0.1720232218503952,-0.24897566437721252
1782845628201488100,0.545488037109375,0.019508667290210724,-0.26148170232772827,-0.1768673211336136
1782845628211493000,0.5554931640625,0.01642765663564205,-0.31939640641212463,-0.0693829357624054
1782845628221498000,0.565498046875,0.014377076178789139,-0.36006128787994385,0.047242142260074615
1782845628231503000,0.575503173828125,0.017179787158966064,-0.35203105211257935,0.14198222756385803
1782845628241508000,0.585508056640625,0.041132550686597824,-0.28525519371032715,0.21109652519226074
1782845628251513000,0.59551318359375,0.07991109788417816,-0.18359513580799103,0.25280481576919556
1782845628261518000,0.60551806640625,0.10170409083366394,-0.0963120236992836,0.28292885422706604
1782845628271523000,0.615523193359375,0.10718514025211334,-0.05026809498667717,0.29997068643569946
1782845628281528000,0.625528076171875,0.09790286421775818,-0.061480727046728134,0.30879759788513184
1782845628291533000,0.635532958984375,0.06952901184558868,-0.11506538838148117,0.31175291538238525
1782845628301538000,0.6455380859375,0.0389658622443676,-0.17402495443820953,0.29638397693634033
1782845628311543000,0.65554296875,0.008703828789293766,-0.2095286101102829,0.2580978572368622
1782845628321548300,0.66554833984375,-0.02942054346203804,-0.20483696460723877,0.1856008619070053
1782845628331553300,0.67555322265625,-0.06945904344320297,-0.17911003530025482,0.09984494745731354
1782845628341558300,0.685558349609375,-0.10857821255922318,-0.12693524360656738,0.014046685770154
1782845628351563300,0.695563232421875,-0.14026743173599243,-0.058121562004089355,-0.08298531919717789
1782845628361568300,0.705568359375,-0.16302736103534698,0.0390494130551815,-0.17683477699756622
1782845628371573200,0.7155732421875,-0.18247748911380768,0.1316525936126709,-0.22705480456352234
1782845628381578200,0.725578125,-0.18538054823875427,0.21566864848136902,-0.22874416410923004
1782845628391583200,0.735583251953125,-0.1907697170972824,0.26747965812683105,-0.19102634489536285
1782845628401588200,0.745588134765625,-0.19784662127494812,0.2708616852760315,-0.12115713208913803
1782845628411593200,0.75559326171875,-0.20203711092472076,0.25191381573677063,-0.03777223080396652
1782845628421598200,0.76559814453125,-0.18759630620479584,0.21199719607830048,0.029392879456281662
1782845628431603200,0.775603271484375,-0.16141876578330994,0.1518302708864212,0.09113533794879913
1782845628441608200,0.785608154296875,-0.11180760711431503,0.09906810522079468,0.13028039038181305
1782845628451613200,0.79561328125,-0.06152232736349106,0.05760668218135834,0.1529305875301361
1782845628461618200,0.8056181640625,-0.028264647349715233,0.008176934905350208,0.15878595411777496
1782845628471623200,0.815623046875,-0.01377279032021761,0.007837914861738682,0.1819317489862442
1782845628481628200,0.825628173828125,-0.024347180500626564,0.022225424647331238,0.21093307435512543
1782845628491633200,0.835633056640625,-0.03297315910458565,0.01928715780377388,0.2330775260925293
1782845628501638100,0.84563818359375,-0.043286316096782684,0.03582166135311127,0.2440594583749771
1782845628511643100,0.85564306640625,-0.06526831537485123,0.061745136976242065,0.24219177663326263
1782845628521648000,0.865648193359375,-0.09058672189712524,0.07388196885585785,0.24290204048156738
1782845628531653000,0.875653076171875,-0.11615706235170364,0.07614804804325104,0.24535322189331055
1782845628541658000,0.885658203125,-0.14639624953269958,0.08153058588504791,0.24334073066711426
1782845628551663000,0.8956630859375,-0.18237873911857605,0.08773840963840485,0.24485978484153748
1782845628561668000,0.905668212890625,-0.22459279000759125,0.09290184080600739,0.2345549464225769
1782845628571673000,0.915673095703125,-0.26221606135368347,0.10201144963502884,0.2057880014181137
1782845628581678000,0.925677978515625,-0.2947741746902466,0.12889698147773743,0.1632859706878662
1782845628591683000,0.93568310546875,-0.32208406925201416,0.14543841779232025,0.10983499139547348
1782845628601688000,0.94568798828125,-0.3279462158679962,0.15032190084457397,0.05642895773053169
1782845628611693000,0.955693115234375,-0.3233061730861664,0.14866647124290466,0.0016370824305340648
1782845628621698000,0.965697998046875,-0.3117368817329407,0.13558129966259003,-0.04719783365726471
1782845628631703000,0.975703125,-0.2962340712547302,0.10993292927742004,-0.08490819483995438
1782845628641708000,0.9857080078125,-0.27215123176574707,0.09224213659763336,-0.10996226966381073
1782845628651713000,0.995713134765625,-0.24347536265850067,0.09903745353221893,-0.11546409875154495
1782845628661718000,1.005718017578125,-0.22954323887825012,0.1136041209101677,-0.11489984393119812
1782845628671723000,1.015722900390625,-0.21852174401283264,0.12658250331878662,-0.09426300972700119
1782845628681728000,1.02572802734375,-0.21524307131767273,0.12672379612922668,-0.056078121066093445
1782845628691733200,1.035733154296875,-0.22199684381484985,0.12801356613636017,-0.026291193440556526
1782845628701738200,1.04573828125,-0.22829623520374298,0.13215236365795135,-0.0064592380076646805
1782845628711743200,1.0557431640625,-0.22893938422203064,0.15223632752895355,0.0030463826842606068
1782845628721748200,1.065748291015625,-0.2319546341896057,0.13793033361434937,0.002819780260324478
1782845628731753200,1.075753173828125,-0.2221962809562683,0.10358274728059769,0.007587104570120573
1782845628741758200,1.08575830078125,-0.2097211331129074,0.060543593019247055,0.006813878659158945
1782845628751763200,1.09576318359375,-0.18450579047203064,0.03626728057861328,-0.013161693699657917
1782845628761768200,1.105768310546875,-0.15512071549892426,0.00314145814627409,-0.02392376959323883
1782845628771773200,1.115773193359375,-0.14019156992435455,-0.015261516906321049,-0.03728191927075386
1782845628781778200,1.125778076171875,-0.13671986758708954,-0.012973862700164318,-0.062451187521219254
1782845628791783200,1.135783203125,-0.14266031980514526,0.0002210359089076519,-0.09698545932769775
1782845628801788200,1.1457880859375,-0.155898317694664,0.017954561859369278,-0.1293964982032776
1782845628811793200,1.155793212890625,-0.17534951865673065,0.026475343853235245,-0.1508232206106186
1782845628821798100,1.165798095703125,-0.19237951934337616,0.03681676462292671,-0.17047184705734253
1782845628831803100,1.17580322265625,-0.20459650456905365,0.04427441209554672,-0.17644186317920685
1782845628841808100,1.18580810546875,-0.22441841661930084,0.03702688589692116,-0.1494709551334381
1782845628851813000,1.195813232421875,-0.22927948832511902,0.03841066733002663,-0.10892698913812637
1782845628861818000,1.205818115234375,-0.2187952697277069,0.030517201870679855,-0.055580563843250275
1782845628871823000,1.215822998046875,-0.19890305399894714,0.013165907934308052,-0.003393524093553424
1782845628881828000,1.225828125,-0.18030939996242523,-0.007816072553396225,0.04221683740615845
1782845628891833000,1.2358330078125,-0.16364920139312744,-0.030306465923786163,0.06870464235544205
1782845628901838000,1.245838134765625,-0.14957676827907562,-0.05327460914850235,0.07884672284126282
1782845628911843000,1.255843017578125,-0.13937632739543915,-0.07040432840585709,0.08240630477666855
1782845628921848000,1.26584814453125,-0.13405050337314606,-0.0913008451461792,0.08163710683584213
1782845628931853000,1.27585302734375,-0.13803139328956604,-0.08459580689668655,0.08786305040121078
1782845628941858000,1.285858154296875,-0.168218195438385,-0.0642145425081253,0.10413967072963715
1782845628951864000,1.295864013671875,-0.20503054559230804,-0.0406855084002018,0.13082188367843628
1782845628961869000,1.305869140625,-0.24555812776088715,-0.02090926095843315,0.14699670672416687
1782845628971874000,1.3158740234375,-0.2824958860874176,-0.008801733143627644,0.13972388207912445
1782845628981879000,1.325879150390625,-0.311011403799057,-0.008420150727033615,0.10848842561244965
1782845628991884000,1.335884033203125,-0.3455888032913208,-0.018056532368063927,0.05632242560386658
1782845629001889000,1.345888916015625,-0.3612159192562103,-0.01458515040576458,0.0010428866371512413
1782845629011894000,1.35589404296875,-0.3701651990413666,-0.008125387132167816,-0.04575417935848236
1782845629021899300,1.365899169921875,-0.35986578464508057,-0.007212507538497448,-0.0912683829665184
1782845629031904300,1.375904296875,-0.3357639014720917,-0.022449251264333725,-0.14359337091445923
1782845629041909200,1.3859091796875,-0.3074118196964264,-0.05568435788154602,-0.19785532355308533
1782845629051914200,1.395914306640625,-0.2692790627479553,-0.07056743651628494,-0.2377161979675293
1782845629061919200,1.405919189453125,-0.21745668351650238,-0.06473242491483688,-0.25706052780151367
1782845629071924200,1.41592431640625,-0.15245717763900757,-0.055592454969882965,-0.24320995807647705
1782845629081929200,1.42592919921875,-0.08578187227249146,-0.056138549000024796,-0.20286771655082703
1782845629091934200,1.435934326171875,-0.015182008035480976,-0.06006964296102524,-0.17102110385894775
1782845629101939200,1.445939208984375,0.04152590036392212,-0.07468143850564957,-0.14123915135860443
1782845629111944200,1.455944091796875,0.09398643672466278,-0.0933976024389267,-0.11011611670255661
1782845629121949200,1.46594921875,0.1403300017118454,-0.11425383388996124,-0.08925085514783859
1782845629131954200,1.4759541015625,0.17573751509189606,-0.13519321382045746,-0.06836128234863281
1782845629141959200,1.485959228515625,0.19722145795822144,-0.15134122967720032,-0.037584688514471054
1782845629151964200,1.495964111328125,0.1933172643184662,-0.1619430035352707,0.00861502904444933
1782845629161969200,1.50596923828125,0.16791841387748718,-0.18759462237358093,0.06032542884349823
1782845629171974100,1.51597412109375,0.1453542411327362,-0.1998813897371292,0.10761704295873642
1782845629181979100,1.525979248046875,0.12180700898170471,-0.19630229473114014,0.158711776137352
1782845629191984000,1.535984130859375,0.09924603998661041,-0.17527849972248077,0.21924275159835815
1782845629201989000,1.545989013671875,0.05313607677817345,-0.14993292093276978,0.275031715631485
1782845629211994000,1.555994140625,-0.005300869233906269,-0.12184856086969376,0.3068351745605469
1782845629221999000,1.5659990234375,-0.08701159805059433,-0.08886083215475082,0.29114076495170593
1782845629232004000,1.576004150390625,-0.19246719777584076,-0.06350380927324295,0.22702810168266296
1782845629242009000,1.586009033203125,-0.29806333780288696,-0.05695531889796257,0.12381641566753387
1782845629252014000,1.59601416015625,-0.361344575881958,-0.07803291082382202,0.011746338568627834
1782845629262019000,1.60601904296875,-0.3799744248390198,-0.11969414353370667,-0.09431618452072144
1782845629272024000,1.616024169921875,-0.36581653356552124,-0.1759616881608963,-0.18685249984264374
1782845629282029000,1.626029052734375,-0.3249930441379547,-0.24522961676120758,-0.25652387738227844
1782845629292034000,1.636033935546875,-0.2625616490840912,-0.3070969879627228,-0.28651851415634155
1782845629302039000,1.6460390625,-0.18578825891017914,-0.3404930830001831,-0.29016944766044617
1782845629312044000,1.6560439453125,-0.09400613605976105,-0.3358900845050812,-0.26501351594924927
1782845629322049000,1.666049072265625,0.008933890610933304,-0.2980055510997772,-0.22008076310157776
1782845629332054000,1.676053955078125,0.1098458543419838,-0.2500252425670624,-0.1561816781759262
1782845629342059000,1.68605908203125,0.19570286571979523,-0.19543835520744324,-0.09170032292604446
1782845629352064300,1.696064208984375,0.2647687494754791,-0.13771860301494598,-0.027731986716389656
1782845629362069200,1.7060693359375,0.3092378079891205,-0.11033213138580322,0.03772680088877678
1782845629372074200,1.71607421875,0.3394162058830261,-0.07983068376779556,0.1013992503285408
1782845629382079200,1.726079345703125,0.3302803933620453,-0.09818107634782791,0.16296742856502533
1782845629392084200,1.736084228515625,0.2945231795310974,-0.14506469666957855,0.22260598838329315
1782845629402089200,1.746089111328125,0.25404369831085205,-0.18558117747306824,0.24442707002162933
1782845629412094200,1.75609423828125,0.2290041148662567,-0.2138996422290802,0.2283005565404892
1782845629422099200,1.76609912109375,0.21637170016765594,-0.18112261593341827,0.198457732796669
1782845629432104200,1.776104248046875,0.20728711783885956,-0.14278188347816467,0.1523219347000122
1782845629442109200,1.786109130859375,0.18493668735027313,-0.12437423318624496,0.10654950141906738
1782845629452114200,1.7961142578125,0.1524306833744049,-0.09767550975084305,0.0730258971452713
1782845629462119200,1.806119140625,0.10754939913749695,-0.07324863970279694,0.03961368650197983
1782845629472124200,1.816124267578125,0.038395363837480545,-0.05159394070506096,0.011701894924044609
1782845629482129200,1.826129150390625,-0.021138396114110947,-0.03470988571643829,-0.01264274399727583
1782845629492134100,1.836134033203125,-0.06305708736181259,-0.032734353095293045,-0.039368364959955215
1782845629502139100,1.84613916015625,-0.09662490338087082,-0.028904195874929428,-0.06769108027219772
1782845629512144100,1.85614404296875,-0.11092980206012726,-0.02619975619018078,-0.09383799135684967
1782845629522149000,1.866149169921875,-0.12251397967338562,-0.02513054572045803,-0.11992184072732925
1782845629532154000,1.876154052734375,-0.12306365370750427,-0.03239564970135689,-0.12556374073028564
1782845629542159000,1.8861591796875,-0.11231695115566254,-0.049352843314409256,-0.10733044892549515
1782845629552164000,1.8961640625,-0.09603651612997055,-0.06226704642176628,-0.08135344088077545
1782845629562169000,1.906169189453125,-0.08166628330945969,-0.060237545520067215,-0.06670959293842316
1782845629572174000,1.916174072265625,-0.06269046664237976,-0.03391725942492485,-0.07428708672523499
1782845629582179000,1.926178955078125,-0.0364406444132328,-0.0014049042947590351,-0.12168323993682861
1782845629592184000,1.93618408203125,-0.021828144788742065,0.0459306538105011,-0.18798184394836426
1782845629602189000,1.94618896484375,-0.004356572404503822,0.060296349227428436,-0.24692228436470032
1782845629612194000,1.956194091796875,0.0042414432391524315,0.05856902524828911,-0.29607969522476196
1782845629622199000,1.966198974609375,-0.020031211897730827,0.03986256942152977,-0.30710434913635254
1782845629632204000,1.9762041015625,-0.024722637608647346,0.019970351830124855,-0.32765302062034607
1782845629642209000,1.986208984375,-0.018889568746089935,0.01596338488161564,-0.3306705951690674
1782845629652214000,1.996214111328125,-0.013037272728979588,0.022210896015167236,-0.315385639667511
1782845629662219000,2.006218994140625,-0.012149865739047527,0.018819045275449753,-0.2996405363082886
1782845629672224000,2.01622412109375,-0.005732978694140911,0.015700483694672585,-0.2758622467517853
1782845629682229000,2.02622900390625,0.012352311983704567,0.015949949622154236,-0.25749361515045166
1782845629692234000,2.03623388671875,0.028270823881030083,0.007144474424421787,-0.24386996030807495
1782845629702239000,2.046239013671875,0.04055643454194069,-0.0033608009107410908,-0.2326153665781021
1782845629712244000,2.056243896484375,0.046668924391269684,-0.009526550769805908,-0.21340864896774292
1782845629722249000,2.0662490234375,0.044561099261045456,-0.023551559075713158,-0.1724109798669815
1782845629732254000,2.07625390625,0.043461743742227554,-0.03553418442606926,-0.1298360824584961
1782845629742259000,2.086259033203125,0.046386148780584335,-0.0358806848526001,-0.06918816268444061
1782845629752264000,2.096263916015625,0.04448331892490387,-0.03579866141080856,-0.008093377575278282
1782845629762269000,2.10626904296875,0.038292016834020615,-0.026103399693965912,0.03856596723198891
1782845629772274000,2.11627392578125,0.029559241607785225,-0.02182955853641033,0.07214256376028061
1782845629782279000,2.12627880859375,0.028413847088813782,-0.027503494173288345,0.09417542815208435
1782845629792284000,2.136283935546875,0.0347825326025486,-0.013428954407572746,0.10054304450750351
1782845629802289000,2.146288818359375,0.04695329815149307,0.008382041938602924,0.08030923455953598
1782845629812294000,2.1562939453125,0.06431231647729874,0.02992621622979641,0.031008796766400337
1782845629822299000,2.166298828125,0.07964429259300232,0.06081440672278404,-0.03592721000313759
1782845629832304000,2.17630419921875,0.0863804891705513,0.09759106487035751,-0.10341278463602066
1782845629842309000,2.18630908203125,0.08777473866939545,0.10681083053350449,-0.1647113710641861
1782845629852314000,2.196314208984375,0.08171258121728897,0.10978691279888153,-0.21345333755016327
1782845629862319000,2.206319091796875,0.0684238150715828,0.0937255322933197,-0.2579498589038849
1782845629872324000,2.216323974609375,0.047677528113126755,0.06798554956912994,-0.29183244705200195
1782845629882329000,2.2263291015625,0.024805627763271332,0.04413040727376938,-0.3086152672767639
1782845629892334300,2.236334228515625,0.0050324564799666405,0.02644115686416626,-0.30363622307777405
1782845629902339300,2.24633935546875,-0.02026890590786934,0.02145891636610031,-0.29769790172576904
1782845629912344300,2.25634423828125,-0.042806170880794525,0.02493220940232277,-0.2705629765987396
1782845629922349300,2.266349365234375,-0.06527697294950485,0.022438060492277145,-0.22334104776382446
1782845629932354300,2.276354248046875,-0.07421854138374329,0.02294992096722126,-0.15602752566337585
1782845629942359300,2.286359375,-0.08208785951137543,0.024530749768018723,-0.09341134876012802
1782845629952364300,2.2963642578125,-0.08464022725820541,0.019910696893930435,-0.04900100827217102
1782845629962369300,2.306369384765625,-0.07559936493635178,0.018085436895489693,-0.009798475541174412
1782845629972374300,2.316374267578125,-0.06013678386807442,0.02414119988679886,0.023861749097704887
1782845629982379300,2.326379150390625,-0.0365123525261879,0.03329141065478325,0.04328524321317673
1782845629992384300,2.33638427734375,-0.006684151478111744,0.04388812929391861,0.06727153807878494
1782845630002389200,2.34638916015625,0.02501239813864231,0.06545694917440414,0.08746826648712158
1782845630012394200,2.356394287109375,0.056390028446912766,0.09328112751245499,0.10191671550273895
1782845630022399200,2.366399169921875,0.09575831145048141,0.12430915236473083,0.10681182891130447
1782845630032404200,2.376404296875,0.12811492383480072,0.14458432793617249,0.09275459498167038
1782845630042409200,2.3864091796875,0.15927357971668243,0.15672476589679718,0.07513565570116043
1782845630052414200,2.396414306640625,0.18596510589122772,0.1579977571964264,0.055249039083719254
1782845630062419200,2.406419189453125,0.20699429512023926,0.14421871304512024,0.033020392060279846
1782845630072424200,2.416424072265625,0.226028710603714,0.13239693641662598,0.008250330574810505
1782845630082429200,2.42642919921875,0.24804893136024475,0.11827912926673889,-0.021202784031629562
1782845630092434200,2.43643408203125,0.26520979404449463,0.09993048012256622,-0.039029184728860855
1782845630102439200,2.446439208984375,0.28004926443099976,0.09000884741544724,-0.043967559933662415
1782845630112444200,2.456444091796875,0.2875764071941376,0.08357731252908707,-0.03469390049576759
1782845630122449200,2.46644921875,0.2888926863670349,0.09234427660703659,-0.024496736004948616
1782845630132454100,2.4764541015625,0.2836361229419708,0.10253379493951797,-0.007340652402490377
1782845630142459100,2.486459228515625,0.2669704854488373,0.11435810476541519,0.01740608923137188
1782845630152464100,2.496464111328125,0.23297467827796936,0.11901464313268661,0.0487176738679409
1782845630162469000,2.50646923828125,0.19903013110160828,0.1262005865573883,0.07095389068126678
1782845630172474000,2.51647412109375,0.16645248234272003,0.13875338435173035,0.08432482182979584
1782845630182479000,2.52647900390625,0.14641490578651428,0.13369333744049072,0.08376792073249817
1782845630192484000,2.536484130859375,0.1294071525335312,0.12209420651197433,0.08818503469228745
1782845630202489000,2.546489013671875,0.12380126863718033,0.11017415672540665,0.08825550228357315
1782845630212494000,2.556494140625,0.11641605198383331,0.10191329568624496,0.08130545169115067
1782845630222499000,2.5664990234375,0.11866538226604462,0.1007281243801117,0.07835733145475388
1782845630232504000,2.576504150390625,0.12429849803447723,0.09035937488079071,0.07461772114038467
1782845630242509000,2.586509033203125,0.1356562077999115,0.07691263407468796,0.08145397156476974
1782845630252514000,2.59651416015625,0.15095873177051544,0.05888516455888748,0.08927007764577866
1782845630262519000,2.60651904296875,0.17015007138252258,0.046331554651260376,0.10977098345756531
1782845630272524000,2.61652392578125,0.17960615456104279,0.03734738007187843,0.1493799090385437
1782845630282529000,2.626529052734375,0.18686695396900177,0.04203538969159126,0.19432292878627777
1782845630292534000,2.636533935546875,0.20184403657913208,0.050291988998651505,0.2348911315202713
1782845630302539300,2.646539306640625,0.22455994784832,0.06491223722696304,0.2668613791465759
1782845630312544300,2.656544189453125,0.24025236070156097,0.070322185754776,0.3043493628501892
1782845630322549200,2.66654931640625,0.25352784991264343,0.06162836775183678,0.34428492188453674
1782845630332554200,2.67655419921875,0.24930939078330994,0.045490410178899765,0.39726823568344116
1782845630342559200,2.686559326171875,0.24241340160369873,0.029489189386367798,0.44461119174957275
1782845630352564200,2.696564208984375,0.22216245532035828,0.029720086604356766,0.4589539170265198
1782845630362569200,2.7065693359375,0.20256838202476501,0.05473794415593147,0.4268733561038971
1782845630372574200,2.71657421875,0.17410825192928314,0.09104055166244507,0.3280615508556366
1782845630382579200,2.7265791015625,0.13580039143562317,0.11977192759513855,0.1770825833082199
1782845630392584400,2.73658447265625,0.08324744552373886,0.13345631957054138,-0.014956639148294926
1782845630402589400,2.74658935546875,0.025125177577137947,0.13966311514377594,-0.2018028050661087
1782845630412594400,2.756594482421875,-0.02221197821199894,0.12873351573944092,-0.3390727937221527
1782845630422599400,2.766599365234375,-0.0343269519507885,0.09198377281427383,-0.39769163727760315
1782845630432604400,2.7766044921875,-0.030500788241624832,0.0237213633954525,-0.39069047570228577
1782845630442609400,2.786609375,-0.02285728044807911,-0.06444065272808075,-0.3223383128643036
1782845630452614400,2.796614501953125,-0.016770625486969948,-0.13908639550209045,-0.2192516028881073
1782845630462619400,2.806619384765625,-0.019861798733472824,-0.18142607808113098,-0.10447704792022705
1782845630472624400,2.816624267578125,-0.010458710603415966,-0.1847374588251114,0.006830568425357342
1782845630482629400,2.82662939453125,0.016890905797481537,-0.17409849166870117,0.10222502797842026
1782845630492634400,2.83663427734375,0.047088224440813065,-0.1379583179950714,0.17722605168819427
1782845630502639400,2.846639404296875,0.07310569286346436,-0.08597518503665924,0.22244781255722046
1782845630512644400,2.856644287109375,0.10286225378513336,-0.025898531079292297,0.23948697745800018
1782845630522649300,2.8666494140625,0.13630469143390656,0.012030864134430885,0.23557132482528687
1782845630532654300,2.876654296875,0.16659708321094513,0.031587518751621246,0.21999236941337585
1782845630542659300,2.886659423828125,0.187570258975029,0.03817388042807579,0.21698138117790222
1782845630552664300,2.896664306640625,0.1931205540895462,0.04386958107352257,0.22580602765083313
1782845630562669300,2.90666943359375,0.17353548109531403,0.04446760565042496,0.24404090642929077
1782845630572674300,2.91667431640625,0.14808951318264008,0.05117184668779373,0.25663790106773376
1782845630582679300,2.92667919921875,0.1261359602212906,0.0409323088824749,0.2414156049489975
1782845630592684300,2.936684326171875,0.10846535116434097,0.024787161499261856,0.190082386136055
1782845630602689300,2.946689208984375,0.10259085148572922,0.0181393064558506,0.10719232261180878
1782845630612694300,2.9566943359375,0.11429011821746826,0.02034919708967209,0.009687609039247036
1782845630622699300,2.96669921875,0.1283777803182602,0.03527183458209038,-0.08451429754495621
1782845630632704300,2.976704345703125,0.15915539860725403,0.06384142488241196,-0.1499026119709015
1782845630642709200,2.986709228515625,0.20143069326877594,0.0959109514951706,-0.17951937019824982
1782845630652714200,2.99671435546875,0.2499832957983017,0.11849135160446167,-0.17965571582317352
1782845630662719200,3.00671923828125,0.288589209318161,0.12341074645519257,-0.16781386733055115
1782845630672724200,3.01672412109375,0.3050808310508728,0.12409384548664093,-0.15428288280963898
1782845630682730200,3.026730224609375,0.30152133107185364,0.11023394018411636,-0.13278059661388397
1782845630692735200,3.0367353515625,0.2734593152999878,0.08996222168207169,-0.09601485729217529
1782845630702740200,3.046740234375,0.2325657606124878,0.07106617093086243,-0.06553395092487335
1782845630712745200,3.0567451171875,0.1794724464416504,0.03576970100402832,-0.06329397112131119
1782845630722750200,3.066750244140625,0.11950673162937164,-0.0010145108681172132,-0.0898144468665123
1782845630732755200,3.076755126953125,0.07745861262083054,-0.028417106717824936,-0.11283188313245773
1782845630742760200,3.08676025390625,0.04400741681456566,-0.04999290034174919,-0.13655823469161987
1782845630752765200,3.09676513671875,0.015430368483066559,-0.0640123188495636,-0.15288501977920532
1782845630762770200,3.106770263671875,-0.01960349641740322,-0.05508469417691231,-0.1680692732334137
1782845630772775200,3.116775146484375,-0.05373403802514076,-0.03724338114261627,-0.174585223197937
1782845630782780200,3.1267802734375,-0.08120889216661453,-0.023427482694387436,-0.17663238942623138
1782845630792785200,3.13678515625,-0.09989256411790848,-0.014064074493944645,-0.1793821007013321
1782845630802790100,3.1467900390625,-0.11503471434116364,-0.0062659732066094875,-0.17917940020561218
1782845630812795100,3.156795166015625,-0.12173976004123688,-0.0007447076495736837,-0.16752274334430695
1782845630822800100,3.166800048828125,-0.11539573222398758,-0.0008592735975980759,-0.15187735855579376
1782845630832805000,3.17680517578125,-0.12092738598585129,-0.013028854504227638,-0.1299792379140854
1782845630842810000,3.18681005859375,-0.13750024139881134,-0.03297033905982971,-0.08580672740936279
1782845630852815000,3.196815185546875,-0.15791256725788116,-0.0389893501996994,-0.034802135080099106
1782845630862820000,3.206820068359375,-0.17048577964305878,-0.042735520750284195,0.030418068170547485
1782845630872825000,3.2168251953125,-0.1806478649377823,-0.0419248528778553,0.08729040622711182
1782845630882830000,3.226830078125,-0.19072198867797852,-0.05161474272608757,0.12552739679813385
1782845630892835000,3.2368349609375,-0.2060125321149826,-0.05526593327522278,0.15106630325317383
1782845630902840000,3.246840087890625,-0.21668986976146698,-0.05504900962114334,0.14143308997154236
1782845630912845000,3.256844970703125,-0.24352200329303741,-0.046833690255880356,0.11440066248178482
1782845630922850000,3.26685009765625,-0.26845619082450867,-0.03793541342020035,0.08106085658073425
1782845630932855000,3.27685498046875,-0.29650381207466125,-0.023406006395816803,0.040514495223760605
1782845630942860000,3.286860107421875,-0.3137342631816864,-0.008296828716993332,0.007574768736958504
1782845630952864300,3.2968642578125,-0.33574527502059937,-0.0013651526533067226,-0.014073003083467484
1782845630962869200,3.306869140625,-0.3556341826915741,0.014658676460385323,-0.030386043712496758
1782845630972874200,3.316874267578125,-0.3655717670917511,0.02987544611096382,-0.04327601194381714
1782845630982879200,3.326879150390625,-0.3623495101928711,0.03219614550471306,-0.04567912966012955
1782845630992884200,3.33688427734375,-0.360674649477005,0.0380907878279686,-0.052712272852659225
1782845631002889200,3.34688916015625,-0.35673052072525024,0.0466759018599987,-0.06096027418971062
1782845631012894200,3.356894287109375,-0.3302419185638428,0.05952485278248787,-0.0610356405377388
1782845631022899200,3.366899169921875,-0.3004578649997711,0.06953778117895126,-0.06074410304427147
1782845631032904200,3.376904296875,-0.2587892413139343,0.07977497577667236,-0.06873571127653122
1782845631042909200,3.3869091796875,-0.21807147562503815,0.08511494845151901,-0.08962889760732651
1782845631052914200,3.3969140625,-0.1787901222705841,0.09217365831136703,-0.11368017643690109
1782845631062919200,3.406919189453125,-0.15215402841567993,0.09695674479007721,-0.12519803643226624
1782845631072924200,3.416924072265625,-0.11496590822935104,0.1016569584608078,-0.15155668556690216
1782845631082929200,3.42692919921875,-0.0736314132809639,0.09424346685409546,-0.18603171408176422
1782845631092934100,3.43693408203125,-0.03446217253804207,0.07287798821926117,-0.21023398637771606
1782845631102939100,3.446939208984375,-0.002239735098555684,0.04424845427274704,-0.2357972115278244
1782845631112944000,3.456944091796875,0.01265292800962925,0.005273622460663319,-0.2534148395061493
1782845631122949000,3.46694921875,0.01450945995748043,-0.03459208086133003,-0.25913241505622864
1782845631132954000,3.4769541015625,0.015113729983568192,-0.06564108282327652,-0.2475612312555313
1782845631142959000,3.486958984375,0.020486367866396904,-0.08786759525537491,-0.21272994577884674
1782845631152964000,3.496964111328125,0.023154854774475098,-0.09963531047105789,-0.1718091517686844
1782845631162969000,3.506968994140625,0.030041564255952835,-0.11159508675336838,-0.12347067892551422
1782845631172974000,3.51697412109375,0.04407322779297829,-0.1157568097114563,-0.07092864066362381
1782845631182979000,3.52697900390625,0.06659457832574844,-0.11758695542812347,-0.03204496577382088
1782845631192984000,3.536984130859375,0.0944879874587059,-0.12405924499034882,-0.004925994202494621
1782845631202989000,3.546989013671875,0.12121076136827469,-0.12943598628044128,0.0214296355843544
1782845631212994000,3.556994140625,0.13849014043807983,-0.1257520318031311,0.055464304983615875
1782845631222999000,3.5669990234375,0.1315263956785202,-0.12999363243579865,0.0851917564868927
1782845631233004000,3.577004150390625,0.10857101529836655,-0.1258835643529892,0.10350844264030457
1782845631243009000,3.587009033203125,0.06987655162811279,-0.11753734201192856,0.11035091429948807
1782845631253014000,3.597013916015625,0.019938554614782333,-0.10925464332103729,0.09072554856538773
1782845631263019000,3.60701904296875,-0.035722874104976654,-0.10928387194871902,0.04387601464986801
1782845631273024000,3.61702392578125,-0.08648671209812164,-0.12254615128040314,-0.0159526988863945
1782845631283029000,3.627029052734375,-0.13521680235862732,-0.14854465425014496,-0.06257441639900208
1782845631293034000,3.637033935546875,-0.18267911672592163,-0.19945071637630463,-0.0960460901260376
1782845631303039000,3.6470390625,-0.22262416779994965,-0.2391877919435501,-0.11204442381858826
1782845631313044000,3.6570439453125,-0.24409803748130798,-0.24933390319347382,-0.10276996344327927
1782845631323049000,3.667049072265625,-0.24279329180717468,-0.24126984179019928,-0.06272385269403458
1782845631333054000,3.677053955078125,-0.23011158406734467,-0.2109401673078537,0.004404580220580101
1782845631343059000,3.687058837890625,-0.23241180181503296,-0.1738196611404419,0.0656280666589737
1782845631353065000,3.69706494140625,-0.2565144896507263,-0.12543243169784546,0.0981425940990448
1782845631363069200,3.707069091796875,-0.2847650647163391,-0.06982238590717316,0.07739847153425217
1782845631373075000,3.717074951171875,-0.30613720417022705,-0.019869741052389145,-0.018455082550644875
1782845631383079200,3.7270791015625,-0.3193991184234619,0.023569272831082344,-0.19449014961719513
1782845631393085000,3.7370849609375,-0.3168289065361023,0.06301548331975937,-0.42075151205062866
1782845631403090000,3.74708984375,-0.3343217074871063,0.04839456081390381,-0.6247096657752991
1782845631413095000,3.757094970703125,-0.36736860871315,-0.05421117693185806,-0.7534729242324829
1782845631423100000,3.767099853515625,-0.38490191102027893,-0.2039821743965149,-0.7856855988502502
1782845631433105000,3.77710498046875,-0.37258559465408325,-0.3447515368461609,-0.7328788638114929
1782845631443110000,3.78710986328125,-0.32265135645866394,-0.4512384831905365,-0.5943129658699036
1782845631453115000,3.797114990234375,-0.2637896239757538,-0.4876081943511963,-0.4219510555267334
1782845631463120000,3.807119873046875,-0.19714897871017456,-0.4719764292240143,-0.24900676310062408
1782845631473124900,3.817124755859375,-0.1333998292684555,-0.4190514087677002,-0.08729962259531021
1782845631483129900,3.8271298828125,-0.05666518583893776,-0.3322165608406067,0.0595942921936512
1782845631493134800,3.837134765625,0.026877380907535553,-0.22562861442565918,0.19820117950439453
1782845631503140000,3.84714013671875,0.11558922380208969,-0.12182694673538208,0.3380386233329773
1782845631513145000,3.85714501953125,0.19294500350952148,-0.031373217701911926,0.4436182975769043
1782845631523150000,3.867150146484375,0.2567422389984131,0.02125343680381775,0.5154925584793091
1782845631533155000,3.877155029296875,0.29400306940078735,0.034640613943338394,0.5713436007499695
1782845631543160000,3.88716015625,0.3062044382095337,0.043075550347566605,0.6109369993209839
1782845631553165000,3.8971650390625,0.2951773405075073,0.04721303656697273,0.6200138330459595
1782845631563170000,3.907170166015625,0.26004651188850403,0.04731452465057373,0.616854190826416
1782845631573175000,3.917175048828125,0.21030160784721375,0.061252713203430176,0.5853122472763062
1782845631583180000,3.927179931640625,0.16289617121219635,0.07607966661453247,0.5390476584434509
1782845631593185000,3.93718505859375,0.1199527159333229,0.0818675085902214,0.48971450328826904
1782845631603190000,3.94718994140625,0.06910137832164764,0.07895733416080475,0.44292688369750977
1782845631613195300,3.9571953125,0.01159653626382351,0.06978461146354675,0.3730303645133972
1782845631623200300,3.9672001953125,-0.037136711180210114,0.05202292278409004,0.2967674136161804
1782845631633205200,3.977205322265625,-0.08996504545211792,0.023352395743131638,0.21936607360839844
1782845631643210200,3.987210205078125,-0.15059110522270203,-0.004223305266350508,0.1327776461839676
1782845631653215200,3.99721533203125,-0.20321384072303772,-0.026847658678889275,0.04801669344305992
1782845631663220200,4.00722021484375,-0.23984146118164062,-0.04178167134523392,-0.02547319419682026
1782845631673225200,4.01722509765625,-0.2613680362701416,-0.057179536670446396,-0.07468467950820923
1782845631683230200,4.027230224609375,-0.26978734135627747,-0.06118684634566307,-0.10094668716192245
1782845631693235200,4.037235107421875,-0.2722718119621277,-0.059523697942495346,-0.11670487374067307
1782845631703240200,4.047240234375,-0.26609283685684204,-0.05643731355667114,-0.11736784875392914
1782845631713245200,4.0572451171875,-0.26668620109558105,-0.05659497529268265,-0.11281970143318176
1782845631723250200,4.067250244140625,-0.2628442645072937,-0.0767749547958374,-0.09498478472232819
1782845631733255200,4.077255126953125,-0.23929470777511597,-0.03732261806726456,-0.07287628948688507
1782845631743260200,4.08726025390625,-0.21837864816188812,-0.0003422335721552372,-0.042944446206092834
1782845631753265200,4.09726513671875,-0.196160688996315,0.012933357618749142,-0.012540465220808983
1782845631763270100,4.107270263671875,-0.17949219048023224,0.03582850471138954,0.010836990550160408
1782845631773275100,4.117275146484375,-0.16381628811359406,0.06974146515130997,0.006753565743565559
1782845631783280000,4.127280029296875,-0.1724562644958496,0.054984480142593384,-0.005163129419088364
1782845631793285000,4.13728515625,-0.14931340515613556,0.04645943269133568,-0.053125862032175064
1782845631803290000,4.1472900390625,-0.14195525646209717,0.05256276950240135,-0.09927026927471161
1782845631813295000,4.157295166015625,-0.1492813527584076,0.05230977013707161,-0.12459585815668106
1782845631823300000,4.167300048828125,-0.1496773213148117,0.041128970682621,-0.1412385255098343
1782845631833305000,4.17730517578125,-0.14913776516914368,0.03812119737267494,-0.16003938019275665
1782845631843310000,4.18731005859375,-0.15238848328590393,0.04654797166585922,-0.18702879548072815
1782845631853315000,4.197315185546875,-0.14860840141773224,0.048671308904886246,-0.19485636055469513
1782845631863320000,4.207320068359375,-0.14057476818561554,0.05969401076436043,-0.18657286465168
1782845631873325000,4.217324951171875,-0.1270003616809845,0.04932233318686485,-0.13590063154697418
1782845631883330000,4.227330078125,-0.11761091649532318,0.02613113634288311,-0.061189111322164536
1782845631893335000,4.2373349609375,-0.1095346137881279,0.0010161958634853363,0.017143508419394493
1782845631903340000,4.247340087890625,-0.11087051779031754,-0.03718338534235954,0.0980997234582901
1782845631913345000,4.257344970703125,-0.11788448691368103,-0.05418793484568596,0.16025125980377197
1782845631923350000,4.26735009765625,-0.11547566205263138,-0.043940626084804535,0.19386327266693115
1782845631933355000,4.27735498046875,-0.11321676522493362,-0.05860691890120506,0.22387710213661194
1782845631943360000,4.287360107421875,-0.1266772598028183,-0.06051124632358551,0.23691122233867645
1782845631953365000,4.297364990234375,-0.13974221050739288,-0.054413143545389175,0.22514909505844116
1782845631963370000,4.307369873046875,-0.15913735330104828,-0.04151642322540283,0.19450002908706665
1782845631973375000,4.317375,-0.1737368106842041,-0.021073464304208755,0.15533877909183502
1782845631983380000,4.3273798828125,-0.18112817406654358,-0.002362556057050824,0.10657763481140137
1782845631993386000,4.337385986328125,-0.1808517426252365,-0.019104251638054848,0.04336697235703468
1782845632003391000,4.347390869140625,-0.17342166602611542,-0.024620868265628815,-0.012556063942611217
1782845632013396000,4.35739599609375,-0.1623799353837967,-0.04329948127269745,-0.07621865719556808
1782845632023401000,4.36740087890625,-0.15089185535907745,-0.06701306998729706,-0.14515618979930878
1782845632033406000,4.377406005859375,-0.14226481318473816,-0.08114460110664368,-0.19690513610839844
1782845632043411000,4.387410888671875,-0.1370517760515213,-0.1031864657998085,-0.23174898326396942
1782845632053416000,4.397416015625,-0.12870222330093384,-0.12408082187175751,-0.2408282309770584
1782845632063421000,4.4074208984375,-0.1277119517326355,-0.12555357813835144,-0.23011213541030884
1782845632073426000,4.417426025390625,-0.1237582191824913,-0.1281895786523819,-0.20396335422992706
1782845632083431000,4.427430908203125,-0.12922650575637817,-0.12848441302776337,-0.16632086038589478
1782845632093436000,4.437435791015625,-0.129595085978508,-0.11603441089391708,-0.14858128130435944
1782845632103441000,4.44744091796875,-0.1402842104434967,-0.09636083990335464,-0.13602899014949799
1782845632113446000,4.45744580078125,-0.1497613489627838,-0.0724797397851944,-0.11145627498626709
1782845632123451000,4.467450927734375,-0.16004295647144318,-0.049486853182315826,-0.06824492663145065
1782845632133456000,4.477455810546875,-0.157645583152771,-0.037136975675821304,-0.010159524157643318
1782845632143460900,4.4874609375,-0.1385001242160797,-0.03331374004483223,0.03894064575433731
1782845632153466000,4.497466064453125,-0.11136969178915024,-0.0321696475148201,0.08079701662063599
1782845632163471000,4.50747119140625,-0.0781342014670372,-0.03054783120751381,0.10516862571239471
1782845632173476000,4.51747607421875,-0.03692418336868286,-0.022808950394392014,0.1114417016506195
1782845632183481300,4.5274814453125,-0.004399346653372049,-0.009837394580245018,0.10724837332963943
1782845632193486300,4.537486328125,0.016270244494080544,-0.005901508964598179,0.08674842119216919
1782845632203491300,4.5474912109375,0.029500622302293777,0.010510610416531563,0.05265515670180321
1782845632213496300,4.557496337890625,0.03752685710787773,0.028293868526816368,0.018713172525167465
1782845632223501300,4.567501220703125,0.03389814496040344,0.05509320646524429,-0.002433808520436287
1782845632233506300,4.57750634765625,0.021327489987015724,0.07048441469669342,-0.02002185769379139
1782845632243511300,4.58751123046875,0.008139251731336117,0.092706099152565,-0.0262155719101429
1782845632253516300,4.597516357421875,0.00740448571741581,0.1173376739025116,-0.03688659146428108
1782845632263521300,4.607521240234375,0.026631975546479225,0.13712149858474731,-0.042793482542037964
1782845632273526300,4.6175263671875,0.055986400693655014,0.1383633315563202,-0.03730790317058563
1782845632283531300,4.62753125,0.09105970710515976,0.13262954354286194,-0.012276585213840008
1782845632293536300,4.637536376953125,0.10408283025026321,0.10947069525718689,0.015404577367007732
1782845632303541200,4.647541259765625,0.11513561755418777,0.08757193386554718,0.0424131415784359
1782845632313546200,4.657546142578125,0.1023724153637886,0.06241118907928467,0.029255259782075882
1782845632323551200,4.66755126953125,0.07351244240999222,0.06617403775453568,0.011609801091253757
1782845632333556200,4.67755615234375,0.05331476405262947,0.07252275198698044,0.010668640024960041
1782845632343561200,4.687561279296875,0.026461491361260414,0.07995440065860748,-0.0003905928460881114
1782845632353566200,4.697566162109375,-0.02236250601708889,0.10787072032690048,0.0002999648277182132
1782845632363571200,4.7075712890625,-0.08091498166322708,0.12634530663490295,-0.0020652636885643005
1782845632373576200,4.717576171875,-0.11240526288747787,0.1406765729188919,-0.011489125899970531
1782845632383581200,4.727581298828125,-0.12202225625514984,0.15859487652778625,-0.03552567958831787
1782845632393586200,4.737586181640625,-0.10805317759513855,0.17741356790065765,-0.060456328094005585
1782845632403591200,4.747591064453125,-0.08067864179611206,0.18209320306777954,-0.065284863114357
1782845632413596200,4.75759619140625,-0.04373474419116974,0.17555727064609528,-0.033215079456567764
1782845632423601200,4.76760107421875,0.007576367352157831,0.1567196547985077,0.025471709668636322
1782845632433606100,4.777606201171875,0.06863999366760254,0.153501495718956,0.0941583588719368
1782845632443611100,4.787611083984375,0.14057707786560059,0.1768627166748047,0.15879294276237488
1782845632453616000,4.7976162109375,0.20958198606967926,0.19993500411510468,0.20557801425457
1782845632463621000,4.80762109375,0.27408668398857117,0.21107794344425201,0.23437930643558502
1782845632473626000,4.817626220703125,0.33164823055267334,0.21926262974739075,0.2567514479160309
1782845632483631000,4.827631103515625,0.3688177764415741,0.21240748465061188,0.2649095356464386
1782845632493636000,4.837635986328125,0.37628474831581116,0.18701611459255219,0.246061310172081
1782845632503641000,4.84764111328125,0.37079060077667236,0.1585632562637329,0.17944201827049255
1782845632513646000,4.85764599609375,0.3596724569797516,0.14294195175170898,0.05974651500582695
1782845632523651000,4.867651123046875,0.35453376173973083,0.11472644656896591,-0.10704208165407181
1782845632533656000,4.877656005859375,0.35502803325653076,0.08299301564693451,-0.27397435903549194
1782845632543661000,4.8876611328125,0.35703444480895996,0.05689132586121559,-0.40260469913482666
1782845632553666000,4.897666015625,0.3623184263706207,0.016786783933639526,-0.4528726637363434
1782845632563671000,4.907671142578125,0.3828766345977783,-0.030774030834436417,-0.43008047342300415
1782845632573676000,4.917676025390625,0.43032804131507874,-0.062123965471982956,-0.35105037689208984
1782845632583681000,4.927680908203125,0.475688636302948,-0.08219414949417114,-0.23130080103874207
1782845632593687000,4.93768701171875,0.5161157250404358,-0.09365692734718323,-0.09452858567237854
1782845632603692000,4.947692138671875,0.5472399592399597,-0.0928916484117508,0.05443038418889046
1782845632613697000,4.957697021484375,0.5626024007797241,-0.07348280400037766,0.17225554585456848
1782845632623702000,4.967701904296875,0.5722604393959045,-0.035577837377786636,0.26280853152275085
1782845632633707000,4.97770703125,0.5800470113754272,0.018998587504029274,0.3308680057525635
1782845632643712000,4.9877119140625,0.5715721249580383,0.06353206187486649,0.378593772649765
1782845632653717000,4.997717041015625,0.5429969429969788,0.09582129120826721,0.4284113943576813
1782845632663722000,5.007721923828125,0.4942864179611206,0.0976678878068924,0.4696979224681854
1782845632673727000,5.01772705078125,0.42479896545410156,0.08538192510604858,0.5048884153366089
1782845632683732000,5.02773193359375,0.34914717078208923,0.06143739074468613,0.516956090927124
1782845632693737000,5.037737060546875,0.27048537135124207,0.039954736828804016,0.49847909808158875
1782845632703742000,5.047741943359375,0.19331012666225433,0.021514523774385452,0.45696204900741577
1782845632713747000,5.057746826171875,0.1304430216550827,0.01481534168124199,0.3863515257835388
1782845632723752000,5.067751953125,0.08502914011478424,0.017685988917946815,0.2893129587173462
1782845632733757000,5.0777568359375,0.0539814792573452,0.023345204070210457,0.1856858730316162
1782845632743762000,5.087761962890625,0.03538724407553673,0.03912688046693802,0.09091014415025711
1782845632753767000,5.097766845703125,0.036575544625520706,0.047644998878240585,0.009665615856647491
1782845632763772000,5.10777197265625,0.05134979635477066,0.05355421453714371,-0.0507911816239357
1782845632773777000,5.11777685546875,0.07085824757814407,0.048912327736616135,-0.07903720438480377
1782845632783782000,5.127781982421875,0.0845087543129921,0.04256124421954155,-0.08475226908922195
1782845632793787000,5.137786865234375,0.09753268212080002,0.058300524950027466,-0.06829553097486496
1782845632803792000,5.1477919921875,0.09060558676719666,0.08465620875358582,-0.030774330720305443
1782845632813797000,5.157797119140625,0.08099530637264252,0.10534177720546722,0.027234110981225967
1782845632823802000,5.167802001953125,0.06727533042430878,0.1048026829957962,0.10197854042053223
1782845632833807000,5.17780712890625,0.04838765785098076,0.09072228521108627,0.1669793725013733
1782845632843812000,5.18781201171875,0.031213637441396713,0.07773146033287048,0.18592548370361328
1782845632853817300,5.1978173828125,0.014955836348235607,0.06543191522359848,0.16629666090011597
1782845632863822300,5.207822265625,0.012137878686189651,0.05122794583439827,0.13106927275657654
1782845632873827300,5.217827392578125,0.020832300186157227,0.0581633485853672,0.07951180636882782
1782845632883832300,5.227832275390625,0.03146304935216904,0.07094267010688782,0.03724052011966705
1782845632893837300,5.23783740234375,0.042337268590927124,0.07929114252328873,0.007734027225524187
1782845632903842300,5.24784228515625,0.05503497272729874,0.09651238471269608,-0.01720644161105156
1782845632913847300,5.257847412109375,0.07240889966487885,0.12152718752622604,-0.051109544932842255
1782845632923852300,5.267852294921875,0.09103305637836456,0.13714784383773804,-0.08675264567136765
1782845632933857300,5.277857177734375,0.1100299209356308,0.13869087398052216,-0.12807132303714752
1782845632943862300,5.2878623046875,0.13321365416049957,0.13502143323421478,-0.14358729124069214
1782845632953867500,5.297867431640625,0.16212360560894012,0.12550009787082672,-0.1549411416053772
1782845632963872500,5.30787255859375,0.1761448234319687,0.1113777607679367,-0.17800065875053406
1782845632973877500,5.31787744140625,0.17842236161231995,0.07703790068626404,-0.19139476120471954
1782845632983882500,5.327882568359375,0.16909503936767578,0.04268220067024231,-0.18754184246063232
1782845632993887500,5.337887451171875,0.14449168741703033,0.011252637021243572,-0.16201065480709076
1782845633003892500,5.347892578125,0.10631672292947769,-0.010368138551712036,-0.11165168136358261
1782845633013897500,5.3578974609375,0.06036148592829704,-0.01021181046962738,-0.04677814245223999
1782845633023902500,5.36790234375,0.011088116094470024,-0.013134823180735111,0.02704719454050064
1782845633033907500,5.377907470703125,-0.020752904936671257,-0.009523842483758926,0.09490320086479187
1782845633043912400,5.387912353515625,-0.04333164542913437,-0.00282105291262269,0.14813841879367828
1782845633053917400,5.39791748046875,-0.06050104275345802,0.005699464585632086,0.19413360953330994
1782845633063922400,5.40792236328125,-0.07906278967857361,0.017439112067222595,0.2243673950433731
1782845633073927400,5.417927490234375,-0.09950734674930573,0.02006019651889801,0.24803942441940308
1782845633083932400,5.427932373046875,-0.11593588441610336,0.015285486355423927,0.24892890453338623
1782845633093937400,5.4379375,-0.1340315341949463,0.004190756473690271,0.23974260687828064
1782845633103942400,5.4479423828125,-0.1457412987947464,-0.019320644438266754,0.21537084877490997
1782845633113947400,5.457947509765625,-0.16132958233356476,-0.04378524050116539,0.18885082006454468
1782845633123952400,5.467952392578125,-0.1845443695783615,-0.0674746111035347,0.16965052485466003
1782845633133957400,5.477957275390625,-0.2129586935043335,-0.07253728061914444,0.14346472918987274
1782845633143962400,5.48796240234375,-0.2425617128610611,-0.06719297170639038,0.1193682998418808
1782845633153967400,5.49796728515625,-0.2734171152114868,-0.06338784843683243,0.0818566083908081
1782845633163972400,5.507972412109375,-0.3078901171684265,-0.054593801498413086,0.03859298676252365
1782845633173978400,5.517978271484375,-0.3333720564842224,-0.05489953234791756,-0.006681548897176981
1782845633183982300,5.527982421875,-0.3529220521450043,-0.05841303989291191,-0.05521952360868454
1782845633193987300,5.5379873046875,-0.3732776641845703,-0.06787418574094772,-0.10546032339334488
1782845633203993300,5.547993408203125,-0.38304948806762695,-0.07052184641361237,-0.14319945871829987
1782845633213998300,5.557998291015625,-0.3824002146720886,-0.06753085553646088,-0.17827914655208588
1782845633224003300,5.56800341796875,-0.3738378882408142,-0.059474967420101166,-0.20735237002372742
1782845633234008300,5.57800830078125,-0.357900470495224,-0.04696982353925705,-0.22316649556159973
1782845633244013300,5.588013427734375,-0.33640986680984497,-0.04549223184585571,-0.21662096679210663
1782845633254018300,5.598018310546875,-0.30902883410453796,-0.022345099598169327,-0.1866670697927475
1782845633264023300,5.608023193359375,-0.28154388070106506,-0.022052006796002388,-0.12786158919334412
1782845633274028300,5.6180283203125,-0.25321584939956665,-0.03277069702744484,-0.05829688161611557
1782845633284033300,5.628033203125,-0.22313067317008972,-0.04257587715983391,-0.005906076170504093
1782845633294038300,5.638038330078125,-0.20024186372756958,-0.0460214726626873,0.019858941435813904
1782845633304043300,5.648043212890625,-0.16980904340744019,-0.06721098721027374,0.04501451551914215
1782845633314048300,5.65804833984375,-0.151963472366333,-0.09670230001211166,0.052254319190979004
1782845633324053200,5.66805322265625,-0.13891708850860596,-0.12045515328645706,0.049631599336862564
1782845633334058200,5.678058349609375,-0.1364012062549591,-0.13697634637355804,0.04314839839935303
1782845633344063200,5.688063232421875,-0.14539755880832672,-0.13879208266735077,0.04133147746324539
1782845633354068200,5.698068115234375,-0.15106822550296783,-0.13528762757778168,0.04540105536580086
1782845633364073200,5.7080732421875,-0.16610278189182281,-0.12506017088890076,0.05188744515180588
1782845633374078200,5.718078125,-0.18542933464050293,-0.11940627545118332,0.061136338859796524
1782845633384083200,5.728083251953125,-0.1976912021636963,-0.12062773108482361,0.08129525184631348
1782845633394088200,5.738088134765625,-0.2258101850748062,-0.11589475721120834,0.10203061997890472
1782845633404093200,5.74809326171875,-0.25554952025413513,-0.10868442058563232,0.12160760164260864
1782845633414098200,5.75809814453125,-0.28549063205718994,-0.10034686326980591,0.13314388692378998
1782845633424103200,5.768103271484375,-0.3096238076686859,-0.10171584784984589,0.14463047683238983
1782845633434108200,5.778108154296875,-0.3224615752696991,-0.10322186350822449,0.1521107703447342
1782845633444113200,5.788113037109375,-0.31594085693359375,-0.10607776790857315,0.14979276061058044
1782845633454118100,5.7981181640625,-0.30230122804641724,-0.11963804811239243,0.134867861866951
1782845633464123100,5.808123046875,-0.27880117297172546,-0.11961229145526886,0.1137378066778183
1782845633474128100,5.818128173828125,-0.26055800914764404,-0.1141836941242218,0.09508795291185379
1782845633484133000,5.828133056640625,-0.24304118752479553,-0.11276571452617645,0.08400589227676392
1782845633494138400,5.838138427734375,-0.2299749255180359,-0.10529101639986038,0.07100247591733932
1782845633504143400,5.848143310546875,-0.21728822588920593,-0.10360243171453476,0.07220436632633209
1782845633514148400,5.8581484375,-0.19806578755378723,-0.09447178244590759,0.06866822391748428
1782845633524153300,5.8681533203125,-0.18039865791797638,-0.0866815522313118,0.07803010195493698
1782845633534158600,5.87815869140625,-0.15822677314281464,-0.07469785958528519,0.10031729936599731
1782845633544163600,5.88816357421875,-0.13422013819217682,-0.07160928845405579,0.13013024628162384
1782845633554168600,5.89816845703125,-0.10524360835552216,-0.0744255855679512,0.15139292180538177
1782845633564173600,5.908173583984375,-0.08114510029554367,-0.07087565958499908,0.15020982921123505
1782845633574178600,5.918178466796875,-0.05418352410197258,-0.04912722855806351,0.11443772166967392
1782845633584183600,5.92818359375,-0.0357661098241806,-0.03079378604888916,0.04247690364718437
1782845633594188500,5.9381884765625,-0.021384775638580322,-0.013725319877266884,-0.056307464838027954
1782845633604193500,5.948193603515625,-0.007386614568531513,0.006904567126184702,-0.16670967638492584
1782845633614198500,5.958198486328125,-0.02411712519824505,0.01566237211227417,-0.26857054233551025
1782845633624203500,5.96820361328125,-0.05505019798874855,0.021900173276662827,-0.3370228409767151
1782845633634208500,5.97820849609375,-0.07949961721897125,0.005381651222705841,-0.36694321036338806
1782845633644213500,5.988213623046875,-0.08500120043754578,-0.010734396055340767,-0.3736562430858612
1782845633654218500,5.998218505859375,-0.08495033532381058,-0.04457491636276245,-0.3572932481765747
1782845633664223500,6.008223388671875,-0.07426717132329941,-0.08536302298307419,-0.3163289427757263
1782845633674228500,6.018228515625,-0.058825090527534485,-0.12312717735767365,-0.2712424099445343
1782845633684233500,6.0282333984375,-0.040744148194789886,-0.14137406647205353,-0.22726155817508698
1782845633694238500,6.038238525390625,-0.0050806924700737,-0.15620601177215576,-0.1824813038110733
1782845633704243500,6.048243408203125,0.04048525169491768,-0.15526273846626282,-0.12393098324537277
1782845633714248400,6.05824853515625,0.10186178982257843,-0.1538054645061493,-0.0493646040558815
1782845633724253400,6.06825341796875,0.15450601279735565,-0.14711642265319824,0.041238147765398026
1782845633734258400,6.078258544921875,0.1948353350162506,-0.14618457853794098,0.13197895884513855
1782845633744263400,6.088263427734375,0.22745603322982788,-0.15171095728874207,0.20874245464801788
1782845633754268400,6.098268310546875,0.24632053077220917,-0.16199155151844025,0.264036625623703
1782845633764273400,6.1082734375,0.2456589937210083,-0.1735406219959259,0.2969546318054199
1782845633774278400,6.1182783203125,0.2414485365152359,-0.17234033346176147,0.30033791065216064
1782845633784283400,6.128283447265625,0.23172695934772491,-0.15326926112174988,0.28276267647743225
1782845633794288400,6.138288330078125,0.21371173858642578,-0.12920521199703217,0.2521347105503082
1782845633804293400,6.14829345703125,0.19421634078025818,-0.09450102597475052,0.21175293624401093
1782845633814298400,6.15829833984375,0.17523278295993805,-0.056276146322488785,0.1777006983757019
1782845633824304400,6.168304443359375,0.1367207169532776,-0.01784922368824482,0.15179885923862457
1782845633834308400,6.178308349609375,0.0984625294804573,0.021006828173995018,0.1117371991276741
1782845633844313300,6.188313232421875,0.059539247304201126,0.03956136479973793,0.062259312719106674
1782845633854319400,6.1983193359375,0.01852896250784397,0.03335220366716385,0.00982620008289814
1782845633864324400,6.208324462890625,-0.0088992053642869,0.013933084905147552,-0.04102746397256851
1782845633874329300,6.218329345703125,-0.029051344841718674,-0.010800756514072418,-0.10007693618535995
1782845633884334300,6.228334228515625,-0.049061380326747894,-0.05287652462720871,-0.14254115521907806
1782845633894339300,6.23833935546875,-0.06255588680505753,-0.0933656245470047,-0.17182794213294983
1782845633904344300,6.24834423828125,-0.07517017424106598,-0.12599167227745056,-0.19147658348083496
1782845633914349300,6.258349365234375,-0.0795566663146019,-0.1520959734916687,-0.19242067635059357
1782845633924354300,6.268354248046875,-0.08406990766525269,-0.16299478709697723,-0.1756134331226349
1782845633934359300,6.278359375,-0.0847889631986618,-0.17318058013916016,-0.14279769361019135
1782845633944364300,6.2883642578125,-0.08988406509160995,-0.1699252873659134,-0.10662850737571716
1782845633954369500,6.29836962890625,-0.09882882237434387,-0.16528978943824768,-0.06250978261232376
1782845633964374500,6.30837451171875,-0.09546420723199844,-0.14977438747882843,-0.03290665149688721
1782845633974379500,6.318379638671875,-0.09467271715402603,-0.13463884592056274,-0.0060270982794463634
1782845633984384500,6.328384521484375,-0.0841914489865303,-0.11642322689294815,0.01769435964524746
1782845633994389500,6.338389404296875,-0.07117844372987747,-0.10239022970199585,0.027131536975502968
1782845634004394500,6.34839453125,-0.06287093460559845,-0.08188553154468536,0.016967013478279114
1782845634014399500,6.3583994140625,-0.04572044685482979,-0.06368549168109894,-0.008311178535223007
1782845634024404500,6.368404541015625,-0.026789534837007523,-0.05267233029007912,-0.0399794727563858
1782845634034409500,6.378409423828125,-0.00844621378928423,-0.058444198220968246,-0.060323093086481094
1782845634044414500,6.38841455078125,0.003731731791049242,-0.07180719822645187,-0.07526357471942902
1782845634054419500,6.39841943359375,0.012866640463471413,-0.08615177869796753,-0.10476234555244446
1782845634064424400,6.408424560546875,0.019172968342900276,-0.09620235115289688,-0.1395830661058426
1782845634074429400,6.418429443359375,0.01746508479118347,-0.10060881823301315,-0.17996324598789215
1782845634084434400,6.428434326171875,0.010406176559627056,-0.09583324193954468,-0.21513545513153076
1782845634094439400,6.438439453125,0.005145101808011532,-0.08850342035293579,-0.23611851036548615
1782845634104444400,6.4484443359375,-0.011536605656147003,-0.07491091638803482,-0.2416694462299347
1782845634114449400,6.458449462890625,-0.01747971586883068,-0.0820910632610321,-0.23090948164463043
1782845634124454400,6.468454345703125,-0.021900618448853493,-0.08265455812215805,-0.2124294638633728
1782845634134459400,6.47845947265625,-0.020944010466337204,-0.07524218410253525,-0.18274374306201935
1782845634144464400,6.48846435546875,-0.018390651792287827,-0.06715791672468185,-0.13796944916248322
1782845634154469400,6.498469482421875,-0.015044122003018856,-0.057717543095350266,-0.08572410047054291
1782845634164474400,6.508474365234375,-0.01090265903621912,-0.03838875889778137,-0.042765215039253235
1782845634174479400,6.518479248046875,0.0018573447596281767,-0.020406560972332954,-0.016163164749741554
1782845634184484600,6.528484619140625,0.010392412543296814,-0.011703277006745338,-0.010056955739855766
1782845634194489600,6.538489501953125,0.025629956275224686,-0.014162175357341766,-0.026669487357139587
1782845634204494600,6.54849462890625,0.03673655912280083,-0.030863074585795403,-0.06230243295431137
1782845634214499600,6.55849951171875,0.040407195687294006,-0.0524597093462944,-0.11556246131658554
1782845634224504600,6.568504638671875,0.04817816987633705,-0.06149061396718025,-0.16140146553516388
1782845634234509600,6.578509521484375,0.05375776067376137,-0.05599385127425194,-0.19626784324645996
1782845634244514600,6.5885146484375,0.05808987468481064,-0.030772212892770767,-0.21324020624160767
1782845634254519600,6.59851953125,0.050306517630815506,0.007022568956017494,-0.20632503926753998
1782845634264524500,6.608524658203125,0.04122437909245491,0.033924300223588943,-0.18194639682769775
1782845634274529500,6.618529541015625,0.03292437270283699,0.04700494930148125,-0.15340717136859894
1782845634284534500,6.628534423828125,0.025890739634633064,0.052045464515686035,-0.13584443926811218
1782845634294539500,6.63853955078125,0.017785940319299698,0.05008857697248459,-0.1329522579908371
1782845634304544500,6.64854443359375,0.013963935896754265,0.04702905938029289,-0.14566242694854736
1782845634314549500,6.658549560546875,0.0015669206622987986,0.04599814862012863,-0.14817938208580017
1782845634324554800,6.6685546875,-0.01865454576909542,0.05115785449743271,-0.13659720122814178
1782845634334559700,6.678559814453125,-0.0360894612967968,0.060769204050302505,-0.12883327901363373
1782845634344564700,6.688564697265625,-0.04836514592170715,0.08140449225902557,-0.12086762487888336
1782845634354569700,6.69856982421875,-0.055539701133966446,0.09301774203777313,-0.10884291678667068
1782845634364574700,6.70857470703125,-0.05895097553730011,0.09557843953371048,-0.0927228033542633
1782845634374579700,6.718579833984375,-0.056627899408340454,0.09351848065853119,-0.06543312966823578
1782845634384584700,6.728584716796875,-0.04332560673356056,0.0886189416050911,-0.039145637303590775
1782845634394589700,6.738589599609375,-0.019999507814645767,0.0877414345741272,-0.023264409974217415
1782845634404594700,6.7485947265625,0.007417256943881512,0.08820772916078568,-0.01769954338669777
1782845634414599700,6.758599609375,0.039484377950429916,0.08950202912092209,-0.028448062017560005
1782845634424604700,6.768604736328125,0.05849393829703331,0.08565784990787506,-0.02737419866025448
1782845634434609700,6.778609619140625,0.07516159862279892,0.08002926409244537,-0.039514750242233276
1782845634444614700,6.78861474609375,0.0910329669713974,0.08349776268005371,-0.04778200387954712
1782845634454619600,6.79861962890625,0.10125631093978882,0.09212640672922134,-0.05861041694879532
1782845634464624600,6.808624755859375,0.10867387801408768,0.10902667790651321,-0.06415310502052307
1782845634474629600,6.818629638671875,0.12244907766580582,0.13089390099048615,-0.07032284885644913
1782845634484634600,6.828634521484375,0.14016912877559662,0.15401235222816467,-0.05812202766537666
1782845634494639600,6.8386396484375,0.15717022120952606,0.1619725376367569,-0.028725257143378258
1782845634504644600,6.84864453125,0.1715397983789444,0.16418993473052979,0.013832892291247845
1782845634514649600,6.858649658203125,0.18153490126132965,0.16149374842643738,0.06491126120090485
1782845634524654600,6.868654541015625,0.17710982263088226,0.15596546232700348,0.10760095715522766
1782845634534660600,6.87866064453125,0.16928865015506744,0.15543922781944275,0.14742107689380646
1782845634544664600,6.88866455078125,0.14714208245277405,0.1540381759405136,0.17111864686012268
1782845634554669600,6.898669677734375,0.12285298109054565,0.1520266830921173,0.17440232634544373
1782845634564675600,6.908675537109375,0.09661445021629333,0.15210190415382385,0.1593809574842453
1782845634574680600,6.9186806640625,0.08560973405838013,0.1553110033273697,0.12406478077173233
1782845634584685600,6.928685546875,0.07463543117046356,0.15527382493019104,0.08488891273736954
1782845634594690600,6.938690673828125,0.06932375580072403,0.15436728298664093,0.05329291149973869
1782845634604695600,6.948695556640625,0.06684638559818268,0.14709345996379852,0.03050941228866577
1782845634614700500,6.958700439453125,0.0629669651389122,0.13745015859603882,0.015591715462505817
1782845634624705500,6.96870556640625,0.062476035207509995,0.11542254686355591,0.006458714604377747
1782845634634710500,6.97871044921875,0.0606648214161396,0.09577614068984985,-0.0009435416432097554
1782845634644715500,6.988715576171875,0.06530056893825531,0.08317403495311737,0.014374198392033577
1782845634654720500,6.998720458984375,0.07795590907335281,0.06335852295160294,0.0636511966586113
1782845634664725500,7.0087255859375,0.10482577979564667,0.04815780371427536,0.1262182891368866
1782845634674730500,7.01873046875,0.1451990306377411,0.04293481260538101,0.18501928448677063
1782845634684735500,7.028735595703125,0.19314733147621155,0.04594607651233673,0.22608956694602966
1782845634694740500,7.038740478515625,0.24960795044898987,0.06657598912715912,0.2520497739315033
1782845634704745500,7.048745361328125,0.30273446440696716,0.07497675716876984,0.28222376108169556
1782845634714750500,7.05875048828125,0.352771520614624,0.06592920422554016,0.3100804090499878
1782845634724755500,7.06875537109375,0.4073618948459625,0.04051562398672104,0.3270518481731415
1782845634734760400,7.078760498046875,0.45778271555900574,0.010960127227008343,0.35351330041885376
1782845634744765400,7.088765380859375,0.5150961875915527,-0.008309198543429375,0.3695704936981201
1782845634754770400,7.0987705078125,0.5586279034614563,-0.00852331705391407,0.34725773334503174
1782845634764775400,7.108775390625,0.5795601606369019,0.0368368998169899,0.2695774734020233
1782845634774780400,7.118780517578125,0.5640438199043274,0.10332697629928589,0.15074482560157776
1782845634784785400,7.128785400390625,0.5401754379272461,0.1692184954881668,0.010558727197349072
1782845634794790400,7.138790283203125,0.5122495293617249,0.20498234033584595,-0.09832274913787842
1782845634804795400,7.14879541015625,0.48226645588874817,0.2054590880870819,-0.1357668787240982
1782845634814800400,7.15880029296875,0.4587659239768982,0.18617194890975952,-0.09430970996618271
1782845634824805400,7.168805419921875,0.42928677797317505,0.13043713569641113,-0.011543916538357735
1782845634834810400,7.178810302734375,0.3918544352054596,0.04117436707019806,0.08802928030490875
1782845634844815600,7.188815673828125,0.35363271832466125,-0.05716835334897041,0.19675439596176147
1782845634854820600,7.198820556640625,0.32800859212875366,-0.1315310001373291,0.2933770716190338
1782845634864825600,7.20882568359375,0.309552937746048,-0.16150572896003723,0.37585726380348206
1782845634874830600,7.21883056640625,0.2901856303215027,-0.1436084806919098,0.46340468525886536
1782845634884835600,7.228835693359375,0.26667487621307373,-0.09610209614038467,0.5553717017173767
1782845634894840600,7.238840576171875,0.23795057833194733,-0.04085082560777664,0.6210196614265442
1782845634904845600,7.248845458984375,0.19764313101768494,0.028823763132095337,0.6502905488014221
1782845634914850600,7.2588505859375,0.17920845746994019,0.086417555809021,0.6659832000732422
1782845634924855600,7.26885546875,0.15885047614574432,0.10555480420589447,0.6658645868301392
1782845634934860500,7.278860595703125,0.13479015231132507,0.09847772121429443,0.6389959454536438
1782845634944865500,7.288865478515625,0.10058588534593582,0.08858977258205414,0.5471723079681396
1782845634954870300,7.298870361328125,0.0536668486893177,0.07407208532094955,0.3936898410320282
1782845634964875300,7.308875244140625,0.002403032733127475,0.05868387967348099,0.2098708301782608
1782845634974880300,7.31888037109375,-0.058601997792720795,0.023778891190886497,0.02567516453564167
1782845634984885200,7.32888525390625,-0.13564519584178925,-0.006418572273105383,-0.14273004233837128
1782845634994890200,7.33889013671875,-0.20437578856945038,-0.03287947550415993,-0.2785927951335907
1782845635004895200,7.348895263671875,-0.2578578293323517,-0.05589644983410835,-0.40153321623802185
1782845635014900200,7.358900146484375,-0.29787981510162354,-0.0701102688908577,-0.49880412220954895
1782845635024905200,7.3689052734375,-0.3281101584434509,-0.047486189752817154,-0.5486313104629517
1782845635034910200,7.37891015625,-0.34621724486351013,0.007413014303892851,-0.5520904660224915
1782845635044915200,7.388915283203125,-0.3480924665927887,0.08832873404026031,-0.4861047565937042
1782845635054920200,7.398920166015625,-0.3309883177280426,0.17906129360198975,-0.34642595052719116
1782845635064925200,7.40892529296875,-0.3075907528400421,0.2662653625011444,-0.1770457923412323
1782845635074930200,7.41893017578125,-0.2923353612422943,0.3279455006122589,0.009141923859715462
1782845635084935200,7.42893505859375,-0.28125354647636414,0.35870158672332764,0.1711197793483734
1782845635094940200,7.438940185546875,-0.267746239900589,0.3389342725276947,0.2803826332092285
1782845635104945200,7.448945068359375,-0.2577892243862152,0.27191367745399475,0.33677828311920166
1782845635114950100,7.4589501953125,-0.22586965560913086,0.1820727288722992,0.35432904958724976
1782845635124955100,7.468955078125,-0.17874565720558167,0.08980661630630493,0.33922502398490906
1782845635134960000,7.478960205078125,-0.13182102143764496,0.039511486887931824,0.3121129870414734
1782845635144965000,7.488965087890625,-0.09548178315162659,0.033387985080480576,0.2683783769607544
1782845635154970000,7.49897021484375,-0.05597405135631561,0.05202239006757736,0.21136939525604248
1782845635164975000,7.50897509765625,-0.017782511189579964,0.07856880128383636,0.15066617727279663
1782845635174980000,7.51897998046875,0.0034711116459220648,0.10031910240650177,0.08617027848958969
1782845635184985000,7.528985107421875,0.015136821195483208,0.10124269127845764,0.03359974920749664
1782845635194990000,7.538989990234375,0.027149276807904243,0.0971243754029274,-0.013624756596982479
1782845635204995000,7.5489951171875,0.05735953897237778,0.1066480353474617,-0.0693681389093399
1782845635215000000,7.559,0.08325984328985214,0.11354774981737137,-0.1299675703048706
1782845635225005000,7.569005126953125,0.1030050665140152,0.11977383494377136,-0.19313502311706543
1782845635235010000,7.579010009765625,0.11781037598848343,0.11727578938007355,-0.24065779149532318
1782845635245015000,7.58901513671875,0.1294192373752594,0.10689575970172882,-0.2711772620677948
1782845635255020000,7.59902001953125,0.1383908987045288,0.09725085645914078,-0.2867213487625122
1782845635265025000,7.60902490234375,0.14252272248268127,0.09088201820850372,-0.270979106426239
1782845635275030000,7.619030029296875,0.14046062529087067,0.07602690905332565,-0.22408002614974976
1782845635285035000,7.629034912109375,0.12710323929786682,0.05262109637260437,-0.17064222693443298
1782845635295040300,7.639040283203125,0.09992727637290955,0.042120784521102905,-0.1342967301607132
1782845635305045200,7.649045166015625,0.05670899152755737,0.03649463504552841,-0.10573387145996094
1782845635315050200,7.65905029296875,-0.0017021213425323367,0.04653209075331688,-0.07528115808963776
1782845635325055200,7.66905517578125,-0.05881958454847336,0.05533267557621002,-0.030672064051032066
1782845635335060200,7.679060302734375,-0.10291486978530884,0.07011135667562485,0.003109333338215947
1782845635345065200,7.689065185546875,-0.1357191950082779,0.08198045939207077,0.03498188778758049
1782845635355070200,7.6990703125,-0.16797620058059692,0.08529210090637207,0.04964418709278107
1782845635365075200,7.7090751953125,-0.19263802468776703,0.07747034728527069,0.06648001074790955
1782845635375080200,7.719080078125,-0.21048332750797272,0.07178556174039841,0.06840787082910538
1782845635385085200,7.729085205078125,-0.21440143883228302,0.07029741257429123,0.05543489009141922
1782845635395090200,7.739090087890625,-0.21503287553787231,0.07299892604351044,0.03021501936018467
1782845635405095200,7.74909521484375,-0.2135162651538849,0.08529488742351532,-0.01098940335214138
1782845635415101000,7.759100830078125,-0.21464037895202637,0.09804317355155945,-0.054326754063367844
1782845635425106200,7.769106201171875,-0.21444904804229736,0.10565245151519775,-0.10459160804748535
1782845635435111200,7.779111083984375,-0.21068227291107178,0.10257942974567413,-0.15702363848686218
1782845635445116200,7.7891162109375,-0.2019079178571701,0.1003071516752243,-0.19727547466754913
1782845635455121200,7.79912109375,-0.18358537554740906,0.08910935372114182,-0.2283889204263687
1782845635465126100,7.809126220703125,-0.17109619081020355,0.07497668266296387,-0.2332281470298767
1782845635475131100,7.819131103515625,-0.16306914389133453,0.06017723307013512,-0.22921930253505707
1782845635485136100,7.82913623046875,-0.15695738792419434,0.03688844293355942,-0.21085108816623688
1782845635495141000,7.83914111328125,-0.1454341560602188,0.0035182374995201826,-0.18490737676620483
1782845635505146000,7.84914599609375,-0.14369992911815643,-0.032988399267196655,-0.15679234266281128
1782845635515151000,7.859151123046875,-0.1509367972612381,-0.05124463513493538,-0.13734540343284607
1782845635525156000,7.869156005859375,-0.15815164148807526,-0.05226532742381096,-0.12144838273525238
1782845635535161000,7.8791611328125,-0.16709160804748535,-0.05047088861465454,-0.09730549901723862
1782845635545166000,7.889166015625,-0.18348640203475952,-0.03595421090722084,-0.06698073446750641
1782845635555171000,7.899171142578125,-0.18983671069145203,-0.018886813893914223,-0.03457272797822952
1782845635565176000,7.909176025390625,-0.19784416258335114,-0.01930156536400318,0.00714790029451251
1782845635575181000,7.91918115234375,-0.2024138867855072,-0.01904457062482834,0.04591687023639679
1782845635585186000,7.92918603515625,-0.20230697095394135,-0.017159221693873405,0.08490146696567535
1782845635595191000,7.93919091796875,-0.18887051939964294,-0.027142614126205444,0.11809351295232773
1782845635605196000,7.949196044921875,-0.15754878520965576,-0.03165023401379585,0.14653199911117554
1782845635615201000,7.959200927734375,-0.1136535033583641,-0.032327741384506226,0.1678982824087143
1782845635625206000,7.9692060546875,-0.0743444487452507,-0.034176506102085114,0.18593640625476837
1782845635635211000,7.9792109375,-0.04239397868514061,-0.0329008549451828,0.1759873628616333
1782845635645216000,7.989216064453125,-0.02256026491522789,-0.028048137202858925,0.1465686857700348
1782845635655221200,7.99922119140625,-0.021256914362311363,-0.027134671807289124,0.09851593524217606
1782845635665226200,8.009226318359374,-0.01568983495235443,-0.03084004670381546,0.041203975677490234
1782845635675231200,8.019231201171875,-0.014202460646629333,-0.045381173491477966,-0.027881350368261337
1782845635685236200,8.029236328125,-0.0072729457169771194,-0.05941329896450043,-0.10526668280363083
1782845635695241200,8.0392412109375,0.0024651694111526012,-0.0810011476278305,-0.16228468716144562
1782845635705246200,8.04924609375,0.01137861143797636,-0.0994715467095375,-0.19546383619308472
1782845635715251200,8.059251220703125,0.02608112432062626,-0.12375158071517944,-0.19959358870983124
1782845635725256200,8.069256103515626,0.041293591260910034,-0.14480222761631012,-0.18182122707366943
1782845635735261200,8.07926123046875,0.05274811387062073,-0.16185791790485382,-0.16148746013641357
1782845635745266200,8.08926611328125,0.057249557226896286,-0.1680488884449005,-0.14419889450073242
1782845635755271200,8.099271240234375,0.052493151277303696,-0.1835990846157074,-0.11345403641462326
1782845635765276200,8.109276123046875,0.045676469802856445,-0.19200773537158966,-0.09552769362926483
1782845635775281200,8.11928125,0.033758558332920074,-0.19811221957206726,-0.07146763056516647
1782845635785286100,8.1292861328125,0.013365027494728565,-0.20873577892780304,-0.03700697794556618
1782845635795291100,8.139291015625,-0.005445411894470453,-0.21009665727615356,0.007874210365116596
1782845635805296000,8.149296142578125,-0.019948430359363556,-0.22742661833763123,0.05226663872599602
1782845635815301000,8.159301025390626,-0.03110787272453308,-0.24420559406280518,0.10838130861520767
1782845635825306000,8.16930615234375,-0.023992665112018585,-0.2654299736022949,0.17668309807777405
1782845635835311000,8.17931103515625,-0.018078049644827843,-0.270764023065567,0.26777544617652893
1782845635845316000,8.189316162109375,-0.01248199213296175,-0.26063382625579834,0.3576449155807495
1782845635855321000,8.199321044921875,-0.021735411137342453,-0.22977179288864136,0.42451050877571106
1782845635865326000,8.209326171875,-0.04263295605778694,-0.1843893676996231,0.43724411725997925
1782845635875331000,8.2193310546875,-0.07224491238594055,-0.12233425676822662,0.39063215255737305
1782845635885336000,8.229336181640624,-0.10245218127965927,-0.022191602736711502,0.2907581329345703
1782845635895341000,8.239341064453125,-0.16369183361530304,0.025338897481560707,0.12492760270833969
1782845635905346000,8.249345947265626,-0.23493990302085876,0.06167801842093468,-0.059201255440711975
1782845635915351000,8.25935107421875,-0.28949663043022156,0.0571245476603508,-0.24292847514152527
1782845635925356000,8.26935595703125,-0.32992878556251526,0.01993698999285698,-0.391062468290329
1782845635935361000,8.279361083984375,-0.3413015604019165,-0.0027025421150028706,-0.45133087038993835
1782845635945366300,8.2893662109375,-0.3085971772670746,-0.014051265083253384,-0.42107629776000977
1782845635955372000,8.2993720703125,-0.24462297558784485,-0.031100556254386902,-0.31611019372940063
1782845635965377000,8.309376953125,-0.16932061314582825,-0.04389007017016411,-0.18840642273426056
1782845635975382000,8.319382080078125,-0.07641249895095825,-0.0642043948173523,-0.06206260249018669
1782845635985387000,8.329386962890625,0.04065021499991417,-0.10106145590543747,0.05487916246056557
1782845635995392000,8.33939208984375,0.184650257229805,-0.1316595822572708,0.1354541778564453
1782845636005397000,8.34939697265625,0.3224753737449646,-0.13751158118247986,0.19027870893478394
1782845636015402000,8.359402099609374,0.43761447072029114,-0.13420207798480988,0.21819369494915009
1782845636025407000,8.369406982421875,0.5262932777404785,-0.13215546309947968,0.226272851228714
1782845636035412000,8.379411865234376,0.5907652378082275,-0.12742142379283905,0.22653330862522125
1782845636045417000,8.3894169921875,0.6260457038879395,-0.11582682281732559,0.23746852576732635
1782845636055422000,8.399421875,0.6102902293205261,-0.08041130751371384,0.25151723623275757
1782845636065427000,8.409427001953125,0.5562021136283875,-0.021953273564577103,0.2564675509929657
1782845636075432000,8.419431884765626,0.4859447479248047,0.030374113470315933,0.21970714628696442
1782845636085437200,8.429437255859375,0.4105149507522583,0.05394584685564041,0.18262526392936707
1782845636095442200,8.439442138671875,0.32364609837532043,0.07726714760065079,0.15334247052669525
1782845636105447200,8.449447265625,0.24056881666183472,0.06586792320013046,0.11874910444021225
1782845636115452200,8.4594521484375,0.16365379095077515,0.040134333074092865,0.0693219006061554
1782845636125457200,8.46945703125,0.09542451798915863,0.022373661398887634,-0.008237485773861408
1782845636135462100,8.479462158203125,0.034834135323762894,-0.00022166292183101177,-0.08020195364952087
1782845636145467100,8.489467041015626,-0.005761644337326288,0.008509875275194645,-0.12929074466228485
1782845636155472100,8.49947216796875,-0.04100245609879494,0.025343449786305428,-0.16241168975830078
1782845636165477000,8.50947705078125,-0.059484079480171204,0.032921839505434036,-0.19679142534732819
1782845636175482000,8.519482177734375,-0.06951887160539627,0.019128793850541115,-0.2302503138780594
1782845636185487000,8.529487060546876,-0.07769745588302612,-0.032424699515104294,-0.2517380118370056
1782845636195492000,8.5394921875,-0.08012519031763077,-0.07278864085674286,-0.2658216059207916
1782845636205497000,8.5494970703125,-0.0640449970960617,-0.09931527078151703,-0.2645784914493561
1782845636215502000,8.559502197265624,-0.05682862922549248,-0.0988263189792633,-0.2538382112979889
1782845636225507000,8.569507080078125,-0.037788115441799164,-0.08272649347782135,-0.24410298466682434
1782845636235512000,8.579511962890624,-0.016538754105567932,-0.05709009990096092,-0.2305418998003006
1782845636245517000,8.58951708984375,0.010120297782123089,-0.019822601228952408,-0.22094576060771942
1782845636255522000,8.59952197265625,0.037822235375642776,0.00932117085903883,-0.2171717882156372
1782845636265527000,8.609527099609375,0.07237625867128372,0.02102677896618843,-0.20440331101417542
1782845636275532000,8.619531982421876,0.10703783482313156,0.024910999462008476,-0.1839374452829361
1782845636285537000,8.629537109375,0.1421997994184494,0.019909827038645744,-0.1703781932592392
1782845636295542000,8.6395419921875,0.17407651245594025,0.01038077101111412,-0.17112280428409576
1782845636305547000,8.649547119140625,0.20754513144493103,0.009468539617955685,-0.17466500401496887
1782845636315552000,8.659552001953125,0.22589831054210663,0.022622691467404366,-0.17666716873645782
1782845636325557000,8.669556884765624,0.2261417657136917,0.03776111826300621,-0.17026470601558685
1782845636335562000,8.67956201171875,0.21202488243579865,0.05853297561407089,-0.15939901769161224
1782845636345567000,8.68956689453125,0.19272403419017792,0.07303908467292786,-0.1505683809518814
1782845636355572000,8.699572021484375,0.18283730745315552,0.07059856504201889,-0.1299499273300171
1782845636365577000,8.709576904296876,0.18280330300331116,0.0596105121076107,-0.09003850072622299
1782845636375582000,8.71958203125,0.17852093279361725,0.049037765711545944,-0.04023365676403046
1782845636385587000,8.7295869140625,0.18427571654319763,0.027024656534194946,0.016490112990140915
1782845636395592000,8.739592041015625,0.19320529699325562,0.0033009499311447144,0.05916540324687958
1782845636405597000,8.749596923828125,0.21461182832717896,-0.010819444432854652,0.08705318719148636
1782845636415602000,8.759601806640624,0.23610460758209229,-0.0014528408646583557,0.10133492201566696
1782845636425607000,8.76960693359375,0.25243043899536133,0.044525157660245895,0.09331043809652328
1782845636435612000,8.77961181640625,0.22986574470996857,0.27481430768966675,0.19525597989559174
1782845636445617000,8.789616943359375,0.2003616988658905,0.18140123784542084,0.07552231103181839
1782845636455622000,8.799621826171874,0.20625421404838562,0.04220791906118393,-0.06101902201771736
1782845636465627000,8.809626953125,0.28039950132369995,-0.1083512082695961,-0.20242321491241455
1782845636475631900,8.8196318359375,0.3618701100349426,-0.23767857253551483,-0.2620899975299835
1782845636485636900,8.829636962890625,0.3858914077281952,-0.2720046937465668,-0.2614952027797699
1782845636495643000,8.839642822265626,0.3563399314880371,-0.23533271253108978,-0.2556495666503906
1782845636505647900,8.84964794921875,0.3413641154766083,-0.20818082988262177,-0.21146690845489502
