time,seconds_elapsed,z,y,x
1782845398689348600,0.0673486328125,-0.887054443359375,-0.369873046875,0.0735321044921875
1782845398699352800,0.077352783203125,-0.886810302734375,-0.3662872314453125,0.0603179931640625
1782845398709357800,0.08735791015625,-0.8875579833984375,-0.368377685546875,0.0470733642578125
1782845398719361800,0.09736181640625,-0.8873291015625,-0.3784027099609375,0.035888671875
1782845398729366300,0.1073662109375,-0.89111328125,-0.381591796875,0.0304107666015625
1782845398739370200,0.117370361328125,-0.8975982666015625,-0.37615966796875,0.0296630859375
1782845398749375200,0.127375244140625,-0.91693115234375,-0.3737945556640625,0.0317230224609375
1782845398759379200,0.137379150390625,-0.9355621337890625,-0.3756256103515625,0.03143310546875
1782845398769384200,0.14738427734375,-0.944488525390625,-0.3885650634765625,0.027008056640625
1782845398779388200,0.15738818359375,-0.9517059326171875,-0.401641845703125,0.02349853515625
1782845398789393200,0.16739306640625,-0.9594268798828125,-0.4117889404296875,0.020721435546875
1782845398799397000,0.177397216796875,-0.9592132568359375,-0.41455078125,0.024871826171875
1782845398809402000,0.187402099609375,-0.9500274658203125,-0.399932861328125,0.0307159423828125
1782845398819406300,0.19740625,-0.9472503662109375,-0.389251708984375,0.043212890625
1782845398829411300,0.207411376953125,-0.9503631591796875,-0.365875244140625,0.0643463134765625
1782845398839415300,0.217415283203125,-0.9597320556640625,-0.3393096923828125,0.07623291015625
1782845398849420300,0.227420166015625,-0.970855712890625,-0.3162841796875,0.091278076171875
1782845398859424000,0.237424072265625,-0.9912872314453125,-0.2918701171875,0.12054443359375
1782845398869429200,0.24742919921875,-1.0232086181640625,-0.260009765625,0.16552734375
1782845398879433200,0.25743310546875,-1.05780029296875,-0.2381591796875,0.1970062255859375
1782845398889438200,0.267438232421875,-1.09039306640625,-0.23223876953125,0.20318603515625
1782845398899442200,0.277442138671875,-1.11627197265625,-0.2398681640625,0.1971282958984375
1782845398909447200,0.287447265625,-1.11029052734375,-0.259368896484375,0.1888427734375
1782845398919451100,0.297451171875,-1.082305908203125,-0.273651123046875,0.1715850830078125
1782845398929456000,0.3074560546875,-1.0657501220703125,-0.280364990234375,0.141021728515625
1782845398939460400,0.31746044921875,-1.07708740234375,-0.2786407470703125,0.1090240478515625
1782845398949465300,0.32746533203125,-1.102294921875,-0.282684326171875,0.08465576171875
1782845398959469300,0.33746923828125,-1.1351318359375,-0.2933349609375,0.0797576904296875
1782845398969474300,0.347474365234375,-1.164031982421875,-0.294769287109375,0.09033203125
1782845398979478000,0.35747802734375,-1.1766357421875,-0.2716827392578125,0.0980987548828125
1782845398989482200,0.367482177734375,-1.175079345703125,-0.23309326171875,0.1054840087890625
1782845398999487200,0.3774873046875,-1.1632843017578125,-0.2271881103515625,0.0899505615234375
1782845399009492200,0.3874921875,-1.138336181640625,-0.1962738037109375,0.08380126953125
1782845399019496200,0.39749609375,-1.119140625,-0.1433868408203125,0.093170166015625
1782845399029501200,0.407501220703125,-1.0886383056640625,-0.1150054931640625,0.1072540283203125
1782845399039505200,0.417505126953125,-1.04254150390625,-0.1031494140625,0.1165313720703125
1782845399049509400,0.42750927734375,-0.9871978759765625,-0.0731353759765625,0.1317138671875
1782845399059514400,0.437514404296875,-0.935699462890625,-0.0351104736328125,0.1437225341796875
1782845399069518300,0.447518310546875,-0.8818817138671875,-0.0061187744140625,0.130767822265625
1782845399079523300,0.4575234375,-0.8169708251953125,-0.0031890869140625,0.1126251220703125
1782845399089527000,0.467527099609375,-0.7520904541015625,-0.005767822265625,0.099639892578125
1782845399099532000,0.477531982421875,-0.716583251953125,-0.0055999755859375,0.08544921875
1782845399109536300,0.487536376953125,-0.7004852294921875,-0.0090789794921875,0.070159912109375
1782845399119541200,0.497541259765625,-0.6990203857421875,-0.011932373046875,0.061065673828125
1782845399129545200,0.507545166015625,-0.7084197998046875,-0.0124664306640625,0.050872802734375
1782845399139550200,0.51755029296875,-0.7281646728515625,-0.0116729736328125,0.0479278564453125
1782845399149554200,0.52755419921875,-0.753662109375,-0.0271453857421875,0.05303955078125
1782845399159559200,0.53755908203125,-0.7902069091796875,-0.062957763671875,0.0546112060546875
1782845399169563400,0.5475634765625,-0.837860107421875,-0.10235595703125,0.04986572265625
1782845399179568400,0.557568359375,-0.912506103515625,-0.1162872314453125,0.054779052734375
1782845399189572400,0.567572265625,-0.9972991943359375,-0.1074066162109375,0.0610504150390625
1782845399199577300,0.577577392578125,-1.070892333984375,-0.1087493896484375,0.0546875
1782845399209581000,0.5875810546875,-1.1275634765625,-0.128204345703125,0.03662109375
1782845399219586000,0.5975859375,-1.1670684814453125,-0.1369781494140625,0.013427734375
1782845399229590300,0.60759033203125,-1.1985015869140625,-0.1397705078125,-0.0023193359375
1782845399239595300,0.61759521484375,-1.210296630859375,-0.1446075439453125,-0.0145263671875
1782845399249599200,0.62759912109375,-1.1932220458984375,-0.1533203125,-0.0227203369140625
1782845399259604200,0.637604248046875,-1.15911865234375,-0.163482666015625,-0.022705078125
1782845399269608200,0.647608154296875,-1.1013641357421875,-0.1686248779296875,-0.02398681640625
1782845399279613200,0.65761328125,-1.02587890625,-0.16107177734375,-0.026611328125
1782845399289617400,0.667617431640625,-0.985504150390625,-0.1551513671875,-0.021728515625
1782845399299622400,0.677622314453125,-0.9472808837890625,-0.151031494140625,-0.043487548828125
1782845399309626400,0.68762646484375,-0.907012939453125,-0.156829833984375,-0.0405731201171875
1782845399319631400,0.69763134765625,-0.89013671875,-0.1668548583984375,-0.0317230224609375
1782845399329635000,0.707635009765625,-0.8612213134765625,-0.1744384765625,-0.027008056640625
1782845399339640000,0.71764013671875,-0.818084716796875,-0.174560546875,-0.02471923828125
1782845399349644300,0.727644287109375,-0.78173828125,-0.1804351806640625,-0.013458251953125
1782845399359649300,0.737649169921875,-0.7571258544921875,-0.19091796875,-0.004730224609375
1782845399369653200,0.7476533203125,-0.7624359130859375,-0.1998443603515625,0.007110595703125
1782845399379658200,0.757658203125,-0.79193115234375,-0.2063446044921875,0.01812744140625
1782845399389662200,0.767662109375,-0.8406219482421875,-0.20928955078125,0.0319061279296875
1782845399399667200,0.777667236328125,-0.909393310546875,-0.2096099853515625,0.0392303466796875
1782845399409671400,0.78767138671875,-0.977386474609375,-0.2077484130859375,0.0342559814453125
1782845399419676400,0.797676513671875,-1.032012939453125,-0.210205078125,0.0362701416015625
1782845399429680400,0.807680419921875,-1.0663909912109375,-0.2073974609375,0.0306243896484375
1782845399439685400,0.817685302734375,-1.0908203125,-0.20806884765625,0.0203399658203125
1782845399449689000,0.827689208984375,-1.112396240234375,-0.211273193359375,0.0164947509765625
1782845399459694000,0.837694091796875,-1.130889892578125,-0.2065582275390625,0.01470947265625
1782845399469698300,0.8476982421875,-1.136505126953125,-0.2024383544921875,0.013580322265625
1782845399479703300,0.857703369140625,-1.1311798095703125,-0.188018798828125,0.018402099609375
1782845399489707300,0.867707275390625,-1.1135406494140625,-0.1881256103515625,0.015899658203125
1782845399499712300,0.877712158203125,-1.07049560546875,-0.1927337646484375,0.013580322265625
1782845399509716200,0.88771630859375,-1.0174407958984375,-0.193450927734375,0.010162353515625
1782845399519721200,0.89772119140625,-0.972808837890625,-0.1879425048828125,0.0079803466796875
1782845399529725400,0.907725341796875,-0.933013916015625,-0.18695068359375,0.00714111328125
1782845399539730400,0.91773046875,-0.9077301025390625,-0.184112548828125,0.006439208984375
1782845399549734100,0.927734130859375,-0.895904541015625,-0.188232421875,0.006072998046875
1782845399559739100,0.9377392578125,-0.8855133056640625,-0.198211669921875,0.0150909423828125
1782845399569743000,0.9477431640625,-0.8826751708984375,-0.2144927978515625,0.0278167724609375
1782845399579748000,0.957748046875,-0.8765411376953125,-0.2272491455078125,0.034881591796875
1782845399589752300,0.96775244140625,-0.882965087890625,-0.2269439697265625,0.0464935302734375
1782845399599757300,0.97775732421875,-0.88970947265625,-0.218414306640625,0.0462188720703125
1782845399609761300,0.98776123046875,-0.891510009765625,-0.2090606689453125,0.040130615234375
1782845399619766300,0.997766357421875,-0.904205322265625,-0.210601806640625,0.0272216796875
1782845399629770200,1.007770263671875,-0.922119140625,-0.21337890625,0.0200653076171875
1782845399639775200,1.017775146484375,-0.9466705322265625,-0.210296630859375,0.01483154296875
1782845399649779200,1.027779296875,-0.968902587890625,-0.2081756591796875,0.0104522705078125
1782845399659784200,1.0377841796875,-0.9822540283203125,-0.2073822021484375,0.0066070556640625
1782845399669788200,1.0477880859375,-0.98394775390625,-0.2132568359375,0.0003662109375
1782845399679793200,1.057793212890625,-0.9747161865234375,-0.2259368896484375,-0.0025634765625
1782845399689797000,1.067797119140625,-0.9642181396484375,-0.2411651611328125,-0.0040283203125
1782845399699802000,1.077802001953125,-0.955474853515625,-0.244873046875,-0.0027923583984375
1782845399709806000,1.08780615234375,-0.9455108642578125,-0.2494659423828125,-0.001556396484375
1782845399719811300,1.097811279296875,-0.9422607421875,-0.258575439453125,-0.0025634765625
1782845399729815800,1.10781591796875,-0.9456634521484375,-0.26715087890625,0.0035400390625
1782845399739820800,1.11782080078125,-0.9569091796875,-0.2753143310546875,0.009368896484375
1782845399749824800,1.12782470703125,-0.9733123779296875,-0.27630615234375,0.015289306640625
1782845399759829800,1.137829833984375,-0.9884033203125,-0.2701873779296875,0.0136871337890625
1782845399769833700,1.147833740234375,-1.004486083984375,-0.2647705078125,0.0178985595703125
1782845399779838700,1.157838623046875,-1.0224151611328125,-0.26812744140625,0.0291900634765625
1782845399789843000,1.167843017578125,-1.0297393798828125,-0.28070068359375,0.0412750244140625
1782845399799848000,1.177847900390625,-1.0469207763671875,-0.2833404541015625,0.0509185791015625
1782845399809851600,1.1878515625,-1.0692138671875,-0.2725677490234375,0.044189453125
1782845399819856600,1.197856689453125,-1.0805206298828125,-0.2659149169921875,0.023681640625
1782845399829860600,1.207860595703125,-1.081451416015625,-0.2417144775390625,0.0249481201171875
1782845399839865600,1.217865478515625,-1.09375,-0.2178802490234375,0.0345001220703125
1782845399849869800,1.227869873046875,-1.111602783203125,-0.206207275390625,0.0423126220703125
1782845399859874800,1.237874755859375,-1.123199462890625,-0.1961669921875,0.0517730712890625
1782845399869878800,1.247878662109375,-1.1441650390625,-0.191802978515625,0.0744781494140625
1782845399879883800,1.2578837890625,-1.158721923828125,-0.19866943359375,0.0985565185546875
1782845399889887700,1.2678876953125,-1.155364990234375,-0.208709716796875,0.11090087890625
1782845399899892700,1.277892822265625,-1.147674560546875,-0.2153778076171875,0.1218414306640625
1782845399909897000,1.28789697265625,-1.134002685546875,-0.217926025390625,0.126068115234375
1782845399919902000,1.29790185546875,-1.1165313720703125,-0.2169189453125,0.116485595703125
1782845399929905700,1.30790576171875,-1.0845947265625,-0.214691162109375,0.0843353271484375
1782845399939910700,1.31791064453125,-1.0423431396484375,-0.2035369873046875,0.0457611083984375
1782845399949914600,1.32791455078125,-0.9906463623046875,-0.1916961669921875,0.016082763671875
1782845399959919600,1.337919677734375,-0.9381103515625,-0.1802825927734375,0.00396728515625
1782845399969923800,1.347923828125,-0.8860321044921875,-0.169891357421875,-0.002655029296875
1782845399979928800,1.3579287109375,-0.8419647216796875,-0.166900634765625,-0.0029144287109375
1782845399989932800,1.367932861328125,-0.8138427734375,-0.1624755859375,0.0118865966796875
1782845399999936800,1.377936767578125,-0.8009033203125,-0.159332275390625,0.02783203125
1782845400009941800,1.387941650390625,-0.79327392578125,-0.157562255859375,0.033050537109375
1782845400019946800,1.39794677734375,-0.779266357421875,-0.1607666015625,0.0353240966796875
1782845400029950700,1.40795068359375,-0.77911376953125,-0.1630401611328125,0.0351715087890625
1782845400039954700,1.41795458984375,-0.78497314453125,-0.1658782958984375,0.03302001953125
1782845400049959700,1.427959716796875,-0.79638671875,-0.1686859130859375,0.03662109375
1782845400059964700,1.437964599609375,-0.8158721923828125,-0.1768646240234375,0.0540008544921875
1782845400069968600,1.44796875,-0.8437652587890625,-0.188018798828125,0.083587646484375
1782845400079972900,1.457972900390625,-0.868438720703125,-0.1991729736328125,0.1136627197265625
1782845400089977900,1.467977783203125,-0.9033203125,-0.2185821533203125,0.1351470947265625
1782845400099981800,1.47798193359375,-0.9513397216796875,-0.2366943359375,0.15594482421875
1782845400109986800,1.48798681640625,-1.008270263671875,-0.2457427978515625,0.173553466796875
1782845400119990800,1.49799072265625,-1.0532684326171875,-0.244720458984375,0.18499755859375
1782845400129995800,1.507995849609375,-1.082000732421875,-0.2552337646484375,0.1916046142578125
1782845400139999700,1.517999755859375,-1.107452392578125,-0.26275634765625,0.202117919921875
1782845400150004700,1.528004638671875,-1.1327362060546875,-0.2654571533203125,0.2060089111328125
1782845400160008700,1.5380087890625,-1.15130615234375,-0.2683563232421875,0.213043212890625
1782845400170013700,1.548013671875,-1.1611328125,-0.26641845703125,0.20220947265625
1782845400180017700,1.558017578125,-1.138458251953125,-0.2686004638671875,0.2059326171875
1782845400190022700,1.568022705078125,-1.1102142333984375,-0.251739501953125,0.211456298828125
1782845400200026600,1.578026611328125,-1.0835723876953125,-0.2469635009765625,0.1929931640625
1782845400210031900,1.588031982421875,-1.037261962890625,-0.24310302734375,0.1791534423828125
1782845400220035800,1.598035888671875,-1.00537109375,-0.2321014404296875,0.1674957275390625
1782845400230040800,1.608040771484375,-0.9726715087890625,-0.2086334228515625,0.156402587890625
1782845400240044800,1.618044921875,-0.93414306640625,-0.1918792724609375,0.13531494140625
1782845400250049800,1.6280498046875,-0.897735595703125,-0.1888580322265625,0.113739013671875
1782845400260053800,1.6380537109375,-0.863555908203125,-0.186004638671875,0.090484619140625
1782845400270058800,1.648058837890625,-0.846527099609375,-0.1891632080078125,0.071990966796875
1782845400280062700,1.658062744140625,-0.8372955322265625,-0.197967529296875,0.059661865234375
1782845400290067700,1.668067626953125,-0.8305816650390625,-0.2128143310546875,0.0496368408203125
1782845400300071700,1.67807177734375,-0.831390380859375,-0.2321014404296875,0.0498199462890625
1782845400310076700,1.68807666015625,-0.8398895263671875,-0.2520599365234375,0.057891845703125
1782845400320080600,1.69808056640625,-0.8463592529296875,-0.263824462890625,0.065826416015625
1782845400330085600,1.708085693359375,-0.855072021484375,-0.271484375,0.0683135986328125
1782845400340089900,1.71808984375,-0.869171142578125,-0.2797698974609375,0.07080078125
1782845400350094800,1.7280947265625,-0.8865966796875,-0.2912445068359375,0.077484130859375
1782845400360098800,1.738098876953125,-0.8914947509765625,-0.2976226806640625,0.0846710205078125
1782845400370103800,1.748103759765625,-0.896942138671875,-0.309295654296875,0.0882568359375
1782845400380107500,1.758107421875,-0.9024810791015625,-0.3157958984375,0.0918426513671875
1782845400390112500,1.768112548828125,-0.9073486328125,-0.3056182861328125,0.0984039306640625
1782845400400116700,1.77811669921875,-0.9131622314453125,-0.294097900390625,0.1035614013671875
1782845400410121700,1.788121826171875,-0.9172210693359375,-0.283843994140625,0.1093902587890625
1782845400420125700,1.798125732421875,-0.9224090576171875,-0.271881103515625,0.1171417236328125
1782845400430130700,1.808130615234375,-0.9269561767578125,-0.2498626708984375,0.122894287109375
1782845400440134700,1.818134765625,-0.9321136474609375,-0.2326507568359375,0.128936767578125
1782845400450139600,1.8281396484375,-0.931793212890625,-0.2277374267578125,0.1305694580078125
1782845400460143900,1.838143798828125,-0.91650390625,-0.24017333984375,0.1258697509765625
1782845400470148900,1.84814892578125,-0.899566650390625,-0.2461700439453125,0.11920166015625
1782845400480152800,1.85815283203125,-0.89202880859375,-0.256072998046875,0.117828369140625
1782845400490157800,1.86815771484375,-0.877471923828125,-0.273040771484375,0.1196441650390625
1782845400500161500,1.87816162109375,-0.870574951171875,-0.289764404296875,0.105194091796875
1782845400510166500,1.88816650390625,-0.868072509765625,-0.306671142578125,0.09381103515625
1782845400520170800,1.898170654296875,-0.8668365478515625,-0.3225250244140625,0.0861968994140625
1782845400530175700,1.90817578125,-0.8718719482421875,-0.3288116455078125,0.0806121826171875
1782845400540179700,1.9181796875,-0.8744964599609375,-0.3296356201171875,0.0789947509765625
1782845400550184700,1.928184814453125,-0.878936767578125,-0.33843994140625,0.072265625
1782845400560188700,1.938188720703125,-0.8790283203125,-0.34967041015625,0.06610107421875
1782845400570193700,1.948193603515625,-0.8881683349609375,-0.3656768798828125,0.0544891357421875
1782845400580198000,1.958197998046875,-0.900787353515625,-0.372222900390625,0.0438995361328125
1782845400590203000,1.968202880859375,-0.90924072265625,-0.372314453125,0.04254150390625
1782845400600206600,1.97820654296875,-0.9161224365234375,-0.37896728515625,0.0426177978515625
1782845400610211800,1.9882119140625,-0.9260101318359375,-0.374114990234375,0.04937744140625
1782845400620215600,1.998215576171875,-0.9358062744140625,-0.365509033203125,0.060699462890625
1782845400630220500,2.008220458984375,-0.936676025390625,-0.356597900390625,0.0642852783203125
1782845400640224800,2.018224853515625,-0.932281494140625,-0.3499755859375,0.06549072265625
1782845400650229800,2.028229736328125,-0.9320068359375,-0.343048095703125,0.065277099609375
1782845400660233700,2.038233642578125,-0.9341888427734375,-0.3397674560546875,0.0654449462890625
1782845400670238700,2.04823876953125,-0.936126708984375,-0.3343963623046875,0.059295654296875
1782845400680242700,2.05824267578125,-0.938507080078125,-0.3274993896484375,0.051971435546875
1782845400690247700,2.06824755859375,-0.9346160888671875,-0.3250274658203125,0.0528411865234375
1782845400700252000,2.078251953125,-0.932769775390625,-0.32391357421875,0.055877685546875
1782845400710257000,2.0882568359375,-0.941680908203125,-0.32489013671875,0.0591278076171875
1782845400720260600,2.098260498046875,-0.9341888427734375,-0.33233642578125,0.06915283203125
1782845400730264800,2.108264892578125,-0.9141845703125,-0.3414459228515625,0.084686279296875
1782845400740268800,2.118268798828125,-0.9091339111328125,-0.3514556884765625,0.0982208251953125
1782845400750273800,2.128273681640625,-0.908905029296875,-0.3624420166015625,0.104461669921875
1782845400760277800,2.13827783203125,-0.9168243408203125,-0.37213134765625,0.1001739501953125
1782845400770282800,2.14828271484375,-0.9295654296875,-0.377471923828125,0.089691162109375
1782845400780286700,2.15828662109375,-0.946502685546875,-0.386566162109375,0.08544921875
1782845400790291700,2.168291748046875,-0.9656982421875,-0.3988037109375,0.0831146240234375
1782845400800296000,2.1782958984375,-0.9840087890625,-0.4090576171875,0.0843505859375
1782845400810301000,2.188301025390625,-1.00018310546875,-0.422393798828125,0.084747314453125
1782845400820305000,2.198304931640625,-1.017059326171875,-0.448944091796875,0.07928466796875
1782845400830310000,2.208309814453125,-1.0296478271484375,-0.4680938720703125,0.0816497802734375
1782845400840313900,2.21831396484375,-1.038848876953125,-0.4645233154296875,0.08721923828125
1782845400850318800,2.22831884765625,-1.03436279296875,-0.4463653564453125,0.0954132080078125
1782845400860322800,2.23832275390625,-1.018890380859375,-0.4096832275390625,0.1071014404296875
1782845400870327800,2.248327880859375,-0.994720458984375,-0.381805419921875,0.109161376953125
1782845400880331800,2.258331787109375,-0.9735107421875,-0.3656768798828125,0.1119537353515625
1782845400890336800,2.268336669921875,-0.9672393798828125,-0.33819580078125,0.1336212158203125
1782845400900340700,2.2783408203125,-0.9807281494140625,-0.308837890625,0.1597900390625
1782845400910345700,2.288345703125,-1.0021514892578125,-0.29010009765625,0.1821746826171875
1782845400920350000,2.298349853515625,-1.029449462890625,-0.2752532958984375,0.202606201171875
1782845400930355000,2.30835498046875,-1.0538787841796875,-0.2626495361328125,0.21441650390625
1782845400940359000,2.31835888671875,-1.076171875,-0.2465057373046875,0.2208099365234375
1782845400950364000,2.328364013671875,-1.0877838134765625,-0.230194091796875,0.2047271728515625
1782845400960367900,2.338367919921875,-1.0813751220703125,-0.214447021484375,0.1805419921875
1782845400970372900,2.348372802734375,-1.05853271484375,-0.2160186767578125,0.1461029052734375
1782845400980376800,2.358376953125,-1.018463134765625,-0.2247467041015625,0.1185760498046875
1782845400990381800,2.3683818359375,-0.98358154296875,-0.2273406982421875,0.1011505126953125
1782845401000385800,2.3783857421875,-0.964263916015625,-0.232086181640625,0.09100341796875
1782845401010390800,2.388390869140625,-0.951080322265625,-0.234344482421875,0.08642578125
1782845401020394800,2.398394775390625,-0.948699951171875,-0.229248046875,0.0792083740234375
1782845401030399700,2.408399658203125,-0.9442596435546875,-0.23797607421875,0.0697021484375
1782845401040404000,2.418404052734375,-0.9203643798828125,-0.248138427734375,0.068084716796875
1782845401050409000,2.428408935546875,-0.894287109375,-0.2581024169921875,0.06976318359375
1782845401060413000,2.438412841796875,-0.8819427490234375,-0.2502593994140625,0.083343505859375
1782845401070418000,2.44841796875,-0.867828369140625,-0.2308502197265625,0.096832275390625
1782845401080422000,2.458421875,-0.8557586669921875,-0.2142181396484375,0.0915069580078125
1782845401090427000,2.468427001953125,-0.8460845947265625,-0.2001800537109375,0.08917236328125
1782845401100430800,2.478430908203125,-0.845916748046875,-0.20098876953125,0.088226318359375
1782845401110435800,2.488435791015625,-0.8516845703125,-0.197052001953125,0.0950164794921875
1782845401120439800,2.498439697265625,-0.873870849609375,-0.177276611328125,0.106842041015625
1782845401130444800,2.50844482421875,-0.8939666748046875,-0.1596832275390625,0.1149749755859375
1782845401140448800,2.51844873046875,-0.9041290283203125,-0.149169921875,0.1209564208984375
1782845401150453800,2.528453857421875,-0.9166107177734375,-0.139892578125,0.1206512451171875
1782845401160457700,2.538457763671875,-0.933685302734375,-0.1295166015625,0.1138763427734375
1782845401170462000,2.5484619140625,-0.9503173828125,-0.1230926513671875,0.1031036376953125
1782845401180467000,2.558467041015625,-0.95440673828125,-0.1169891357421875,0.0943756103515625
1782845401190472000,2.568471923828125,-0.9466705322265625,-0.12249755859375,0.0845184326171875
1782845401200476000,2.578475830078125,-0.9362335205078125,-0.1271514892578125,0.08172607421875
1782845401210479600,2.588479736328125,-0.9319000244140625,-0.1301116943359375,0.0807037353515625
1782845401220484600,2.598484619140625,-0.9327392578125,-0.1346588134765625,0.0800323486328125
1782845401230488800,2.60848876953125,-0.9344329833984375,-0.150115966796875,0.073760986328125
1782845401240493800,2.618493896484375,-0.9283599853515625,-0.1620941162109375,0.063690185546875
1782845401250497800,2.628497802734375,-0.92864990234375,-0.161895751953125,0.060028076171875
1782845401260502800,2.638502685546875,-0.930328369140625,-0.162872314453125,0.05029296875
1782845401270506800,2.6485068359375,-0.934967041015625,-0.16839599609375,0.04327392578125
1782845401280511700,2.65851171875,-0.9466552734375,-0.1716461181640625,0.0395965576171875
1782845401290516000,2.668515869140625,-0.9549560546875,-0.1770477294921875,0.0406494140625
1782845401300521000,2.67852099609375,-0.955535888671875,-0.18707275390625,0.0380096435546875
1782845401310524700,2.688524658203125,-0.96295166015625,-0.189727783203125,0.044525146484375
1782845401320529700,2.69852978515625,-0.9817352294921875,-0.1823272705078125,0.043426513671875
1782845401330533600,2.70853369140625,-1.0041046142578125,-0.1781463623046875,0.038665771484375
1782845401340538600,2.71853857421875,-1.025146484375,-0.1763763427734375,0.03668212890625
1782845401350542800,2.72854296875,-1.0330047607421875,-0.1722259521484375,0.0248870849609375
1782845401360547800,2.7385478515625,-1.03192138671875,-0.1682281494140625,0.0161895751953125
1782845401370551800,2.7485517578125,-1.0117034912109375,-0.163238525390625,0.0153045654296875
1782845401380556800,2.758556884765625,-0.986175537109375,-0.1625823974609375,0.00421142578125
1782845401390560800,2.768560791015625,-0.9488372802734375,-0.163848876953125,0.005584716796875
1782845401400565800,2.778565673828125,-0.903961181640625,-0.1682281494140625,0.0157318115234375
1782845401410570000,2.788570068359375,-0.8643646240234375,-0.1735992431640625,0.01629638671875
1782845401420575000,2.798574951171875,-0.8322601318359375,-0.175872802734375,0.01422119140625
1782845401430578700,2.80857861328125,-0.8144683837890625,-0.1842803955078125,0.012847900390625
1782845401440583700,2.818583740234375,-0.8187255859375,-0.1926116943359375,0.0157623291015625
1782845401450587600,2.828587646484375,-0.847442626953125,-0.2000274658203125,0.0252227783203125
1782845401460592600,2.838592529296875,-0.887969970703125,-0.20361328125,0.0313568115234375
1782845401470596900,2.848596923828125,-0.9216461181640625,-0.2172393798828125,0.037994384765625
1782845401480601900,2.858601806640625,-0.9458770751953125,-0.23419189453125,0.0450592041015625
1782845401490605800,2.868605712890625,-0.986328125,-0.2519683837890625,0.0518341064453125
1782845401500610800,2.87861083984375,-1.02789306640625,-0.2540283203125,0.05596923828125
1782845401510614800,2.88861474609375,-1.0540618896484375,-0.2699432373046875,0.0534515380859375
1782845401520619800,2.898619873046875,-1.0790863037109375,-0.2822265625,0.054168701171875
1782845401530624000,2.9086240234375,-1.1045074462890625,-0.2790985107421875,0.0475921630859375
1782845401540629000,2.91862890625,-1.121826171875,-0.270355224609375,0.032867431640625
1782845401550632700,2.9286328125,-1.143798828125,-0.251068115234375,0.0158843994140625
1782845401560637700,2.9386376953125,-1.150054931640625,-0.236083984375,0.002655029296875
1782845401570641700,2.9486416015625,-1.1258392333984375,-0.228363037109375,-0.0102691650390625
1782845401580646700,2.958646728515625,-1.084075927734375,-0.21917724609375,-0.0220489501953125
1782845401590651000,2.96865087890625,-1.039031982421875,-0.216339111328125,-0.01348876953125
1782845401600656000,2.97865576171875,-0.9931182861328125,-0.2182769775390625,0.0030364990234375
1782845401610659800,2.988659912109375,-0.9506683349609375,-0.2198333740234375,0.010894775390625
1782845401620664800,2.998664794921875,-0.9177093505859375,-0.224090576171875,0.016998291015625
1782845401630668800,3.008668701171875,-0.900848388671875,-0.2275848388671875,0.0201568603515625
1782845401640673800,3.018673828125,-0.9008941650390625,-0.2334747314453125,0.023895263671875
1782845401650678000,3.028677978515625,-0.91082763671875,-0.242767333984375,0.027801513671875
1782845401660683000,3.03868310546875,-0.9208984375,-0.25439453125,0.0333251953125
1782845401670686700,3.048686767578125,-0.928070068359375,-0.26202392578125,0.04046630859375
1782845401680691700,3.058691650390625,-0.935516357421875,-0.261138916015625,0.042449951171875
1782845401690695700,3.06869580078125,-0.950439453125,-0.253173828125,0.045318603515625
1782845401700700700,3.07870068359375,-0.9655914306640625,-0.2451019287109375,0.036163330078125
1782845401710705000,3.088704833984375,-0.9757843017578125,-0.241729736328125,0.02581787109375
1782845401720710000,3.0987099609375,-0.9851226806640625,-0.23583984375,0.011932373046875
1782845401730715000,3.10871484375,-0.9905548095703125,-0.232635498046875,0.0009613037109375
1782845401740719900,3.118719970703125,-0.997283935546875,-0.2257537841796875,-0.002166748046875
1782845401750723800,3.128723876953125,-0.9990692138671875,-0.2251434326171875,-0.0034637451171875
1782845401760728800,3.138728759765625,-0.9850921630859375,-0.222442626953125,-0.0020294189453125
1782845401770732800,3.14873291015625,-0.961822509765625,-0.2288360595703125,0.0039520263671875
1782845401780737800,3.15873779296875,-0.937469482421875,-0.238250732421875,0.0070037841796875
1782845401790742000,3.168741943359375,-0.9293212890625,-0.246795654296875,0.012115478515625
1782845401800747000,3.1787470703125,-0.9305267333984375,-0.24755859375,0.0230560302734375
1782845401810750700,3.188750732421875,-0.9336700439453125,-0.245880126953125,0.027008056640625
1782845401820755700,3.198755615234375,-0.93414306640625,-0.2505645751953125,0.0271148681640625
1782845401830759700,3.208759765625,-0.9412689208984375,-0.256988525390625,0.0241546630859375
1782845401840764700,3.2187646484375,-0.9540557861328125,-0.266265869140625,0.0157928466796875
1782845401850769000,3.228768798828125,-0.9746551513671875,-0.2685089111328125,0.0088653564453125
1782845401860774000,3.23877392578125,-1.0049591064453125,-0.261566162109375,0.001220703125
1782845401870777900,3.24877783203125,-1.034149169921875,-0.24853515625,-0.007415771484375
1782845401880782800,3.258782958984375,-1.047882080078125,-0.2278594970703125,-0.01483154296875
1782845401890786800,3.268786865234375,-1.045745849609375,-0.214691162109375,-0.0182037353515625
1782845401900791800,3.278791748046875,-1.032958984375,-0.201812744140625,-0.009063720703125
1782845401910796000,3.288796142578125,-1.0193634033203125,-0.180755615234375,0.014129638671875
1782845401920801000,3.298801025390625,-1.0196380615234375,-0.170745849609375,0.045074462890625
1782845401930804700,3.3088046875,-1.039947509765625,-0.18109130859375,0.076019287109375
1782845401940809700,3.318809814453125,-1.08392333984375,-0.1773529052734375,0.1049652099609375
1782845401950813700,3.328813720703125,-1.138092041015625,-0.1695709228515625,0.110748291015625
1782845401960818700,3.338818603515625,-1.1855926513671875,-0.1756744384765625,0.111602783203125
1782845401970823000,3.348822998046875,-1.208251953125,-0.1799468994140625,0.124786376953125
1782845401980828000,3.358827880859375,-1.205108642578125,-0.192596435546875,0.1292877197265625
1782845401990831900,3.368831787109375,-1.186279296875,-0.1974639892578125,0.12152099609375
1782845402000836900,3.3788369140625,-1.1456146240234375,-0.1827850341796875,0.10919189453125
1782845402010840800,3.3888408203125,-1.0911865234375,-0.175689697265625,0.087646484375
1782845402020845800,3.398845703125,-1.02734375,-0.175750732421875,0.0513458251953125
1782845402030850000,3.40885009765625,-0.964508056640625,-0.1778717041015625,0.012054443359375
1782845402040855000,3.41885498046875,-0.8987884521484375,-0.1799163818359375,-0.0116729736328125
1782845402050858800,3.428858642578125,-0.8606109619140625,-0.1721343994140625,-0.0071868896484375
1782845402060863700,3.43886376953125,-0.8432159423828125,-0.165008544921875,-0.004180908203125
1782845402070867700,3.44886767578125,-0.8243560791015625,-0.167572021484375,-0.0005035400390625
1782845402080872700,3.458872802734375,-0.812042236328125,-0.1668243408203125,0.0081024169921875
1782845402090877000,3.468876953125,-0.8159027099609375,-0.1631927490234375,0.019744873046875
1782845402100882000,3.4788818359375,-0.8313140869140625,-0.165771484375,0.027984619140625
1782845402110886000,3.488885986328125,-0.8454132080078125,-0.1697998046875,0.042938232421875
1782845402120891000,3.498890869140625,-0.8530120849609375,-0.175201416015625,0.058319091796875
1782845402130894800,3.508894775390625,-0.853759765625,-0.1782379150390625,0.072479248046875
1782845402140899800,3.51889990234375,-0.85687255859375,-0.1828765869140625,0.088775634765625
1782845402150903800,3.52890380859375,-0.865081787109375,-0.187286376953125,0.1038055419921875
1782845402160908800,3.53890869140625,-0.8822021484375,-0.193328857421875,0.1239776611328125
1782845402170912800,3.548912841796875,-0.9191131591796875,-0.199005126953125,0.1454925537109375
1782845402180917800,3.558917724609375,-0.95196533203125,-0.194915771484375,0.163421630859375
1782845402190921700,3.568921630859375,-0.980560302734375,-0.195556640625,0.176055908203125
1782845402200926700,3.5789267578125,-1.0060272216796875,-0.2033538818359375,0.1854705810546875
1782845402210931000,3.588930908203125,-1.02618408203125,-0.22088623046875,0.187286376953125
1782845402220936000,3.59893603515625,-1.0587615966796875,-0.2358551025390625,0.1930389404296875
1782845402230940000,3.60893994140625,-1.0595855712890625,-0.2387542724609375,0.1964263916015625
1782845402240943900,3.61894384765625,-1.0472259521484375,-0.2466278076171875,0.1980133056640625
1782845402250948900,3.628948974609375,-1.0345611572265625,-0.258819580078125,0.1891326904296875
1782845402260953900,3.638953857421875,-1.0160675048828125,-0.2656402587890625,0.172637939453125
1782845402270957800,3.648957763671875,-1.0047454833984375,-0.269287109375,0.1529541015625
1782845402280962800,3.658962890625,-1.0011444091796875,-0.26025390625,0.128509521484375
1782845402290966800,3.668966796875,-0.997314453125,-0.2581329345703125,0.10357666015625
1782845402300970800,3.678970703125,-0.98797607421875,-0.2598724365234375,0.08160400390625
1782845402310975700,3.688975830078125,-0.9796600341796875,-0.2457122802734375,0.0651702880859375
1782845402320979700,3.698979736328125,-0.96466064453125,-0.2290191650390625,0.0532684326171875
1782845402330984700,3.708984619140625,-0.9465484619140625,-0.2183380126953125,0.0394287109375
1782845402340989000,3.718989013671875,-0.932647705078125,-0.215576171875,0.0326690673828125
1782845402350994000,3.728993896484375,-0.920989990234375,-0.2197418212890625,0.0340728759765625
1782845402360998000,3.738997802734375,-0.9098358154296875,-0.2264404296875,0.037628173828125
1782845402371003000,3.7490029296875,-0.9022369384765625,-0.2322845458984375,0.0396575927734375
1782845402381006600,3.759006591796875,-0.904541015625,-0.23382568359375,0.0474853515625
1782845402391011800,3.76901171875,-0.90948486328125,-0.2219390869140625,0.0630950927734375
1782845402401015800,3.779015869140625,-0.9085235595703125,-0.2190399169921875,0.07171630859375
1782845402411020800,3.789020751953125,-0.9078369140625,-0.227630615234375,0.0803375244140625
1782845402421024800,3.799024658203125,-0.9067230224609375,-0.2342376708984375,0.092041015625
1782845402431029800,3.80902978515625,-0.90887451171875,-0.2412109375,0.104400634765625
1782845402441033700,3.81903369140625,-0.919342041015625,-0.2465667724609375,0.1191864013671875
1782845402451038700,3.829038818359375,-0.9195556640625,-0.253662109375,0.1259765625
1782845402461043000,3.83904296875,-0.9119720458984375,-0.2598419189453125,0.1289825439453125
1782845402471048000,3.8490478515625,-0.9106292724609375,-0.2672271728515625,0.13690185546875
1782845402481052000,3.859052001953125,-0.9138946533203125,-0.2687530517578125,0.1401824951171875
1782845402491057000,3.869056884765625,-0.916412353515625,-0.2702178955078125,0.14154052734375
1782845402501060600,3.879060546875,-0.9186248779296875,-0.2747344970703125,0.1409454345703125
1782845402511065600,3.889065673828125,-0.9229736328125,-0.27264404296875,0.1437225341796875
1782845402521069800,3.89906982421875,-0.93670654296875,-0.2738494873046875,0.1402130126953125
1782845402531074800,3.90907470703125,-0.9419403076171875,-0.281158447265625,0.1375885009765625
1782845402541078800,3.919078857421875,-0.9381561279296875,-0.2854461669921875,0.1416168212890625
1782845402551083800,3.929083740234375,-0.92730712890625,-0.2890167236328125,0.140106201171875
1782845402561087700,3.939087646484375,-0.91241455078125,-0.2936553955078125,0.132110595703125
1782845402571092700,3.9490927734375,-0.90869140625,-0.289398193359375,0.120513916015625
1782845402581097000,3.959096923828125,-0.9092559814453125,-0.2809600830078125,0.106170654296875
1782845402591102000,3.96910205078125,-0.9148101806640625,-0.2801666259765625,0.0956268310546875
1782845402601106000,3.97910595703125,-0.9228363037109375,-0.28466796875,0.0850372314453125
1782845402611111000,3.98911083984375,-0.933837890625,-0.2921600341796875,0.0771026611328125
1782845402621114600,3.999114501953125,-0.9459228515625,-0.2935028076171875,0.0788421630859375
1782845402631119600,4.00911962890625,-0.9466400146484375,-0.2852630615234375,0.0782470703125
1782845402641123800,4.019123779296875,-0.95318603515625,-0.2857208251953125,0.0774993896484375
1782845402651128800,4.02912890625,-0.9619293212890625,-0.287750244140625,0.0832366943359375
1782845402661132800,4.0391328125,-0.9594573974609375,-0.288665771484375,0.0915374755859375
1782845402671137800,4.0491376953125,-0.9599456787109375,-0.29058837890625,0.095123291015625
1782845402681141800,4.059141845703125,-0.9602203369140625,-0.2894744873046875,0.0970458984375
1782845402691146800,4.069146728515625,-0.9449615478515625,-0.28936767578125,0.097900390625
1782845402701151000,4.07915087890625,-0.927490234375,-0.2875518798828125,0.0987548828125
1782845402711156000,4.089156005859375,-0.916046142578125,-0.2866668701171875,0.099700927734375
1782845402721159700,4.09915966796875,-0.906494140625,-0.29083251953125,0.0992889404296875
1782845402731165000,4.1091650390625,-0.8981475830078125,-0.2946929931640625,0.0982818603515625
1782845402741169000,4.1191689453125,-0.8939971923828125,-0.3010101318359375,0.0984649658203125
1782845402751174000,4.129173828125,-0.885986328125,-0.3036346435546875,0.10162353515625
1782845402761178000,4.13917822265625,-0.8770751953125,-0.304901123046875,0.104583740234375
1782845402771183000,4.14918310546875,-0.8701324462890625,-0.3075714111328125,0.1089324951171875
1782845402781187000,4.15918701171875,-0.8720245361328125,-0.31317138671875,0.11419677734375
1782845402791192000,4.169192138671875,-0.8679351806640625,-0.320098876953125,0.1128997802734375
1782845402801196000,4.179196044921875,-0.8620452880859375,-0.3247833251953125,0.1097259521484375
1782845402811201000,4.189200927734375,-0.8646087646484375,-0.3325347900390625,0.10546875
1782845402821205000,4.199205078125,-0.8680419921875,-0.337677001953125,0.102081298828125
1782845402831210000,4.2092099609375,-0.8824310302734375,-0.339111328125,0.095489501953125
1782845402841214000,4.2192138671875,-0.8989105224609375,-0.3474578857421875,0.0851898193359375
1782845402851219000,4.229218994140625,-0.911773681640625,-0.36444091796875,0.0760498046875
1782845402861223000,4.239222900390625,-0.927642822265625,-0.370941162109375,0.073638916015625
1782845402871228000,4.249227783203125,-0.9428558349609375,-0.362030029296875,0.0773468017578125
1782845402881232100,4.259232177734375,-0.9529876708984375,-0.3662567138671875,0.069580078125
1782845402891237000,4.269237060546875,-0.9578704833984375,-0.3790435791015625,0.0636444091796875
1782845402901241000,4.279240966796875,-0.965728759765625,-0.387664794921875,0.0641937255859375
1782845402911246000,4.28924609375,-0.9744110107421875,-0.389129638671875,0.063568115234375
1782845402921249800,4.299249755859375,-0.97979736328125,-0.387786865234375,0.057586669921875
1782845402931254800,4.3092548828125,-0.9793243408203125,-0.3860321044921875,0.0490875244140625
1782845402941259000,4.319259033203125,-0.968963623046875,-0.387969970703125,0.0314483642578125
1782845402951264000,4.329263916015625,-0.951690673828125,-0.401031494140625,0.023406982421875
1782845402961268000,4.33926806640625,-0.92852783203125,-0.409820556640625,0.01910400390625
1782845402971273000,4.34927294921875,-0.9191131591796875,-0.40362548828125,0.023956298828125
1782845402981277000,4.35927685546875,-0.9137115478515625,-0.3802642822265625,0.035308837890625
1782845402991282000,4.369281982421875,-0.924102783203125,-0.3517303466796875,0.0413970947265625
1782845403001286100,4.3792861328125,-0.9422454833984375,-0.3276824951171875,0.0578155517578125
1782845403011291100,4.389291015625,-0.95733642578125,-0.300933837890625,0.08477783203125
1782845403021295000,4.399295166015625,-0.9970550537109375,-0.27386474609375,0.10906982421875
1782845403031300000,4.409300048828125,-1.064208984375,-0.24029541015625,0.144744873046875
1782845403041303800,4.4193037109375,-1.1376800537109375,-0.2052001953125,0.1855010986328125
1782845403051308800,4.429308837890625,-1.196929931640625,-0.18731689453125,0.1908721923828125
1782845403061313000,4.43931298828125,-1.2403717041015625,-0.19384765625,0.1785430908203125
1782845403071318000,4.449318115234375,-1.246429443359375,-0.189788818359375,0.180572509765625
1782845403081322000,4.459322021484375,-1.22271728515625,-0.193603515625,0.1813507080078125
1782845403091327000,4.469326904296875,-1.1808624267578125,-0.192108154296875,0.178558349609375
1782845403101331000,4.4793310546875,-1.119873046875,-0.19476318359375,0.153228759765625
1782845403111336000,4.4893359375,-1.0564727783203125,-0.209381103515625,0.11968994140625
1782845403121340200,4.499340087890625,-0.9940338134765625,-0.2238006591796875,0.093353271484375
1782845403131345200,4.50934521484375,-0.9390869140625,-0.2312164306640625,0.0818023681640625
1782845403141349000,4.51934912109375,-0.9002227783203125,-0.2347869873046875,0.0781707763671875
1782845403151354000,4.52935400390625,-0.8734130859375,-0.2325592041015625,0.079071044921875
1782845403161357800,4.53935791015625,-0.849029541015625,-0.2195587158203125,0.0802001953125
1782845403171362800,4.54936279296875,-0.8183135986328125,-0.203369140625,0.0785980224609375
1782845403181367000,4.559366943359375,-0.7904205322265625,-0.1958160400390625,0.07861328125
1782845403191372000,4.5693720703125,-0.771240234375,-0.1895599365234375,0.0816650390625
1782845403201376000,4.5793759765625,-0.769927978515625,-0.1681976318359375,0.095794677734375
1782845403211381000,4.589381103515625,-0.7749176025390625,-0.1439666748046875,0.1128387451171875
1782845403221385000,4.599385009765625,-0.7854461669921875,-0.1230316162109375,0.12811279296875
1782845403231389000,4.609388916015625,-0.8138275146484375,-0.0992279052734375,0.146575927734375
1782845403241394000,4.619393798828125,-0.85186767578125,-0.08544921875,0.1561431884765625
1782845403251399200,4.629399169921875,-0.8920135498046875,-0.08642578125,0.1438446044921875
1782845403261403100,4.639403076171875,-0.905792236328125,-0.076507568359375,0.1266632080078125
1782845403271406800,4.64940673828125,-0.908172607421875,-0.0579071044921875,0.1165618896484375
1782845403281411800,4.659411865234375,-0.9294586181640625,-0.05352783203125,0.1104736328125
1782845403291415800,4.669415771484375,-0.955810546875,-0.065521240234375,0.105865478515625
1782845403301420800,4.6794208984375,-0.9730682373046875,-0.0774688720703125,0.115203857421875
1782845403311425000,4.689425048828125,-0.98541259765625,-0.08331298828125,0.1400909423828125
1782845403321430000,4.699429931640625,-0.994537353515625,-0.0852508544921875,0.1612091064453125
1782845403331434000,4.70943408203125,-0.9985198974609375,-0.096160888671875,0.1652069091796875
1782845403341439000,4.71943896484375,-0.999114990234375,-0.10540771484375,0.1556396484375
1782845403351443000,4.72944287109375,-1.0015716552734375,-0.1046600341796875,0.14447021484375
1782845403361448000,4.739447998046875,-1.011627197265625,-0.1096649169921875,0.1341400146484375
1782845403371452200,4.7494521484375,-1.013214111328125,-0.1170654296875,0.1183929443359375
1782845403381457200,4.75945703125,-1.01776123046875,-0.121246337890625,0.10791015625
1782845403391460900,4.7694609375,-1.0366668701171875,-0.1234283447265625,0.096771240234375
1782845403401465900,4.7794658203125,-1.0603485107421875,-0.1285247802734375,0.0899200439453125
1782845403411469800,4.7894697265625,-1.08795166015625,-0.1337738037109375,0.0851287841796875
1782845403421474800,4.799474853515625,-1.1106109619140625,-0.1439056396484375,0.07916259765625
1782845403431479000,4.80947900390625,-1.1286773681640625,-0.14935302734375,0.07452392578125
1782845403441484000,4.819484130859375,-1.134674072265625,-0.150360107421875,0.0719451904296875
1782845403451488000,4.829488037109375,-1.1320648193359375,-0.152435302734375,0.0760345458984375
1782845403461493000,4.839492919921875,-1.1274566650390625,-0.14990234375,0.076446533203125
1782845403471497000,4.8494970703125,-1.107574462890625,-0.1488494873046875,0.070281982421875
1782845403481502000,4.859501953125,-1.0738677978515625,-0.1536865234375,0.0637054443359375
1782845403491506200,4.869506103515625,-1.0357513427734375,-0.1585845947265625,0.0543212890625
1782845403501511200,4.87951123046875,-0.9990692138671875,-0.1636962890625,0.0434112548828125
1782845403511515000,4.889514892578125,-0.962646484375,-0.16143798828125,0.0377044677734375
1782845403521519900,4.899519775390625,-0.9327545166015625,-0.1597747802734375,0.0359344482421875
1782845403531523800,4.90952392578125,-0.913299560546875,-0.16998291015625,0.031280517578125
1782845403541528800,4.91952880859375,-0.88720703125,-0.1746063232421875,0.026947021484375
1782845403551533000,4.929532958984375,-0.8582611083984375,-0.1680755615234375,0.025848388671875
1782845403561538000,4.9395380859375,-0.839630126953125,-0.1678466796875,0.0214996337890625
1782845403571542000,4.9495419921875,-0.8313446044921875,-0.1735382080078125,0.01641845703125
1782845403581547000,4.959547119140625,-0.8294677734375,-0.1748504638671875,0.0168609619140625
1782845403591551000,4.969551025390625,-0.8418731689453125,-0.1775665283203125,0.0183868408203125
1782845403601556000,4.979555908203125,-0.8513946533203125,-0.1737823486328125,0.0143585205078125
1782845403611560000,4.989559814453125,-0.8680267333984375,-0.1710052490234375,0.0127410888671875
1782845403621565000,4.99956494140625,-0.8860321044921875,-0.1818695068359375,0.0091400146484375
1782845403631569000,5.00956884765625,-0.89947509765625,-0.1825103759765625,0.006256103515625
1782845403641574000,5.019573974609375,-0.9303741455078125,-0.1817779541015625,0.0049896240234375
1782845403651577900,5.029577880859375,-0.9668731689453125,-0.18804931640625,0.0048980712890625
1782845403661582800,5.039582763671875,-0.9901123046875,-0.189117431640625,-0.0019989013671875
1782845403671587000,5.049587158203125,-1.006561279296875,-0.1893768310546875,-0.00750732421875
1782845403681592000,5.059592041015625,-1.023345947265625,-0.1867218017578125,-0.0107269287109375
1782845403691596000,5.069595947265625,-1.0393829345703125,-0.18914794921875,-0.0130615234375
1782845403701601000,5.07960107421875,-1.0442047119140625,-0.197235107421875,-0.011566162109375
1782845403711605000,5.08960498046875,-1.0482635498046875,-0.2006072998046875,-0.0093841552734375
1782845403721610000,5.09960986328125,-1.048980712890625,-0.2034149169921875,-0.007354736328125
1782845403731614000,5.109614013671875,-1.0367889404296875,-0.2047576904296875,-0.00885009765625
1782845403741619000,5.119618896484375,-1.01751708984375,-0.2062835693359375,-0.00927734375
1782845403751623000,5.129622802734375,-1.000274658203125,-0.2076416015625,-0.0052032470703125
1782845403761628000,5.1396279296875,-0.99334716796875,-0.2073516845703125,-0.0009918212890625
1782845403771631600,5.149631591796875,-0.9905853271484375,-0.2128143310546875,0.0075836181640625
1782845403781636600,5.15963671875,-0.9845733642578125,-0.21661376953125,0.0168914794921875
1782845403791640800,5.169640869140625,-0.975189208984375,-0.2152862548828125,0.0302734375
1782845403801645800,5.179645751953125,-0.9613800048828125,-0.2104034423828125,0.0420684814453125
1782845403811649800,5.18964990234375,-0.9510498046875,-0.214019775390625,0.0472412109375
1782845403821654800,5.19965478515625,-0.942626953125,-0.218536376953125,0.0503387451171875
1782845403831658800,5.20965869140625,-0.9372406005859375,-0.2219390869140625,0.0505218505859375
1782845403841663700,5.219663818359375,-0.9373321533203125,-0.2241973876953125,0.0469818115234375
1782845403851668000,5.22966796875,-0.946502685546875,-0.2260284423828125,0.046875
1782845403861673000,5.2396728515625,-0.96112060546875,-0.2258758544921875,0.04949951171875
1782845403871677000,5.249677001953125,-0.9770965576171875,-0.226531982421875,0.0472259521484375
1782845403881682000,5.259681884765625,-0.9879913330078125,-0.2219696044921875,0.0423126220703125
1782845403891685600,5.269685546875,-0.9912567138671875,-0.2192535400390625,0.036956787109375
1782845403901690600,5.279690673828125,-0.9869384765625,-0.218841552734375,0.0359344482421875
1782845403911694800,5.28969482421875,-0.976287841796875,-0.223785400390625,0.03851318359375
1782845403921699800,5.299699951171875,-0.9582061767578125,-0.224639892578125,0.0379180908203125
1782845403931703800,5.309703857421875,-0.94744873046875,-0.226959228515625,0.0352630615234375
1782845403941708800,5.319708740234375,-0.94512939453125,-0.2314605712890625,0.0293426513671875
1782845403951712800,5.329712646484375,-0.9412078857421875,-0.2349853515625,0.02105712890625
1782845403961717800,5.3397177734375,-0.9435577392578125,-0.2393951416015625,0.020050048828125
1782845403971722000,5.349721923828125,-0.9516754150390625,-0.2452392578125,0.023712158203125
1782845403981727000,5.35972705078125,-0.95684814453125,-0.251739501953125,0.0291748046875
1782845403991731000,5.36973095703125,-0.9571075439453125,-0.2532806396484375,0.031890869140625
1782845404001736000,5.37973583984375,-0.95458984375,-0.25408935546875,0.0319366455078125
1782845404011739600,5.38973974609375,-0.9592742919921875,-0.2614593505859375,0.0341339111328125
1782845404021744600,5.39974462890625,-0.96258544921875,-0.265533447265625,0.037506103515625
1782845404031748900,5.409748779296875,-0.9726409912109375,-0.264404296875,0.0412139892578125
1782845404041752800,5.4197529296875,-0.984405517578125,-0.269561767578125,0.0419769287109375
1782845404051757800,5.4297578125,-0.996307373046875,-0.273468017578125,0.0421295166015625
1782845404061762800,5.4397626953125,-0.9935302734375,-0.2726593017578125,0.04608154296875
1782845404071766800,5.449766845703125,-0.9833831787109375,-0.2796173095703125,0.0462188720703125
1782845404081771000,5.45977099609375,-0.973541259765625,-0.2804412841796875,0.04718017578125
1782845404091776000,5.46977587890625,-0.9696044921875,-0.2762451171875,0.046905517578125
1782845404101779700,5.47977978515625,-0.9672698974609375,-0.265533447265625,0.0374908447265625
1782845404111784700,5.48978466796875,-0.966705322265625,-0.248779296875,0.0245819091796875
1782845404121788700,5.49978857421875,-0.959014892578125,-0.2303009033203125,0.011138916015625
1782845404131793700,5.509793701171875,-0.93585205078125,-0.2275238037109375,-0.011260986328125
1782845404141798000,5.5197978515625,-0.918060302734375,-0.235382080078125,-0.0130615234375
1782845404151803000,5.529802978515625,-0.9142608642578125,-0.2339935302734375,0.01483154296875
1782845404161806800,5.539806884765625,-0.930755615234375,-0.22857666015625,0.051513671875
1782845404171811800,5.549811767578125,-0.976531982421875,-0.22943115234375,0.0735931396484375
1782845404181815800,5.55981591796875,-1.037506103515625,-0.2284698486328125,0.0792694091796875
1782845404191820800,5.56982080078125,-1.0809783935546875,-0.2123870849609375,0.0757904052734375
1782845404201825000,5.579824951171875,-1.1043243408203125,-0.20135498046875,0.0640869140625
1782845404211830000,5.589830078125,-1.131195068359375,-0.2020721435546875,0.059844970703125
1782845404221833700,5.599833740234375,-1.153656005859375,-0.194061279296875,0.05133056640625
1782845404231838700,5.609838623046875,-1.158538818359375,-0.192138671875,0.0284576416015625
1782845404241842700,5.6198427734375,-1.161865234375,-0.19427490234375,0.012908935546875
1782845404251847700,5.62984765625,-1.1561431884765625,-0.1938323974609375,-0.0052337646484375
1782845404261852000,5.639851806640625,-1.13934326171875,-0.1932220458984375,-0.0203399658203125
1782845404271857000,5.64985693359375,-1.1096649169921875,-0.1882781982421875,-0.0338592529296875
1782845404281860900,5.65986083984375,-1.06732177734375,-0.18145751953125,-0.0433349609375
1782845404291865900,5.669865966796875,-1.00177001953125,-0.1742706298828125,-0.04632568359375
1782845404301869800,5.679869873046875,-0.9375,-0.1725921630859375,-0.0423431396484375
1782845404311874800,5.689874755859375,-0.893585205078125,-0.175567626953125,-0.0243072509765625
1782845404321878800,5.699878662109375,-0.8655853271484375,-0.1689300537109375,-0.00347900390625
1782845404331884000,5.709884033203125,-0.8415985107421875,-0.162689208984375,0.0081329345703125
1782845404341887700,5.7198876953125,-0.8370361328125,-0.159515380859375,0.0200958251953125
1782845404351892700,5.729892822265625,-0.8470306396484375,-0.152679443359375,0.0282745361328125
1782845404361896700,5.739896728515625,-0.8692474365234375,-0.1534881591796875,0.0348968505859375
1782845404371901700,5.749901611328125,-0.89276123046875,-0.161346435546875,0.0513916015625
1782845404381906000,5.759906005859375,-0.911651611328125,-0.1699981689453125,0.070343017578125
1782845404391911000,5.769910888671875,-0.930206298828125,-0.1804046630859375,0.0891571044921875
1782845404401915000,5.779914794921875,-0.9428558349609375,-0.1811065673828125,0.117645263671875
1782845404411920000,5.789919921875,-0.9400787353515625,-0.176055908203125,0.1368560791015625
1782845404421923800,5.799923828125,-0.9355010986328125,-0.18304443359375,0.1463623046875
1782845404431928800,5.8099287109375,-0.9405975341796875,-0.198699951171875,0.1591644287109375
1782845404441932800,5.819932861328125,-0.9402618408203125,-0.2106170654296875,0.172607421875
1782845404451937800,5.829937744140625,-0.9320068359375,-0.22369384765625,0.1830596923828125
1782845404461941800,5.839941650390625,-0.938079833984375,-0.2385711669921875,0.177276611328125
1782845404471946800,5.84994677734375,-0.945648193359375,-0.255096435546875,0.1765289306640625
1782845404481950700,5.85995068359375,-0.9504241943359375,-0.27032470703125,0.1744384765625
1782845404491955700,5.869955810546875,-0.9503936767578125,-0.28619384765625,0.1695709228515625
1782845404501959700,5.879959716796875,-0.9546051025390625,-0.295684814453125,0.164337158203125
1782845404511964700,5.889964599609375,-0.96240234375,-0.302398681640625,0.154327392578125
1782845404521969000,5.899968994140625,-0.97747802734375,-0.3004150390625,0.13751220703125
1782845404531974000,5.909973876953125,-0.9933013916015625,-0.3008270263671875,0.1202392578125
1782845404541977900,5.919977783203125,-1.004913330078125,-0.3049468994140625,0.0979766845703125
1782845404551982800,5.92998291015625,-1.0093231201171875,-0.29156494140625,0.0829925537109375
1782845404561986800,5.93998681640625,-1.00677490234375,-0.2717742919921875,0.0666961669921875
1782845404571991800,5.94999169921875,-0.99658203125,-0.2706146240234375,0.0445404052734375
1782845404581995800,5.959995849609375,-0.9845123291015625,-0.2478485107421875,0.03271484375
1782845404592000800,5.970000732421875,-0.972259521484375,-0.2233123779296875,0.0225677490234375
1782845404602004700,5.980004638671875,-0.9528350830078125,-0.22259521484375,0.00732421875
1782845404612009700,5.990009765625,-0.9259033203125,-0.22210693359375,0.000213623046875
1782845404622013700,6.000013671875,-0.9146575927734375,-0.218231201171875,-0.0007781982421875
1782845404632018700,6.010018798828125,-0.916534423828125,-0.2199554443359375,0.0142974853515625
1782845404642023000,6.02002294921875,-0.9177398681640625,-0.2174835205078125,0.0250701904296875
1782845404652028000,6.03002783203125,-0.917449951171875,-0.221954345703125,0.0310821533203125
1782845404662032000,6.040031982421875,-0.9162139892578125,-0.2310943603515625,0.036956787109375
1782845404672036900,6.050036865234375,-0.9179840087890625,-0.23577880859375,0.052001953125
1782845404682040800,6.060040771484375,-0.9174041748046875,-0.2424163818359375,0.0667572021484375
1782845404692045800,6.0700458984375,-0.9155426025390625,-0.246551513671875,0.072998046875
1782845404702049800,6.0800498046875,-0.913482666015625,-0.2498626708984375,0.0780487060546875
1782845404712054800,6.0900546875,-0.919708251953125,-0.257843017578125,0.079925537109375
1782845404722058800,6.100058837890625,-0.918487548828125,-0.262786865234375,0.0886077880859375
1782845404732064000,6.11006396484375,-0.91375732421875,-0.2709197998046875,0.096282958984375
1782845404742068000,6.12006787109375,-0.9140167236328125,-0.2780609130859375,0.1022796630859375
1782845404752073000,6.130072998046875,-0.9122161865234375,-0.2783050537109375,0.109588623046875
1782845404762077200,6.1400771484375,-0.9092254638671875,-0.2748870849609375,0.1215972900390625
1782845404772082200,6.150082275390625,-0.910980224609375,-0.269378662109375,0.1331634521484375
1782845404782086000,6.1600859375,-0.9107513427734375,-0.2693328857421875,0.1362457275390625
1782845404792091000,6.1700908203125,-0.904144287109375,-0.2682342529296875,0.14141845703125
1782845404802094800,6.1800947265625,-0.90289306640625,-0.267181396484375,0.1396026611328125
1782845404812099000,6.19009912109375,-0.907928466796875,-0.259613037109375,0.13330078125
1782845404822104000,6.20010400390625,-0.9103851318359375,-0.251983642578125,0.1241912841796875
1782845404832108000,6.21010791015625,-0.90887451171875,-0.252532958984375,0.113739013671875
1782845404842113000,6.220113037109375,-0.909881591796875,-0.260894775390625,0.1056671142578125
1782845404852117000,6.230116943359375,-0.9026947021484375,-0.269500732421875,0.0926055908203125
1782845404862122000,6.2401220703125,-0.8956451416015625,-0.2856597900390625,0.07525634765625
1782845404872126000,6.2501259765625,-0.8892822265625,-0.3046417236328125,0.0633392333984375
1782845404882131200,6.260131103515625,-0.892730712890625,-0.3193511962890625,0.059814453125
1782845404892135000,6.270135009765625,-0.904144287109375,-0.3255157470703125,0.058013916015625
1782845404902140000,6.280139892578125,-0.91552734375,-0.333221435546875,0.053619384765625
1782845404912144000,6.290143798828125,-0.9306488037109375,-0.33953857421875,0.0509796142578125
1782845404922148900,6.30014892578125,-0.93707275390625,-0.344268798828125,0.04559326171875
1782845404932153000,6.310153076171875,-0.93878173828125,-0.3506927490234375,0.0414581298828125
1782845404942158000,6.320157958984375,-0.93829345703125,-0.35107421875,0.03839111328125
1782845404952162000,6.330162109375,-0.929840087890625,-0.3476715087890625,0.0376434326171875
1782845404962167000,6.3401669921875,-0.91058349609375,-0.3470611572265625,0.0380401611328125
1782845404972171000,6.3501708984375,-0.887420654296875,-0.3444061279296875,0.042266845703125
1782845404982176000,6.360176025390625,-0.8635711669921875,-0.3443756103515625,0.04986572265625
1782845404992180000,6.370179931640625,-0.8499298095703125,-0.346832275390625,0.0578460693359375
1782845405002185000,6.38018505859375,-0.84722900390625,-0.348175048828125,0.07098388671875
1782845405012189000,6.39018896484375,-0.85736083984375,-0.348724365234375,0.086883544921875
1782845405022194000,6.40019384765625,-0.8717803955078125,-0.3454437255859375,0.1022491455078125
1782845405032198000,6.410197998046875,-0.886138916015625,-0.34222412109375,0.1152496337890625
1782845405042203000,6.420202880859375,-0.897918701171875,-0.3484649658203125,0.1154327392578125
1782845405052207000,6.43020703125,-0.9058380126953125,-0.365234375,0.1131439208984375
1782845405062212000,6.440212158203125,-0.9275665283203125,-0.386322021484375,0.105926513671875
1782845405072216000,6.450216064453125,-0.95721435546875,-0.4030609130859375,0.090850830078125
1782845405082221000,6.460220947265625,-0.9890899658203125,-0.4113311767578125,0.0780792236328125
1782845405092225000,6.47022509765625,-1.0211181640625,-0.4329986572265625,0.062530517578125
1782845405102230000,6.48022998046875,-1.05731201171875,-0.458282470703125,0.05230712890625
1782845405112234000,6.49023388671875,-1.098358154296875,-0.462554931640625,0.05096435546875
1782845405122239000,6.500239013671875,-1.1328277587890625,-0.4536285400390625,0.0484771728515625
1782845405132243000,6.510242919921875,-1.158050537109375,-0.4306640625,0.0422210693359375
1782845405142248000,6.520248046875,-1.1709442138671875,-0.393310546875,0.037689208984375
1782845405152252000,6.530251953125,-1.1670989990234375,-0.370391845703125,0.0348968505859375
1782845405162257000,6.5402568359375,-1.1404571533203125,-0.3498992919921875,0.0445556640625
1782845405172261000,6.55026123046875,-1.105712890625,-0.3215484619140625,0.060272216796875
1782845405182266000,6.56026611328125,-1.0655517578125,-0.297698974609375,0.0762481689453125
1782845405192270000,6.57027001953125,-1.03179931640625,-0.286956787109375,0.09185791015625
1782845405202275000,6.580275146484375,-1.0127105712890625,-0.2796173095703125,0.1061553955078125
1782845405212279000,6.590279052734375,-0.9968109130859375,-0.2562408447265625,0.1234130859375
1782845405222284000,6.600283935546875,-0.97833251953125,-0.2352752685546875,0.1324615478515625
1782845405232288000,6.6102880859375,-0.9597625732421875,-0.2355194091796875,0.1343841552734375
1782845405242293000,6.62029296875,-0.947540283203125,-0.2388153076171875,0.1383514404296875
1782845405252297000,6.630296875,-0.9381103515625,-0.2321929931640625,0.14752197265625
1782845405262302000,6.640302001953125,-0.93011474609375,-0.2298431396484375,0.14508056640625
1782845405272306000,6.650305908203125,-0.9083099365234375,-0.22271728515625,0.1407928466796875
1782845405282311000,6.660310791015625,-0.89404296875,-0.217803955078125,0.1332855224609375
1782845405292315000,6.67031494140625,-0.8894195556640625,-0.234344482421875,0.1269073486328125
1782845405302320000,6.680320068359375,-0.8857269287109375,-0.2459564208984375,0.1327362060546875
1782845405312324000,6.690323974609375,-0.8854522705078125,-0.2537841796875,0.1414794921875
1782845405322329000,6.7003291015625,-0.891571044921875,-0.2457427978515625,0.148590087890625
1782845405332333000,6.7103330078125,-0.9018096923828125,-0.2291717529296875,0.14813232421875
1782845405342338000,6.720338134765625,-0.9094390869140625,-0.237579345703125,0.1348114013671875
1782845405352342000,6.730342041015625,-0.9156646728515625,-0.2177734375,0.1293182373046875
1782845405362347000,6.740346923828125,-0.922332763671875,-0.2015533447265625,0.1260986328125
1782845405372351000,6.75035107421875,-0.920989990234375,-0.1838836669921875,0.1245880126953125
1782845405382356000,6.76035595703125,-0.9172515869140625,-0.171722412109375,0.1239776611328125
1782845405392360000,6.77035986328125,-0.9121246337890625,-0.167205810546875,0.1217803955078125
1782845405402365000,6.780364990234375,-0.90948486328125,-0.16510009765625,0.118896484375
1782845405412369000,6.790368896484375,-0.9140777587890625,-0.155059814453125,0.1160888671875
1782845405422374000,6.800373779296875,-0.915740966796875,-0.1434326171875,0.1171417236328125
1782845405432378000,6.810378173828125,-0.9127960205078125,-0.1451568603515625,0.118408203125
1782845405442383000,6.820383056640625,-0.9130706787109375,-0.1542205810546875,0.117767333984375
1782845405452387000,6.830386962890625,-0.910430908203125,-0.154449462890625,0.111236572265625
1782845405462392000,6.84039208984375,-0.902984619140625,-0.1493072509765625,0.1033477783203125
1782845405472395800,6.850395751953125,-0.89544677734375,-0.14208984375,0.09588623046875
1782845405482400000,6.86039990234375,-0.892242431640625,-0.13543701171875,0.0857696533203125
1782845405492405000,6.870405029296875,-0.900238037109375,-0.1303863525390625,0.070281982421875
1782845405502409000,6.880408935546875,-0.91058349609375,-0.134307861328125,0.0567169189453125
1782845405512414000,6.8904140625,-0.919952392578125,-0.1424102783203125,0.0428924560546875
1782845405522418000,6.90041796875,-0.932281494140625,-0.148162841796875,0.0388031005859375
1782845405532423000,6.9104228515625,-0.947784423828125,-0.149200439453125,0.0423431396484375
1782845405542427100,6.92042724609375,-0.9551239013671875,-0.151458740234375,0.05108642578125
1782845405552432000,6.93043212890625,-0.9647369384765625,-0.15869140625,0.0555877685546875
1782845405562435800,6.940435791015625,-0.968048095703125,-0.1655731201171875,0.052734375
1782845405572440800,6.95044091796875,-0.9698638916015625,-0.1769561767578125,0.0584564208984375
1782845405582444800,6.96044482421875,-0.978363037109375,-0.19415283203125,0.0693817138671875
1782845405592449800,6.97044970703125,-0.9701080322265625,-0.209075927734375,0.074676513671875
1782845405602454000,6.9804541015625,-0.96490478515625,-0.2109222412109375,0.0811614990234375
1782845405612459000,6.990458984375,-0.968658447265625,-0.218658447265625,0.080322265625
1782845405622463000,7.000462890625,-0.969696044921875,-0.2248077392578125,0.0749359130859375
1782845405632468000,7.010468017578125,-0.9715728759765625,-0.2200775146484375,0.0750579833984375
1782845405642472000,7.020471923828125,-0.9819183349609375,-0.2146759033203125,0.0687408447265625
1782845405652477000,7.030476806640625,-0.99395751953125,-0.211822509765625,0.0661773681640625
1782845405662481200,7.040481201171875,-0.99945068359375,-0.2051239013671875,0.0707550048828125
1782845405672486100,7.050486083984375,-0.998779296875,-0.206207275390625,0.07794189453125
1782845405682489900,7.06048974609375,-0.9933624267578125,-0.2073211669921875,0.0824127197265625
1782845405692494800,7.070494873046875,-0.980133056640625,-0.20147705078125,0.0810089111328125
1782845405702498800,7.080498779296875,-0.96051025390625,-0.1974945068359375,0.0690460205078125
1782845405712503800,7.09050390625,-0.9395751953125,-0.1933441162109375,0.0575103759765625
1782845405722508000,7.100508056640625,-0.925567626953125,-0.1949310302734375,0.0512237548828125
1782845405732513300,7.11051318359375,-0.920440673828125,-0.1969757080078125,0.052520751953125
1782845405742517200,7.120517333984375,-0.925811767578125,-0.194854736328125,0.0618896484375
1782845405752522200,7.130522216796875,-0.9417877197265625,-0.2010955810546875,0.0671539306640625
1782845405762526200,7.140526123046875,-0.9627532958984375,-0.2091522216796875,0.0661163330078125
1782845405772531200,7.15053125,-0.982330322265625,-0.2166595458984375,0.0639190673828125
1782845405782535200,7.16053515625,-0.9959716796875,-0.2260589599609375,0.0597076416015625
1782845405792540200,7.1705400390625,-1.0092315673828125,-0.237091064453125,0.0529632568359375
1782845405802544000,7.180544189453125,-1.0219268798828125,-0.24609375,0.046966552734375
1782845405812549000,7.190549072265625,-1.031890869140625,-0.2531280517578125,0.03424072265625
1782845405822553000,7.200552978515625,-1.038604736328125,-0.25946044921875,0.0206298828125
1782845405832558000,7.21055810546875,-1.0361480712890625,-0.26226806640625,0.014312744140625
1782845405842562300,7.220562255859375,-1.0194854736328125,-0.263702392578125,0.0124053955078125
1782845405852567300,7.2305673828125,-0.997467041015625,-0.26788330078125,0.0120086669921875
1782845405862571300,7.2405712890625,-0.9684295654296875,-0.2665863037109375,0.016693115234375
1782845405872576300,7.250576171875,-0.9483184814453125,-0.262542724609375,0.0219268798828125
1782845405882580200,7.260580322265625,-0.936981201171875,-0.2606048583984375,0.0276947021484375
1782845405892585200,7.270585205078125,-0.9240264892578125,-0.257171630859375,0.031585693359375
1782845405902589200,7.280589111328125,-0.913665771484375,-0.2540283203125,0.036163330078125
1782845405912594200,7.29059423828125,-0.9206390380859375,-0.250335693359375,0.0379486083984375
1782845405922598100,7.30059814453125,-0.926025390625,-0.2501678466796875,0.0445404052734375
1782845405932603100,7.31060302734375,-0.926177978515625,-0.2571258544921875,0.0508575439453125
1782845405942607000,7.320607177734375,-0.9294586181640625,-0.260498046875,0.0587005615234375
1782845405952612000,7.330612060546875,-0.9361419677734375,-0.2670745849609375,0.0642547607421875
1782845405962616300,7.3406162109375,-0.9358673095703125,-0.276031494140625,0.064605712890625
1782845405972621300,7.350621337890625,-0.9363555908203125,-0.2810516357421875,0.059844970703125
1782845405982625300,7.360625244140625,-0.9384613037109375,-0.28009033203125,0.0510406494140625
1782845405992630300,7.37063037109375,-0.9372711181640625,-0.277008056640625,0.040802001953125
1782845406002634200,7.38063427734375,-0.939178466796875,-0.2764129638671875,0.030487060546875
1782845406012639200,7.39063916015625,-0.9463958740234375,-0.2779541015625,0.0267181396484375
1782845406022643200,7.400643310546875,-0.953521728515625,-0.282470703125,0.0211639404296875
1782845406032648200,7.410648193359375,-0.9613037109375,-0.274749755859375,0.0234222412109375
1782845406042652200,7.420652099609375,-0.9564666748046875,-0.269805908203125,0.027740478515625
1782845406052657200,7.4306572265625,-0.9667205810546875,-0.2679290771484375,0.0308380126953125
1782845406062661000,7.4406611328125,-0.97296142578125,-0.26336669921875,0.0424652099609375
1782845406072666000,7.450666015625,-0.9821624755859375,-0.250823974609375,0.0474395751953125
1782845406082670300,7.46067041015625,-0.983489990234375,-0.2532501220703125,0.037841796875
1782845406092675300,7.47067529296875,-0.9796295166015625,-0.252960205078125,0.028411865234375
1782845406102679300,7.48067919921875,-0.988433837890625,-0.2512664794921875,0.03466796875
1782845406112683300,7.490683349609375,-0.99755859375,-0.255950927734375,0.0456390380859375
1782845406122688300,7.500688232421875,-1.0066680908203125,-0.254791259765625,0.0391693115234375
1782845406132692200,7.510692138671875,-1.02642822265625,-0.247314453125,0.0317535400390625
1782845406142697200,7.520697265625,-1.0157012939453125,-0.2526092529296875,0.0262451171875
1782845406152701200,7.530701171875,-0.9961700439453125,-0.256378173828125,0.018768310546875
1782845406162706200,7.5407060546875,-0.987762451171875,-0.2615814208984375,0.0113677978515625
1782845406172710100,7.550710205078125,-0.9950408935546875,-0.2686614990234375,0.0117950439453125
1782845406182715100,7.560715087890625,-1.010955810546875,-0.270599365234375,0.0107269287109375
1782845406192719000,7.570718994140625,-1.025726318359375,-0.2682037353515625,0.006378173828125
1782845406202724000,7.58072412109375,-1.040130615234375,-0.2517547607421875,-0.0086517333984375
1782845406212728300,7.590728271484375,-1.045074462890625,-0.2359619140625,-0.02874755859375
1782845406222733300,7.6007333984375,-1.0343170166015625,-0.2249298095703125,-0.0458221435546875
1782845406232737300,7.6107373046875,-1.024688720703125,-0.2117919921875,-0.0496826171875
1782845406242742300,7.6207421875,-1.02105712890625,-0.2016448974609375,-0.0428619384765625
1782845406252746000,7.63074609375,-1.0225067138671875,-0.2001495361328125,-0.0229949951171875
1782845406262751000,7.6407509765625,-1.0296783447265625,-0.21173095703125,0.0024871826171875
1782845406272755200,7.650755126953125,-1.041015625,-0.226715087890625,0.0264129638671875
1782845406282760200,7.66076025390625,-1.0547332763671875,-0.2284393310546875,0.0366058349609375
1782845406292764200,7.67076416015625,-1.0828399658203125,-0.2189178466796875,0.0582427978515625
1782845406302769200,7.68076904296875,-1.0775909423828125,-0.2379150390625,0.0670013427734375
1782845406312773000,7.690773193359375,-1.066009521484375,-0.2580718994140625,0.0655975341796875
1782845406322778000,7.700778076171875,-1.051239013671875,-0.250091552734375,0.058258056640625
1782845406332782300,7.7107822265625,-1.0397186279296875,-0.245880126953125,0.04248046875
1782845406342787300,7.720787353515625,-1.033599853515625,-0.2450408935546875,0.0234527587890625
1782845406352791000,7.730791015625,-1.0222625732421875,-0.2358245849609375,0.0107574462890625
1782845406362796300,7.74079638671875,-1.0116119384765625,-0.2232208251953125,0.0086212158203125
1782845406372800000,7.750800048828125,-1.00579833984375,-0.2158660888671875,0.003631591796875
1782845406382805000,7.760804931640625,-0.9857330322265625,-0.20458984375,0.0012359619140625
1782845406392809200,7.770809326171875,-0.9690704345703125,-0.1898040771484375,0.007080078125
1782845406402814200,7.780814208984375,-0.954071044921875,-0.1805267333984375,0.0143585205078125
1782845406412818200,7.790818115234375,-0.940460205078125,-0.167205810546875,0.0181732177734375
1782845406422823200,7.8008232421875,-0.9190673828125,-0.1616058349609375,0.0241851806640625
1782845406432827100,7.8108271484375,-0.895538330078125,-0.1566619873046875,0.03363037109375
1782845406442832100,7.82083203125,-0.878936767578125,-0.1537933349609375,0.0441131591796875
1782845406452836400,7.83083642578125,-0.8637542724609375,-0.1450042724609375,0.05487060546875
1782845406462841300,7.84084130859375,-0.844482421875,-0.1411895751953125,0.0637969970703125
1782845406472845000,7.850844970703125,-0.82977294921875,-0.1448822021484375,0.0728302001953125
1782845406482850000,7.86085009765625,-0.81903076171875,-0.1581878662109375,0.0888824462890625
1782845406492854000,7.87085400390625,-0.8093719482421875,-0.1700439453125,0.1060791015625
1782845406502859000,7.88085888671875,-0.8073577880859375,-0.1858367919921875,0.1157989501953125
1782845406512863200,7.89086328125,-0.798370361328125,-0.2055511474609375,0.124542236328125
1782845406522868200,7.9008681640625,-0.7835845947265625,-0.2248077392578125,0.133209228515625
1782845406532872200,7.9108720703125,-0.78790283203125,-0.2364349365234375,0.1419677734375
1782845406542877200,7.920877197265625,-0.8093719482421875,-0.24224853515625,0.1511688232421875
1782845406552881200,7.930881103515625,-0.83514404296875,-0.249420166015625,0.1578521728515625
1782845406562886100,7.94088623046875,-0.86700439453125,-0.25933837890625,0.1572723388671875
1782845406572890400,7.950890380859375,-0.913482666015625,-0.2654876708984375,0.1518707275390625
1782845406582895400,7.960895263671875,-0.9697265625,-0.277191162109375,0.157196044921875
1782845406592899000,7.970899169921875,-1.035736083984375,-0.284454345703125,0.16754150390625
1782845406602904000,7.980904052734375,-1.0833587646484375,-0.286163330078125,0.1708831787109375
1782845406612908000,7.990907958984375,-1.116729736328125,-0.2900543212890625,0.17633056640625
1782845406622913000,8.0009130859375,-1.1585693359375,-0.284698486328125,0.1810150146484375
1782845406632917200,8.010917236328124,-1.17791748046875,-0.2650604248046875,0.1819305419921875
1782845406642922200,8.020922119140625,-1.17950439453125,-0.2461395263671875,0.173736572265625
1782845406652926200,8.03092626953125,-1.1518707275390625,-0.2330780029296875,0.1605682373046875
1782845406662931200,8.04093115234375,-1.1058197021484375,-0.216094970703125,0.143707275390625
1782845406672935200,8.05093505859375,-1.0477447509765625,-0.199798583984375,0.1126556396484375
1782845406682940200,8.060940185546874,-0.9960479736328125,-0.18798828125,0.0892486572265625
1782845406692944400,8.0709443359375,-0.961029052734375,-0.187713623046875,0.075469970703125
1782845406702949400,8.080949462890626,-0.9397430419921875,-0.1884765625,0.0746917724609375
1782845406712953000,8.090953125,-0.9277496337890625,-0.19775390625,0.0709075927734375
1782845406722958000,8.1009580078125,-0.924591064453125,-0.218353271484375,0.0654754638671875
1782845406732961800,8.1109619140625,-0.9272918701171875,-0.22747802734375,0.065673828125
1782845406742966800,8.120966796875,-0.931610107421875,-0.2294921875,0.066741943359375
1782845406752970800,8.130970703125,-0.9314117431640625,-0.2303009033203125,0.06683349609375
1782845406762974700,8.140974609375,-0.9287872314453125,-0.23406982421875,0.061431884765625
1782845406772979700,8.150979736328125,-0.9197235107421875,-0.23406982421875,0.062652587890625
1782845406782983700,8.160983642578126,-0.9125823974609375,-0.243194580078125,0.0589447021484375
1782845406792988700,8.17098876953125,-0.9141693115234375,-0.245330810546875,0.0566864013671875
1782845406802993000,8.180992919921875,-0.91595458984375,-0.234039306640625,0.0597381591796875
1782845406812998000,8.190997802734374,-0.9228363037109375,-0.2330169677734375,0.0601806640625
1782845406823001900,8.201001953125,-0.9305419921875,-0.237762451171875,0.06622314453125
1782845406833006800,8.2110068359375,-0.93243408203125,-0.244720458984375,0.0735626220703125
1782845406843010800,8.2210107421875,-0.933074951171875,-0.2469635009765625,0.08428955078125
1782845406853015800,8.231015869140625,-0.927490234375,-0.2470245361328125,0.09271240234375
1782845406863019800,8.241019775390624,-0.923980712890625,-0.250732421875,0.1014404296875
1782845406873024800,8.251024658203125,-0.920074462890625,-0.2534332275390625,0.107574462890625
1782845406883028700,8.26102880859375,-0.915313720703125,-0.2593231201171875,0.108367919921875
1782845406893033700,8.27103369140625,-0.91070556640625,-0.2607421875,0.1144561767578125
1782845406903037700,8.28103759765625,-0.9093475341796875,-0.2548828125,0.12103271484375
1782845406913042700,8.291042724609374,-0.90435791015625,-0.2428131103515625,0.1221466064453125
1782845406923047000,8.301046875,-0.894866943359375,-0.241058349609375,0.1201171875
1782845406933052000,8.311052001953126,-0.8934326171875,-0.2448883056640625,0.1172027587890625
1782845406943056000,8.321055908203125,-0.8887786865234375,-0.24554443359375,0.110015869140625
1782845406953060900,8.331060791015625,-0.88385009765625,-0.2520751953125,0.1009979248046875
1782845406963064800,8.34106494140625,-0.8849639892578125,-0.2552642822265625,0.101348876953125
1782845406973069800,8.35106982421875,-0.889007568359375,-0.2577362060546875,0.0976715087890625
1782845406983073800,8.36107373046875,-0.8927764892578125,-0.2652740478515625,0.09088134765625
1782845406993078800,8.371078857421875,-0.8927001953125,-0.2793426513671875,0.083282470703125
1782845407003082800,8.381082763671875,-0.8900299072265625,-0.2888946533203125,0.0771484375
1782845407013087700,8.391087646484374,-0.8973541259765625,-0.29791259765625,0.07550048828125
1782845407023091700,8.401091796875,-0.9144134521484375,-0.3009490966796875,0.0757904052734375
1782845407033096700,8.4110966796875,-0.94384765625,-0.300079345703125,0.076812744140625
1782845407043101000,8.421100830078124,-0.9753570556640625,-0.2977294921875,0.076995849609375
1782845407053106000,8.43110595703125,-0.992279052734375,-0.2989349365234375,0.074676513671875
1782845407063110000,8.44110986328125,-0.998565673828125,-0.308837890625,0.0722198486328125
1782845407073115000,8.451114990234375,-0.9925689697265625,-0.31512451171875,0.071746826171875
1782845407083118800,8.461118896484376,-0.9814910888671875,-0.31695556640625,0.0690460205078125
1782845407093123800,8.471123779296875,-0.9697265625,-0.3145904541015625,0.0637664794921875
1782845407103127800,8.4811279296875,-0.957489013671875,-0.304901123046875,0.05548095703125
1782845407113132800,8.4911328125,-0.939453125,-0.305908203125,0.046600341796875
1782845407123136800,8.50113671875,-0.9266510009765625,-0.3157958984375,0.0468597412109375
1782845407133141800,8.511141845703126,-0.918060302734375,-0.31707763671875,0.0593414306640625
1782845407143145700,8.521145751953124,-0.914459228515625,-0.3185272216796875,0.066253662109375
1782845407153150700,8.531150634765625,-0.908843994140625,-0.3207550048828125,0.0698394775390625
1782845407163155000,8.541155029296876,-0.90936279296875,-0.3218994140625,0.07373046875
1782845407173160000,8.551159912109375,-0.912353515625,-0.319091796875,0.070098876953125
1782845407183164000,8.561163818359375,-0.9120635986328125,-0.3191986083984375,0.0619964599609375
1782845407193169000,8.5711689453125,-0.9219512939453125,-0.3136749267578125,0.048736572265625
1782845407203172900,8.5811728515625,-0.9246063232421875,-0.318634033203125,0.029571533203125
1782845407213177900,8.591177734375,-0.91571044921875,-0.3231353759765625,0.0274200439453125
1782845407223181800,8.601181884765625,-0.846160888671875,-0.3309478759765625,0.067291259765625
1782845407233186800,8.611186767578126,-0.8959808349609375,-0.34234619140625,0.0796966552734375
1782845407243190800,8.621190673828124,-0.927276611328125,-0.373291015625,0.0655517578125
1782845407253195800,8.63119580078125,-0.927093505859375,-0.382598876953125,0.0595245361328125
1782845407263199700,8.64119970703125,-0.9300537109375,-0.3805084228515625,0.0557861328125
1782845407273204700,8.651204833984375,-0.94000244140625,-0.3685760498046875,0.0442962646484375
1782845407283209000,8.661208984375,-0.94036865234375,-0.353363037109375,0.0240631103515625
1782845407293214000,8.6712138671875,-0.9488983154296875,-0.3735504150390625,0.0170745849609375
1782845407303218000,8.681218017578125,-0.9466552734375,-0.3873291015625,0.03118896484375
