time,seconds_elapsed,z,y,x
1782845398696850700,0.0748505859375,0.8188590533494949,-1.4077894071280956,-0.08776888434588909
1782845398706855000,0.08485498046875,0.823657393541932,-1.3750934445761143,-0.19553557771220803
1782845398716860000,0.09485986328125,0.818558609098196,-1.3972655288957059,-0.3027875264894217
1782845398726863000,0.104863037109375,0.8226905943363905,-1.496244958563894,-0.390575188601017
1782845398736868000,0.1148681640625,0.7868775226771831,-1.5260799787268042,-0.4230572892066091
1782845398746872000,0.1248720703125,0.7239093175888061,-1.46850121159181,-0.4085287053775042
1782845398756877000,0.134876953125,0.5339443796157837,-1.436730693321675,-0.3657745824087411
1782845398766881300,0.14488134765625,0.3496843752861023,-1.4412284431323408,-0.3456204137828201
1782845398776886300,0.15488623046875,0.25942367412447925,-1.5498744035512209,-0.36541385933756826
1782845398786890200,0.16489013671875,0.1846943040937185,-1.6551017876982688,-0.37609716591536996
1782845398796895200,0.174895263671875,0.10401391670405864,-1.7281908431760966,-0.3807276387276128
1782845398806899200,0.184899169921875,0.100913612601161,-1.729325984685868,-0.32110819607786834
1782845398816904200,0.194904296875,0.18657412649095056,-1.5649556528270243,-0.2507320893531665
1782845398826908400,0.204908447265625,0.21162498111724853,-1.4498621237039566,-0.12143939101845025
1782845398836913400,0.214913330078125,0.1826210049510002,-1.2264933671705425,0.08685330387093126
1782845398846917000,0.224917236328125,0.09690028530657291,-0.9916820101246238,0.20001473242025822
1782845398856922000,0.234922119140625,-0.0014876082092523575,-0.810950326051563,0.3430504536969587
1782845398866926000,0.244926025390625,-0.1873620619982481,-0.6323859030149876,0.6309461525354534
1782845398876931000,0.25493115234375,-0.48372518146336074,-0.3891892872005701,1.0851771631628275
1782845398886935300,0.264935302734375,-0.8061503784239291,-0.24324147786945102,1.4231389519512652
1782845398896940300,0.274940185546875,-1.110795588544011,-0.24508052986487744,1.5244889101430772
1782845398906944300,0.2849443359375,-1.3525234469801186,-0.3675764441989362,1.509602891178429
1782845398916949200,0.29494921875,-1.2847341053456067,-0.5947469311028719,1.4705391471602023
1782845398926953200,0.304953125,-1.0035194551736115,-0.7617768375597894,1.3368711198180914
1782845398936958200,0.314958251953125,-0.8364023088246584,-0.8468773794792592,1.064017105429992
1782845398946962200,0.324962158203125,-0.9448024777889251,-0.8413536476217209,0.7667772031303495
1782845398956967200,0.33496728515625,-1.1910463523447512,-0.8850416904397308,0.533101973974891
1782845398966971100,0.34497119140625,-1.5136498284816742,-0.9873243994370102,0.47999417824149126
1782845398976976100,0.35497607421875,-1.7988789749920366,-0.9942176660820842,0.5711020708169787
1782845398986980000,0.36497998046875,-1.925157914996147,-0.7569416724883019,0.6315402459710836
1782845398996985000,0.374985107421875,-1.9128169043391943,-0.36707638572230933,0.685663758085668
1782845399006989300,0.3849892578125,-1.8001432958394288,-0.2974659661404788,0.5158004183011129
1782845399016994300,0.394994384765625,-1.5594301674038171,0.02282353396564722,0.4429213157795369
1782845399026998300,0.404998291015625,-1.3772925620555876,0.5700545345254242,0.5281433651868254
1782845399037003300,0.415003173828125,-1.0869266371786594,0.8899496284864843,0.6636288902796804
1782845399047007200,0.42500732421875,-0.6458931809723377,1.057634637851268,0.7531635421890766
1782845399057012200,0.43501220703125,-0.11647592339217662,1.4122633376717566,0.899742635161057
1782845399067016200,0.44501611328125,0.3729834178090095,1.852791036313027,1.0112501224908976
1782845399077021200,0.455021240234375,0.8836983130067586,2.2078087354511022,0.8721317938536405
1782845399087025200,0.465025146484375,1.5031044690698385,2.304164977008849,0.6758630795612931
1782845399097030100,0.475030029296875,2.1236907748281952,2.3374407852753993,0.524650846895948
1782845399107034000,0.4850341796875,2.459064300689101,2.384419686332345,0.35915081688743083
1782845399117039000,0.4950390625,2.6080180138379334,2.3796485264077782,0.18376166288610546
1782845399127043300,0.505043212890625,2.6180706212967633,2.363471298588812,0.07199238281492143
1782845399137048300,0.51504833984375,2.5267577807337043,2.3509838651984927,-0.04620294824838638
1782845399147052300,0.52505224609375,2.3395371730327605,2.331158928526938,-0.08804222139455377
1782845399157057300,0.535057373046875,2.101365545773506,2.131051512854546,-0.04592603100314736
1782845399167061200,0.545061279296875,1.7590391320347785,1.7146433793388307,-0.03343965705875307
1782845399177066200,0.555066162109375,1.30971890899837,1.2540351618297398,-0.07837912470996379
1782845399187070200,0.5650703125,0.5956763209074736,1.0418018395558,-0.02376866932865232
1782845399197075200,0.5750751953125,-0.21913199574649334,1.0572133436992763,0.048437721563130615
1782845399207079200,0.5850791015625,-0.9259522313684224,0.9792164963051676,0.0001676847171038389
1782845399217084200,0.595084228515625,-1.469003462025523,0.7323994980365037,-0.16057283927202223
1782845399227088100,0.605088134765625,-1.846400604623556,0.6020927638210356,-0.37042945900987834
1782845399237093000,0.615093017578125,-2.147804640865326,0.5453169836319983,-0.5065656300311908
1782845399247097300,0.625097412109375,-2.2599270452231166,0.48421705663353204,-0.6094557303370908
1782845399257102300,0.635102294921875,-2.092132438004017,0.40023017504438757,-0.6764815037205815
1782845399267106300,0.645106201171875,-1.7604028216034173,0.3163523067876696,-0.667146104620397
1782845399277111300,0.655111328125,-1.1993769583165645,0.2939525511920452,-0.6733947166863828
1782845399287115300,0.665115234375,-0.4667454050898552,0.40612829317227006,-0.6951144541285932
1782845399297120300,0.675120361328125,-0.08048457255661487,0.5098546251066028,-0.6497640310563146
1782845399307124200,0.685124267578125,0.2833177599310875,0.6002749007441103,-0.8697009865101426
1782845399317129200,0.695129150390625,0.6663958707749843,0.5950760169267654,-0.8504403326578438
1782845399327133200,0.70513330078125,0.820408620879054,0.5453131842397153,-0.7746145456925034
1782845399337138200,0.71513818359375,1.0947487091064452,0.5083372062809765,-0.7406373111583292
1782845399347142100,0.72514208984375,1.5125111798405646,0.5266985001407564,-0.7318800042070448
1782845399357147100,0.735147216796875,1.8683868109822273,0.4684272206969559,-0.6352047598280012
1782845399367151400,0.7451513671875,2.1137229230433703,0.3461012561023235,-0.5606950969625264
1782845399377156400,0.75515625,2.0694857219099996,0.22275953859388828,-0.45230924878455697
1782845399387160300,0.765160400390625,1.7908505668371915,0.11089330095425247,-0.34900574537217616
1782845399397165300,0.775165283203125,1.3253244744092225,0.027066432232409714,-0.21638744627870618
1782845399407169300,0.785169189453125,0.662826780116558,-0.03189560595452785,-0.14530775786191225
1782845399417174300,0.79517431640625,0.007102525481581688,-0.06635097939446569,-0.19265790338404476
1782845399427178200,0.80517822265625,-0.518704724907875,-0.13816723845750092,-0.1690334648316726
1782845399437183200,0.815183349609375,-0.8472247316122055,-0.1525748262554407,-0.21873189051300285
1782845399447187200,0.825187255859375,-1.0796025779008864,-0.19441855638101696,-0.3129313558956608
1782845399457192200,0.835192138671875,-1.285685122460127,-0.25285496325865386,-0.3438439056295901
1782845399467196200,0.845196044921875,-1.4633569805711506,-0.22444909911602734,-0.3549315917572006
1782845399477201200,0.855201171875,-1.5165309368759392,-0.19261749830842018,-0.36031368665434416
1782845399487205400,0.865205322265625,-1.4643360547363757,-0.04978212190940976,-0.3083781130380928
1782845399497210400,0.87521044921875,-1.2931138111561535,-0.04054916027039289,-0.3297108239240944
1782845399507214300,0.88521435546875,-0.8740139543384313,-0.06938128700107335,-0.35142172047272324
1782845399517219300,0.89521923828125,-0.35756022322773934,-0.05669175516739487,-0.38660237597990776
1782845399527223300,0.905223388671875,0.07584463779628277,0.018540157558023927,-0.41198344894126054
1782845399537228300,0.915228271484375,0.4616285004675388,0.04945215930268168,-0.42694465203396975
1782845399547232300,0.925232177734375,0.705016985592246,0.09800912333130836,-0.44298941257968544
1782845399557236200,0.935236328125,0.8166326094716787,0.076499740704149,-0.4576586835211143
1782845399567241200,0.9452412109375,0.9146656982004642,-0.005488514413684606,-0.3816648099798709
1782845399577245200,0.9552451171875,0.9395616545259952,-0.15428192243427039,-0.27002090985402466
1782845399587250200,0.965250244140625,0.9979074605107306,-0.27422873680740595,-0.21402784100789576
1782845399597254400,0.97525439453125,0.9343126479566096,-0.27198826440423723,-0.11295870905146002
1782845399607259400,0.98525927734375,0.8686930515766144,-0.1945896751642227,-0.12815927385799586
1782845399617263400,0.995263427734375,0.8523311148405075,-0.11298925032019615,-0.20019513048846274
1782845399627268400,1.005268310546875,0.7294295423150062,-0.13992211930081247,-0.3392919414136559
1782845399637272000,1.01527197265625,0.5551414814233779,-0.17834668863266706,-0.42280689464211463
1782845399647277000,1.025277099609375,0.31518180170357224,-0.156773300858587,-0.48815015829876063
1782845399657281300,1.03528125,0.09728080905675887,-0.14140125194266437,-0.5454046619154512
1782845399667286300,1.045286376953125,-0.03412789505124092,-0.13600655329227446,-0.5970039162494242
1782845399677290200,1.055290283203125,-0.05162205068767071,-0.19374021872803568,-0.671254343656823
1782845399687295200,1.065295166015625,0.03800970492064953,-0.31779651424661276,-0.7118403288062661
1782845399697299200,1.07529931640625,0.1403700091987848,-0.4680607254721224,-0.7369315885081886
1782845399707304200,1.08530419921875,0.2260170790851116,-0.5073997793003916,-0.7341502872265875
1782845399717308200,1.09530810546875,0.32407880938649175,-0.557203236258775,-0.7300067576810717
1782845399727313700,1.105313720703125,0.3567126664876938,-0.6531536734946072,-0.7470810804702341
1782845399737318000,1.11531787109375,0.3243430132806301,-0.7447204888187349,-0.6933578927848487
1782845399747323000,1.125322998046875,0.21520517769157885,-0.8328991230092943,-0.6419497771088033
1782845399757326800,1.135326904296875,0.05524959353506565,-0.8496427525393664,-0.5898475416887551
1782845399767331800,1.145331787109375,-0.09226093506813049,-0.7942765468873083,-0.6109439596008509
1782845399777335600,1.15533544921875,-0.25028701246678825,-0.7414223240561783,-0.5742686450891197
1782845399787340500,1.165340576171875,-0.4272697192698717,-0.7698530303791165,-0.46723947221711276
1782845399797344800,1.1753447265625,-0.5013344879120588,-0.8832873941183089,-0.35281500146202743
1782845399807349800,1.185349853515625,-0.6731885996550321,-0.8946152822099626,-0.264732009665668
1782845399817353700,1.195353759765625,-0.8961936374425887,-0.770957046098262,-0.341057782042399
1782845399827358700,1.205358642578125,-1.0121306316524743,-0.6860360985293984,-0.5560480018090457
1782845399837362700,1.21536279296875,-1.026687564793229,-0.42863706210032104,-0.5602524677615612
1782845399847367700,1.22536767578125,-1.1527835494458674,-0.1762345187842846,-0.4863771572768688
1782845399857372000,1.235371826171875,-1.3330804953634738,-0.04626359239444136,-0.4330334704283625
1782845399867377000,1.245376953125,-1.4516279643326997,0.06456628793478011,-0.36538149143792686
1782845399877380900,1.255380859375,-1.6616168686807156,0.1179731762126088,-0.16621259872466324
1782845399887385900,1.2653857421875,-1.808229571661353,0.06128916596025228,0.05276837117858231
1782845399897389600,1.2753896484375,-1.778594311854243,-0.024878274538367984,0.16662497891783715
1782845399907394600,1.28539453125,-1.7059931860238313,-0.07503858211040497,0.2782877298746258
1782845399917398800,1.295398681640625,-1.5746780054181813,-0.08075257584303618,0.33414434939213095
1782845399927403800,1.30540380859375,-1.4067694164305924,-0.04573766882419586,0.26183205044046043
1782845399937407700,1.31540771484375,-1.0983815126508474,0.008651654619723557,-0.027592282737419007
1782845399947412700,1.325412841796875,-0.6904109526127576,0.15743936355188487,-0.378180767256394
1782845399957416700,1.335416748046875,-0.19168284780681133,0.31969650264903904,-0.6423403838615864
1782845399967421700,1.345421630859375,0.31371465176045893,0.48235462376251814,-0.7363338418107479
1782845399977426000,1.355426025390625,0.8139730348736047,0.6356409592881799,-0.7783124503623694
1782845399987431000,1.365430908203125,1.2358587230175733,0.7135004440382122,-0.7601470444008708
1782845399997434600,1.3754345703125,1.5020470689713954,0.8011229056507349,-0.5957504821222275
1782845400007439600,1.385439697265625,1.6200106005728243,0.8725770534031093,-0.42020796419009565
1782845400017443600,1.395443603515625,1.6865215928345918,0.9275567439556122,-0.3490598867122084
1782845400027448600,1.405448486328125,1.8160709328114986,0.9307958720073103,-0.3081793025303632
1782845400037452800,1.415452880859375,1.8099270232290028,0.9408671841666102,-0.2950756369378418
1782845400047457800,1.425457763671875,1.745194146555662,0.9423404715895652,-0.3064733753953129
1782845400057461800,1.435461669921875,1.626559583824873,0.9402335624381899,-0.26742190633676943
1782845400067466800,1.445466796875,1.4294336681813,0.8813964658051728,-0.09906009368896483
1782845400077470700,1.455470703125,1.1513678374290466,0.7864967066660523,0.18366181924082337
1782845400087475700,1.465475830078125,0.9071721275746821,0.681935677473247,0.46562874908484514
1782845400097480000,1.47547998046875,0.5651110867738723,0.4872098087087273,0.6589099719990045
1782845400107485000,1.48548486328125,0.09581482815742492,0.2984256049528718,0.842023948098719
1782845400117488600,1.495488525390625,-0.45981005286872384,0.19364362648576497,0.9908123876832425
1782845400127493600,1.50549365234375,-0.8976642945170402,0.18406535854041575,1.0774453998669982
1782845400137497600,1.51549755859375,-1.175841184428334,0.06043430269658565,1.1169272962320596
1782845400147502600,1.525502685546875,-1.4221686456143856,-0.032574235868453975,1.1963897591993211
1782845400157506800,1.5355068359375,-1.6675182016789911,-0.07540244698673486,1.2133262078877538
1782845400167511800,1.54551171875,-1.8479127627521752,-0.11596622030436991,1.2646478873893618
1782845400177515800,1.555515869140625,-1.9434674786686896,-0.103946112164855,1.1465087800253182
1782845400187520800,1.565520751953125,-1.7211919241994618,-0.12719459354430437,1.1765291666924953
1782845400197524700,1.575524658203125,-1.4451339261382818,0.04147036676853895,1.2302476051375268
1782845400207529700,1.58552978515625,-1.185543078753352,0.09622866965532302,1.0540471347533167
1782845400217534000,1.595533935546875,-0.7341033793449402,0.1471922564342618,0.9273216200254857
1782845400227539000,1.6055390625,-0.4254430883646011,0.2739434901252389,0.8244085041701793
1782845400237542700,1.615542724609375,-0.10994389127492904,0.526959343034029,0.7276723964493721
1782845400247547600,1.625547607421875,0.26192192068099973,0.7162418517008423,0.5312688037309795
1782845400257551600,1.635551513671875,0.6125690035194158,0.7710846180006862,0.32681261826455593
1782845400267556600,1.645556640625,0.941276057228446,0.823265763875842,0.10227657151743769
1782845400277560800,1.655560791015625,1.1020236685454845,0.8140101520135998,-0.08040595436245203
1782845400287565800,1.66556591796875,1.1868202590823174,0.7460401931151748,-0.20727482308372855
1782845400297569800,1.67556982421875,1.247549160811305,0.6152423143818974,-0.31579335773065687
1782845400307574800,1.68557470703125,1.2352017204135655,0.4373331403836608,-0.32766404746212063
1782845400317578800,1.695578857421875,1.1482739630669354,0.24920418566614388,-0.2642266174267977
1782845400327583700,1.705583740234375,1.0819248833686113,0.13854688542485236,-0.20355463351681827
1782845400337587700,1.715587646484375,0.9942518606126308,0.06572334901541471,-0.1962530783317983
1782845400347592700,1.7255927734375,0.8541577457457781,-0.014521861827373504,-0.18833784822784363
1782845400357596700,1.7355966796875,0.6816536456614732,-0.12638619977086782,-0.13780439649447798
1782845400367601700,1.7456015625,0.6321937414437532,-0.18862959771603344,-0.08118570656329394
1782845400377605600,1.755605712890625,0.577487753266096,-0.30302813031226394,-0.058926163155958056
1782845400387610600,1.765610595703125,0.5219365464359521,-0.3665788114637136,-0.035609146584942936
1782845400397614600,1.775614501953125,0.4729349073797464,-0.26628888371884823,0.01752031299099326
1782845400407619800,1.785619873046875,0.41443537213802334,-0.1519765681013465,0.05730104617215693
1782845400417623800,1.795623779296875,0.37293899414539333,-0.04932166479080915,0.10395590290650725
1782845400427628800,1.80562890625,0.3200023537278175,0.07139496491104363,0.16971563840955495
1782845400437632800,1.8156328125,0.2727326530307531,0.292822670379281,0.2159656406700611
1782845400447637800,1.8256376953125,0.21868132936954496,0.4699725504428148,0.2656122265662998
1782845400457641700,1.835641845703125,0.21786825942099092,0.5282236638814211,0.2723883696377277
1782845400467646700,1.845646728515625,0.3639735974013805,0.4159308713927865,0.21730178464464842
1782845400477650700,1.855650634765625,0.5267179354935884,0.36518472675681113,0.14311916177645326
1782845400487655700,1.86565576171875,0.5981593698948622,0.27341742042452094,0.12159129364453256
1782845400497659600,1.87565966796875,0.7395394329190254,0.10885375795066356,0.1319453682679683
1782845400507664600,1.88566455078125,0.8069517579346894,-0.056798576542735096,-0.01616371075026691
1782845400517668600,1.895668701171875,0.832508808517456,-0.2278250052899122,-0.13259725630544125
1782845400527673600,1.905673583984375,0.8467956925451755,-0.39147535231113434,-0.20959259850680828
1782845400537677800,1.915677734375,0.800453043565154,-0.4627864383310079,-0.2627726192262024
1782845400547682800,1.925682861328125,0.7783645458757877,-0.481341208936274,-0.273633693523705
1782845400557686800,1.935686767578125,0.7387953365534543,-0.5784487072527408,-0.33231296924650666
1782845400567691800,1.94569189453125,0.7419196060538291,-0.699192517222464,-0.3844496183928102
1782845400577695700,1.95569580078125,0.6563537847101688,-0.8669304258182644,-0.48981969894617794
1782845400587700700,1.96570068359375,0.536616229173541,-0.9416054353132843,-0.5846930084697902
1782845400597704700,1.97570458984375,0.45775721199214453,-0.9528393615111708,-0.5881899837400764
1782845400607708700,1.985708740234375,0.3943471083551645,-1.0280196901798249,-0.5759836323134601
1782845400617713700,1.995713623046875,0.3015121727913618,-0.9898828517481684,-0.4961301972672343
1782845400627717600,2.005717529296875,0.20935703618526458,-0.9135130210340022,-0.369420829956606
1782845400637722600,2.01572265625,0.20435119072198868,-0.8323854743987321,-0.3171274558786303
1782845400647726800,2.025726806640625,0.25061843637824055,-0.7724804562732577,-0.2878633674714714
1782845400657731800,2.03573193359375,0.2561246325790882,-0.7085720477253198,-0.2728998993564397
1782845400667735800,2.04573583984375,0.23724223745465278,-0.6798106481432914,-0.255130945366621
1782845400677740800,2.05574072265625,0.22061258969306943,-0.6309042861551046,-0.3015719401545822
1782845400687744500,2.06574462890625,0.1995394065260887,-0.5677250686645507,-0.36251916080936786
1782845400697749500,2.07574951171875,0.23983926821053025,-0.5482607819989324,-0.3453160240087658
1782845400707753700,2.085753662109375,0.25984219179749485,-0.5418322102561592,-0.30857728887200353
1782845400717758700,2.0957587890625,0.17381226007342337,-0.5542746354609728,-0.270572771583125
1782845400727761700,2.10576171875,0.24848142434954643,-0.6293447817534208,-0.16531528455875813
1782845400737766700,2.1157666015625,0.4461871857076883,-0.7215750294223428,-0.004893032738566398
1782845400747771000,2.12577099609375,0.49797231800258157,-0.8247095329433679,0.13768223141953348
1782845400757776000,2.13577587890625,0.5031108499348164,-0.9392313996583223,0.21045608346834777
1782845400767779800,2.14577978515625,0.4287210871219635,-1.0420768571048975,0.1812680559720844
1782845400777784800,2.155784912109375,0.30694471923410893,-1.1020032102793456,0.09130904117077589
1782845400787788800,2.165788818359375,0.14331541500091552,-1.1964771452218292,0.06188990833237767
1782845400797793800,2.175793701171875,-0.04374561822414398,-1.3174182313293217,0.050333252986148
1782845400807798000,2.185798095703125,-0.22401918326616285,-1.4124594447657466,0.07251220543794333
1782845400817803000,2.195802978515625,-0.3854641291975975,-1.5307909328967333,0.08409421442113817
1782845400827806700,2.205806640625,-0.555857520738244,-1.77244572609663,0.034476708488911385
1782845400837811700,2.215811767578125,-0.6856178731173277,-1.9379364402875303,0.05701316914148628
1782845400847815700,2.225815673828125,-0.7828899143457412,-1.8796625304952264,0.10590586793050169
1782845400857820700,2.235820556640625,-0.7454641467928886,-1.6813994275152682,0.17631452521793542
1782845400867825000,2.245824951171875,-0.5984504617959261,-1.309081195616722,0.27746296948827803
1782845400877830000,2.255829833984375,-0.36311493474543094,-1.034473980885744,0.28156368280537425
1782845400887833900,2.265833740234375,-0.15303776759207247,-0.8884653812780976,0.2922323763359338
1782845400897838800,2.2758388671875,-0.08585340611338615,-0.6435019019216298,0.4893800654198974
1782845400907842800,2.2858427734375,-0.20972528497576712,-0.3890779357805848,0.7340751030985265
1782845400917847800,2.295847900390625,-0.4096533985584974,-0.2440054479792714,0.9467884639743714
1782845400927852000,2.30585205078125,-0.666662997278571,-0.13763941519111395,1.14654268229492
1782845400937857000,2.31585693359375,-0.8963725011408329,-0.04862199208885431,1.2683657388687133
1782845400947860700,2.32586083984375,-1.1073638605296612,0.08498802145570516,1.3430194133147597
1782845400957865700,2.33586572265625,-1.216716800174117,0.2332066983282566,1.2017628305397927
1782845400967869700,2.34586962890625,-1.1524684921473265,0.3882484992191195,0.9831301626175641
1782845400977874700,2.355874755859375,-0.929753961738944,0.38357583123296496,0.6641551061108708
1782845400987879000,2.36587890625,-0.5401017332017422,0.31591976058930155,0.41250579231493173
1782845400997884000,2.3758837890625,-0.20283377189636229,0.31353929519355295,0.25914675687924027
1782845401007888000,2.385887939453125,-0.019504910936951635,0.2943336594641208,0.17644976897016165
1782845401017892900,2.395892822265625,0.1022077440649271,0.3040329234406352,0.14696670405007897
1782845401027896800,2.405896728515625,0.11672376067340373,0.38890754764974117,0.0880133606262505
1782845401037901800,2.41590185546875,0.15109540135264396,0.337933439476788,0.002851297777891159
1782845401047906000,2.425906005859375,0.37684301584661006,0.2696042918771505,-0.007937368870526552
1782845401057911000,2.4359111328125,0.6251274563193321,0.19802695613652466,0.010004457468166948
1782845401067914800,2.445914794921875,0.7402841138064861,0.2946791119009256,0.14118622095249592
1782845401077919700,2.455919677734375,0.8746171809285879,0.49765813748687504,0.2683149096537381
1782845401087923700,2.465923828125,0.990816040945053,0.6663818422496318,0.2091100026216358
1782845401097928700,2.4759287109375,1.0853069270223379,0.8033081407353282,0.17812172077037394
1782845401107933000,2.485932861328125,1.088072300082445,0.7896651075690985,0.16129801174141464
1782845401117938000,2.49593798828125,1.0333990451306103,0.820446030279994,0.22245273766703902
1782845401127942000,2.50594189453125,0.8179565515518188,1.0064645687147975,0.33595958212055266
1782845401137947000,2.51594677734375,0.6228349614679813,1.1725436041876673,0.4165972994122654
1782845401147950800,2.525950927734375,0.5246177483439445,1.2715116356790066,0.478400552374497
1782845401157955800,2.535955810546875,0.40277240687310695,1.3617746749281883,0.48006001001931725
1782845401167959800,2.545959716796875,0.23482465491890905,1.4665551920905708,0.41868776888549325
1782845401177964800,2.55596484375,0.07046528284549712,1.5348127357587218,0.3168218970607966
1782845401187968800,2.56596875,0.02916647325158119,1.5989999612480401,0.23217501719295977
1782845401197973800,2.575973876953125,0.10485095205008983,1.5450503443956374,0.13333046595081685
1782845401207977700,2.585977783203125,0.20870412523448467,1.4934686257183551,0.1027802832558751
1782845401217982700,2.595982666015625,0.25444062501490117,1.4528984226599335,0.09113324621245264
1782845401227986700,2.605986572265625,0.2509709030777216,1.3920917795196175,0.08542144443690776
1782845401237992000,2.615991943359375,0.24044717097580431,1.220113164614141,0.026918475129082797
1782845401247996000,2.625995849609375,0.3071761899024248,1.0787281331539154,-0.0669802902739495
1782845401258001000,2.6360009765625,0.31228900287151334,1.0539619406878948,-0.09709982646666467
1782845401268004900,2.6460048828125,0.3046493017733097,1.0144804096490143,-0.18587196957096455
1782845401278009900,2.656009765625,0.26864333789050576,0.9277765241861343,-0.24728023186624049
1782845401288013800,2.666013916015625,0.1639770947575569,0.8615046013772487,-0.27452793894968924
1782845401298018800,2.676018798828125,0.09284662600159645,0.772809834358096,-0.2538104373525828
1782845401308022800,2.686022705078125,0.09756079504191875,0.6379711558014154,-0.26820238918997347
1782845401318027800,2.69602783203125,0.03512392035126686,0.5750102572366594,-0.1935404583722353
1782845401328031700,2.70603173828125,-0.13941373138725757,0.6123816642537713,-0.19383651870936155
1782845401338036700,2.71603662109375,-0.35049569166898725,0.6232156313486397,-0.2296113772500306
1782845401348040700,2.726040771484375,-0.5504793348312378,0.6177186413675546,-0.2381752439884469
1782845401358045700,2.736045654296875,-0.6234966402471065,0.6442629494220018,-0.344875257971324
1782845401368050000,2.7460498046875,-0.6112684423148632,0.6787691762663424,-0.4228293987348675
1782845401378055000,2.756054931640625,-0.4136696484625339,0.7318482938945293,-0.4258203241791576
1782845401388059000,2.766058837890625,-0.1657037724196911,0.7490501885861158,-0.5301276708718389
1782845401398063900,2.77606396484375,0.19742402180731294,0.7497644743353128,-0.513124915481545
1782845401408067600,2.786067626953125,0.635150253161788,0.7167753740556537,-0.4116530844757333
1782845401418072600,2.796072509765625,1.0232494070380926,0.6649106006532907,-0.40627614067774265
1782845401428076800,2.806076904296875,1.341000766968727,0.6301271643027663,-0.4297909448431805
1782845401438081800,2.816081787109375,1.5217524709165096,0.5209487044423818,-0.44841151069365437
1782845401448085800,2.826085693359375,1.4890461331009863,0.4003491252489388,-0.42636619455888863
1782845401458090800,2.8360908203125,1.2183493698120116,0.2800840387068689,-0.33990740643087775
1782845401468094700,2.8460947265625,0.8329366785407066,0.1919168026931584,-0.28442542891204353
1782845401478099700,2.856099609375,0.5152817647218704,0.0018070494219660758,-0.22233342213630675
1782845401488104000,2.86610400390625,0.29026304902434347,-0.22211802581995724,-0.15440500082466752
1782845401498109000,2.87610888671875,-0.0943470936924219,-0.45295580305978655,-0.08798249056395142
1782845401508113000,2.88611279296875,-0.4905997434079647,-0.5273341676957904,-0.045732773453369735
1782845401518118000,2.896117919921875,-0.7368389417886734,-0.733765087301284,-0.06695709206145256
1782845401528121600,2.90612158203125,-0.973228946328163,-0.8986483371183276,-0.055553727580793195
1782845401538126600,2.916126708984375,-1.2152449740558862,-0.9042734835237264,-0.11527520583290606
1782845401548130800,2.926130859375,-1.3799725949198007,-0.8441938394837081,-0.2554320472050458
1782845401558135800,2.9361357421875,-1.592722780674696,-0.6685616705067455,-0.4186305588055402
1782845401568139800,2.946139892578125,-1.653501366764307,-0.523716123329103,-0.5453181526757777
1782845401578144800,2.956144775390625,-1.4171522787570952,-0.44158889813199637,-0.6708861679315566
1782845401588148700,2.966148681640625,-1.0100678539037704,-0.33866555314362046,-0.7875105598837137
1782845401598153700,2.97615380859375,-0.5716425343692302,-0.29429668845459817,-0.7065563970539719
1782845401608158000,2.986157958984375,-0.12484978398382662,-0.2966010198742151,-0.5491410719648003
1782845401618163000,2.996162841796875,0.28852760353386403,-0.2984628682233393,-0.4776085252139717
1782845401628167000,3.0061669921875,0.609676204687357,-0.3315057445168495,-0.42400954843014477
1782845401638172000,3.016171875,0.7738070287019014,-0.3615050153307616,-0.3993213165711611
1782845401648175600,3.026175537109375,0.7727747630447149,-0.41809710951596496,-0.3683628088036552
1782845401658180600,3.0361806640625,0.6751864954739809,-0.5099614464819431,-0.33509083646200594
1782845401668184800,3.046184814453125,0.5767302128970623,-0.627182927544415,-0.28592761363591995
1782845401678188800,3.056188720703125,0.5070850142627954,-0.7072787930443882,-0.22120456423684953
1782845401688193800,3.06619384765625,0.43496553446948527,-0.7048778693825006,-0.2065628754220903
1782845401698198800,3.07619873046875,0.28941023158729073,-0.6321357276462019,-0.18219759190715848
1782845401708202800,3.08620263671875,0.14117489584088325,-0.5558493374317884,-0.27501068096533415
1782845401718207700,3.096207763671875,0.04097849159836769,-0.5223553563699126,-0.37885333275571464
1782845401728212700,3.106212646484375,-0.05157470441460609,-0.46045931055769324,-0.517731203700602
1782845401738217000,3.116217041015625,-0.10671323879063128,-0.42080943721458314,-0.629520211385563
1782845401748222000,3.126221923828125,-0.17563947550058365,-0.34030002247765656,-0.6662544895429163
1782845401758226000,3.136225830078125,-0.19698446134626865,-0.31744463206902146,-0.6868353591483086
1782845401768231000,3.14623095703125,-0.06424421637356281,-0.2724132118180394,-0.6823530991677195
1782845401778234600,3.156234619140625,0.15953589743971824,-0.3167110570974648,-0.6343066419444978
1782845401788239600,3.166239501953125,0.39414603282511235,-0.39193186390697954,-0.6151029789764434
1782845401798243800,3.176243896484375,0.47021863415837284,-0.4600372857533395,-0.5738499812856316
1782845401808248800,3.186248779296875,0.45510465165674685,-0.45339083347618575,-0.47196233602054416
1782845401818252800,3.196252685546875,0.4215823212832212,-0.42456236000731584,-0.4351251820106059
1782845401828257800,3.2062578125,0.41468730107247825,-0.45913229973763225,-0.43258711490035057
1782845401838261800,3.21626171875,0.34283202517330646,-0.5111395503506064,-0.4571386417023837
1782845401848266800,3.226266845703125,0.21538053425848483,-0.5904518642574549,-0.5335975389394909
1782845401858271000,3.23627099609375,0.010766893208026885,-0.5988768705144524,-0.5977309153497219
1782845401868276000,3.24627587890625,-0.28996435833871365,-0.5137547012850642,-0.6714897598478943
1782845401878280000,3.256280029296875,-0.5810492451399565,-0.3641103755235672,-0.7577954397734254
1782845401888285000,3.266284912109375,-0.7217471711188554,-0.135479606808722,-0.8357571427889168
1782845401898288600,3.27628857421875,-0.707040600374341,0.018908990870416163,-0.8779010249048471
1782845401908293600,3.286293701171875,-0.5867535942614078,0.16398907745629548,-0.8005787157714367
1782845401918297900,3.2962978515625,-0.45623277890384195,0.37819603789076206,-0.5873658078756183
1782845401928302800,3.306302734375,-0.4591021968603134,0.4718544186666608,-0.2993751607626676
1782845401938306800,3.316306884765625,-0.6561234830856323,0.35536169027015563,-0.011502002549543975
1782845401948311800,3.326311767578125,-1.0838234104663134,0.37081791033819317,0.2579211606070399
1782845401958315800,3.336315673828125,-1.6112258210927246,0.4257946782812476,0.3038049599036574
1782845401968320800,3.34632080078125,-2.0735686073094604,0.34853812786042687,0.30840580476261675
1782845401978325000,3.356324951171875,-2.292994617566466,0.2956166850119829,0.4425979290440678
1782845401988330000,3.366330078125,-2.260491693368554,0.1686418716982007,0.4996661163084209
1782845401998334000,3.376333984375,-2.075693928900361,0.12746741913631557,0.443150083034113
1782845402008339000,3.3863388671875,-1.678555728521943,0.28790260350331665,0.3472773141443729
1782845402018342700,3.3963427734375,-1.14835871874094,0.3831611129522323,0.1637920935794711
1782845402028347600,3.40634765625,-0.5276970096588135,0.41555823868811126,-0.16543613445945082
1782845402038352000,3.416351806640625,0.08162731285095215,0.432797981172055,-0.5257708639018237
1782845402048356900,3.42635693359375,0.7183475918084382,0.45308279044032096,-0.7354638540431857
1782845402058360800,3.43636083984375,1.084530681952834,0.5698312471635639,-0.6714251701790839
1782845402068365800,3.44636572265625,1.2468909891635178,0.6783626412920654,-0.6255868905246258
1782845402078369800,3.456369873046875,1.423885386404395,0.6889937792912125,-0.5772594974681735
1782845402088374800,3.466374755859375,1.5369436103075742,0.729429103923589,-0.4848075333399698
1782845402098379000,3.47637890625,1.491566591489315,0.7958475955963135,-0.36718240338005126
1782845402108384000,3.486384033203125,1.332998077777028,0.7996816208012402,-0.28698391775581983
1782845402118387700,3.4963876953125,1.1875789684951306,0.7871265290021896,-0.14409052755925802
1782845402128392700,3.506392822265625,1.1067086114913225,0.7569996862858533,-0.00009308511093258858
1782845402138396700,3.516396728515625,1.0942015966176986,0.7446162977918982,0.12872297215536235
1782845402148401700,3.526401611328125,1.0600316159904002,0.7099906823515891,0.2760375763276592
1782845402158406000,3.536406005859375,0.9776309806793928,0.6703682815372943,0.4087089207826182
1782845402168411000,3.546410888671875,0.8091688494622706,0.609241612662375,0.5902338375926017
1782845402178414800,3.556414794921875,0.4472124371021986,0.5493769265472889,0.7848816726848482
1782845402188419800,3.566419921875,0.125643564710021,0.582857171344757,0.9440087701279669
1782845402198423800,3.576423828125,-0.15353285763263702,0.5670806332811713,1.0501550226856022
1782845402208428800,3.5864287109375,-0.4017535852193832,0.4799678747564554,1.1249985936805604
1782845402218433000,3.59643310546875,-0.5982020399928093,0.29904315232932566,1.1276505694940686
1782845402228438000,3.60643798828125,-0.9168968182533979,0.14601327578276396,1.1729329688314347
1782845402238441700,3.616441650390625,-0.9245528859645128,0.11447101331055164,1.2011257016800343
1782845402248446700,3.62644677734375,-0.8030857301563024,0.03688245445638895,1.2188248783692717
1782845402258450700,3.63645068359375,-0.6784604025781155,-0.0818491389080882,1.1401768005248158
1782845402268455700,3.64645556640625,-0.49656478929221626,-0.14696575420200825,0.9917253378096967
1782845402278460000,3.6564599609375,-0.38531449159383774,-0.17900544480234384,0.814903301461041
1782845402288465000,3.66646484375,-0.3507131338119507,-0.08283873446732759,0.5928320373922586
1782845402298468900,3.67646875,-0.3149181823313236,-0.05053951614797115,0.36619083505943417
1782845402308473900,3.686473876953125,-0.22599954342842102,-0.05336860209405422,0.16666406881920992
1782845402318477800,3.696477783203125,-0.1479401521921158,0.10181552987694739,0.017945406535267827
1782845402328482800,3.70648291015625,-0.004890110129117965,0.2827902289256453,-0.0902019567117095
1782845402338486800,3.71648681640625,0.16828911273777483,0.405249026119709,-0.22105733778588474
1782845402348492000,3.726491943359375,0.2997720511257648,0.4503875600069761,-0.28663623682931066
1782845402358495700,3.736495849609375,0.4089356056779623,0.42760844970494505,-0.2764987275660038
1782845402368500700,3.746500732421875,0.5129015915870666,0.3797545193791389,-0.24964053125679492
1782845402378504700,3.756504638671875,0.5820137062579394,0.3391229415223002,-0.24174115630909798
1782845402388509700,3.766509765625,0.5540449183583259,0.33960955599546433,-0.18018888243325054
1782845402398514000,3.776513916015625,0.5002876092076302,0.4706555642709136,-0.04464388223811984
1782845402408519000,3.786518798828125,0.5047632933169603,0.5117343013733625,0.020492241473868487
1782845402418523000,3.79652294921875,0.5071458045393228,0.437647905421257,0.08499949269779027
1782845402428527900,3.80652783203125,0.5145668944507837,0.37982407748401165,0.179683051802963
1782845402438531800,3.81653173828125,0.4905886374920606,0.31615210804045196,0.28116123948432503
1782845402448536800,3.826536865234375,0.3856277953267097,0.26644787367284295,0.407349943921715
1782845402458540800,3.836540771484375,0.38214930556118487,0.19688976880013942,0.4571219097632915
1782845402468545800,3.8465458984375,0.4562929846584797,0.1329708388581872,0.472562201609835
1782845402478549800,3.8565498046875,0.47018414736688136,0.05467617756128311,0.5390452829513699
1782845402488554800,3.8665546875,0.4396516464591026,0.03174830643832684,0.562221941203624
1782845402498558700,3.876558837890625,0.41698505662083624,0.007885200291872023,0.5678721489850431
1782845402508563700,3.886563720703125,0.3975970500618219,-0.04677022674232721,0.555026769002527
1782845402518567700,3.896567626953125,0.3569727787286043,-0.0356447293549776,0.5753419003438204
1782845402528572700,3.90657275390625,0.2238257065206766,-0.055196986564993854,0.5337668310917913
1782845402538577000,3.916576904296875,0.1737105532646179,-0.13328852650523185,0.5015553641211241
1782845402548582000,3.926581787109375,0.21209552123844622,-0.181519181188941,0.5361155131097882
1782845402558585900,3.9365859375,0.3202203803926706,-0.2236927277907729,0.518487063569203
1782845402568590800,3.9465908203125,0.46868426419794557,-0.27831629838198424,0.43885676975436505
1782845402578594800,3.9565947265625,0.508130139401555,-0.24718027862310407,0.32522980605252083
1782845402588599800,3.966599853515625,0.5056973592966795,-0.17539777569919823,0.18561119974292814
1782845402598603800,3.976603759765625,0.4544008873015642,-0.17883388762772082,0.08339498011060059
1782845402608608800,3.98660888671875,0.37875147981643675,-0.23420418493300674,-0.020371026246994734
1782845402618612700,3.99661279296875,0.2735492301106453,-0.3180728469699621,-0.09958506741113961
1782845402628617700,4.00661767578125,0.15736381409764288,-0.3409069023296237,-0.08558006906472146
1782845402638621700,4.01662158203125,0.15224164877831936,-0.268741829828918,-0.09589351941682397
1782845402648626700,4.026626708984375,0.08942892651259898,-0.2800397611737251,-0.10802644028104841
1782845402658631000,4.036630859375,0.004576806396245956,-0.3046595309063792,-0.055768575907871126
1782845402668636000,4.046635986328125,0.02907411879301071,-0.3154623722106218,0.023139979503676293
1782845402678639900,4.056639892578125,0.023815759873390196,-0.3327341172680259,0.05778817210197448
1782845402688644900,4.066644775390625,0.02004500916302204,-0.31753187196105714,0.0773435711171478
1782845402698648800,4.07664892578125,0.16821546297967432,-0.31066344749629493,0.08669519069977104
1782845402708653800,4.08665380859375,0.33773382525146006,-0.2859001776397228,0.0956047656033188
1782845402718657800,4.09665771484375,0.4478910670161247,-0.26955665334314105,0.10479023483879864
1782845402728663000,4.1066630859375,0.5392705430746079,-0.3024281185925007,0.0992414416052401
1782845402738667000,4.1166669921875,0.6186643977850675,-0.33227029914855954,0.08628346809372306
1782845402748672000,4.126672119140625,0.6570324146240949,-0.38692660296559334,0.08431509063020348
1782845402758676000,4.136676025390625,0.7337310389012098,-0.40708997781127687,0.11163593601509927
1782845402768680200,4.14668017578125,0.8198089014202355,-0.41558892608731984,0.13811879620589315
1782845402778685200,4.156685302734375,0.8871580980718136,-0.4393181767210364,0.18008257251456378
1782845402788689000,4.16668896484375,0.8685136033564805,-0.4932777304455638,0.2335368070654571
1782845402798694000,4.17669384765625,0.9093260907381773,-0.5625494195923209,0.22448037103712556
1782845402808697900,4.18669775390625,0.9684797059744595,-0.6118944652587175,0.19830613840408623
1782845402818702800,4.196702880859375,0.9453297165334225,-0.6932020446360111,0.16243907153531909
1782845402828707000,4.20670703125,0.9139718707174063,-0.7501064196407794,0.13517265975140033
1782845402838712000,4.216712158203125,0.7751981907993555,-0.7710071688503026,0.07576770010255277
1782845402848716000,4.226716064453125,0.6157265907675028,-0.8593129365518689,-0.020943565437942742
1782845402858721000,4.236720947265625,0.4913584528207779,-1.0313955963537096,-0.10745821193903685
1782845402868725000,4.24672509765625,0.3370692238628864,-1.099018056988716,-0.12789426624625921
1782845402878730000,4.25672998046875,0.18872692061066626,-1.0134604189515113,-0.08759301632232963
1782845402888734000,4.26673388671875,0.08958382481336594,-1.0540385130554437,-0.15872370427399873
1782845402898739200,4.2767392578125,0.04112871372401714,-1.175110239805281,-0.2102468976970762
1782845402908743000,4.286742919921875,-0.0376449632614851,-1.2506085483819245,-0.19654490088522433
1782845402918748000,4.296747802734375,-0.12590250790715216,-1.2504068883299826,-0.19306020057462156
1782845402928751900,4.306751953125,-0.18333470617830752,-1.2168190915048123,-0.24044994745478032
1782845402938756900,4.3167568359375,-0.18467033869624136,-1.1741323346838355,-0.31138007133305073
1782845402948761000,4.326760986328125,-0.08980886574089526,-1.1649836903274058,-0.47109497860148547
1782845402958766000,4.33676611328125,0.07350538119375705,-1.2678154115095734,-0.5372395487036555
1782845402968770000,4.34677001953125,0.2966834374606609,-1.3371724408522248,-0.5693975319214165
1782845402978775000,4.356775146484375,0.38844928248822685,-1.2727049371168018,-0.5155719067748635
1782845402988779000,4.366779052734375,0.4457254134148359,-1.0585869701400399,-0.40375082345120605
1782845402998784000,4.376783935546875,0.35395956838726994,-0.8162573464184999,-0.34939065303653477
1782845403008788000,4.3867880859375,0.1927472621679306,-0.6435749671578407,-0.19734562280885873
1782845403018793000,4.39679296875,0.06704290718138217,-0.4675611053869128,0.057214609997719525
1782845403028797000,4.406796875,-0.297086173042655,-0.30270693553388117,0.289620001880452
1782845403038802000,4.416802001953125,-0.9304419440031051,-0.07449483062252402,0.6441835275102407
1782845403048806000,4.426805908203125,-1.6286591864526272,0.18062793143764136,1.060661219130829
1782845403058811000,4.436810791015625,-2.1920693145275116,0.2861529833570123,1.1366666004467756
1782845403068815000,4.446815185546875,-2.6056699894070623,0.17376535219177602,1.0394655055627227
1782845403078820000,4.456820068359375,-2.6578637025028464,0.18744009567052125,1.0809054771929978
1782845403088824000,4.466823974609375,-2.4230513225436208,0.1458833657927811,1.10806499453634
1782845403098829000,4.4768291015625,-2.0147113446712495,0.17588745891228316,1.0976530522458254
1782845403108833000,4.4868330078125,-1.422484871956706,0.1813429478392005,0.8634650877952575
1782845403118838000,4.496838134765625,-0.809567493391037,0.08139525766074657,0.5462002692725509
1782845403128842000,4.506842041015625,-0.20804244645535944,-0.00945522608757019,0.297872208853811
1782845403138847000,4.516846923828125,0.31907705557644367,-0.029653672246634958,0.1917095531506464
1782845403148851000,4.526850830078125,0.6884019508779049,-0.01427212485000491,0.15881693551540374
1782845403158856000,4.53685595703125,0.9406126248836517,0.05094619725272059,0.16500413625035434
1782845403168860000,4.54685986328125,1.1713643312752247,0.2101248056873679,0.1677209574609995
1782845403178865000,4.556864990234375,1.4672481427907942,0.38687896443158387,0.13922061996795237
1782845403188869000,4.566869140625,1.7387234892368315,0.4650267646037042,0.12394735525138675
1782845403198874000,4.5768740234375,1.927690648344159,0.5184497272334992,0.1377007169242948
1782845403208878000,4.586878173828125,1.943869629728794,0.7102616082474589,0.2606757200121879
1782845403218883000,4.596883056640625,1.9001105675011871,0.9233256822571158,0.4153695111829787
1782845403228887000,4.606886962890625,1.8029717972636221,1.102085189474374,0.560018805136159
1782845403238892000,4.61689208984375,1.5305308206558226,1.312666799018532,0.7460716842319816
1782845403248896000,4.62689599609375,1.1622317612707613,1.4315044831059873,0.8516780577592551
1782845403258901000,4.63690087890625,0.771968707358837,1.411684661000967,0.7451763428274542
1782845403268905000,4.646905029296875,0.6395002650648355,1.501596402594447,0.5898699727162718
1782845403278910000,4.656909912109375,0.6185176827907561,1.6763254852518439,0.4988598414268344
1782845403288914000,4.666913818359375,0.41227731732130046,1.7089776086620985,0.44040947908908123
1782845403298919000,4.6769189453125,0.157054017496109,1.5762931855298579,0.39048663353472945
1782845403308923000,4.6869228515625,-0.00812193165719509,1.4391142274573445,0.47369062111787497
1782845403318928100,4.69692822265625,-0.12404665090739726,1.3567726288571953,0.7089929765511304
1782845403328932000,4.70693212890625,-0.2075608004182577,1.3094390691436826,0.9097757342018187
1782845403338937000,4.71693701171875,-0.2399772153764963,1.1716833340965211,0.9458040560469031
1782845403348941000,4.726941162109375,-0.2385311082214117,1.0477391206502913,0.8516743314322084
1782845403358946000,4.736946044921875,-0.2548538819909096,1.0195319939501584,0.7435618203029036
1782845403368950000,4.746949951171875,-0.34539456913769245,0.9330655705049633,0.6444269078120589
1782845403378955000,4.756955078125,-0.35279344721734524,0.8219605264961719,0.4923180916331708
1782845403388959000,4.766958984375,-0.3894891469299793,0.7426262930184603,0.3908900997690856
1782845403398964000,4.7769638671875,-0.5676005655020475,0.6849272605046629,0.28238179425522686
1782845403408968000,4.786968017578125,-0.7934796974211931,0.6025681262478232,0.21550101883299647
1782845403418973000,4.796972900390625,-1.0589397291004656,0.523871752282232,0.1684427689295262
1782845403428977000,4.806976806640625,-1.2772919726461172,0.40420375485047694,0.10996624923720955
1782845403438982000,4.81698193359375,-1.4520464820057153,0.3379194109514356,0.06442191102802754
1782845403448986000,4.826986083984375,-1.5100368986815214,0.32368191902339455,0.039146746126562354
1782845403458991000,4.8369912109375,-1.4853537083238362,0.30828093627393244,0.07956563108079134
1782845403468995000,4.8469951171875,-1.4428560443341731,0.34748993398174643,0.08378624445050954
1782845403479000000,4.857,-1.2522037086188793,0.38062881799563764,0.023557620393857358
1782845403489003800,4.867003662109375,-0.9273469005972147,0.36235768663734197,-0.041820422315225
1782845403499008800,4.8770087890625,-0.5603367119789123,0.3476078612729907,-0.13736892768666148
1782845403509013000,4.887012939453125,-0.2081745484024286,0.33325331883653997,-0.2501272918604314
1782845403519018000,4.89701806640625,0.14116612801253794,0.3916628377072513,-0.3123290426209569
1782845403529022000,4.90702197265625,0.42643794462084766,0.44365313718542454,-0.33590704821571704
1782845403539027000,4.91702685546875,0.6097907709777355,0.376765712826699,-0.38706235817447304
1782845403549031000,4.927031005859375,0.8593874630928039,0.3590196282558143,-0.43431598451957104
1782845403559036000,4.937035888671875,1.1387924334943293,0.44210181609019633,-0.44935902067683636
1782845403569040100,4.9470400390625,1.319195177873969,0.45367871050685643,-0.4955095811508596
1782845403579045000,4.957045166015625,1.4005115250796079,0.39676162215098737,-0.5477597006089985
1782845403589048800,4.967048828125,1.421147485873103,0.37296865863129497,-0.5456101944249123
1782845403599054000,4.97705419921875,1.3034984270483254,0.3274896407432854,-0.5318688154507428
1782845403609057800,4.987057861328125,1.215377660524845,0.34010113890469074,-0.5715859818764031
1782845403619062000,4.99706201171875,1.0585744029194115,0.33755554607510563,-0.5876483511440456
1782845403629067000,5.00706689453125,0.8891431344091891,0.19693170824572442,-0.6225469383068383
1782845403639072000,5.017072021484375,0.764767982199788,0.1548559229299426,-0.6491477988541126
1782845403649076000,5.027075927734375,0.46915188170969485,0.1266844520650804,-0.6575663023050874
1782845403659080000,5.037079833984375,0.11838321831822395,0.03136953625380993,-0.6516846969205886
1782845403669085000,5.0470849609375,-0.10267594609856605,-0.010977028827369213,-0.7100996956840158
1782845403679089200,5.057089111328125,-0.2576145788758993,-0.04289660017937422,-0.7531786666929722
1782845403689094100,5.06709423828125,-0.41643677508831023,-0.04332549311593175,-0.7730084987353533
1782845403699097900,5.077097900390625,-0.5685995134115219,-0.0902694689899683,-0.783800964776054
1782845403709102800,5.087102783203125,-0.6116758540719747,-0.18820976486876606,-0.7571138872500509
1782845403719106800,5.09710693359375,-0.6482412054032087,-0.23499942696392534,-0.7242310968890786
1782845403729111800,5.10711181640625,-0.6528682806819677,-0.2724059052944183,-0.6945698258578777
1782845403739115800,5.11711572265625,-0.5316045384913682,-0.29275851910188794,-0.7026791902944445
1782845403749120800,5.127120849609375,-0.34143794046640397,-0.313010449013859,-0.7031869206208735
1782845403759124700,5.137124755859375,-0.17166940282583235,-0.32986747579053044,-0.662437926929444
1782845403769129700,5.147129638671875,-0.10359949068427085,-0.32823622132688757,-0.6223983236163855
1782845403779133700,5.1571337890625,-0.07693594016432762,-0.3803270585700869,-0.5407933687277138
1782845403789138700,5.167138671875,-0.018790040665864944,-0.41406946143507956,-0.4524514337342232
1782845403799143000,5.177142822265625,0.07227730070352553,-0.39647345285937186,-0.3234944336272776
1782845403809148000,5.18714794921875,0.2066582986205816,-0.34289559192880986,-0.20822934732958673
1782845403819152000,5.19715185546875,0.3069885583758354,-0.3725425421737134,-0.15647271047681569
1782845403829156900,5.207156982421875,0.38878070639967915,-0.4116612312495708,-0.1242217152133584
1782845403839160800,5.217160888671875,0.4409422707915306,-0.44088469538539643,-0.12109035838507115
1782845403849165800,5.227165771484375,0.4395113612055778,-0.46013870030120013,-0.1559780588276684
1782845403859169800,5.237169677734375,0.34890520760715005,-0.47501449013277885,-0.1588558062210679
1782845403869174800,5.2471748046875,0.20430384444892405,-0.46810091135203835,-0.13727072800919413
1782845403879178800,5.2571787109375,0.04560030618011951,-0.4656080716229975,-0.16586013202518224
1782845403889183700,5.267183837890625,-0.06404489440917968,-0.40846959560140966,-0.22217406685613095
1782845403899187700,5.277187744140625,-0.09942191273868084,-0.3670988898150623,-0.2842285911656916
1782845403909192700,5.287192626953125,-0.06072656364142894,-0.3473183768071234,-0.3048951662931591
1782845403919197000,5.297197021484375,0.039971360382437704,-0.37995238003879783,-0.2907967175096273
1782845403929202000,5.307201904296875,0.21365268755257127,-0.3730468384340405,-0.3072148414123803
1782845403939206000,5.317205810546875,0.31572716062664985,-0.3816907481387257,-0.3434276529788971
1782845403949211000,5.3272109375,0.33530396775603294,-0.41312823506221175,-0.4114504380431026
1782845403959214800,5.33721484375,0.370826532036066,-0.4361450996428728,-0.5021745189327746
1782845403969219800,5.3472197265625,0.3451595913380384,-0.4692427748635411,-0.5206991135954857
1782845403979223800,5.357223876953125,0.26325112345814705,-0.5177092841297388,-0.49232466750442977
1782845403989228800,5.367228759765625,0.21040449941158293,-0.5734450537465512,-0.4458679636906832
1782845403999232800,5.377232666015625,0.20584055249691008,-0.5812156877480447,-0.4266230188641697
1782845404009237800,5.38723779296875,0.22842881640195845,-0.5817046403087676,-0.4342115012317896
1782845404019241700,5.39724169921875,0.18006547524929045,-0.6452173275373876,-0.42127902748771007
1782845404029246700,5.407246826171875,0.14463000473082066,-0.6741087832398712,-0.3975720617510378
1782845404039251000,5.4172509765625,0.04225567192733288,-0.647938423064351,-0.3700583241425454
1782845404049256000,5.427255859375,-0.077886372756958,-0.6780740336090326,-0.36994894548393786
1782845404059260000,5.437260009765625,-0.20049451529383658,-0.689977529631555,-0.3737372318509966
1782845404069265000,5.447264892578125,-0.18016718205809593,-0.650314504545927,-0.3379832699678838
1782845404079268900,5.457268798828125,-0.0884393309533596,-0.6825730985939502,-0.33782420694865284
1782845404089273900,5.46727392578125,-0.0005050269126892089,-0.650902971958369,-0.32751784392446276
1782845404099277800,5.47727783203125,0.02889233248531818,-0.5670573985360563,-0.3268259892027825
1782845404109282800,5.48728271484375,0.04209960458278656,-0.4174403991729021,-0.4139059414364397
1782845404119286800,5.497286865234375,0.03788929341137409,-0.20905776097774503,-0.5346731322817504
1782845404129291800,5.507291748046875,0.1045645363241434,0.010877806236594914,-0.661378115678206
1782845404139295700,5.517295654296875,0.3254810773998499,0.0649982496112585,-0.8782862978953868
1782845404149300700,5.52730078125,0.4974789815276861,-0.0014604279413819312,-0.8948419305726886
1782845404159305000,5.537304931640625,0.5364414571285248,0.005340484245121479,-0.6206773450426757
1782845404169310000,5.54731005859375,0.3800046947479248,0.03706511754691601,-0.2588627523060888
1782845404179314000,5.55731396484375,-0.06109188982248306,-0.0024526538491249084,-0.037246319332718845
1782845404189319000,5.56731884765625,-0.6494564264118671,-0.030255145271122455,0.029421032534539697
1782845404199322600,5.577322509765625,-1.064994791355729,0.08690101547017692,0.014124898399040102
1782845404209327600,5.58732763671875,-1.2828548674702644,0.1545021410562098,-0.07476736395359039
1782845404219331800,5.597331787109375,-1.5361451534062622,0.11113938466981052,-0.0859225988920778
1782845404229336800,5.6073369140625,-1.7479887457102536,0.16086656152158973,-0.13805669075511395
1782845404239340800,5.6173408203125,-1.7900433421075344,0.16137699526175855,-0.3335228564929217
1782845404249345800,5.627345703125,-1.8199053964078424,0.1347181209169328,-0.4614406862778589
1782845404259349800,5.637349853515625,-1.7643407455742357,0.1474549990236759,-0.6187511262204498
1782845404269354800,5.647354736328125,-1.60325235799551,0.1751478925913572,-0.7496436974998563
1782845404279359000,5.65735888671875,-1.318548112142086,0.2565681385628879,-0.8673645794518291
1782845404289364000,5.667364013671875,-0.9113865303993225,0.36309096934795376,-0.9473067156948148
1782845404299368000,5.677367919921875,-0.27724691558480263,0.47487391261830925,-0.9645825524054467
1782845404309373000,5.687373046875,0.34427930137217044,0.5319051288731396,-0.9137184804782271
1782845404319376600,5.697376708984375,0.7664221791476011,0.5416339112050831,-0.7243863605160266
1782845404329381600,5.707381591796875,1.033015598770976,0.642875002194941,-0.5068955195726826
1782845404339385900,5.7173857421875,1.2608780134618283,0.7368911103673279,-0.3804352681849152
1782845404349390800,5.727390869140625,1.2986246835321187,0.7984224145203829,-0.2524415236195549
1782845404359394800,5.737394775390625,1.1938374443680047,0.8940651009812951,-0.16413926304932683
1782845404369399800,5.74739990234375,0.9690876087397337,0.9140982735760509,-0.09476407699547708
1782845404379403800,5.75740380859375,0.7313485276788473,0.8650599557712674,0.06783537273332477
1782845404389408800,5.76740869140625,0.538770192337036,0.8079457374081015,0.25087149782385676
1782845404399413000,5.7774130859375,0.3490244500726461,0.7344146372511983,0.42909474273994563
1782845404409418000,5.78741796875,0.21695698979496955,0.7559718045428395,0.6989039095394313
1782845404419422000,5.797421875,0.23625848711431024,0.8325301435664295,0.873801407566294
1782845404429427000,5.807427001953125,0.2740805605083704,0.7870037794053554,0.9509071513395756
1782845404439430700,5.8174306640625,0.21814999897181986,0.6520087412431835,1.0598439844638108
1782845404449435000,5.827434814453125,0.2166758347660303,0.5495633890300989,1.1771489060260354
1782845404459439900,5.83743994140625,0.2938438301205635,0.43240562085360285,1.2668487584345043
1782845404469443800,5.84744384765625,0.2313105093181133,0.2949266569212079,1.1990033757638185
1782845404479448800,5.85744873046875,0.15495909104347227,0.13866758919507263,1.1828341120555996
1782845404489452800,5.867452880859375,0.10697744268476962,-0.007950959004461765,1.1557793702609835
1782845404499457800,5.877457763671875,0.10733107842803001,-0.164762107655406,1.1033425691243262
1782845404509461800,5.887461669921875,0.06739771196842194,-0.2634825941264629,1.0484202347822487
1782845404519466800,5.897466796875,-0.006718494600057602,-0.3381841993674636,0.9481764842666685
1782845404529471000,5.907470947265625,-0.15214228005707264,-0.32748511069864034,0.7830141983125358
1782845404539476000,5.91747607421875,-0.30538404578864575,-0.33813480726778505,0.6153033238541334
1782845404549479700,5.927479736328125,-0.41810909221470355,-0.3817459854573011,0.4013721116211265
1782845404559484700,5.937484619140625,-0.4607961412966251,-0.25114158346951004,0.26095658278018236
1782845404569488600,5.947488525390625,-0.4357528854548931,-0.055827977944910526,0.1079169520245865
1782845404579494000,5.957493896484375,-0.3362070540755987,-0.04157587296962738,-0.10267159871701151
1782845404589497900,5.967497802734375,-0.21886370019912718,0.18672931705266235,-0.2119792013823986
1782845404599502800,5.9775029296875,-0.10028875870108604,0.43419776496738194,-0.3058088470719755
1782845404609506800,5.9875068359375,0.08849661409854888,0.4481079246371984,-0.4514919775849208
1782845404619511800,5.99751171875,0.3511123622626066,0.4583861575454473,-0.5205201402993872
1782845404629515800,6.007515869140625,0.46019291470646856,0.500196423792839,-0.5327521376239136
1782845404639520800,6.017520751953125,0.44096682071089743,0.48512277330160136,-0.3903782047241926
1782845404649525000,6.02752490234375,0.4287678488731384,0.5091729264527559,-0.29234949990957976
1782845404659530000,6.037530029296875,0.43152854575812816,0.46373628640174863,-0.2425668665435165
1782845404669533700,6.04753369140625,0.4436784177571535,0.3719359545826912,-0.19482140156086533
1782845404679538700,6.05753857421875,0.4261754942923784,0.32428280752599237,-0.05774648838471621
1782845404689542700,6.067542724609375,0.43152854575812816,0.25802520550340413,0.07611768258400262
1782845404699547600,6.077547607421875,0.4492629398912191,0.216838624112308,0.1260382631160319
1782845404709551900,6.0875517578125,0.46848494223356246,0.18506781358122826,0.16318411774896086
1782845404719556900,6.097556884765625,0.4060439758896828,0.10869506025761365,0.16826098262183367
1782845404729561000,6.10756103515625,0.4163853371620178,0.06252981367111206,0.23856647179573773
1782845404739566000,6.117566162109375,0.4610205977022648,-0.015137947899103164,0.29662001683562994
1782845404749569800,6.12756982421875,0.45678222948014735,-0.08402268355488776,0.335748642783612
1782845404759574800,6.13757470703125,0.47300797261595723,-0.08660773161202669,0.38678850966915485
1782845404769579000,6.1475791015625,0.5012374572783709,-0.05451397273689508,0.4843254854440689
1782845404779584000,6.157583984375,0.483349918410182,-0.0033685996502637863,0.5782700627502053
1782845404789588000,6.167587890625,0.4855570730656385,-0.007951251265406608,0.5900205601681023
1782845404799593000,6.177593017578125,0.5510872375965118,-0.004599018228054046,0.624076632092148
1782845404809597000,6.187596923828125,0.5646878929257393,-0.00329348858743906,0.5918434647463262
1782845404819602000,6.197601806640625,0.5170575422227383,0.06115910983979702,0.5185036493778229
1782845404829606100,6.207606201171875,0.4950999774366617,0.1256765901967883,0.42073118434660134
1782845404839611100,6.217611083984375,0.5121650940060615,0.11024696587473154,0.31220790045931934
1782845404849615000,6.227614990234375,0.5044453134089708,0.019176117374002932,0.22920652277618644
1782845404859620000,6.2376201171875,0.5769494086056948,-0.07348989136368037,0.0984036756068468
1782845404869623800,6.247623779296875,0.6479904455125332,-0.23956863457560537,-0.07362747320346534
1782845404879628800,6.25762890625,0.7122153726637364,-0.43289632697999475,-0.1918900608167052
1782845404889633000,6.267633056640625,0.6799561940938234,-0.5832791961491107,-0.22761245851777492
1782845404899638000,6.277637939453125,0.5690735606640577,-0.6476674971684813,-0.24545732728801667
1782845404909642000,6.28764208984375,0.4576414766579866,-0.7235919222027063,-0.28737229601889847
1782845404919647000,6.29764697265625,0.3084305738776922,-0.7813155046358704,-0.3107034872457385
1782845404929651000,6.30765087890625,0.24309388609230517,-0.8179884079948068,-0.36014074124023315
1782845404939656000,6.317656005859375,0.22242110041975974,-0.8654249896913766,-0.396937197913602
1782845404949660200,6.32766015625,0.22180559886991977,-0.8483709790378808,-0.42352519897930324
1782845404959665200,6.3376650390625,0.2982522942125797,-0.7908318132609129,-0.4280812548484653
1782845404969668900,6.3476689453125,0.4803215104997158,-0.7600108508005737,-0.4222020606167614
1782845404979673900,6.357673828125,0.701105949628353,-0.7111115030750632,-0.3797197403267026
1782845404989677800,6.367677734375,0.92968674172163,-0.6922206323832273,-0.30534027971215544
1782845404999682800,6.377682861328125,1.0598650272518395,-0.7038526179879904,-0.22742336568646132
1782845405009687000,6.38768701171875,1.0847568919241428,-0.7111594338700175,-0.0975098685722798
1782845405019692000,6.397692138671875,0.9857301159828901,-0.7165902267470955,0.062208984218910336
1782845405029696000,6.407696044921875,0.8463350892961025,-0.6892512611836195,0.22033662229590117
1782845405039701000,6.417700927734375,0.7090747365504503,-0.6667033292889595,0.359464522479102
1782845405049705000,6.427705078125,0.5981663841575384,-0.7396545837312937,0.3767595753468573
1782845405059710000,6.4377099609375,0.52572658636868,-0.9173846017703413,0.3726208681069314
1782845405069714200,6.447714111328125,0.31797932346761226,-1.1376616758987308,0.3216575005237013
1782845405079719200,6.45771923828125,0.032521044376492496,-1.3153718201935292,0.19352876793444154
1782845405089723000,6.467722900390625,-0.2749123351573944,-1.4101596433907746,0.08661817994080484
1782845405099728000,6.477727783203125,-0.5840636245250701,-1.636380136093497,-0.05005991593748331
1782845405109731800,6.48773193359375,-0.9346031553357839,-1.8970675465434788,-0.13760595131292938
1782845405119736800,6.49773681640625,-1.3336176709800958,-1.9491224356904624,-0.1402409029264003
1782845405129741000,6.507740966796875,-1.6692565697789192,-1.8680749685540794,-0.155485087678954
1782845405139746000,6.51774609375,-1.9156027356654404,-1.6443725961521267,-0.20787425028160214
1782845405149750000,6.52775,-2.0426181732505557,-1.2737108992889523,-0.2428746903836727
1782845405159755000,6.537755126953125,-2.006433345669508,-1.041131977470219,-0.2606303099678829
1782845405169759000,6.547759033203125,-1.747126575922966,-0.8308522734820842,-0.15640139880627393
1782845405179763200,6.55776318359375,-1.4085352570593357,-0.5429767041161656,0.0071203899318352335
1782845405189768200,6.567768310546875,-1.016737833186984,-0.29934944179952144,0.17441713063139466
1782845405199772000,6.57777197265625,-0.6877157221794128,-0.18432868565171956,0.33941308357529343
1782845405209777000,6.58777685546875,-0.5027414321005345,-0.1018614148452878,0.4916695645965635
1782845405219780900,6.59778076171875,-0.3495172020256519,0.13936258572191,0.6724309131555258
1782845405229785900,6.607785888671875,-0.17149872243404388,0.35822950079143046,0.7708896799504756
1782845405239790000,6.6177900390625,0.006993804410099983,0.3698746381387114,0.7963128019552678
1782845405249795000,6.627795166015625,0.1226946517765522,0.35301030483841894,0.8397910744801164
1782845405259799000,6.637799072265625,0.21046061351299283,0.4350342157915234,0.9333125310033559
1782845405269804000,6.647803955078125,0.2840221088081598,0.4752829318106174,0.9116967653922736
1782845405279808000,6.65780810546875,0.4931733932882547,0.5613625478953123,0.8702936186410486
1782845405289813000,6.66781298828125,0.6287187588095665,0.623993776114285,0.7942000475849956
1782845405299817000,6.67781689453125,0.67033905544281,0.4733379352226853,0.725835171084851
1782845405309822200,6.687822265625,0.7036123794913292,0.3679483462512493,0.7752566429883241
1782845405319826000,6.697825927734375,0.7038017645835876,0.29795097317844627,0.8521834499981253
1782845405329831000,6.707830810546875,0.641325142404437,0.38346827920526266,0.9133423406422138
1782845405339835000,6.7178349609375,0.5384112958967685,0.5526280372977257,0.8998919074386358
1782845405349840000,6.72783984375,0.4613859238833189,0.47578123672157524,0.7602968281351029
1782845405359844000,6.737843994140625,0.3987169940024614,0.6736945033505558,0.6979071535870432
1782845405369849000,6.74784912109375,0.33234804055988787,0.8344505902349948,0.6586461334310472
1782845405379853000,6.75785302734375,0.345294615894556,1.006998821721971,0.6367280238725245
1782845405389858000,6.767858154296875,0.38231004908084865,1.1236392880260944,0.6238762141492218
1782845405399862000,6.777862060546875,0.4329501029938459,1.165149694544077,0.5949183056144044
1782845405409867000,6.787866943359375,0.4591536347866058,1.1829039624214173,0.5580959838474169
1782845405419871000,6.79787109375,0.41396483201682566,1.2798328893005848,0.5212910150740295
1782845405429876000,6.8078759765625,0.3970043448656797,1.3939344847768544,0.5221596146021038
1782845405439880000,6.8178798828125,0.424637617200613,1.3791183161780238,0.52534883909747
1782845405449885000,6.827885009765625,0.42037002288401126,1.2934624784633517,0.5101586495544761
1782845405459889000,6.837888916015625,0.44477205821275706,1.2943877766147256,0.4383702283464372
1782845405469894000,6.847893798828125,0.5169534973263741,1.3462585413664578,0.3551527236945927
1782845405479897900,6.85789794921875,0.5910773026794195,1.415306358629465,0.277499355975911
1782845405489902800,6.86790283203125,0.6236351719349622,1.4759458285093308,0.17484912884049117
1782845405499907000,6.877906982421875,0.5468225658893585,1.5196093214079738,0.020778949460759758
1782845405509912000,6.887912109375,0.4474064983695745,1.4734934669211506,-0.11566979464106261
1782845405519916000,6.897916015625,0.3577829260677099,1.3850214027419685,-0.2571343941435218
1782845405529921000,6.907921142578125,0.23928280337154864,1.3183373920008539,-0.3059367843005806
1782845405539925000,6.917925048828125,0.08966624239981173,1.2974860348910093,-0.2811533484388143
1782845405549930000,6.927929931640625,0.01989595608115196,1.265199676053226,-0.20574111071042717
1782845405559934000,6.937933837890625,-0.0726321054905653,1.1857955922096968,-0.17130334599241615
1782845405569939000,6.94793896484375,-0.10385258866250514,1.111743098527193,-0.20794161642938852
1782845405579943000,6.95794287109375,-0.12041793901622294,0.993733097435534,-0.15974720210283994
1782845405589948000,6.967947998046875,-0.20208616839945315,0.8174000867128371,-0.05964519814550876
1782845405599952000,6.977951904296875,-0.1184685585141182,0.6602309184044599,-0.013605769895762204
1782845405609956900,6.987956787109375,-0.06393851142525672,0.6285954246908426,0.045102585791051385
1782845405619961000,6.997961181640625,-0.09654548051953316,0.5370584199830889,0.03338862099125981
1782845405629966000,7.007966064453125,-0.10232406392097472,0.4607467491969466,-0.021351342521235345
1782845405639970000,7.017969970703125,-0.11612462573647499,0.4904547819793224,-0.021458090831339358
1782845405649975000,7.02797509765625,-0.21300386825501919,0.5269321627661585,-0.0840437994081527
1782845405659978800,7.037978759765625,-0.3265712107241154,0.5391197364270687,-0.10799085751101374
1782845405669983700,7.047983642578125,-0.37597090918719767,0.5897106905013323,-0.059489349996671076
1782845405679988000,7.057988037109375,-0.36495384061038494,0.5647644652932882,0.01717486055418849
1782845405689993000,7.067992919921875,-0.30727497410178184,0.5395496522769332,0.0692478698797524
1782845405699997000,7.077996826171875,-0.17240531588494776,0.5805845502376556,0.0646161184258759
1782845405710002000,7.088001953125,0.026066753670573234,0.5996843875050545,-0.044157048569247126
1782845405720006000,7.098005859375,0.23843115497827527,0.6160854872077703,-0.14978446488454938
1782845405730011100,7.10801123046875,0.38376667762994765,0.5722092283412814,-0.20492372991293667
1782845405740015400,7.118015380859375,0.44278819091916083,0.5203703200325369,-0.18609474547617136
1782845405750020400,7.128020263671875,0.3992880718886852,0.5070891059160232,-0.08861454138979315
1782845405760024000,7.138024169921875,0.2518582073062658,0.41101752651855344,-0.03132299369834363
1782845405770029300,7.148029296875,0.05528992554545402,0.2976723023675382,-0.03492949375770986
1782845405780033000,7.158032958984375,-0.12806056272387503,0.1911101624853909,-0.04880838150642812
1782845405790038000,7.1680380859375,-0.25384850434064865,0.06829626824334263,-0.08194280854091048
1782845405800042200,7.178042236328125,-0.37677696487307544,-0.06735840287134051,-0.14018318138979374
1782845405810047200,7.188047119140625,-0.4953969145566225,-0.17841975386887787,-0.19163462475091217
1782845405820051200,7.19805126953125,-0.5887737019121646,-0.26424831780195235,-0.3105643710359931
1782845405830056200,7.20805615234375,-0.6519692860156298,-0.3364215736091137,-0.4395038354862481
1782845405840060200,7.21806005859375,-0.6266168180942535,-0.3684938513047993,-0.4983227388754487
1782845405850064400,7.228064453125,-0.4629781615108251,-0.38332258712425826,-0.5161613240353763
1782845405860069400,7.2380693359375,-0.24731939483284948,-0.42367271769121284,-0.521809632120654
1782845405870073000,7.248072998046875,0.03701894031763077,-0.41026597749888893,-0.47977841659896076
1782845405880078000,7.258078125,0.23377952978014946,-0.3702564770631492,-0.43405287660397585
1782845405890082000,7.26808203125,0.3446481346845627,-0.35190921172872186,-0.38427104695551095
1782845405900087000,7.278087158203125,0.4717407291591167,-0.32079306571409105,-0.3539105416137725
1782845405910091300,7.28809130859375,0.5735960065245628,-0.2935800646178424,-0.3173227592550218
1782845405920096300,7.29809619140625,0.5055617502182722,-0.26159035063907504,-0.3085897830273956
1782845405930100200,7.308100341796875,0.45329614093005655,-0.2648838392265141,-0.2520022919520736
1782845405940105200,7.318105224609375,0.45260698962211604,-0.3387600995592773,-0.19674290767535565
1782845405950109200,7.328109130859375,0.42134500539600844,-0.37731896279528737,-0.12454203320890664
1782845405960114200,7.3381142578125,0.35697511681616306,-0.44761517268419265,-0.07213445816673338
1782845405970118400,7.348118408203125,0.3614256664842367,-0.5432632659725845,-0.06894318784475326
1782845405980123400,7.358123291015625,0.35906244448423386,-0.6030901042953133,-0.11524667385816574
1782845405990127000,7.368127197265625,0.34143852498829363,-0.6068687460511922,-0.20082937327139078
1782845406000132000,7.378132080078125,0.35654315513968465,-0.5917410272851586,-0.30041765555292366
1782845406010136000,7.388135986328125,0.341460152298212,-0.6020474633745849,-0.40097609804086387
1782845406020141000,7.39814111328125,0.2742553325533867,-0.6332528951078653,-0.4374473413478583
1782845406030145300,7.408145263671875,0.20774083316028116,-0.6928181598849594,-0.49144971130080517
1782845406040150300,7.418150390625,0.13479308584928512,-0.6325051454804838,-0.46885151052363216
1782845406050154200,7.428154296875,0.1855056204766035,-0.5992172083847225,-0.4263107380446046
1782845406060159200,7.4381591796875,0.08783668888509273,-0.594162993735075,-0.3953882149059325
1782845406070163200,7.4481630859375,0.0290004690349102,-0.5601093329638243,-0.2799843777246773
1782845406080168200,7.458168212890625,-0.05945405948758125,-0.4452507816404104,-0.23037936594784258
1782845406090172400,7.46817236328125,-0.07106149517297744,-0.4755629177957773,-0.32393545539304613
1782845406100177400,7.478177490234375,-0.03227028448581695,-0.4774465395852923,-0.41719855324104427
1782845406110181000,7.48818115234375,-0.1184200431972742,-0.463020393217355,-0.35949462535642085
1782845406120186000,7.49818603515625,-0.2084416749060154,-0.5070721547812224,-0.2538652362797409
1782845406130190000,7.508190185546875,-0.2993628858029842,-0.4881384678609669,-0.31734730917438864
1782845406140195000,7.518195068359375,-0.49557168660163875,-0.4023718632481992,-0.38742571159414946
1782845406150199300,7.52819921875,-0.39324119293987747,-0.4390490043908357,-0.43634617517292495
1782845406160204300,7.538204345703125,-0.204820561799407,-0.4593478421844542,-0.5034434428900479
1782845406170208300,7.548208251953125,-0.12605974429547787,-0.49158466279208657,-0.5709010683521628
1782845406180213200,7.558213134765625,-0.20207506248354912,-0.5387080868862569,-0.5635123463403433
1782845406190217200,7.56821728515625,-0.36406361377239227,-0.5302903871528803,-0.5720264191202818
1782845406200222200,7.57822216796875,-0.5161462725967169,-0.4740473986662924,-0.6131603935413062
1782845406210226200,7.58822607421875,-0.6658598642021417,-0.2749813087403774,-0.7583834687944501
1782845406220231200,7.598231201171875,-0.723514180791378,-0.07958207075893879,-0.9519933391410856
1782845406230235100,7.608235107421875,-0.6271002176970243,0.06802928787022829,-1.115830221710354
1782845406240240000,7.618240234375,-0.54109425137043,0.23260332560762761,-1.150905992070958
1782845406250244000,7.628244140625,-0.5128665202736854,0.36269802450761196,-1.0826490329246967
1782845406260249000,7.6382490234375,-0.5334001897364854,0.4025654861241579,-0.8888822184506803
1782845406270253000,7.648253173828125,-0.609071809053421,0.3091939594656229,-0.6430625606562942
1782845406280258300,7.65825830078125,-0.7245347560107708,0.17733634254634378,-0.4151618597816676
1782845406290262300,7.66826220703125,-0.8622241478234529,0.17137071214020252,-0.3206542417652905
1782845406300267300,7.678267333984375,-1.1401093613117932,0.2727791225209832,-0.11132672393545508
1782845406310271200,7.688271240234375,-1.0900953303426504,0.09199176273792982,-0.026160057977214456
1782845406320276200,7.698276123046875,-0.9772808520674705,-0.10214549248367548,-0.03792239196337759
1782845406330280200,7.7082802734375,-0.8326035010635853,-0.02161898048147559,-0.10417729057222604
1782845406340285200,7.71828515625,-0.7193482932835817,0.020782529657334087,-0.25097974397130307
1782845406350289200,7.7282890625,-0.6587754588991404,0.029385230568796394,-0.42809360287338494
1782845406360294100,7.738294189453125,-0.546974541580677,0.12045037998110056,-0.5410296617016196
1782845406370298000,7.748298095703125,-0.4423270031481981,0.24659122668877242,-0.5493522304974496
1782845406380303000,7.75830322265625,-0.3857067057818174,0.3236516700156033,-0.5850147147048265
1782845406390307000,7.76830712890625,-0.18984394194185733,0.4410588829085231,-0.5954025820000097
1782845406400312000,7.77831201171875,-0.02793079397678375,0.5949029984474182,-0.5255230631532147
1782845406410316300,7.78831640625,0.11703823345005511,0.6967337258934975,-0.442974032347463
1782845406420321300,7.7983212890625,0.24764731161296366,0.8405334172800183,-0.39623018215540795
1782845406430325200,7.8083251953125,0.4539858767598867,0.9103013655111193,-0.329836496130377
1782845406440329000,7.818328857421875,0.6808160257935524,0.9748933724090456,-0.23134857630617917
1782845406450334000,7.828333984375,0.8394073358595371,1.019887821650505,-0.12386610670872032
1782845406460338200,7.838338134765625,0.9839408944785595,1.1231015278875827,-0.014784750547260046
1782845406470343200,7.84834326171875,1.1685709011644125,1.1771779859900473,0.07514492856170982
1782845406480347100,7.85834716796875,1.30845108101964,1.157391335502267,0.1654060681147501
1782845406490352000,7.86835205078125,1.4095944107234477,1.04247287068516,0.3238793412916362
1782845406500356000,7.878356201171875,1.500363645929098,0.9405553417384624,0.4925676094148308
1782845406510361000,7.888361083984375,1.5171335789442062,0.7961626528948546,0.5865253749961034
1782845406520365300,7.898365234375,1.6045447358936071,0.6047957391694188,0.6691847708411515
1782845406530370300,7.908370361328125,1.7519196554183958,0.4063894283264875,0.74949457135275
1782845406540374300,7.918374267578125,1.7149691041618584,0.27151363262981176,0.8295183945298195
1782845406550379300,7.928379150390625,1.5125228702783584,0.18338351375609635,0.913266864253208
1782845406560383000,7.938383056640625,1.2703881846070288,0.07160568505227566,0.970183587282896
1782845406570388000,7.948387939453125,0.9704571435272693,-0.07600070514082909,0.9524551844991743
1782845406580392200,7.95839208984375,0.5284218168020248,-0.19361118552088735,0.883936213415861
1782845406590397200,7.968397216796875,-0.008605331259965897,-0.3708940443143248,0.9187658269956708
1782845406600401200,7.978401123046875,-0.6415279715001583,-0.5065837867423891,1.0008814348202197
1782845406610406100,7.98840625,-1.0949994689971208,-0.5861529980197548,1.0145973870921878
1782845406620410000,7.99841015625,-1.4102122503608465,-0.6819784937016665,1.0508207931179552
1782845406630415000,8.0084150390625,-1.810730156305432,-0.6774519561879336,1.08333292353563
1782845406640419300,8.01841943359375,-1.9933961694419382,-0.5202282812133431,1.0829075377304107
1782845406650424300,8.02842431640625,-2.0045219590902326,-0.3569092119731009,0.9974860202282667
1782845406660428300,8.03842822265625,-1.7312381019175052,-0.23988106152564287,0.8672326236352323
1782845406670433300,8.048433349609375,-1.2790835322380065,-0.07552110493034124,0.7029805843938142
1782845406680437000,8.05843701171875,-0.7102461184173822,0.08802402815073727,0.40002632303535934
1782845406690442000,8.06844189453125,-0.20481354753673076,0.21121070122793315,0.17103351607508957
1782845406700446200,8.0784462890625,0.1364835231542587,0.22342238641679285,0.034940818869322536
1782845406710451200,8.088451171875,0.34264322460293767,0.22706892622560262,0.024930735377967358
1782845406720455200,8.098455078125,0.45739480842053887,0.1479167713165283,-0.016046148785203693
1782845406730460000,8.1084599609375,0.48524610742032526,-0.04149360151365399,-0.0741740011703223
1782845406740463600,8.118463623046875,0.45554070498645305,-0.1179535947293043,-0.07684621605426073
1782845406750468600,8.128468505859376,0.409758612498641,-0.1238072891935706,-0.07098229245692492
1782845406760472800,8.138472900390624,0.40784781044125556,-0.11596738934814929,-0.07439400059655309
1782845406770477800,8.148477783203125,0.42936698381006716,-0.1353026428066194,-0.13053842407949268
1782845406780481800,8.158481689453126,0.5137193377107382,-0.11637816210612655,-0.12151457514651119
1782845406790486800,8.16848681640625,0.5790080947011709,-0.18627222093492746,-0.16101035390645266
1782845406800490800,8.17849072265625,0.5585416452556848,-0.18711553989127278,-0.18627368223965166
1782845406810495700,8.188495849609374,0.5359586420476437,-0.055736646399647,-0.1594378438927233
1782845406820500000,8.1985,0.4631996953070163,-0.02421805706396699,-0.15751666657179594
1782845406830505000,8.2085048828125,0.3820820855438709,-0.04821837972402572,-0.10037468341886997
1782845406840508700,8.2185087890625,0.35764731698930263,-0.09300795404314995,-0.031156112698838112
1782845406850513700,8.228513671875,0.345147316378355,-0.09053031188324093,0.071015244878456
1782845406860517600,8.238517578125,0.3933984293282032,-0.065533525531739,0.1511651786532253
1782845406870522600,8.248522705078125,0.42103462427258487,-0.07539718628972768,0.2347695637308061
1782845406880526800,8.25852685546875,0.4526180955380201,-0.07593392351493239,0.29288784456998107
1782845406890531800,8.26853173828125,0.4928776252120733,-0.1091733452938497,0.29870054943673313
1782845406900535800,8.278535888671875,0.5322434209167957,-0.10092997921407222,0.357154272775352
1782845406910540800,8.288540771484374,0.5403589228332042,-0.02348404370099306,0.42173992299772795
1782845406920544800,8.298544677734375,0.5846797105967998,0.11310381661057471,0.43488026733882723
1782845406930549800,8.3085498046875,0.6737982559859752,0.14662030176520346,0.4194714666090905
1782845406940554000,8.318553955078125,0.6846756238311529,0.12303367447257041,0.3975806834489107
1782845406950559000,8.32855908203125,0.727868868869543,0.12826602216809987,0.33568332246243954
1782845406960562700,8.338562744140624,0.7745581393301486,0.07311579735428095,0.25683906445875765
1782845406970567700,8.348567626953125,0.7627624875962734,0.047832010754942894,0.2699273863516748
1782845406980571600,8.358571533203126,0.723016168141365,0.026549861012399194,0.24314802743233738
1782845406990576600,8.36857666015625,0.6866735196501016,-0.04730857140272855,0.18500037436820566
1782845407000580900,8.378580810546875,0.6888923647433519,-0.18870646234452723,0.11777253907397389
1782845407010585900,8.3885859375,0.7174164484381675,-0.2894368273332715,0.0635076457273215
1782845407020589800,8.39858984375,0.6487678596258163,-0.3884259016126394,0.05202449400871992
1782845407030594800,8.4085947265625,0.48519583853781223,-0.43069151041209697,0.0601632306702435
1782845407040598800,8.418598876953125,0.2002010853052139,-0.4338531893134117,0.077793141515553
1782845407050603800,8.428603759765625,-0.10574585506319999,-0.41954672380238767,0.09004216304011642
1782845407060608000,8.43860791015625,-0.2697305486053228,-0.43544893407225604,0.0800142516311258
1782845407070611700,8.44861181640625,-0.33061785576641556,-0.5317530070513486,0.07026311133690177
1782845407080616700,8.45861669921875,-0.2722095059394836,-0.5881228367879986,0.08056435979455709
1782845407090620700,8.46862060546875,-0.1650023461520672,-0.5970026010751723,0.06907222105190157
1782845407100625700,8.478625732421875,-0.0520621956706047,-0.5612769154384732,0.031539668656326826
1782845407110630000,8.4886298828125,0.06456804150044917,-0.4504559490680694,-0.03600125117506832
1782845407120635000,8.498634765625,0.23766075512766838,-0.4434408096089959,-0.11033004104830324
1782845407130638800,8.508638916015625,0.3594908990293741,-0.5241445778742432,-0.0960388461716473
1782845407140643800,8.518643798828125,0.4405149852901697,-0.522654923838377,0.03697645288277417
1782845407150647800,8.528647705078125,0.4733107549548149,-0.5255597053691744,0.11502415368128567
1782845407160652800,8.53865283203125,0.5263894341915846,-0.5381140665158629,0.1604295583438128
1782845407170657000,8.548656982421875,0.5194160880476236,-0.5404983313038945,0.20876071425992995
1782845407180662000,8.558662109375,0.48838732805550095,-0.5048018717616796,0.18365681427214295
1782845407190665700,8.568665771484374,0.4889829558610916,-0.4963549459338188,0.11171554058995098
1782845407200670700,8.578670654296875,0.3877899417966604,-0.42743133957237,-0.020130605087243018
1782845407210674700,8.5886748046875,0.35377310590445993,-0.4509317498862743,-0.22453239348530768
1782845407220679700,8.5986796875,0.4346592449992895,-0.47480654647052284,-0.25606563240084795
1782845407230684000,8.608683837890625,1.113788925141096,-0.5412848055064677,0.13471351780705154
1782845407240689000,8.61868896484375,0.6251122587502003,-0.6506947360351681,0.2667045153150335
1782845407250692900,8.62869287109375,0.3199146754443645,-0.9562728430911898,0.14854294039085505
1782845407260697900,8.63869775390625,0.324594942215085,-1.0533633902728556,0.11319529428631067
1782845407270701800,8.648701904296875,0.298016731891036,-1.0381477009624243,0.09570409779194741
1782845407280706800,8.658706787109375,0.2003711811751127,-0.9188590582370757,-0.004963540691509842
1782845407290711000,8.6687109375,0.1939578070014715,-0.7589002592101692,-0.19761578151974826
1782845407300716000,8.678716064453125,0.10599603043198585,-0.9414037752613424,-0.26298885579276826
