time,seconds_elapsed,z,y,x
1782845398689348600,0.0673486328125,0.032220788300037384,-0.20758675038814545,-0.038174550980329514
1782845398699352800,0.077352783203125,0.04331471771001816,-0.2185397893190384,-0.03374997526407242
1782845398709357800,0.08735791015625,0.04945330321788788,-0.2304936647415161,-0.026342924684286118
1782845398719361800,0.09736181640625,0.04928765445947647,-0.22476519644260406,-0.013943245634436607
1782845398729366300,0.1073662109375,0.05522197484970093,-0.21308058500289917,0.002662894781678915
1782845398739370200,0.117370361328125,0.06758143752813339,-0.21461322903633118,0.029515014961361885
1782845398749375200,0.127375244140625,0.08045409619808197,-0.21917442977428436,0.0732414573431015
1782845398759379200,0.137379150390625,0.09289638698101044,-0.2184031754732132,0.120425745844841
1782845398769384200,0.14738427734375,0.10320601612329483,-0.2229079157114029,0.16964948177337646
1782845398779388200,0.15738818359375,0.11175848543643951,-0.22758576273918152,0.22107459604740143
1782845398789393200,0.16739306640625,0.11072678118944168,-0.21850517392158508,0.26422232389450073
1782845398799397000,0.177397216796875,0.10232237726449966,-0.19378039240837097,0.2748933434486389
1782845398809402000,0.187402099609375,0.0837007537484169,-0.13868065178394318,0.23829752206802368
1782845398819406300,0.19740625,0.04843011498451233,-0.07811344414949417,0.14229083061218262
1782845398829411300,0.207411376953125,0.005915945861488581,-0.029511285945773125,-0.01576218567788601
1782845398839415300,0.217415283203125,-0.06586609780788422,0.010695520788431168,-0.21484225988388062
1782845398849420300,0.227420166015625,-0.15031014382839203,0.012971991673111916,-0.4178747534751892
1782845398859424000,0.237424072265625,-0.20258985459804535,-0.03471963107585907,-0.5944892168045044
1782845398869429200,0.24742919921875,-0.1846228390932083,-0.1432541012763977,-0.709597647190094
1782845398879433200,0.25743310546875,-0.09999290853738785,-0.2955951690673828,-0.7277261018753052
1782845398889438200,0.267438232421875,0.025189243257045746,-0.40850386023521423,-0.658187985420227
1782845398899442200,0.277442138671875,0.16733306646347046,-0.4333335757255554,-0.5383734703063965
1782845398909447200,0.287447265625,0.2988088130950928,-0.3938327729701996,-0.4118213653564453
1782845398919451100,0.297451171875,0.388420969247818,-0.3163622319698334,-0.31329479813575745
1782845398929456000,0.3074560546875,0.4185517132282257,-0.224207803606987,-0.23680748045444489
1782845398939460400,0.31746044921875,0.3812520205974579,-0.13173246383666992,-0.15250538289546967
1782845398949465300,0.32746533203125,0.28203433752059937,-0.031138211488723755,-0.06834230571985245
1782845398959469300,0.33746923828125,0.17026999592781067,0.05752534419298172,0.0034149715211242437
1782845398969474300,0.347474365234375,0.03845178335905075,0.1257944107055664,0.06144631654024124
1782845398979478000,0.35747802734375,-0.10919199883937836,0.132754847407341,0.11294066905975342
1782845398989482200,0.367482177734375,-0.28023672103881836,0.1260034739971161,0.1297912895679474
1782845398999487200,0.3774873046875,-0.4180622398853302,0.10699649155139923,0.1264181286096573
1782845399009492200,0.3874921875,-0.4876847267150879,0.046914778649806976,0.1710473746061325
1782845399019496200,0.39749609375,-0.47112223505973816,-0.01697339117527008,0.27616339921951294
1782845399029501200,0.407501220703125,-0.40912866592407227,-0.0557897612452507,0.4146653711795807
1782845399039505200,0.417505126953125,-0.29369527101516724,-0.05059100687503815,0.5243564248085022
1782845399049509400,0.42750927734375,-0.13492558896541595,-0.012681174091994762,0.6102678775787354
1782845399059514400,0.437514404296875,0.03605387359857559,0.05155453830957413,0.693153977394104
1782845399069518300,0.447518310546875,0.19918687641620636,0.15364867448806763,0.7339232563972473
1782845399079523300,0.4575234375,0.3577251136302948,0.25764378905296326,0.7134672403335571
1782845399089527000,0.467527099609375,0.49069488048553467,0.3595570921897888,0.6218984723091125
1782845399099532000,0.477531982421875,0.5710552334785461,0.4184819459915161,0.4898828864097595
1782845399109536300,0.487536376953125,0.5855931639671326,0.420809268951416,0.3233802020549774
1782845399119541200,0.497541259765625,0.540653645992279,0.38495567440986633,0.14237791299819946
1782845399129545200,0.507545166015625,0.4807479679584503,0.32786309719085693,-0.05468055605888367
1782845399139550200,0.51755029296875,0.4469711184501648,0.2632840871810913,-0.2643730640411377
1782845399149554200,0.52755419921875,0.44673141837120056,0.20592093467712402,-0.48580583930015564
1782845399159559200,0.53755908203125,0.44273641705513,0.1515708863735199,-0.6813647150993347
1782845399169563400,0.5475634765625,0.3989662826061249,0.08811201900243759,-0.7945472002029419
1782845399179568400,0.557568359375,0.366341769695282,0.027003388851881027,-0.8207516074180603
1782845399189572400,0.567572265625,0.35321053862571716,-0.028976524248719215,-0.784827470779419
1782845399199577300,0.577577392578125,0.3418031334877014,-0.0680064782500267,-0.7164177298545837
1782845399209581000,0.5875810546875,0.33150896430015564,-0.09805092960596085,-0.6304551959037781
1782845399219586000,0.5975859375,0.3112196624279022,-0.12007580697536469,-0.5161941051483154
1782845399229590300,0.60759033203125,0.2885010242462158,-0.13749155402183533,-0.36275556683540344
1782845399239595300,0.61759521484375,0.26656031608581543,-0.13250185549259186,-0.19442567229270935
1782845399249599200,0.62759912109375,0.25256380438804626,-0.10032100975513458,-0.03434465825557709
1782845399259604200,0.637604248046875,0.23866477608680725,-0.06220824643969536,0.1178898811340332
1782845399269608200,0.647608154296875,0.23761282861232758,-0.022406239062547684,0.252359539270401
1782845399279613200,0.65761328125,0.2431471347808838,-0.012969061732292175,0.36035338044166565
1782845399289617400,0.667617431640625,0.23836863040924072,0.0593876913189888,0.45022550225257874
1782845399299622400,0.677622314453125,0.2354162484407425,0.10657811164855957,0.5010582804679871
1782845399309626400,0.68762646484375,0.24235644936561584,0.13983432948589325,0.5322948098182678
1782845399319631400,0.69763134765625,0.2719777226448059,0.17096029222011566,0.5159027576446533
1782845399329635000,0.707635009765625,0.31534090638160706,0.1927201896905899,0.41721799969673157
1782845399339640000,0.71764013671875,0.3571040630340576,0.22201335430145264,0.23625168204307556
1782845399349644300,0.727644287109375,0.3768988251686096,0.23654915392398834,0.0237660501152277
1782845399359649300,0.737649169921875,0.38133111596107483,0.21068693697452545,-0.18022330105304718
1782845399369653200,0.7476533203125,0.37484923005104065,0.17264287173748016,-0.35963699221611023
1782845399379658200,0.757658203125,0.3605715036392212,0.13481320440769196,-0.49829527735710144
1782845399389662200,0.767662109375,0.35165897011756897,0.10325421392917633,-0.5862392783164978
1782845399399667200,0.777667236328125,0.33266210556030273,0.07803487777709961,-0.6075184345245361
1782845399409671400,0.78767138671875,0.3095701038837433,0.05389652028679848,-0.5786029100418091
1782845399419676400,0.797676513671875,0.2872437536716461,0.019840016961097717,-0.5285197496414185
1782845399429680400,0.807680419921875,0.26436081528663635,-0.008353803306818008,-0.46530085802078247
1782845399439685400,0.817685302734375,0.23277892172336578,-0.02576635032892227,-0.4010765850543976
1782845399449689000,0.827689208984375,0.20507991313934326,-0.03356115520000458,-0.31491267681121826
1782845399459694000,0.837694091796875,0.18855980038642883,-0.03623869642615318,-0.22069989144802094
1782845399469698300,0.8476982421875,0.18461698293685913,-0.03230227902531624,-0.12168968468904495
1782845399479703300,0.857703369140625,0.1837003231048584,-0.020387297496199608,-0.022252308204770088
1782845399489707300,0.867707275390625,0.18914249539375305,-0.005077849142253399,0.07774592936038971
1782845399499712300,0.877712158203125,0.1845642477273941,0.01269901730120182,0.15283961594104767
1782845399509716200,0.88771630859375,0.18754112720489502,0.043412189930677414,0.19107115268707275
1782845399519721200,0.89772119140625,0.17647303640842438,0.06738383322954178,0.2079627811908722
1782845399529725400,0.907725341796875,0.16005544364452362,0.09218478947877884,0.21156470477581024
1782845399539730400,0.91773046875,0.1401539146900177,0.11482884734869003,0.20783361792564392
1782845399549734100,0.927734130859375,0.12031522393226624,0.1320970505475998,0.19146743416786194
1782845399559739100,0.9377392578125,0.11164557188749313,0.14541232585906982,0.1703413724899292
1782845399569743000,0.9477431640625,0.12193948775529861,0.1574958860874176,0.11979217827320099
1782845399579748000,0.957748046875,0.14828480780124664,0.164809450507164,0.056594837456941605
1782845399589752300,0.96775244140625,0.18632806837558746,0.168634295463562,-0.003757720347493887
1782845399599757300,0.97775732421875,0.22821693122386932,0.17561709880828857,-0.06959718465805054
1782845399609761300,0.98776123046875,0.2632417678833008,0.1774434894323349,-0.11215449869632721
1782845399619766300,0.997766357421875,0.29283401370048523,0.18535201251506805,-0.14110732078552246
1782845399629770200,1.007770263671875,0.32006561756134033,0.19797247648239136,-0.14161598682403564
1782845399639775200,1.017775146484375,0.3379010856151581,0.20889942348003387,-0.12324896454811096
1782845399649779200,1.027779296875,0.3434513807296753,0.21346114575862885,-0.08807819336652756
1782845399659784200,1.0377841796875,0.34164121747016907,0.21137429773807526,-0.056284576654434204
1782845399669788200,1.0477880859375,0.32524147629737854,0.19897621870040894,-0.028728583827614784
1782845399679793200,1.057793212890625,0.29801997542381287,0.18025127053260803,-0.018725750967860222
1782845399689797000,1.067797119140625,0.25514015555381775,0.1633433848619461,-0.021199561655521393
1782845399699802000,1.077802001953125,0.21185792982578278,0.14157657325267792,-0.03985900059342384
1782845399709806000,1.08780615234375,0.16321688890457153,0.1139790341258049,-0.06144604831933975
1782845399719811300,1.097811279296875,0.11602833867073059,0.09505381435155869,-0.0737977921962738
1782845399729815800,1.10781591796875,0.08190684765577316,0.0792897641658783,-0.08498040586709976
1782845399739820800,1.11782080078125,0.06751086562871933,0.06802352517843246,-0.088933065533638
1782845399749824800,1.12782470703125,0.05519933998584747,0.07362255454063416,-0.08633701503276825
1782845399759829800,1.137829833984375,0.05726595222949982,0.06533799320459366,-0.06381946057081223
1782845399769833700,1.147833740234375,0.0695686936378479,0.061094511300325394,-0.020721256732940674
1782845399779838700,1.157838623046875,0.09298533201217651,0.0510738380253315,0.026575684547424316
1782845399789843000,1.167843017578125,0.12730255722999573,0.06195551156997681,0.07824020832777023
1782845399799848000,1.177847900390625,0.17021620273590088,0.08951177448034286,0.12854012846946716
1782845399809851600,1.1878515625,0.20014934241771698,0.1325143724679947,0.16625554859638214
1782845399819856600,1.197856689453125,0.21521244943141937,0.1749957799911499,0.18575309216976166
1782845399829860600,1.207860595703125,0.22512739896774292,0.207229882478714,0.19343258440494537
1782845399839865600,1.217865478515625,0.22876127064228058,0.2412688136100769,0.18012823164463043
1782845399849869800,1.227869873046875,0.2439708560705185,0.28048011660575867,0.1494070589542389
1782845399859874800,1.237874755859375,0.26518747210502625,0.3139730989933014,0.1118391826748848
1782845399869878800,1.247878662109375,0.29269179701805115,0.3159518241882324,0.08514898270368576
1782845399879883800,1.2578837890625,0.3304349184036255,0.2709271013736725,0.0770505741238594
1782845399889887700,1.2678876953125,0.3708640933036804,0.18010319769382477,0.0838184654712677
1782845399899892700,1.277892822265625,0.4069395363330841,0.06787572056055069,0.11329193413257599
1782845399909897000,1.28789697265625,0.424468994140625,-0.043596480041742325,0.14822542667388916
1782845399919902000,1.29790185546875,0.422599196434021,-0.12589667737483978,0.20426365733146667
1782845399929905700,1.30790576171875,0.3976046144962311,-0.18112371861934662,0.28655028343200684
1782845399939910700,1.31791064453125,0.3628349304199219,-0.20815905928611755,0.36216965317726135
1782845399949914600,1.32791455078125,0.3282436430454254,-0.21717652678489685,0.437060683965683
1782845399959919600,1.337919677734375,0.3004485070705414,-0.19923481345176697,0.49809926748275757
1782845399969923800,1.347923828125,0.2676335871219635,-0.18834301829338074,0.5217660069465637
1782845399979928800,1.3579287109375,0.24767237901687622,-0.1677061766386032,0.49985241889953613
1782845399989932800,1.367932861328125,0.22614870965480804,-0.15188486874103546,0.4567236006259918
1782845399999936800,1.377936767578125,0.20771591365337372,-0.15036126971244812,0.4217270016670227
1782845400009941800,1.387941650390625,0.18095965683460236,-0.16680309176445007,0.38809022307395935
1782845400019946800,1.39794677734375,0.145980104804039,-0.17036694288253784,0.3601464629173279
1782845400029950700,1.40795068359375,0.0929616317152977,-0.14540860056877136,0.3432931900024414
1782845400039954700,1.41795458984375,0.025775937363505363,-0.11604085564613342,0.3149595558643341
1782845400049959700,1.427959716796875,-0.05271967127919197,-0.07514747977256775,0.2808372676372528
1782845400059964700,1.437964599609375,-0.11484482884407043,-0.029461219906806946,0.24754507839679718
1782845400069968600,1.44796875,-0.1609521359205246,0.016263391822576523,0.19132575392723083
1782845400079972900,1.457972900390625,-0.19018298387527466,0.06897906959056854,0.08670160174369812
1782845400089977900,1.467977783203125,-0.20268599689006805,0.11891759932041168,-0.012918462045490742
1782845400099981800,1.47798193359375,-0.19468772411346436,0.15252189338207245,-0.09058529138565063
1782845400109986800,1.48798681640625,-0.16852377355098724,0.1962462067604065,-0.1490267664194107
1782845400119990800,1.49799072265625,-0.1263752430677414,0.2323267161846161,-0.1953796148300171
1782845400129995800,1.507995849609375,-0.07532937824726105,0.24694640934467316,-0.21545638144016266
1782845400139999700,1.517999755859375,-0.02238786406815052,0.24722470343112946,-0.2112581878900528
1782845400150004700,1.528004638671875,0.02527286671102047,0.23438027501106262,-0.1842486709356308
1782845400160008700,1.5380087890625,0.06879371404647827,0.21598689258098602,-0.14588423073291779
1782845400170013700,1.548013671875,0.08791733533143997,0.16095666587352753,-0.09393634647130966
1782845400180017700,1.558017578125,0.10205153375864029,0.10684575885534286,-0.0487813875079155
1782845400190022700,1.568022705078125,0.1095627099275589,0.046052444726228714,0.013931527733802795
1782845400200026600,1.578026611328125,0.11083757132291794,-0.012349610216915607,0.05740896239876747
1782845400210031900,1.588031982421875,0.11655377596616745,-0.05847422778606415,0.11044315248727798
1782845400220035800,1.598035888671875,0.1373027265071869,-0.08201124519109726,0.17428578436374664
1782845400230040800,1.608040771484375,0.1626855880022049,-0.0900968685746193,0.22125010192394257
1782845400240044800,1.618044921875,0.18383827805519104,-0.07133117318153381,0.2436629980802536
1782845400250049800,1.6280498046875,0.2065339982509613,-0.02929770201444626,0.25086709856987
1782845400260053800,1.6380537109375,0.21908201277256012,0.007655522786080837,0.24138173460960388
1782845400270058800,1.648058837890625,0.2185419201850891,0.05904547497630119,0.22195157408714294
1782845400280062700,1.658062744140625,0.20510894060134888,0.10481642931699753,0.18598239123821259
1782845400290067700,1.668067626953125,0.1834356039762497,0.1478310078382492,0.14990055561065674
1782845400300071700,1.67807177734375,0.1561480611562729,0.18193252384662628,0.11832291632890701
1782845400310076700,1.68807666015625,0.12492089718580246,0.19597989320755005,0.07902131229639053
1782845400320080600,1.69808056640625,0.07626600563526154,0.19921456277370453,0.05089673772454262
1782845400330085600,1.708085693359375,0.01648816280066967,0.18426145613193512,0.02959997020661831
1782845400340089900,1.71808984375,-0.04890575632452965,0.16140992939472198,0.015896940603852272
1782845400350094800,1.7280947265625,-0.11684326082468033,0.12966611981391907,0.015868179500102997
1782845400360098800,1.738098876953125,-0.1829991191625595,0.09068862348794937,0.02461453340947628
1782845400370103800,1.748103759765625,-0.2430427372455597,0.06755667179822922,0.023869913071393967
1782845400380107500,1.758107421875,-0.2865462899208069,0.042093124240636826,0.029217272996902466
1782845400390112500,1.768112548828125,-0.31645703315734863,0.02377030998468399,0.03487888723611832
1782845400400116700,1.77811669921875,-0.33049988746643066,0.017253022640943527,0.0431021973490715
1782845400410121700,1.788121826171875,-0.31852656602859497,0.015842612832784653,0.05254683271050453
1782845400420125700,1.798125732421875,-0.2913929522037506,0.02327789179980755,0.05949821323156357
1782845400430130700,1.808130615234375,-0.24803191423416138,0.03165379911661148,0.07381696254014969
1782845400440134700,1.818134765625,-0.19722677767276764,0.042035069316625595,0.10150372236967087
1782845400450139600,1.8281396484375,-0.14914394915103912,0.04920536279678345,0.12693770229816437
1782845400460143900,1.838143798828125,-0.105641208589077,0.0628466084599495,0.11937353014945984
1782845400470148900,1.84814892578125,-0.06686638295650482,0.07392242550849915,0.09920754283666611
1782845400480152800,1.85815283203125,-0.02466380037367344,0.07765138149261475,0.06769675761461258
1782845400490157800,1.86815771484375,0.002957440447062254,0.07855499535799026,0.02955656126141548
1782845400500161500,1.87816162109375,0.014932077378034592,0.07327048480510712,-0.011474229395389557
1782845400510166500,1.88816650390625,0.016452476382255554,0.05841244384646416,-0.05107330530881882
1782845400520170800,1.898170654296875,0.014286527410149574,0.03303997591137886,-0.08261871337890625
1782845400530175700,1.90817578125,0.01149766519665718,-0.008448345586657524,-0.10527582466602325
1782845400540179700,1.9181796875,-0.0007494135061278939,-0.05253138393163681,-0.11234385520219803
1782845400550184700,1.928184814453125,-0.022174011915922165,-0.0822615846991539,-0.11252787709236145
1782845400560188700,1.938188720703125,-0.040052078664302826,-0.10195539146661758,-0.11006631702184677
1782845400570193700,1.948193603515625,-0.06640325486660004,-0.11666296422481537,-0.10653043538331985
1782845400580198000,1.958197998046875,-0.09773934632539749,-0.12482395768165588,-0.1021527349948883
1782845400590203000,1.968202880859375,-0.13187041878700256,-0.14393852651119232,-0.09285244345664978
1782845400600206600,1.97820654296875,-0.15961283445358276,-0.1661873757839203,-0.09062977135181427
1782845400610211800,1.9882119140625,-0.17374862730503082,-0.19171111285686493,-0.08565258979797363
1782845400620215600,1.998215576171875,-0.1826009750366211,-0.21795789897441864,-0.0700608417391777
1782845400630220500,2.008220458984375,-0.18780238926410675,-0.23485910892486572,-0.05121764913201332
1782845400640224800,2.018224853515625,-0.18566973507404327,-0.24277615547180176,-0.03464080020785332
1782845400650229800,2.028229736328125,-0.17707224190235138,-0.23752014338970184,-0.024776453152298927
1782845400660233700,2.038233642578125,-0.16550001502037048,-0.22576095163822174,-0.0196091216057539
1782845400670238700,2.04823876953125,-0.15401379764080048,-0.20112937688827515,-0.025961292907595634
1782845400680242700,2.05824267578125,-0.1506984382867813,-0.1670246720314026,-0.03181332349777222
1782845400690247700,2.06824755859375,-0.1482696235179901,-0.14738652110099792,-0.03869013860821724
1782845400700252000,2.078251953125,-0.14823473989963531,-0.12080977112054825,-0.0361177921295166
1782845400710257000,2.0882568359375,-0.1519397348165512,-0.11118964105844498,-0.02047118730843067
1782845400720260600,2.098260498046875,-0.14835165441036224,-0.1136900782585144,-0.008434764109551907
1782845400730264800,2.108264892578125,-0.1342531442642212,-0.122675321996212,-0.014843128621578217
1782845400740268800,2.118268798828125,-0.1169777512550354,-0.13492318987846375,-0.0378565676510334
1782845400750273800,2.128273681640625,-0.10294102877378464,-0.15317730605602264,-0.06039196997880936
1782845400760277800,2.13827783203125,-0.09583491832017899,-0.1654864251613617,-0.07459381222724915
1782845400770282800,2.14828271484375,-0.10069704800844193,-0.1663290560245514,-0.07702208310365677
1782845400780286700,2.15828662109375,-0.11670078337192535,-0.16595594584941864,-0.057914700359106064
1782845400790291700,2.168291748046875,-0.12951883673667908,-0.16330663859844208,-0.013304886408150196
1782845400800296000,2.1782958984375,-0.134677916765213,-0.15117061138153076,0.04999392479658127
1782845400810301000,2.188301025390625,-0.14363360404968262,-0.13406193256378174,0.12482102960348129
1782845400820305000,2.198304931640625,-0.1688697189092636,-0.10220439732074738,0.1960880160331726
1782845400830310000,2.208309814453125,-0.18763834238052368,-0.06270518898963928,0.24271996319293976
1782845400840313900,2.21831396484375,-0.20706823468208313,-0.012371182441711426,0.26410409808158875
1782845400850318800,2.22831884765625,-0.21872594952583313,0.03058001399040222,0.2462230920791626
1782845400860322800,2.23832275390625,-0.2266128957271576,0.06451054662466049,0.18132585287094116
1782845400870327800,2.248327880859375,-0.24672164022922516,0.090166375041008,0.06701844930648804
1782845400880331800,2.258331787109375,-0.26705753803253174,0.10292291641235352,-0.07505613565444946
1782845400890336800,2.268336669921875,-0.2745998799800873,0.0879780575633049,-0.21072076261043549
1782845400900340700,2.2783408203125,-0.2809584438800812,0.05481264740228653,-0.3152599334716797
1782845400910345700,2.288345703125,-0.2676474153995514,0.010335195809602737,-0.3800956606864929
1782845400920350000,2.298349853515625,-0.23120765388011932,-0.04342443868517876,-0.40201881527900696
1782845400930355000,2.30835498046875,-0.15610943734645844,-0.09230276942253113,-0.3773462176322937
1782845400940359000,2.31835888671875,-0.06739768385887146,-0.13382411003112793,-0.2901926636695862
1782845400950364000,2.328364013671875,0.02437245100736618,-0.16323526203632355,-0.15977555513381958
1782845400960367900,2.338367919921875,0.09568791091442108,-0.1732223778963089,-0.030646059662103653
1782845400970372900,2.348372802734375,0.14700809121131897,-0.16653971374034882,0.0778370052576065
1782845400980376800,2.358376953125,0.17529165744781494,-0.15307530760765076,0.15913079679012299
1782845400990381800,2.3683818359375,0.18812090158462524,-0.14126364886760712,0.21267472207546234
1782845401000385800,2.3783857421875,0.18372854590415955,-0.13119956851005554,0.26211923360824585
1782845401010390800,2.388390869140625,0.15905490517616272,-0.1311580240726471,0.3164493143558502
1782845401020394800,2.398394775390625,0.1004784032702446,-0.11422298103570938,0.3590918481349945
1782845401030399700,2.408399658203125,0.03231852501630783,-0.08669494837522507,0.36949390172958374
1782845401040404000,2.418404052734375,-0.03315049782395363,-0.07664284855127335,0.3469896614551544
1782845401050409000,2.428408935546875,-0.08610612154006958,-0.0521545484662056,0.29662367701530457
1782845401060413000,2.438412841796875,-0.11726564168930054,-0.027108583599328995,0.2361009418964386
1782845401070418000,2.44841796875,-0.13431546092033386,0.005872270092368126,0.1630573570728302
1782845401080422000,2.458421875,-0.14032408595085144,0.02220224030315876,0.08886222541332245
1782845401090427000,2.468427001953125,-0.15228886902332306,0.036981452256441116,0.01744849793612957
1782845401100430800,2.478430908203125,-0.15221403539180756,0.036968935281038284,-0.041794583201408386
1782845401110435800,2.488435791015625,-0.15307822823524475,0.01715634949505329,-0.0685710683465004
1782845401120439800,2.498439697265625,-0.14797934889793396,-0.006935137789696455,-0.07864581048488617
1782845401130444800,2.50844482421875,-0.13123925030231476,-0.04216289892792702,-0.06397392600774765
1782845401140448800,2.51844873046875,-0.0997854471206665,-0.06042046844959259,-0.04614352807402611
1782845401150453800,2.528453857421875,-0.06370601058006287,-0.07399992644786835,-0.01242231484502554
1782845401160457700,2.538457763671875,-0.03466770052909851,-0.06948000937700272,0.021437913179397583
1782845401170462000,2.5484619140625,-0.008952216245234013,-0.05313379317522049,0.05241367220878601
1782845401180467000,2.558467041015625,0.008580172434449196,-0.02093723975121975,0.05597511678934097
1782845401190472000,2.568471923828125,0.02159344218671322,0.02027304656803608,0.011566374450922012
1782845401200476000,2.578475830078125,0.038607578724622726,0.04122546687722206,-0.05296814441680908
1782845401210479600,2.588479736328125,0.0657971203327179,0.03929334506392479,-0.11620224267244339
1782845401220484600,2.598484619140625,0.09355977922677994,0.02226109616458416,-0.17365966737270355
1782845401230488800,2.60848876953125,0.09988265484571457,-0.0028450549580156803,-0.2164907604455948
1782845401240493800,2.618493896484375,0.10026135295629501,-0.023204920813441277,-0.2542080581188202
1782845401250497800,2.628497802734375,0.08645712584257126,-0.03838121145963669,-0.2853603661060333
1782845401260502800,2.638502685546875,0.06691271811723709,-0.05157823860645294,-0.31582507491111755
1782845401270506800,2.6485068359375,0.03700009733438492,-0.07104461640119553,-0.3447344899177551
1782845401280511700,2.65851171875,0.0073106433264911175,-0.09197546541690826,-0.35978055000305176
1782845401290516000,2.668515869140625,-0.013770140707492828,-0.11180509626865387,-0.3753776252269745
1782845401300521000,2.67852099609375,-0.03155020251870155,-0.13251596689224243,-0.382779598236084
1782845401310524700,2.688524658203125,-0.036021385341882706,-0.12818166613578796,-0.38944655656814575
1782845401320529700,2.69852978515625,-0.03627464920282364,-0.12363378703594208,-0.3786567747592926
1782845401330533600,2.70853369140625,-0.0368160717189312,-0.12654542922973633,-0.3348725438117981
1782845401340538600,2.71853857421875,-0.03976712003350258,-0.13081952929496765,-0.26122069358825684
1782845401350542800,2.72854296875,-0.044865209609270096,-0.11124289780855179,-0.17058877646923065
1782845401360547800,2.7385478515625,-0.052738845348358154,-0.0982474759221077,-0.07130374014377594
1782845401370551800,2.7485517578125,-0.061646584421396255,-0.0847332626581192,0.023552730679512024
1782845401380556800,2.758556884765625,-0.08009989559650421,-0.07213597744703293,0.10660766810178757
1782845401390560800,2.768560791015625,-0.08476149290800095,-0.06504291296005249,0.14191985130310059
1782845401400565800,2.778565673828125,-0.0893743559718132,-0.04886474460363388,0.13044242560863495
1782845401410570000,2.788570068359375,-0.08045995235443115,-0.029522471129894257,0.04713448882102966
1782845401420575000,2.798574951171875,-0.07122650742530823,0.0029111013282090425,-0.08736446499824524
1782845401430578700,2.80857861328125,-0.06357444822788239,0.033721212297677994,-0.2439170628786087
1782845401440583700,2.818583740234375,-0.04637841880321503,0.05307547003030777,-0.3803739547729492
1782845401450587600,2.828587646484375,-0.030361633747816086,0.06102846562862396,-0.4819088578224182
1782845401460592600,2.838592529296875,-0.00689172837883234,0.047813329845666885,-0.5433764457702637
1782845401470596900,2.848596923828125,0.016859672963619232,0.03540406376123428,-0.5843383073806763
1782845401480601900,2.858601806640625,0.04007711261510849,0.020952686667442322,-0.6082838177680969
1782845401490605800,2.868605712890625,0.06732098013162613,0.016630642116069794,-0.6002475023269653
1782845401500610800,2.87861083984375,0.09701389819383621,0.0028397287242114544,-0.5793091654777527
1782845401510614800,2.88861474609375,0.11657694727182388,-0.014654843136668205,-0.5465192794799805
1782845401520619800,2.898619873046875,0.13919571042060852,-0.01823679357767105,-0.49266350269317627
1782845401530624000,2.9086240234375,0.14615747332572937,-0.02292449027299881,-0.41205573081970215
1782845401540629000,2.91862890625,0.13181795179843903,-0.02292422391474247,-0.3062629997730255
1782845401550632700,2.9286328125,0.10953767597675323,-0.017782459035515785,-0.17919717729091644
1782845401560637700,2.9386376953125,0.07668119668960571,-0.02436952106654644,-0.05137530714273453
1782845401570641700,2.9486416015625,0.035466913133859634,-0.013643373735249043,0.04801599681377411
1782845401580646700,2.958646728515625,0.003284476464614272,0.004619519226253033,0.12040577083826065
1782845401590651000,2.96865087890625,-0.019524432718753815,0.017965950071811676,0.1653444916009903
1782845401600656000,2.97865576171875,-0.01834438554942608,0.03706454485654831,0.18023209273815155
1782845401610659800,2.988659912109375,-0.0059814597479999065,0.05162697657942772,0.15300659835338593
1782845401620664800,2.998664794921875,0.001835716888308525,0.06144445389509201,0.1032177284359932
1782845401630668800,3.008668701171875,0.016526246443390846,0.06508819013834,0.049965694546699524
1782845401640673800,3.018673828125,0.03201945126056671,0.06464770436286926,0.014000770635902882
1782845401650678000,3.028677978515625,0.05469014123082161,0.06204632669687271,-0.008332232013344765
1782845401660683000,3.03868310546875,0.08196277916431427,0.06336379051208496,-0.028687570244073868
1782845401670686700,3.048686767578125,0.11468902975320816,0.0744641125202179,-0.05880419537425041
1782845401680691700,3.058691650390625,0.1484893411397934,0.07929189503192902,-0.07589662820100784
1782845401690695700,3.06869580078125,0.17423518002033234,0.07104701548814774,-0.07093968987464905
1782845401700700700,3.07870068359375,0.1927012801170349,0.06665545701980591,-0.05343712493777275
1782845401710705000,3.088704833984375,0.2003978043794632,0.060867879539728165,-0.01986478455364704
1782845401720710000,3.0987099609375,0.2047683298587799,0.06364156305789948,0.019059179350733757
1782845401730715000,3.10871484375,0.20100660622119904,0.0710773691534996,0.0603506937623024
1782845401740719900,3.118719970703125,0.1936403065919876,0.09148997068405151,0.10738851130008698
1782845401750723800,3.128723876953125,0.18815632164478302,0.11171907186508179,0.15080256760120392
1782845401760728800,3.138728759765625,0.1794174313545227,0.1294349581003189,0.17903046309947968
1782845401770732800,3.14873291015625,0.18104062974452972,0.13995204865932465,0.17910796403884888
1782845401780737800,3.15873779296875,0.1851208508014679,0.1489652395248413,0.1667570322751999
1782845401790742000,3.168741943359375,0.20023402571678162,0.13778182864189148,0.15404069423675537
1782845401800747000,3.1787470703125,0.2216021716594696,0.1077863872051239,0.1354861855506897
1782845401810750700,3.188750732421875,0.24951742589473724,0.0795009508728981,0.11484615504741669
1782845401820755700,3.198755615234375,0.2789115309715271,0.04899683594703674,0.0972605049610138
1782845401830759700,3.208759765625,0.2986719012260437,0.016289757564663887,0.08410901576280594
1782845401840764700,3.2187646484375,0.31756436824798584,0.003686081152409315,0.09544369578361511
1782845401850769000,3.228768798828125,0.33507704734802246,0.019531888887286186,0.11137019842863083
1782845401860774000,3.23877392578125,0.3486109673976898,0.05311914533376694,0.14012621343135834
1782845401870777900,3.24877783203125,0.360924631357193,0.08194466680288315,0.19163042306900024
1782845401880782800,3.258782958984375,0.348185658454895,0.11589544266462326,0.2370293289422989
1782845401890786800,3.268786865234375,0.3283637762069702,0.15339647233486176,0.25153103470802307
1782845401900791800,3.278791748046875,0.31280532479286194,0.18984423577785492,0.19831015169620514
1782845401910796000,3.288796142578125,0.3213764429092407,0.2117556631565094,0.08979033678770065
1782845401920801000,3.298801025390625,0.3289842903614044,0.23161804676055908,-0.04300445690751076
1782845401930804700,3.3088046875,0.3418084681034088,0.23841629922389984,-0.16707926988601685
1782845401940809700,3.318809814453125,0.3776650130748749,0.2381068468093872,-0.2503933310508728
1782845401950813700,3.328813720703125,0.4083819091320038,0.21667984127998352,-0.2657025158405304
1782845401960818700,3.338818603515625,0.4328230619430542,0.15255358815193176,-0.23151125013828278
1782845401970823000,3.348822998046875,0.4496438503265381,0.06690100580453873,-0.17165671288967133
1782845401980828000,3.358827880859375,0.4602906405925751,-0.01998063176870346,-0.09502451866865158
1782845401990831900,3.368831787109375,0.4622640311717987,-0.09534595906734467,0.0019888486713171005
1782845402000836900,3.3788369140625,0.4551536738872528,-0.15578027069568634,0.10913287848234177
1782845402010840800,3.3888408203125,0.4490068256855011,-0.19512368738651276,0.21203848719596863
1782845402020845800,3.398845703125,0.4234122633934021,-0.19526296854019165,0.2981552481651306
1782845402030850000,3.40885009765625,0.3906860053539276,-0.18154528737068176,0.363985151052475
1782845402040855000,3.41885498046875,0.35198652744293213,-0.17267270386219025,0.3958176374435425
1782845402050858800,3.428858642578125,0.32010209560394287,-0.14600461721420288,0.40667641162872314
1782845402060863700,3.43886376953125,0.2889583110809326,-0.11396624892950058,0.39489805698394775
1782845402070867700,3.44886767578125,0.2527100145816803,-0.08367971330881119,0.36419740319252014
1782845402080872700,3.458872802734375,0.21414850652217865,-0.046658050268888474,0.3414420187473297
1782845402090877000,3.468876953125,0.16697567701339722,-0.00990136619657278,0.3171044588088989
1782845402100882000,3.4788818359375,0.11867605149745941,0.02552160434424877,0.3013446629047394
1782845402110886000,3.488885986328125,0.06521043181419373,0.0472298301756382,0.2878946363925934
1782845402120891000,3.498890869140625,0.00577905960381031,0.06253554672002792,0.2546197772026062
1782845402130894800,3.508894775390625,-0.0573599636554718,0.08181790262460709,0.20157891511917114
1782845402140899800,3.51889990234375,-0.11160775274038315,0.09346576780080795,0.13850301504135132
1782845402150903800,3.52890380859375,-0.1478874683380127,0.10717039555311203,0.06273289024829865
1782845402160908800,3.53890869140625,-0.1589481085538864,0.1263371706008911,-0.001969673903658986
1782845402170912800,3.548912841796875,-0.15186116099357605,0.13016599416732788,-0.02858024649322033
1782845402180917800,3.558917724609375,-0.12260661274194717,0.13598686456680298,-0.051528170704841614
1782845402190921700,3.568921630859375,-0.087186299264431,0.15532860159873962,-0.08535777777433395
1782845402200926700,3.5789267578125,-0.041897647082805634,0.17325620353221893,-0.11539103835821152
1782845402210931000,3.588930908203125,-0.0016141419764608145,0.16174495220184326,-0.10416794568300247
1782845402220936000,3.59893603515625,0.03814498707652092,0.1400737464427948,-0.07745670527219772
1782845402230940000,3.60893994140625,0.08130710572004318,0.09040206670761108,-0.050434410572052
1782845402240943900,3.61894384765625,0.1349239945411682,0.027224963530898094,-0.01997157745063305
1782845402250948900,3.628948974609375,0.16710935533046722,-0.03465225175023079,-0.006940197665244341
1782845402260953900,3.638953857421875,0.1868220865726471,-0.08545152097940445,0.0008247809601016343
1782845402270957800,3.648957763671875,0.18626734614372253,-0.11951068788766861,0.016329172998666763
1782845402280962800,3.658962890625,0.16974322497844696,-0.14400456845760345,0.056824132800102234
1782845402290966800,3.668966796875,0.13397617638111115,-0.1599089801311493,0.10373491793870926
1782845402300970800,3.678970703125,0.09961500763893127,-0.15376585721969604,0.1362699568271637
1782845402310975700,3.688975830078125,0.06155470758676529,-0.13143205642700195,0.1625092774629593
1782845402320979700,3.698979736328125,0.005765477195382118,-0.10533015429973602,0.17908959090709686
1782845402330984700,3.708984619140625,-0.04794169217348099,-0.0765720084309578,0.18907831609249115
1782845402340989000,3.718989013671875,-0.097150519490242,-0.049359291791915894,0.19287198781967163
1782845402350994000,3.728993896484375,-0.14550207555294037,-0.013885188847780228,0.19949206709861755
1782845402360998000,3.738997802734375,-0.1994880735874176,0.01468733325600624,0.20291423797607422
1782845402371003000,3.7490029296875,-0.2553124725818634,0.04411286488175392,0.19747446477413177
1782845402381006600,3.759006591796875,-0.29854726791381836,0.06737051904201508,0.1860705316066742
1782845402391011800,3.76901171875,-0.337197482585907,0.08186344057321548,0.18148431181907654
1782845402401015800,3.779015869140625,-0.37273523211479187,0.09131313860416412,0.16475778818130493
1782845402411020800,3.789020751953125,-0.3976781368255615,0.09663493186235428,0.14308258891105652
1782845402421024800,3.799024658203125,-0.4150824248790741,0.09242234379053116,0.111758753657341
1782845402431029800,3.80902978515625,-0.4215475022792816,0.0879112109541893,0.08454817533493042
1782845402441033700,3.81903369140625,-0.4291260540485382,0.07673552632331848,0.06983740627765656
1782845402451038700,3.829038818359375,-0.43251121044158936,0.056226786226034164,0.04321511462330818
1782845402461043000,3.83904296875,-0.42514702677726746,0.033360619097948074,0.008270712569355965
1782845402471048000,3.8490478515625,-0.4158267676830292,0.0009182579233311117,-0.021374264732003212
1782845402481052000,3.859052001953125,-0.4025426506996155,-0.01956171728670597,-0.045811429619789124
1782845402491057000,3.869056884765625,-0.3885757029056549,-0.028660673648118973,-0.06472333520650864
1782845402501060600,3.879060546875,-0.3684336841106415,-0.03140239790081978,-0.07928577065467834
1782845402511065600,3.889065673828125,-0.33794528245925903,-0.025439312681555748,-0.07530700415372849
1782845402521069800,3.89906982421875,-0.3145371675491333,-0.015994146466255188,-0.056225456297397614
1782845402531074800,3.90907470703125,-0.28566795587539673,-0.011932559311389923,-0.0462372712790966
1782845402541078800,3.919078857421875,-0.24376899003982544,-0.012444152496755123,-0.046133674681186676
1782845402551083800,3.929083740234375,-0.20346710085868835,-0.025356221944093704,-0.053702108561992645
1782845402561087700,3.939087646484375,-0.16928809881210327,-0.034394457936286926,-0.07451950758695602
1782845402571092700,3.9490927734375,-0.14619635045528412,-0.042867038398981094,-0.10047654062509537
1782845402581097000,3.959096923828125,-0.1338435560464859,-0.04993906244635582,-0.1078481674194336
1782845402591102000,3.96910205078125,-0.1334850937128067,-0.053471747785806656,-0.10351360589265823
1782845402601106000,3.97910595703125,-0.13665558397769928,-0.0447874441742897,-0.11108817160129547
1782845402611111000,3.98911083984375,-0.14664456248283386,-0.03136351704597473,-0.0978301540017128
1782845402621114600,3.999114501953125,-0.15958353877067566,-0.019408052787184715,-0.09030060470104218
1782845402631119600,4.00911962890625,-0.18409660458564758,-0.008242216892540455,-0.0783320888876915
1782845402641123800,4.019123779296875,-0.20711377263069153,-0.005987851414829493,-0.06015947833657265
1782845402651128800,4.02912890625,-0.2170577496290207,-0.017580857500433922,-0.036132171750068665
1782845402661132800,4.0391328125,-0.22505442798137665,-0.03355929255485535,-0.010239055380225182
1782845402671137800,4.0491376953125,-0.2297716736793518,-0.05295456200838089,0.028912074863910675
1782845402681141800,4.059141845703125,-0.23030005395412445,-0.07073382288217545,0.0616615004837513
1782845402691146800,4.069146728515625,-0.2264254093170166,-0.0743328183889389,0.0809909924864769
1782845402701151000,4.07915087890625,-0.22327090799808502,-0.07125953584909439,0.08941030502319336
1782845402711156000,4.089156005859375,-0.2168915718793869,-0.0647457093000412,0.09725784510374069
1782845402721159700,4.09915966796875,-0.2086179256439209,-0.04935556650161743,0.10273011028766632
1782845402731165000,4.1091650390625,-0.2028074413537979,-0.028860943391919136,0.1042552962899208
1782845402741169000,4.1191689453125,-0.1932632029056549,-0.01690042018890381,0.09729272872209549
1782845402751174000,4.129173828125,-0.17582695186138153,-0.011372496373951435,0.08255266398191452
1782845402761178000,4.13917822265625,-0.15836167335510254,-0.018931612372398376,0.06025641784071922
1782845402771183000,4.14918310546875,-0.13737809658050537,-0.027896346524357796,0.04195890203118324
1782845402781187000,4.15918701171875,-0.11161680519580841,-0.04795634001493454,0.024830514565110207
1782845402791192000,4.169192138671875,-0.08459584414958954,-0.061650581657886505,0.0013289173366501927
1782845402801196000,4.179196044921875,-0.05708299204707146,-0.0692262053489685,-0.02611016295850277
1782845402811201000,4.189200927734375,-0.03789784759283066,-0.07313945889472961,-0.04897047206759453
1782845402821205000,4.199205078125,-0.019870910793542862,-0.07326409220695496,-0.06680193543434143
1782845402831210000,4.2092099609375,-0.012136291712522507,-0.06710180640220642,-0.07119588553905487
1782845402841214000,4.2192138671875,-0.009225722402334213,-0.0556667260825634,-0.06696838140487671
1782845402851219000,4.229218994140625,-0.018518555909395218,-0.04008909687399864,-0.06485729664564133
1782845402861223000,4.239222900390625,-0.018916167318820953,-0.04326411709189415,-0.04424575716257095
1782845402871228000,4.249227783203125,-0.01435417216271162,-0.048114798963069916,-0.024583639577031136
1782845402881232100,4.259232177734375,-0.005200088489800692,-0.056720003485679626,0.0005033374181948602
1782845402891237000,4.269237060546875,0.013993313536047935,-0.06707330793142319,0.03446769714355469
1782845402901241000,4.279240966796875,0.04609612375497818,-0.07497144490480423,0.07630728930234909
1782845402911246000,4.28924609375,0.08927848190069199,-0.07845485955476761,0.12969914078712463
1782845402921249800,4.299249755859375,0.12607377767562866,-0.0869159922003746,0.18932518362998962
1782845402931254800,4.3092548828125,0.15476001799106598,-0.09046465158462524,0.24386832118034363
1782845402941259000,4.319259033203125,0.1641220897436142,-0.10195805877447128,0.28800275921821594
1782845402951264000,4.329263916015625,0.1397496461868286,-0.10297884792089462,0.27216973900794983
1782845402961268000,4.33926806640625,0.09657207876443863,-0.09351397305727005,0.20097385346889496
1782845402971273000,4.34927294921875,0.032096683979034424,-0.07364332675933838,0.07671315222978592
1782845402981277000,4.35927685546875,-0.04656803607940674,-0.03982704132795334,-0.09990023076534271
1782845402991282000,4.369281982421875,-0.14420750737190247,-0.0024402544368058443,-0.32355329394340515
1782845403001286100,4.3792861328125,-0.25004205107688904,0.01780349761247635,-0.5824056267738342
1782845403011291100,4.389291015625,-0.35335594415664673,0.01034638099372387,-0.8357071280479431
1782845403021295000,4.399295166015625,-0.420394629240036,-0.03280268609523773,-1.011817455291748
1782845403031300000,4.409300048828125,-0.42673614621162415,-0.12324896454811096,-1.050380825996399
1782845403041303800,4.4193037109375,-0.37178367376327515,-0.24505476653575897,-0.9529972672462463
1782845403051308800,4.429308837890625,-0.31310784816741943,-0.3127768039703369,-0.7670931816101074
1782845403061313000,4.43931298828125,-0.2606576979160309,-0.3160240054130554,-0.5403956174850464
1782845403071318000,4.449318115234375,-0.19631944596767426,-0.27609071135520935,-0.316871702671051
1782845403081322000,4.459322021484375,-0.10376501083374023,-0.23669029772281647,-0.0927584320306778
1782845403091327000,4.469326904296875,-0.007124754600226879,-0.18972226977348328,0.1138962060213089
1782845403101331000,4.4793310546875,0.06899158656597137,-0.1432354599237442,0.2886946499347687
1782845403111336000,4.4893359375,0.11507998406887054,-0.10825483500957489,0.4227842688560486
1782845403121340200,4.499340087890625,0.13437990844249725,-0.08080163598060608,0.5089734792709351
1782845403131345200,4.50934521484375,0.13093911111354828,-0.059237755835056305,0.5450087189674377
1782845403141349000,4.51934912109375,0.09902778267860413,-0.02412610873579979,0.5342493057250977
1782845403151354000,4.52935400390625,0.04626123979687691,0.019089538604021072,0.47868749499320984
1782845403161357800,4.53935791015625,-0.006274141371250153,0.06993833929300308,0.372017502784729
1782845403171362800,4.54936279296875,-0.058881692588329315,0.1089954599738121,0.22919882833957672
1782845403181367000,4.559366943359375,-0.10522735118865967,0.12981392443180084,0.08099818229675293
1782845403191372000,4.5693720703125,-0.143922820687294,0.129130020737648,-0.0468231663107872
1782845403201376000,4.5793759765625,-0.1641833484172821,0.12372060865163803,-0.1525716930627823
1782845403211381000,4.589381103515625,-0.15990523993968964,0.10147789120674133,-0.23727193474769592
1782845403221385000,4.599385009765625,-0.11857271939516068,0.04626177251338959,-0.27492982149124146
1782845403231389000,4.609388916015625,-0.023848341777920723,-0.038725290447473526,-0.254192590713501
1782845403241394000,4.619393798828125,0.0873522162437439,-0.09727728366851807,-0.19653889536857605
1782845403251399200,4.629399169921875,0.1622765213251114,-0.11095847189426422,-0.1320408582687378
1782845403261403100,4.639403076171875,0.19337399303913116,-0.10542762279510498,-0.09305990487337112
1782845403271406800,4.64940673828125,0.18513816595077515,-0.06036720424890518,-0.0909152552485466
1782845403281411800,4.659411865234375,0.13455568253993988,-0.0023584954906255007,-0.10407580435276031
1782845403291415800,4.669415771484375,0.06544878333806992,0.04538079723715782,-0.14865684509277344
1782845403301420800,4.6794208984375,0.01315042283385992,0.08507973700761795,-0.19906862080097198
1782845403311425000,4.689425048828125,-0.002674079965800047,0.09346097707748413,-0.2567601501941681
1782845403321430000,4.699429931640625,0.03773033618927002,0.07925514131784439,-0.28927549719810486
1782845403331434000,4.70943408203125,0.08180538564920425,0.05572211742401123,-0.32242250442504883
1782845403341439000,4.71943896484375,0.13331864774227142,0.03527196869254112,-0.3524262309074402
1782845403351443000,4.72944287109375,0.17799130082130432,0.020769460126757622,-0.37791934609413147
1782845403361448000,4.739447998046875,0.21881356835365295,0.020232034847140312,-0.4022209346294403
1782845403371452200,4.7494521484375,0.2447410374879837,0.024655012413859367,-0.41818445920944214
1782845403381457200,4.75945703125,0.26505935192108154,0.036734845489263535,-0.42250916361808777
1782845403391460900,4.7694609375,0.2761026918888092,0.0437469482421875,-0.4052993059158325
1782845403401465900,4.7794658203125,0.2800809144973755,0.0468205027282238,-0.3700267970561981
1782845403411469800,4.7894697265625,0.28003111481666565,0.05353299900889397,-0.319900244474411
1782845403421474800,4.799474853515625,0.27699750661849976,0.05079154297709465,-0.25076165795326233
1782845403431479000,4.80947900390625,0.2684018909931183,0.04741305485367775,-0.17680273950099945
1782845403441484000,4.819484130859375,0.2635895609855652,0.045533664524555206,-0.08978607505559921
1782845403451488000,4.829488037109375,0.26589906215667725,0.0463256873190403,0.007803328335285187
1782845403461493000,4.839492919921875,0.2714839577674866,0.0451834574341774,0.10312052816152573
1782845403471497000,4.8494970703125,0.2781330943107605,0.04736138880252838,0.2019895762205124
1782845403481502000,4.859501953125,0.2884717285633087,0.05486857518553734,0.27126452326774597
1782845403491506200,4.869506103515625,0.2939684987068176,0.08267118036746979,0.3180634677410126
1782845403501511200,4.87951123046875,0.3019537329673767,0.11663100868463516,0.34633851051330566
1782845403511515000,4.889514892578125,0.31287217140197754,0.12209182232618332,0.35826733708381653
1782845403521519900,4.899519775390625,0.31734734773635864,0.1280120313167572,0.35415247082710266
1782845403531523800,4.90952392578125,0.321095734834671,0.12320555746555328,0.33399635553359985
1782845403541528800,4.91952880859375,0.3156120181083679,0.11396198719739914,0.2843819260597229
1782845403551533000,4.929532958984375,0.3061354160308838,0.10779038071632385,0.20107558369636536
1782845403561538000,4.9395380859375,0.278769850730896,0.09920088201761246,0.10081236809492111
1782845403571542000,4.9495419921875,0.25046736001968384,0.08039604127407074,-0.005057342816144228
1782845403581547000,4.959547119140625,0.22415080666542053,0.07172451913356781,-0.10732565820217133
1782845403591551000,4.969551025390625,0.18851318955421448,0.05604010075330734,-0.19721746444702148
1782845403601556000,4.979555908203125,0.1804688423871994,0.037703171372413635,-0.255195289850235
1782845403611560000,4.989559814453125,0.1637820154428482,0.0375569611787796,-0.3093637228012085
1782845403621565000,4.99956494140625,0.15062172710895538,0.027949342504143715,-0.3602524697780609
1782845403631569000,5.00956884765625,0.1587318629026413,0.014732340350747108,-0.38555407524108887
1782845403641574000,5.019573974609375,0.160270094871521,-0.0048948898911476135,-0.38433781266212463
1782845403651577900,5.029577880859375,0.15303641557693481,-0.03688105195760727,-0.3687841594219208
1782845403661582800,5.039582763671875,0.13329733908176422,-0.06825202703475952,-0.34838542342185974
1782845403671587000,5.049587158203125,0.1039905771613121,-0.09195948392152786,-0.3221213221549988
1782845403681592000,5.059592041015625,0.0660429298877716,-0.11203759163618088,-0.29006457328796387
1782845403691596000,5.069595947265625,0.025072330608963966,-0.12114879488945007,-0.25253692269325256
1782845403701601000,5.07960107421875,-0.014299310743808746,-0.1330387443304062,-0.20132511854171753
1782845403711605000,5.08960498046875,-0.05254416912794113,-0.13785746693611145,-0.14889679849147797
1782845403721610000,5.09960986328125,-0.08642517030239105,-0.1272527575492859,-0.10197430104017258
1782845403731614000,5.109614013671875,-0.11658520251512527,-0.09958171844482422,-0.07305317372083664
1782845403741619000,5.119618896484375,-0.14309696853160858,-0.07450778782367706,-0.04579039290547371
1782845403751623000,5.129622802734375,-0.16210155189037323,-0.04857872053980827,-0.03238776698708534
1782845403761628000,5.1396279296875,-0.17594918608665466,-0.02647794596850872,-0.01041482388973236
1782845403771631600,5.149631591796875,-0.17920570075511932,-0.009730391204357147,0.022286130115389824
1782845403781636600,5.15963671875,-0.1750650256872177,-0.0010871023405343294,0.04361725226044655
1782845403791640800,5.169640869140625,-0.16498735547065735,-0.0014823154779151082,0.054787348955869675
1782845403801645800,5.179645751953125,-0.15068937838077545,-0.023425964638590813,0.06344448775053024
1782845403811649800,5.18964990234375,-0.13139557838439941,-0.03400750085711479,0.0687982365489006
1782845403821654800,5.19965478515625,-0.11066392809152603,-0.04458238184452057,0.06336778402328491
1782845403831658800,5.20965869140625,-0.08631198853254318,-0.03784804791212082,0.05235721543431282
1782845403841663700,5.219663818359375,-0.06261783838272095,-0.018633872270584106,0.0320892259478569
1782845403851668000,5.22966796875,-0.039029691368341446,0.004078364931046963,0.02809528447687626
1782845403861673000,5.2396728515625,-0.01810949482023716,0.030161364004015923,0.046613842248916626
1782845403871677000,5.249677001953125,0.007921572774648666,0.05494820326566696,0.08164266496896744
1782845403881682000,5.259681884765625,0.03026309795677662,0.08117581158876419,0.11703074723482132
1782845403891685600,5.269685546875,0.05518788844347,0.10500205308198929,0.14382773637771606
1782845403901690600,5.279690673828125,0.07200787961483002,0.11906034499406815,0.15642929077148438
1782845403911694800,5.28969482421875,0.08515164256095886,0.1282557100057602,0.15960484743118286
1782845403921699800,5.299699951171875,0.0985550656914711,0.12666846811771393,0.15242762863636017
1782845403931703800,5.309703857421875,0.1015993282198906,0.12231046706438065,0.1429358422756195
1782845403941708800,5.319708740234375,0.09262314438819885,0.12112429738044739,0.12899500131607056
1782845403951712800,5.329712646484375,0.08151590079069138,0.11174090951681137,0.11346903443336487
1782845403961717800,5.3397177734375,0.06323942542076111,0.10062994062900543,0.10395728796720505
1782845403971722000,5.349721923828125,0.04996702820062637,0.08839191496372223,0.09191234409809113
1782845403981727000,5.35972705078125,0.04098445177078247,0.07724844664335251,0.08403445035219193
1782845403991731000,5.36973095703125,0.03442002460360527,0.07639037817716599,0.07329125702381134
1782845404001736000,5.37973583984375,0.02779647707939148,0.0854717567563057,0.07067123800516129
1782845404011739600,5.38973974609375,0.03327779471874237,0.09039594233036041,0.08462221175432205
1782845404021744600,5.39974462890625,0.05264883115887642,0.1038113534450531,0.10143501311540604
1782845404031748900,5.409748779296875,0.0781928077340126,0.10620792955160141,0.1389392465353012
1782845404041752800,5.4197529296875,0.10885750502347946,0.09987892955541611,0.18459834158420563
1782845404051757800,5.4297578125,0.14703045785427094,0.08668189495801926,0.24651257693767548
1782845404061762800,5.4397626953125,0.18568703532218933,0.0720350444316864,0.30251458287239075
1782845404071766800,5.449766845703125,0.2253340482711792,0.061826881021261215,0.34322020411491394
1782845404081771000,5.45977099609375,0.27103495597839355,0.04995610937476158,0.38413143157958984
1782845404091776000,5.46977587890625,0.31518325209617615,0.03736921027302742,0.413672536611557
1782845404101779700,5.47977978515625,0.3489159047603607,0.0253442395478487,0.43358099460601807
1782845404111784700,5.48978466796875,0.37093305587768555,0.0187851395457983,0.44256410002708435
1782845404121788700,5.49978857421875,0.36460593342781067,0.024988440796732903,0.4006350338459015
1782845404131793700,5.509793701171875,0.33813223242759705,0.04169471561908722,0.29459434747695923
1782845404141798000,5.5197978515625,0.3189159333705902,0.05765184387564659,0.13027411699295044
1782845404151803000,5.529802978515625,0.3260473608970642,0.07050452381372452,-0.05351435765624046
1782845404161806800,5.539806884765625,0.3491915464401245,0.06742244958877563,-0.22349727153778076
1782845404171811800,5.549811767578125,0.3872726261615753,0.049669019877910614,-0.3417176604270935
1782845404181815800,5.55981591796875,0.4210827946662903,0.0025398568250238895,-0.4095084071159363
1782845404191820800,5.56982080078125,0.44804462790489197,-0.07813049107789993,-0.45810791850090027
1782845404201825000,5.579824951171875,0.4596725106239319,-0.1533738374710083,-0.4687275290489197
1782845404211830000,5.589830078125,0.46911555528640747,-0.2131706029176712,-0.43019479513168335
1782845404221833700,5.599833740234375,0.4687666893005371,-0.23327559232711792,-0.3596836030483246
1782845404231838700,5.609838623046875,0.4624307453632355,-0.21626918017864227,-0.2537965774536133
1782845404241842700,5.6198427734375,0.457419753074646,-0.17441867291927338,-0.12635767459869385
1782845404251847700,5.62984765625,0.43218788504600525,-0.13607634603977203,0.02375752665102482
1782845404261852000,5.639851806640625,0.39377233386039734,-0.10451389104127884,0.17062100768089294
1782845404271857000,5.64985693359375,0.3526773750782013,-0.08717644959688187,0.29818376898765564
1782845404281860900,5.65986083984375,0.3098207116127014,-0.07539249211549759,0.38626593351364136
1782845404291865900,5.669865966796875,0.2597583532333374,-0.07026111334562302,0.41738152503967285
1782845404301869800,5.679869873046875,0.2131173312664032,-0.07822582870721817,0.417403906583786
1782845404311874800,5.689874755859375,0.17990052700042725,-0.08633621782064438,0.400444358587265
1782845404321878800,5.699878662109375,0.15206728875637054,-0.10243716090917587,0.38254284858703613
1782845404331884000,5.709884033203125,0.1164078339934349,-0.11168631911277771,0.34648576378822327
1782845404341887700,5.7198876953125,0.06507673859596252,-0.10661805421113968,0.32297059893608093
1782845404351892700,5.729892822265625,-0.0020532971248030663,-0.09690870344638824,0.2982010543346405
1782845404361896700,5.739896728515625,-0.07011490315198898,-0.07768600434064865,0.2972801625728607
1782845404371901700,5.749901611328125,-0.13043257594108582,-0.05722147598862648,0.3013310730457306
1782845404381906000,5.759906005859375,-0.1850990206003189,-0.03175633028149605,0.2980087995529175
1782845404391911000,5.769910888671875,-0.22888803482055664,-0.008015049621462822,0.3080720901489258
1782845404401915000,5.779914794921875,-0.2517251670360565,0.01786608248949051,0.31365299224853516
1782845404411920000,5.789919921875,-0.26729828119277954,0.05970833823084831,0.307908833026886
1782845404421923800,5.799923828125,-0.26995983719825745,0.08879564702510834,0.26598799228668213
1782845404431928800,5.8099287109375,-0.2603341042995453,0.10645986348390579,0.21737998723983765
1782845404441932800,5.819932861328125,-0.22458304464817047,0.09218452125787735,0.17600591480731964
1782845404451937800,5.829937744140625,-0.18111546337604523,0.0874323770403862,0.13265737891197205
1782845404461941800,5.839941650390625,-0.12876969575881958,0.08435988426208496,0.10595173388719559
1782845404471946800,5.84994677734375,-0.07066032290458679,0.0764433741569519,0.07430192828178406
1782845404481950700,5.85995068359375,-0.019903400912880898,0.06573906540870667,0.04008137434720993
1782845404491955700,5.869955810546875,0.032818932086229324,0.05806995928287506,-0.004354001954197884
1782845404501959700,5.879959716796875,0.08285866677761078,0.05791043862700462,-0.05120646208524704
1782845404511964700,5.889964599609375,0.12763971090316772,0.05690748989582062,-0.10151064395904541
1782845404521969000,5.899968994140625,0.1553642898797989,0.045688923448324203,-0.10727425664663315
1782845404531974000,5.909973876953125,0.15458904206752777,0.029694778844714165,-0.08862893283367157
1782845404541977900,5.919977783203125,0.1526515930891037,-0.000006391586794052273,-0.050329215824604034
1782845404551982800,5.92998291015625,0.14279337227344513,-0.029206886887550354,-0.017497500404715538
1782845404561986800,5.93998681640625,0.10976804047822952,-0.045696914196014404,0.0030184267088770866
1782845404571991800,5.94999169921875,0.07073196023702621,-0.05363260209560394,0.019574766978621483
1782845404581995800,5.959995849609375,0.04519038274884224,-0.06366979330778122,0.045226067304611206
1782845404592000800,5.970000732421875,0.010026535019278526,-0.06560617685317993,0.06818784028291702
1782845404602004700,5.980004638671875,-0.047082290053367615,-0.0644916445016861,0.07908176630735397
1782845404612009700,5.990009765625,-0.11033636331558228,-0.05156092718243599,0.07001237571239471
1782845404622013700,6.000013671875,-0.17414863407611847,-0.03212384879589081,0.05763187259435654
1782845404632018700,6.010018798828125,-0.23907756805419922,-0.02117612585425377,0.03443094342947006
1782845404642023000,6.02002294921875,-0.3021758496761322,-0.012319782748818398,0.02057318575680256
1782845404652028000,6.03002783203125,-0.37162840366363525,-0.015073491260409355,0.008408398367464542
1782845404662032000,6.040031982421875,-0.43039318919181824,-0.020138291642069817,-0.0030368026345968246
1782845404672036900,6.050036865234375,-0.4716165363788605,-0.02424408681690693,0.006759369280189276
1782845404682040800,6.060040771484375,-0.4996899664402008,-0.02901514060795307,0.016525980085134506
1782845404692045800,6.0700458984375,-0.5219539999961853,-0.0297312643378973,0.02504117041826248
1782845404702049800,6.0800498046875,-0.5375188589096069,-0.025413215160369873,0.03699556738138199
1782845404712054800,6.0900546875,-0.5477144718170166,-0.019661584869027138,0.0517265759408474
1782845404722058800,6.100058837890625,-0.5550594925880432,-0.008960471488535404,0.05806063860654831
1782845404732064000,6.11006396484375,-0.5514586567878723,0.015903865918517113,0.06054616719484329
1782845404742068000,6.12006787109375,-0.5363925695419312,0.04934544488787651,0.05258677899837494
1782845404752073000,6.130072998046875,-0.5138491988182068,0.07159189134836197,0.037571609020233154
1782845404762077200,6.1400771484375,-0.46722444891929626,0.08053505420684814,0.022286130115389824
1782845404772082200,6.150082275390625,-0.40812331438064575,0.09445939213037491,0.004165982827544212
1782845404782086000,6.1600859375,-0.3396526277065277,0.10120491683483124,-0.019028019160032272
1782845404792091000,6.1700908203125,-0.27536019682884216,0.10252104699611664,-0.051834434270858765
1782845404802094800,6.1800947265625,-0.21636426448822021,0.09565728157758713,-0.07648678123950958
1782845404812099000,6.19009912109375,-0.1622096747159958,0.08124159276485443,-0.09153950214385986
1782845404822104000,6.20010400390625,-0.12074586004018784,0.06058638170361519,-0.09741523861885071
1782845404832108000,6.21010791015625,-0.0858541876077652,0.04355200380086899,-0.10245206952095032
1782845404842113000,6.220113037109375,-0.06497127562761307,0.025234783068299294,-0.09417682886123657
1782845404852117000,6.230116943359375,-0.06474091112613678,0.008833705447614193,-0.08285440504550934
1782845404862122000,6.2401220703125,-0.0812799409031868,-0.0035806200467050076,-0.07475706189870834
1782845404872126000,6.2501259765625,-0.10715840756893158,-0.016691895201802254,-0.07106432318687439
1782845404882131200,6.260131103515625,-0.1293577253818512,-0.023621439933776855,-0.05931392312049866
1782845404892135000,6.270135009765625,-0.1483500599861145,-0.037101030349731445,-0.03629329428076744
1782845404902140000,6.280139892578125,-0.1656387597322464,-0.055935703217983246,-0.0013930995482951403
1782845404912144000,6.290143798828125,-0.18173198401927948,-0.07712753862142563,0.04470808431506157
1782845404922148900,6.30014892578125,-0.19259048998355865,-0.08793598413467407,0.10111702978610992
1782845404932153000,6.310153076171875,-0.20067530870437622,-0.09848769009113312,0.1668853908777237
1782845404942158000,6.320157958984375,-0.206539586186409,-0.1007058396935463,0.2255369871854782
1782845404952162000,6.330162109375,-0.20926666259765625,-0.09442530572414398,0.2711545526981354
1782845404962167000,6.3401669921875,-0.21323370933532715,-0.08702544867992401,0.2839563488960266
1782845404972171000,6.3501708984375,-0.21679756045341492,-0.0791587308049202,0.27247706055641174
1782845404982176000,6.360176025390625,-0.23003585636615753,-0.06989546120166779,0.23252005875110626
1782845404992180000,6.370179931640625,-0.2342447191476822,-0.06398644298315048,0.16934002935886383
1782845405002185000,6.38018505859375,-0.22275051474571228,-0.07190188765525818,0.0967601016163826
1782845405012189000,6.39018896484375,-0.19713863730430603,-0.0913674607872963,0.034272219985723495
1782845405022194000,6.40019384765625,-0.152870774269104,-0.11502645164728165,-0.027642546221613884
1782845405032198000,6.410197998046875,-0.10064511746168137,-0.14327673614025116,-0.07979363203048706
1782845405042203000,6.420202880859375,-0.043049465864896774,-0.16975894570350647,-0.11574684083461761
1782845405052207000,6.43020703125,0.01318344660103321,-0.1887613981962204,-0.1387898474931717
1782845405062212000,6.440212158203125,0.05341315641999245,-0.19408585131168365,-0.1494177132844925
1782845405072216000,6.450216064453125,0.07378527522087097,-0.1954706907272339,-0.1482376754283905
1782845405082221000,6.460220947265625,0.08615672588348389,-0.1799790859222412,-0.14932024478912354
1782845405092225000,6.47022509765625,0.08433245867490768,-0.15742291510105133,-0.15109257400035858
1782845405102230000,6.48022998046875,0.08310740441083908,-0.12312272936105728,-0.14509381353855133
1782845405112234000,6.49023388671875,0.08325893431901932,-0.09384819865226746,-0.12289396673440933
1782845405122239000,6.500239013671875,0.09019274264574051,-0.07655736058950424,-0.08613408356904984
1782845405132243000,6.510242919921875,0.10417886823415756,-0.0708928182721138,-0.03960014134645462
1782845405142248000,6.520248046875,0.11072012037038803,-0.07450433075428009,0.022590795531868935
1782845405152252000,6.530251953125,0.08618921041488647,-0.07832729816436768,0.0708821639418602
1782845405162257000,6.5402568359375,0.029451897367835045,-0.09874442219734192,0.09589537233114243
1782845405172261000,6.55026123046875,-0.04860881343483925,-0.11770186573266983,0.10416235774755478
1782845405182266000,6.56026611328125,-0.13597728312015533,-0.15014609694480896,0.10920105874538422
1782845405192270000,6.57027001953125,-0.20496539771556854,-0.18709371984004974,0.11155715584754944
1782845405202275000,6.580275146484375,-0.24867185950279236,-0.2022806704044342,0.12277811765670776
1782845405212279000,6.590279052734375,-0.25839534401893616,-0.19893839955329895,0.13902686536312103
1782845405222284000,6.600283935546875,-0.24690912663936615,-0.18402789533138275,0.15266704559326172
1782845405232288000,6.6102880859375,-0.20941847562789917,-0.1416972130537033,0.16053001582622528
1782845405242293000,6.62029296875,-0.1417025327682495,-0.09711190313100815,0.16742707788944244
1782845405252297000,6.630296875,-0.07118310034275055,-0.0650106891989708,0.18240149319171906
1782845405262302000,6.640302001953125,-0.00782836228609085,-0.03590287268161774,0.18180015683174133
1782845405272306000,6.650305908203125,0.043364785611629486,-0.004147074185311794,0.17407086491584778
1782845405282311000,6.660310791015625,0.05188849940896034,0.027825506404042244,0.15659014880657196
1782845405292315000,6.67031494140625,0.0372440405189991,0.06221037730574608,0.12740562856197357
1782845405302320000,6.680320068359375,0.016393354162573814,0.07887537032365799,0.09530521184206009
1782845405312324000,6.690323974609375,0.004571315832436085,0.09234031289815903,0.07263877987861633
1782845405322329000,6.7003291015625,0.0010458233300596476,0.08772612363100052,0.06819023936986923
1782845405332333000,6.7103330078125,-0.014645521529018879,0.08569332957267761,0.07324492186307907
1782845405342338000,6.720338134765625,-0.021622471511363983,0.08445602655410767,0.0664120465517044
1782845405352342000,6.730342041015625,-0.029198631644248962,0.0798274576663971,0.04740426689386368
1782845405362347000,6.740346923828125,-0.03038560226559639,0.07265103608369827,0.027873976156115532
1782845405372351000,6.75035107421875,-0.023485351353883743,0.06556382775306702,0.0010735202813521028
1782845405382356000,6.76035595703125,-0.004355866461992264,0.06711485236883163,-0.02748701721429825
1782845405392360000,6.77035986328125,0.0025276062078773975,0.07180361449718475,-0.03364957123994827
1782845405402365000,6.780364990234375,0.003403786104172468,0.08779909461736679,-0.03242957964539528
1782845405412369000,6.790368896484375,0.010351707227528095,0.09695983678102493,-0.0200437493622303
1782845405422374000,6.800373779296875,0.019341208040714264,0.10567529499530792,-0.007003847509622574
1782845405432378000,6.810378173828125,0.03696707263588905,0.10625453293323517,0.01673503778874874
1782845405442383000,6.820383056640625,0.0559154637157917,0.10692644864320755,0.02719646692276001
1782845405452387000,6.830386962890625,0.06992928683757782,0.1029743179678917,0.03411775827407837
1782845405462392000,6.84039208984375,0.08725128322839737,0.09002602845430374,0.016437029466032982
1782845405472395800,6.850395751953125,0.11023729294538498,0.07838056236505508,-0.017173128202557564
1782845405482400000,6.86039990234375,0.11888936907052994,0.0716310441493988,-0.051958538591861725
1782845405492405000,6.870405029296875,0.10979574173688889,0.05226932838559151,-0.07011144608259201
1782845405502409000,6.880408935546875,0.08353723585605621,0.04939231649041176,-0.08356759697198868
1782845405512414000,6.8904140625,0.04162760451436043,0.062138207256793976,-0.09487910568714142
1782845405522418000,6.90041796875,0.001788312685675919,0.08307518064975739,-0.1088884025812149
1782845405532423000,6.9104228515625,-0.022946327924728394,0.09355631470680237,-0.11388182640075684
1782845405542427100,6.92042724609375,-0.046057239174842834,0.0923890545964241,-0.11043090373277664
1782845405552432000,6.93043212890625,-0.07112877070903778,0.08177448809146881,-0.09259651601314545
1782845405562435800,6.940435791015625,-0.10095085203647614,0.061160292476415634,-0.06596942991018295
1782845405572440800,6.95044091796875,-0.11736897379159927,0.04735979065299034,-0.057486195117235184
1782845405582444800,6.96044482421875,-0.12644821405410767,0.03813247010111809,-0.06650526076555252
1782845405592449800,6.97044970703125,-0.11544004082679749,0.02852911315858364,-0.09904962033033371
1782845405602454000,6.9804541015625,-0.09182979166507721,0.02533118985593319,-0.13184191286563873
1782845405612459000,6.990458984375,-0.08096089214086533,0.012749350629746914,-0.15612143278121948
1782845405622463000,7.000462890625,-0.07618638128042221,-0.0012684636749327183,-0.16324084997177124
1782845405632468000,7.010468017578125,-0.0703229010105133,-0.006928479764610529,-0.17355234920978546
1782845405642472000,7.020471923828125,-0.06222502514719963,-0.009589243680238724,-0.17649221420288086
1782845405652477000,7.030476806640625,-0.06004389747977257,-0.026635872200131416,-0.16574954986572266
1782845405662481200,7.040481201171875,-0.0527803897857666,-0.05092256888747215,-0.15559838712215424
1782845405672486100,7.050486083984375,-0.04406839236617088,-0.07776536792516708,-0.15194399654865265
1782845405682489900,7.06048974609375,-0.03615347668528557,-0.1008528470993042,-0.14748479425907135
1782845405692494800,7.070494873046875,-0.029471073299646378,-0.10810703039169312,-0.16057130694389343
1782845405702498800,7.080498779296875,-0.023964188992977142,-0.1040254682302475,-0.19669468700885773
1782845405712503800,7.09050390625,-0.02503664419054985,-0.09393155574798584,-0.24691390991210938
1782845405722508000,7.100508056640625,-0.018276741728186607,-0.07960587739944458,-0.29177218675613403
1782845405732513300,7.11051318359375,0.0004596615908667445,-0.06795082241296768,-0.32965725660324097
1782845405742517200,7.120517333984375,0.036131370812654495,-0.05462942272424698,-0.3620474338531494
1782845405752522200,7.130522216796875,0.07922451198101044,-0.04138872027397156,-0.37267130613327026
1782845405762526200,7.140526123046875,0.1235019639134407,-0.03702752664685249,-0.3744332492351532
1782845405772531200,7.15053125,0.15452991425991058,-0.04566628858447075,-0.3617249131202698
1782845405782535200,7.16053515625,0.18132612109184265,-0.045453768223524094,-0.34408095479011536
1782845405792540200,7.1705400390625,0.18837790191173553,-0.04406332969665527,-0.3145805895328522
1782845405802544000,7.180544189453125,0.18682394921779633,-0.038662172853946686,-0.2661246359348297
1782845405812549000,7.190549072265625,0.1708124876022339,-0.030706780031323433,-0.20481333136558533
1782845405822553000,7.200552978515625,0.14858068525791168,-0.01883014664053917,-0.13308987021446228
1782845405832558000,7.21055810546875,0.11931201070547104,-0.01429425086826086,-0.06831461191177368
1782845405842562300,7.220562255859375,0.09401118010282516,0.0006269080913625658,-0.02045121230185032
1782845405852567300,7.2305673828125,0.07637786120176315,0.021024325862526894,0.004239219706505537
1782845405862571300,7.2405712890625,0.06091048941016197,0.04596962034702301,0.0029401297215372324
1782845405872576300,7.250576171875,0.05661054700613022,0.0655268132686615,0.002142513170838356
1782845405882580200,7.260580322265625,0.06150463968515396,0.07780931144952774,-0.010358365252614021
1782845405892585200,7.270585205078125,0.0723186731338501,0.09073709696531296,-0.02677728608250618
1782845405902589200,7.280589111328125,0.08417985588312149,0.10404304414987564,-0.04619705677032471
1782845405912594200,7.29059423828125,0.0987715870141983,0.10956510901451111,-0.05337986722588539
1782845405922598100,7.30059814453125,0.11995330452919006,0.11073743551969528,-0.05853095278143883
1782845405932603100,7.31060302734375,0.15312910079956055,0.10902608931064606,-0.06892340630292892
1782845405942607000,7.320607177734375,0.18950068950653076,0.09704931825399399,-0.0691915899515152
1782845405952612000,7.330612060546875,0.23577497899532318,0.08110150694847107,-0.07470433413982391
1782845405962616300,7.3406162109375,0.2816242277622223,0.0669446811079979,-0.09805412590503693
1782845405972621300,7.350621337890625,0.319192111492157,0.06646664440631866,-0.12728604674339294
1782845405982625300,7.360625244140625,0.3373340964317322,0.06318988651037216,-0.1596439927816391
1782845405992630300,7.37063037109375,0.34598323702812195,0.06456514447927475,-0.1792408525943756
1782845406002634200,7.38063427734375,0.34542742371559143,0.06419815868139267,-0.1934823840856552
1782845406012639200,7.39063916015625,0.3389362394809723,0.06658994406461716,-0.1983216106891632
1782845406022643200,7.400643310546875,0.3232547640800476,0.06279760599136353,-0.1848185807466507
1782845406032648200,7.410648193359375,0.30992695689201355,0.05675835534930229,-0.1802712380886078
1782845406042652200,7.420652099609375,0.30700069665908813,0.061037253588438034,-0.18778081238269806
1782845406052657200,7.4306572265625,0.3141787052154541,0.06061407923698425,-0.16903989017009735
1782845406062661000,7.4406611328125,0.338467538356781,0.05206240341067314,-0.14402535557746887
1782845406072666000,7.450666015625,0.3684462010860443,0.06332704424858093,-0.12015650421380997
1782845406082670300,7.46067041015625,0.39345303177833557,0.07517917454242706,-0.09961074590682983
1782845406092675300,7.47067529296875,0.42166680097579956,0.08311086893081665,-0.08606031537055969
1782845406102679300,7.48067919921875,0.45456990599632263,0.13564305007457733,-0.06725573539733887
1782845406112683300,7.490683349609375,0.49307841062545776,0.1243499144911766,-0.032646093517541885
1782845406122688300,7.500688232421875,0.5314910411834717,0.11565203219652176,0.02461692877113819
1782845406132692200,7.510692138671875,0.5540112853050232,0.09223592281341553,0.08007726073265076
1782845406142697200,7.520697265625,0.5625395178794861,0.06683016568422318,0.11092811822891235
1782845406152701200,7.530701171875,0.563377857208252,0.04956622049212456,0.13092365860939026
1782845406162706200,7.5407060546875,0.5591868758201599,0.05819406360387802,0.14701740443706512
1782845406172710100,7.550710205078125,0.561134934425354,0.0831979513168335,0.18480846285820007
1782845406182715100,7.560715087890625,0.5648050904273987,0.09964776039123535,0.2334843873977661
1782845406192719000,7.570718994140625,0.5659012198448181,0.10862341523170471,0.2896680235862732
1782845406202724000,7.58072412109375,0.5602313280105591,0.10724389553070068,0.34489133954048157
1782845406212728300,7.590728271484375,0.5302598476409912,0.08575858175754547,0.38577085733413696
1782845406222733300,7.6007333984375,0.49231114983558655,0.07335544377565384,0.38724732398986816
1782845406232737300,7.6107373046875,0.44980737566947937,0.07035432755947113,0.35312023758888245
1782845406242742300,7.6207421875,0.4223320782184601,0.07708439975976944,0.3049710988998413
1782845406252746000,7.63074609375,0.4140874445438385,0.10552030056715012,0.2500532567501068
1782845406262751000,7.6407509765625,0.42940330505371094,0.1357754021883011,0.1959114521741867
1782845406272755200,7.650755126953125,0.4558570086956024,0.18501219153404236,0.13648220896720886
1782845406282760200,7.66076025390625,0.48001641035079956,0.18107391893863678,0.08748830109834671
1782845406292764200,7.67076416015625,0.5034141540527344,0.16106079518795013,0.05582411587238312
1782845406302769200,7.68076904296875,0.5284616947174072,0.14375397562980652,0.02485102042555809
1782845406312773000,7.690773193359375,0.5367465019226074,0.12518374621868134,0.0021470405627042055
1782845406322778000,7.700778076171875,0.5229308605194092,0.07811690866947174,-0.012769058346748352
1782845406332782300,7.7107822265625,0.48552969098091125,0.04025421291589737,-0.02063656970858574
1782845406342787300,7.720787353515625,0.44466161727905273,0.015349661000072956,-0.02605530247092247
1782845406352791000,7.730791015625,0.40610170364379883,-0.01762453280389309,-0.024517061188817024
1782845406362796300,7.74079638671875,0.37178340554237366,-0.0361739844083786,-0.004777178168296814
1782845406372800000,7.750800048828125,0.3392869830131531,-0.05615514889359474,0.023199861869215965
1782845406382805000,7.760804931640625,0.31006598472595215,-0.06398670375347137,0.04616643115878105
1782845406392809200,7.770809326171875,0.28165990114212036,-0.06600724905729294,0.06868532299995422
1782845406402814200,7.780814208984375,0.2695379853248596,-0.055741291493177414,0.09491026401519775
1782845406412818200,7.790818115234375,0.25123462080955505,-0.042203646153211594,0.1181708499789238
1782845406422823200,7.8008232421875,0.2353011965751648,-0.02539537101984024,0.1380995512008667
1782845406432827100,7.8108271484375,0.2162521481513977,-0.012081430293619633,0.15466760098934174
1782845406442832100,7.82083203125,0.18893849849700928,-0.006060022860765457,0.16391995549201965
1782845406452836400,7.83083642578125,0.1570415496826172,-0.0020471718162298203,0.1708441823720932
1782845406462841300,7.84084130859375,0.11418037116527557,-0.0013915016315877438,0.17196376621723175
1782845406472845000,7.850844970703125,0.05925773084163666,-0.005744704511016607,0.16915494203567505
1782845406482850000,7.86085009765625,0.0070762853138148785,-0.01762267015874386,0.16555380821228027
1782845406492854000,7.87085400390625,-0.041971951723098755,-0.020849620923399925,0.1604996621608734
1782845406502859000,7.88085888671875,-0.07922105491161346,-0.013731790706515312,0.1351168155670166
1782845406512863200,7.89086328125,-0.11222800612449646,-0.005464806687086821,0.0597541444003582
1782845406522868200,7.9008681640625,-0.13384035229682922,0.00686163455247879,-0.06229187175631523
1782845406532872200,7.9108720703125,-0.13911421597003937,0.017916949465870857,-0.1828065663576126
1782845406542877200,7.920877197265625,-0.14517636597156525,0.023927703499794006,-0.29533764719963074
1782845406552881200,7.930881103515625,-0.1360529065132141,0.04322044178843498,-0.4036494791507721
1782845406562886100,7.94088623046875,-0.1315779983997345,0.08116702735424042,-0.5043236017227173
1782845406572890400,7.950890380859375,-0.12552089989185333,0.11766431480646133,-0.5805816054344177
1782845406582895400,7.960895263671875,-0.11751224845647812,0.14441576600074768,-0.6392513513565063
1782845406592899000,7.970899169921875,-0.09764586389064789,0.1735086739063263,-0.6725121140480042
1782845406602904000,7.980904052734375,-0.08109644800424576,0.1791124939918518,-0.6620240211486816
1782845406612908000,7.990907958984375,-0.0746942088007927,0.1685360223054886,-0.6205798983573914
1782845406622913000,8.0009130859375,-0.06312011182308197,0.13540177047252655,-0.5325315594673157
1782845406632917200,8.010917236328124,-0.05675675719976425,0.09326016902923584,-0.39906322956085205
1782845406642922200,8.020922119140625,-0.04350140318274498,0.050580885261297226,-0.2594912350177765
1782845406652926200,8.03092626953125,-0.027043068781495094,0.011254518292844296,-0.13838396966457367
1782845406662931200,8.04093115234375,-0.013002084568142891,-0.01786315254867077,-0.04398929700255394
1782845406672935200,8.05093505859375,0.00008335694292327389,-0.021511416882276535,0.028231903910636902
1782845406682940200,8.060940185546874,0.011403389275074005,-0.010939733125269413,0.06599260121583939
1782845406692944400,8.0709443359375,0.016631441190838814,0.0070334081538021564,0.09265004098415375
1782845406702949400,8.080949462890626,0.025836657732725143,0.02124057337641716,0.11081226915121078
1782845406712953000,8.090953125,0.024394288659095764,0.03856363892555237,0.12075784057378769
1782845406722958000,8.1009580078125,0.015545137226581573,0.049013350158929825,0.12553022801876068
1782845406732961800,8.1109619140625,0.007723966147750616,0.0484442301094532,0.1341804414987564
1782845406742966800,8.120966796875,-0.0034234935883432627,0.04151468724012375,0.140859916806221
1782845406752970800,8.130970703125,-0.02840900421142578,0.03723844885826111,0.16107463836669922
1782845406762974700,8.140974609375,-0.05914507806301117,0.016056997701525688,0.18580394983291626
1782845406772979700,8.150979736328125,-0.09741204231977463,0.003457582090049982,0.20115414261817932
1782845406782983700,8.160983642578126,-0.13582786917686462,-0.00498091010376811,0.21399430930614471
1782845406792988700,8.17098876953125,-0.1774565428495407,-0.010333064943552017,0.2217497080564499
1782845406802993000,8.180992919921875,-0.2096371203660965,-0.02075428143143654,0.2299373298883438
1782845406812998000,8.190997802734374,-0.2452763319015503,-0.032769665122032166,0.24136601388454437
1782845406823001900,8.201001953125,-0.2706170976161957,-0.05012841522693634,0.26008403301239014
1782845406833006800,8.2110068359375,-0.2860783636569977,-0.04481647163629532,0.2643600106239319
1782845406843010800,8.2210107421875,-0.29030531644821167,-0.042264100164175034,0.2772713005542755
1782845406853015800,8.231015869140625,-0.2855851352214813,-0.048179514706134796,0.28644242882728577
1782845406863019800,8.241019775390624,-0.2727082371711731,-0.049135319888591766,0.2983262240886688
1782845406873024800,8.251024658203125,-0.26290884613990784,-0.05001469701528549,0.29817628860473633
1782845406883028700,8.26102880859375,-0.2512250244617462,-0.043111518025398254,0.2838013470172882
1782845406893033700,8.27103369140625,-0.23064225912094116,-0.04807724803686142,0.2609730064868927
1782845406903037700,8.28103759765625,-0.21375170350074768,-0.057080063968896866,0.23355257511138916
1782845406913042700,8.291042724609374,-0.20241302251815796,-0.07314211875200272,0.21245500445365906
1782845406923047000,8.301046875,-0.19267411530017853,-0.09587859362363815,0.19403737783432007
1782845406933052000,8.311052001953126,-0.17454437911510468,-0.11513803899288177,0.1660001575946808
1782845406943056000,8.321055908203125,-0.15983574092388153,-0.13425686955451965,0.14368818700313568
1782845406953060900,8.331060791015625,-0.14766189455986023,-0.1418926864862442,0.11572153866291046
1782845406963064800,8.34106494140625,-0.12200899422168732,-0.13576368987560272,0.08071348816156387
1782845406973069800,8.35106982421875,-0.09046997874975204,-0.1267920285463333,0.041852906346321106
1782845406983073800,8.36107373046875,-0.0654865950345993,-0.11209005117416382,0.014109693467617035
1782845406993078800,8.371078857421875,-0.05318678915500641,-0.09531719982624054,-0.02215217426419258
1782845407003082800,8.381082763671875,-0.042207639664411545,-0.08107195049524307,-0.0639323741197586
1782845407013087700,8.391087646484374,-0.031804002821445465,-0.06323782354593277,-0.10163874179124832
1782845407023091700,8.401091796875,-0.029227927327156067,-0.0624585822224617,-0.12614914774894714
1782845407033096700,8.4110966796875,-0.030895065516233444,-0.08666778355836868,-0.12660081684589386
1782845407043101000,8.421100830078124,-0.03574734553694725,-0.11707176268100739,-0.10298869758844376
1782845407053106000,8.43110595703125,-0.045210354030132294,-0.14527755975723267,-0.053274672478437424
1782845407063110000,8.44110986328125,-0.049428269267082214,-0.16682440042495728,-0.0019864519126713276
1782845407073115000,8.451114990234375,-0.044433511793613434,-0.1730535328388214,0.04614565894007683
1782845407083118800,8.461118896484376,-0.028838040307164192,-0.16951340436935425,0.08794210851192474
1782845407093123800,8.471123779296875,-0.012485431507229805,-0.16107197105884552,0.12164653837680817
1782845407103127800,8.4811279296875,-0.000895621080417186,-0.15242736041545868,0.1599465310573578
1782845407113132800,8.4911328125,-0.0038892803713679314,-0.14310842752456665,0.17916043102741241
1782845407123136800,8.50113671875,-0.001970206620171666,-0.13089144229888916,0.17496807873249054
1782845407133141800,8.511141845703126,0.005770004820078611,-0.11699293553829193,0.15674594044685364
1782845407143145700,8.521145751953124,0.013713682070374489,-0.11042451113462448,0.12725116312503815
1782845407153150700,8.531150634765625,0.023611053824424744,-0.10569100826978683,0.10183368623256683
1782845407163155000,8.541155029296876,0.041257426142692566,-0.09958650916814804,0.09113044291734695
1782845407173160000,8.551159912109375,0.06136562302708626,-0.09689965099096298,0.08375641703605652
1782845407183164000,8.561163818359375,0.08407466113567352,-0.07693526148796082,0.08659428358078003
1782845407193169000,8.5711689453125,0.10243423283100128,-0.004979046061635017,0.11793169379234314
1782845407203172900,8.5811728515625,0.07523083686828613,0.2039824277162552,0.26427531242370605
1782845407213177900,8.591177734375,0.025720011442899704,0.1360025703907013,0.2410925030708313
1782845407223181800,8.601181884765625,0.022120481356978416,0.03292279690504074,0.13532613217830658
1782845407233186800,8.611186767578126,0.052381448447704315,-0.06960570812225342,0.033660490065813065
1782845407243190800,8.621190673828124,0.09364153444766998,-0.17672523856163025,-0.018507903441786766
1782845407253195800,8.63119580078125,0.11980656534433365,-0.23031602799892426,-0.06293715536594391
1782845407263199700,8.64119970703125,0.13035321235656738,-0.19065596163272858,-0.07515919953584671
1782845407273204700,8.651204833984375,0.12592624127864838,-0.11885102093219757,-0.008318116888403893
1782845407283209000,8.661208984375,0.12126970291137695,-0.03725762292742729,0.08810482174158096
1782845407293214000,8.6712138671875,0.10906550288200378,-0.011318966746330261,0.1495375633239746
1782845407303218000,8.681218017578125,0.10696932673454285,0.004798217210918665,0.17901448905467987
