time,seconds_elapsed,z,y,x
1782845398696850700,0.0748505859375,0.03820006549358368,-0.2104874700307846,-0.03457751125097275
1782845398706855000,0.08485498046875,0.043953027576208115,-0.22650398313999176,-0.02555791474878788
1782845398716860000,0.09485986328125,0.04751484468579292,-0.2240084707736969,-0.015246358700096607
1782845398726863000,0.104863037109375,0.051256850361824036,-0.21020875871181488,-0.00267224432900548
1782845398736868000,0.1148681640625,0.06180734559893608,-0.21000565588474274,0.023019539192318916
1782845398746872000,0.1248720703125,0.07206344604492188,-0.2176816761493683,0.061407674103975296
1782845398756877000,0.134876953125,0.09108143299818039,-0.21590544283390045,0.10892312973737717
1782845398766881300,0.14488134765625,0.0975494533777237,-0.22108343243598938,0.16168221831321716
1782845398776886300,0.15488623046875,0.10761511325836182,-0.2249864935874939,0.2092861533164978
1782845398786890200,0.16489013671875,0.11123301833868027,-0.22027963399887085,0.2591876685619354
1782845398796895200,0.174895263671875,0.10276588797569275,-0.20069168508052826,0.27718180418014526
1782845398806899200,0.184899169921875,0.08748892694711685,-0.1480598896741867,0.25048625469207764
1782845398816904200,0.194904296875,0.0536600761115551,-0.09073557704687119,0.17311297357082367
1782845398826908400,0.204908447265625,0.015025866217911243,-0.03583984076976776,0.03098192811012268
1782845398836913400,0.214913330078125,-0.04798131063580513,0.005453008227050304,-0.1596941500902176
1782845398846917000,0.224917236328125,-0.13185091316699982,0.018012210726737976,-0.3681131601333618
1782845398856922000,0.234922119140625,-0.19880451261997223,-0.014617240987718105,-0.5564101338386536
1782845398866926000,0.244926025390625,-0.19779065251350403,-0.1056390330195427,-0.6888803243637085
1782845398876931000,0.25493115234375,-0.1268835812807083,-0.2494509220123291,-0.7317320704460144
1782845398886935300,0.264935302734375,-0.011195865459740162,-0.3846156597137451,-0.679619312286377
1782845398896940300,0.274940185546875,0.13013939559459686,-0.4324353337287903,-0.5694931745529175
1782845398906944300,0.2849443359375,0.2664836645126343,-0.40732038021087646,-0.4433072805404663
1782845398916949200,0.29494921875,0.3698386549949646,-0.33450549840927124,-0.3367897570133209
1782845398926953200,0.304953125,0.4131472408771515,-0.24323897063732147,-0.2551596164703369
1782845398936958200,0.314958251953125,0.3948124647140503,-0.15239481627941132,-0.17228510975837708
1782845398946962200,0.324962158203125,0.3071896731853485,-0.0517563633620739,-0.09044590592384338
1782845398956967200,0.33496728515625,0.1962062567472458,0.040140457451343536,-0.010454395785927773
1782845398966971100,0.34497119140625,0.0700661689043045,0.11458193510770798,0.044887691736221313
1782845398976976100,0.35497607421875,-0.07331307232379913,0.13688558340072632,0.10016778856515884
1782845398986980000,0.36497998046875,-0.23841601610183716,0.13080745935440063,0.12703827023506165
1782845398996985000,0.374985107421875,-0.3966297209262848,0.11948063969612122,0.13047049939632416
1782845399006989300,0.3849892578125,-0.4812298119068146,0.06315691769123077,0.15060213208198547
1782845399016994300,0.394994384765625,-0.4830784499645233,0.0028689431492239237,0.24609383940696716
1782845399026998300,0.404998291015625,-0.4297425150871277,-0.04660406708717346,0.3851185441017151
1782845399037003300,0.415003173828125,-0.33239808678627014,-0.052837833762168884,0.5015805959701538
1782845399047007200,0.42500732421875,-0.17898112535476685,-0.023176878690719604,0.5893104076385498
1782845399057012200,0.43501220703125,-0.010455240495502949,0.03438692167401314,0.673529863357544
1782845399067016200,0.44501611328125,0.15312781929969788,0.13153104484081268,0.7282325029373169
1782845399077021200,0.455021240234375,0.316836416721344,0.233783558011055,0.7254154086112976
1782845399087025200,0.465025146484375,0.45782628655433655,0.3389344811439514,0.6536248326301575
1782845399097030100,0.475030029296875,0.5568740367889404,0.41208645701408386,0.524875283241272
1782845399107034000,0.4850341796875,0.5851765275001526,0.42868009209632874,0.3683394491672516
1782845399117039000,0.4950390625,0.5510403513908386,0.39982396364212036,0.1891266256570816
1782845399127043300,0.505043212890625,0.4919346868991852,0.34941405057907104,-0.001763701206073165
1782845399137048300,0.51504833984375,0.44887980818748474,0.283270001411438,-0.20879864692687988
1782845399147052300,0.52505224609375,0.44413191080093384,0.2257678359746933,-0.4288995862007141
1782845399157057300,0.535057373046875,0.44498977065086365,0.16976311802864075,-0.6362388134002686
1782845399167061200,0.545061279296875,0.41093939542770386,0.10633594542741776,-0.7762723565101624
1782845399177066200,0.555066162109375,0.37015673518180847,0.04681411758065224,-0.8246049284934998
1782845399187070200,0.5650703125,0.3525465726852417,-0.011165029369294643,-0.7985293865203857
1782845399197075200,0.5750751953125,0.34342023730278015,-0.05622198060154915,-0.739658534526825
1782845399207079200,0.5850791015625,0.3356214165687561,-0.09160154312849045,-0.6511151194572449
1782845399217084200,0.595084228515625,0.3160490393638611,-0.11154942214488983,-0.5454360246658325
1782845399227088100,0.605088134765625,0.2923836410045624,-0.13028183579444885,-0.4034561812877655
1782845399237093000,0.615093017578125,0.26987239718437195,-0.1327841430902481,-0.23596695065498352
1782845399247097300,0.625097412109375,0.2526145875453949,-0.10779836773872375,-0.07452718913555145
1782845399257102300,0.635102294921875,0.23966416716575623,-0.0692080557346344,0.08038110285997391
1782845399267106300,0.645106201171875,0.2365139126777649,-0.028106689453125,0.22157444059848785
1782845399277111300,0.655111328125,0.23950888216495514,-0.017148319631814957,0.3380031883716583
1782845399287115300,0.665115234375,0.24289216101169586,0.04208623990416527,0.43488046526908875
1782845399297120300,0.675120361328125,0.231681227684021,0.10307890176773071,0.49318963289260864
1782845399307124200,0.685124267578125,0.23685280978679657,0.13522858917713165,0.5247731804847717
1782845399317129200,0.695129150390625,0.26288658380508423,0.16772149503231049,0.5239313840866089
1782845399327133200,0.70513330078125,0.3014078736305237,0.18919403851032257,0.4505605101585388
1782845399337138200,0.71513818359375,0.3460303246974945,0.2162516564130783,0.29065951704978943
1782845399347142100,0.72514208984375,0.37096577882766724,0.23623442649841309,0.08002663403749466
1782845399357147100,0.735147216796875,0.3788660764694214,0.22423072159290314,-0.12913556396961212
1782845399367151400,0.7451513671875,0.3748771846294403,0.1838444173336029,-0.31889405846595764
1782845399377156400,0.75515625,0.3613702952861786,0.14475946128368378,-0.4681642949581146
1782845399387160300,0.765160400390625,0.3537115752696991,0.11643806844949722,-0.5712323784828186
1782845399397165300,0.775165283203125,0.33628347516059875,0.09051255136728287,-0.609233558177948
1782845399407169300,0.785169189453125,0.31390175223350525,0.06334138661623001,-0.5888659358024597
1782845399417174300,0.79517431640625,0.29162368178367615,0.031043007969856262,-0.5409786105155945
1782845399427178200,0.80517822265625,0.26734045147895813,0.0037956752348691225,-0.4806254804134369
1782845399437183200,0.815183349609375,0.23696759343147278,-0.021038787439465523,-0.41787004470825195
1782845399447187200,0.825187255859375,0.2093098759651184,-0.03244483843445778,-0.33805379271507263
1782845399457192200,0.835192138671875,0.19088883697986603,-0.03399936854839325,-0.24412839114665985
1782845399467196200,0.845196044921875,0.18717586994171143,-0.02797689661383629,-0.14901626110076904
1782845399477201200,0.855201171875,0.1794261932373047,-0.019479412585496902,-0.04716786742210388
1782845399487205400,0.865205322265625,0.18527476489543915,-0.007149244658648968,0.05316140130162239
1782845399497210400,0.87521044921875,0.1829313337802887,0.008580852299928665,0.13719245791435242
1782845399507214300,0.88521435546875,0.18383334577083588,0.038246870040893555,0.1813170462846756
1782845399517219300,0.89521923828125,0.17569023370742798,0.06332788616418839,0.2073318511247635
1782845399527223300,0.905223388671875,0.16225565969944,0.0856049656867981,0.2134922742843628
1782845399537228300,0.915228271484375,0.14217530190944672,0.11256854236125946,0.2120322734117508
1782845399547232300,0.925232177734375,0.12160132825374603,0.128928080201149,0.20188935101032257
1782845399557236200,0.935236328125,0.10840898007154465,0.14543096721172333,0.17955715954303741
1782845399567241200,0.9452412109375,0.11731139570474625,0.15881973505020142,0.1382635086774826
1782845399577245200,0.9552451171875,0.13564816117286682,0.16677159070968628,0.07431941479444504
1782845399587250200,0.965250244140625,0.17402991652488708,0.17023609578609467,0.013722913339734077
1782845399597254400,0.97525439453125,0.2155262529850006,0.17861463129520416,-0.05108930543065071
1782845399607259400,0.98525927734375,0.25399696826934814,0.17811554670333862,-0.10216233879327774
1782845399617263400,0.995263427734375,0.28529590368270874,0.18676210939884186,-0.13708703219890594
1782845399627268400,1.005268310546875,0.31071045994758606,0.19578410685062408,-0.1428099125623703
1782845399637272000,1.01527197265625,0.33204224705696106,0.2088310718536377,-0.1276368796825409
1782845399647277000,1.025277099609375,0.34030070900917053,0.2171422690153122,-0.09530849754810333
1782845399657281300,1.03528125,0.3425908088684082,0.21650870144367218,-0.06831655651330948
1782845399667286300,1.045286376953125,0.33048194646835327,0.20697139203548431,-0.03399853780865669
1782845399677290200,1.055290283203125,0.30489593744277954,0.19202536344528198,-0.017403582111001015
1782845399687295200,1.065295166015625,0.2654441297054291,0.17017333209514618,-0.019196955487132072
1782845399697299200,1.07529931640625,0.2203553169965744,0.14780934154987335,-0.03611455112695694
1782845399707304200,1.08530419921875,0.17346663773059845,0.12420974671840668,-0.05502858757972717
1782845399717308200,1.09530810546875,0.12313278019428253,0.1015530377626419,-0.0692058578133583
1782845399727313700,1.105313720703125,0.08997215330600739,0.09020370990037918,-0.0808718353509903
1782845399737318000,1.11531787109375,0.06945544481277466,0.07071683555841446,-0.08602385222911835
1782845399747323000,1.125322998046875,0.05828934535384178,0.073703832924366,-0.08798607438802719
1782845399757326800,1.135326904296875,0.05268973484635353,0.07062633335590363,-0.06844506412744522
1782845399767331800,1.145331787109375,0.06213570013642311,0.06835518777370453,-0.035297226160764694
1782845399777335600,1.15533544921875,0.08361394703388214,0.05592187121510506,0.015291915275156498
1782845399787340500,1.165340576171875,0.11680945008993149,0.05965162813663483,0.06467464566230774
1782845399797344800,1.1753447265625,0.15965278446674347,0.08323706686496735,0.11798547208309174
1782845399807349800,1.185349853515625,0.19266293942928314,0.12286250293254852,0.15740983188152313
1782845399817353700,1.195353759765625,0.20806707441806793,0.17133642733097076,0.18185053765773773
1782845399827358700,1.205358642578125,0.2187253087759018,0.20282778143882751,0.19070634245872498
1782845399837362700,1.21536279296875,0.2280280888080597,0.23716434836387634,0.18894453346729279
1782845399847367700,1.22536767578125,0.23916569352149963,0.2717289924621582,0.15828542411327362
1782845399857372000,1.235371826171875,0.25675275921821594,0.31296980381011963,0.12159664928913116
1782845399867377000,1.245376953125,0.2811896800994873,0.32013851404190063,0.09055857360363007
1782845399877380900,1.255380859375,0.32018834352493286,0.28931549191474915,0.07818838953971863
1782845399887385900,1.2653857421875,0.36007317900657654,0.20646429061889648,0.08432484418153763
1782845399897389600,1.2753896484375,0.39559751749038696,0.09948326647281647,0.10323188453912735
1782845399907394600,1.28539453125,0.4191449284553528,-0.01597701385617256,0.13493068516254425
1782845399917398800,1.295398681640625,0.42091435194015503,-0.10400731861591339,0.19056406617164612
1782845399927403800,1.30540380859375,0.40171536803245544,-0.16528372466564178,0.2637791633605957
1782845399937407700,1.31540771484375,0.3681534230709076,-0.2036484181880951,0.34545859694480896
1782845399947412700,1.325412841796875,0.3360980153083801,-0.21296921372413635,0.41901883482933044
1782845399957416700,1.335416748046875,0.3057968318462372,-0.20116235315799713,0.4853585660457611
1782845399967421700,1.345421630859375,0.2728140950202942,-0.18765400350093842,0.5248420238494873
1782845399977426000,1.355426025390625,0.25009554624557495,-0.16629816591739655,0.5122344493865967
1782845399987431000,1.365430908203125,0.2270573377609253,-0.15088485181331635,0.47089898586273193
1782845399997434600,1.3754345703125,0.2103096842765808,-0.14455096423625946,0.42920228838920593
1782845400007439600,1.385439697265625,0.19015541672706604,-0.15737222135066986,0.39862972497940063
1782845400017443600,1.395443603515625,0.15562734007835388,-0.17005769908428192,0.370116651058197
1782845400027448600,1.405448486328125,0.10703875869512558,-0.1492520123720169,0.34675833582878113
1782845400037452800,1.415452880859375,0.04232238978147507,-0.11888163536787033,0.3262157142162323
1782845400047457800,1.425457763671875,-0.03274226561188698,-0.08268102258443832,0.291983962059021
1782845400057461800,1.435461669921875,-0.10379732400178909,-0.03433709591627121,0.2574580907821655
1782845400067466800,1.445466796875,-0.15186871588230133,0.007402891758829355,0.2086479216814041
1782845400077470700,1.455470703125,-0.18647481501102448,0.05739273130893707,0.11842535436153412
1782845400087475700,1.465475830078125,-0.20227429270744324,0.10872435569763184,0.012844869866967201
1782845400097480000,1.47547998046875,-0.20090578496456146,0.14704734086990356,-0.07409469038248062
1782845400107485000,1.48548486328125,-0.1795584112405777,0.18895670771598816,-0.13551756739616394
1782845400117488600,1.495488525390625,-0.1396128535270691,0.2285727709531784,-0.1816004514694214
1782845400127493600,1.50549365234375,-0.08846631646156311,0.24742501974105835,-0.21173517405986786
1782845400137497600,1.51549755859375,-0.037179794162511826,0.2523679733276367,-0.21304604411125183
1782845400147502600,1.525502685546875,0.011605054140090942,0.24043995141983032,-0.19079720973968506
1782845400157506800,1.5355068359375,0.056410741060972214,0.22647441923618317,-0.16037605702877045
1782845400167511800,1.54551171875,0.08101116120815277,0.17910823225975037,-0.1090039387345314
1782845400177515800,1.555515869140625,0.09665939956903458,0.12277839332818985,-0.055273331701755524
1782845400187520800,1.565520751953125,0.10690031945705414,0.06428658962249756,-0.0018881377764046192
1782845400197524700,1.575524658203125,0.1097327321767807,0.00327130313962698,0.04992612451314926
1782845400207529700,1.58552978515625,0.11183050274848938,-0.045522067695856094,0.09828007221221924
1782845400217534000,1.595533935546875,0.13218148052692413,-0.0746569111943245,0.15786238014698029
1782845400227539000,1.6055390625,0.1558399349451065,-0.08591249585151672,0.21290165185928345
1782845400237542700,1.615542724609375,0.17792096734046936,-0.07561299204826355,0.24206487834453583
1782845400247547600,1.625547607421875,0.1980629861354828,-0.03914127126336098,0.2541891932487488
1782845400257551600,1.635551513671875,0.21509870886802673,0.0009826610330492258,0.2462150752544403
1782845400267556600,1.645556640625,0.22033260762691498,0.04930145666003227,0.22893595695495605
1782845400277560800,1.655560791015625,0.20840851962566376,0.09839825332164764,0.1943591982126236
1782845400287565800,1.66556591796875,0.18296867609024048,0.13957898318767548,0.16213920712471008
1782845400297569800,1.67556982421875,0.16186106204986572,0.1753358691930771,0.1254987120628357
1782845400307574800,1.68557470703125,0.1288016438484192,0.19747979938983917,0.08776544779539108
1782845400317578800,1.695578857421875,0.08898194879293442,0.2032807320356369,0.05629853159189224
1782845400327583700,1.705583740234375,0.03182785212993622,0.19168931245803833,0.033511728048324585
1782845400337587700,1.715587646484375,-0.03597070276737213,0.17088325321674347,0.018694637343287468
1782845400347592700,1.7255927734375,-0.10270792245864868,0.1401359885931015,0.017845887690782547
1782845400357596700,1.7355966796875,-0.16819432377815247,0.10140755027532578,0.021351072937250137
1782845400367601700,1.7456015625,-0.23247770965099335,0.0756305456161499,0.023783603683114052
1782845400377605600,1.755605712890625,-0.2808058261871338,0.052047185599803925,0.027720822021365166
1782845400387610600,1.765610595703125,-0.3152490258216858,0.030612202361226082,0.03480003774166107
1782845400397614600,1.775614501953125,-0.33144664764404297,0.02113693207502365,0.04283905029296875
1782845400407619800,1.785619873046875,-0.32706841826438904,0.01770171895623207,0.05095556378364563
1782845400417623800,1.795623779296875,-0.3031460642814636,0.02402762696146965,0.06089182198047638
1782845400427628800,1.80562890625,-0.2653387784957886,0.03155452013015747,0.07545984536409378
1782845400437632800,1.8156328125,-0.21274439990520477,0.04421771690249443,0.09498833864927292
1782845400447637800,1.8256376953125,-0.16243143379688263,0.05197417363524437,0.122225821018219
1782845400457641700,1.835641845703125,-0.12065034359693527,0.06293234974145889,0.12344301491975784
1782845400467646700,1.845646728515625,-0.07471694052219391,0.07289790362119675,0.10383575409650803
1782845400477650700,1.855650634765625,-0.035558927804231644,0.07997727394104004,0.07658157497644424
1782845400487655700,1.86565576171875,-0.0020752716809511185,0.08245454728603363,0.03718702867627144
1782845400497659600,1.87565966796875,0.012507781386375427,0.0789344534277916,-0.002721777418628335
1782845400507664600,1.88566455078125,0.013165049254894257,0.06740482896566391,-0.03847870975732803
1782845400517668600,1.895668701171875,0.011288509704172611,0.04276668280363083,-0.07539144903421402
1782845400527673600,1.905673583984375,0.006309996359050274,0.007525606546550989,-0.1003524586558342
1782845400537677800,1.915677734375,0.004038604907691479,-0.037691399455070496,-0.10596360266208649
1782845400547682800,1.925682861328125,-0.018684817478060722,-0.07153458893299103,-0.11335308104753494
1782845400557686800,1.935686767578125,-0.03535829111933708,-0.09523942321538925,-0.10875040292739868
1782845400567691800,1.94569189453125,-0.06125699728727341,-0.10969799011945724,-0.10872403532266617
1782845400577695700,1.95569580078125,-0.09057128429412842,-0.11750655621290207,-0.10226001590490341
1782845400587700700,1.96570068359375,-0.12181415408849716,-0.13320696353912354,-0.09921043366193771
1782845400597704700,1.97570458984375,-0.15468358993530273,-0.15721523761749268,-0.09041128307580948
1782845400607708700,1.985708740234375,-0.1731499433517456,-0.1827317774295807,-0.08560534566640854
1782845400617713700,1.995713623046875,-0.18738625943660736,-0.20745961368083954,-0.0730612501502037
1782845400627717600,2.005717529296875,-0.18996073305606842,-0.2307862490415573,-0.05600610375404358
1782845400637722600,2.01572265625,-0.18786229193210602,-0.23922593891620636,-0.039027582854032516
1782845400647726800,2.025726806640625,-0.18203715980052948,-0.23454490303993225,-0.030005058273673058
1782845400657731800,2.03573193359375,-0.1723012924194336,-0.22659261524677277,-0.022057658061385155
1782845400667735800,2.04573583984375,-0.15621472895145416,-0.2076261192560196,-0.021505052223801613
1782845400677740800,2.05574072265625,-0.15382592380046844,-0.17201641201972961,-0.03191900998353958
1782845400687744500,2.06574462890625,-0.14798374474048615,-0.14442740380764008,-0.035965949296951294
1782845400697749500,2.07574951171875,-0.15187016129493713,-0.12150520086288452,-0.04030996188521385
1782845400707753700,2.085753662109375,-0.15273648500442505,-0.11124111711978912,-0.026557663455605507
1782845400717758700,2.0957587890625,-0.150848388671875,-0.10909616947174072,-0.007644098252058029
1782845400727761700,2.10576171875,-0.1425856649875641,-0.11768726259469986,-0.012143508531153202
1782845400737766700,2.1157666015625,-0.12396775186061859,-0.1293947845697403,-0.029069626703858376
1782845400747771000,2.12577099609375,-0.10821115970611572,-0.1447114199399948,-0.05267615243792534
1782845400757776000,2.13577587890625,-0.09921633452177048,-0.1576722264289856,-0.07270073145627975
1782845400767779800,2.14577978515625,-0.10210692882537842,-0.16693922877311707,-0.0761394053697586
1782845400777784800,2.155784912109375,-0.11715994775295258,-0.16395670175552368,-0.06258636713027954
1782845400787788800,2.165788818359375,-0.12955190241336823,-0.15976594388484955,-0.027069125324487686
1782845400797793800,2.175793701171875,-0.1334681361913681,-0.15108667314052582,0.03014163114130497
1782845400807798000,2.185798095703125,-0.14203126728534698,-0.1361495405435562,0.10786998271942139
1782845400817803000,2.195802978515625,-0.16371779143810272,-0.10853428393602371,0.180147185921669
1782845400827806700,2.205806640625,-0.18380440771579742,-0.07033736258745193,0.23670978844165802
1782845400837811700,2.215811767578125,-0.2051774114370346,-0.023349042981863022,0.26462337374687195
1782845400847815700,2.225815673828125,-0.21797868609428406,0.024090643972158432,0.2579473555088043
1782845400857820700,2.235820556640625,-0.22751328349113464,0.06003054603934288,0.2010037899017334
1782845400867825000,2.245824951171875,-0.24506671726703644,0.08848215639591217,0.10005027800798416
1782845400877830000,2.255829833984375,-0.2659188210964203,0.10311445593833923,-0.0352695994079113
1782845400887833900,2.265833740234375,-0.2750425338745117,0.09541179239749908,-0.17509646713733673
1782845400897838800,2.2758388671875,-0.28493043780326843,0.07079628109931946,-0.29141321778297424
1782845400907842800,2.2858427734375,-0.27888745069503784,0.023899877443909645,-0.36680489778518677
1782845400917847800,2.295847900390625,-0.24619051814079285,-0.027176089584827423,-0.4023759663105011
1782845400927852000,2.30585205078125,-0.18220967054367065,-0.07821397483348846,-0.3888430893421173
1782845400937857000,2.31585693359375,-0.09036196023225784,-0.1216384544968605,-0.3155254125595093
1782845400947860700,2.32586083984375,-0.0014661777531728148,-0.15309864282608032,-0.1980067789554596
1782845400957865700,2.33586572265625,0.08107937127351761,-0.16903188824653625,-0.06126917153596878
1782845400967869700,2.34586962890625,0.13124240934848785,-0.1657402217388153,0.05409736931324005
1782845400977874700,2.355874755859375,0.16708669066429138,-0.1536303013563156,0.14531010389328003
1782845400987879000,2.36587890625,0.18413704633712769,-0.14027294516563416,0.2036258727312088
1782845400997884000,2.3758837890625,0.1863214671611786,-0.13318823277950287,0.25476107001304626
1782845401007888000,2.385887939453125,0.16478633880615234,-0.12923502922058105,0.299384206533432
1782845401017892900,2.395892822265625,0.11692054569721222,-0.11677602678537369,0.34891560673713684
1782845401027896800,2.405896728515625,0.04832124710083008,-0.08872494846582413,0.3727032244205475
1782845401037901800,2.41590185546875,-0.02031925693154335,-0.07525864988565445,0.35566380620002747
1782845401047906000,2.425906005859375,-0.07856045663356781,-0.05581331625580788,0.3148308992385864
1782845401057911000,2.4359111328125,-0.11559201776981354,-0.030302640050649643,0.25182610750198364
1782845401067914800,2.445914794921875,-0.13094595074653625,0.0017335896845906973,0.18262837827205658
1782845401077919700,2.455919677734375,-0.13956327736377716,0.026945333927869797,0.10474628955125809
1782845401087923700,2.465923828125,-0.1499522626399994,0.03942623734474182,0.03797551989555359
1782845401097928700,2.4759287109375,-0.15563058853149414,0.0393047071993351,-0.02713876962661743
1782845401107933000,2.485932861328125,-0.1558401733636856,0.02552684210240841,-0.06472129374742508
1782845401117938000,2.49593798828125,-0.15169242024421692,-0.0017943917773663998,-0.07791559398174286
1782845401127942000,2.50594189453125,-0.14194604754447937,-0.0340157113969326,-0.06752900034189224
1782845401137947000,2.51594677734375,-0.10981433093547821,-0.05519995465874672,-0.05289166793227196
1782845401147950800,2.525950927734375,-0.07389122247695923,-0.06460916996002197,-0.02078220061957836
1782845401157955800,2.535955810546875,-0.044860951602458954,-0.0668051689863205,0.014252015389502048
1782845401167959800,2.545959716796875,-0.019718579947948456,-0.055018551647663116,0.05369369685649872
1782845401177964800,2.55596484375,0.002151831518858671,-0.027085188776254654,0.0591859370470047
1782845401187968800,2.56596875,0.013697700574994087,0.014908067882061005,0.028083408251404762
1782845401197973800,2.575973876953125,0.02971685118973255,0.043188758194446564,-0.031639374792575836
1782845401207977700,2.585977783203125,0.05510689690709114,0.04721279442310333,-0.0999143049120903
1782845401217982700,2.595982666015625,0.08175823837518692,0.027727993205189705,-0.154621422290802
1782845401227986700,2.605986572265625,0.09641414880752563,0.008634991943836212,-0.20365022122859955
1782845401237992000,2.615991943359375,0.09973977506160736,-0.015442192554473877,-0.24566464126110077
1782845401247996000,2.625995849609375,0.08875556290149689,-0.033726390451192856,-0.27940237522125244
1782845401258001000,2.6360009765625,0.07023394107818604,-0.04677660018205643,-0.3038460612297058
1782845401268004900,2.6460048828125,0.04161641746759415,-0.06358567625284195,-0.33429399132728577
1782845401278009900,2.656009765625,0.011553455144166946,-0.08287636190652847,-0.3552478551864624
1782845401288013800,2.666013916015625,-0.009270334616303444,-0.10222528874874115,-0.37169528007507324
1782845401298018800,2.676018798828125,-0.029182560741901398,-0.12657856941223145,-0.3799308240413666
1782845401308022800,2.686022705078125,-0.03850708529353142,-0.12924465537071228,-0.3869754374027252
1782845401318027800,2.69602783203125,-0.03782327100634575,-0.11952489614486694,-0.38393086194992065
1782845401328031700,2.70603173828125,-0.0374901108443737,-0.12105168402194977,-0.3485947251319885
1782845401338036700,2.71603662109375,-0.03963479399681091,-0.1279401183128357,-0.2790539562702179
1782845401348040700,2.726040771484375,-0.04328465461730957,-0.11598038673400879,-0.19543735682964325
1782845401358045700,2.736045654296875,-0.05534748733043671,-0.09730067104101181,-0.09425555169582367
1782845401368050000,2.7460498046875,-0.06030789390206337,-0.08406928926706314,0.0006935970159247518
1782845401378055000,2.756054931640625,-0.07672293484210968,-0.07116352766752243,0.08922106772661209
1782845401388059000,2.766058837890625,-0.08590178191661835,-0.06368563324213028,0.13854441046714783
1782845401398063900,2.77606396484375,-0.08946488052606583,-0.05138125643134117,0.13807761669158936
1782845401408067600,2.786067626953125,-0.08042797446250916,-0.03324725851416588,0.07374603301286697
1782845401418072600,2.796072509765625,-0.07593788206577301,0.0005117706023156643,-0.05232321470975876
1782845401428076800,2.806076904296875,-0.06779154390096664,0.02926432155072689,-0.2044626921415329
1782845401438081800,2.816081787109375,-0.053843822330236435,0.049203239381313324,-0.3459605574607849
1782845401448085800,2.826085693359375,-0.035607825964689255,0.063311867415905,-0.4591140151023865
1782845401458090800,2.8360908203125,-0.013399098999798298,0.05577210709452629,-0.5297814011573792
1782845401468094700,2.8460947265625,0.009214067831635475,0.04136919975280762,-0.5769100189208984
1782845401478099700,2.856099609375,0.029901141300797462,0.02943326346576214,-0.6070765852928162
1782845401488104000,2.86610400390625,0.057832375168800354,0.019770249724388123,-0.6011686325073242
1782845401498109000,2.87610888671875,0.08720801025629044,0.012201899662613869,-0.5861490964889526
1782845401508113000,2.88611279296875,0.11191415786743164,-0.005958994850516319,-0.5568356513977051
1782845401518118000,2.896117919921875,0.13248465955257416,-0.012136947363615036,-0.5067837238311768
1782845401528121600,2.90612158203125,0.1437932401895523,-0.021501686424016953,-0.4355124831199646
1782845401538126600,2.916126708984375,0.1335633546113968,-0.023240599781274796,-0.3336162865161896
1782845401548130800,2.926130859375,0.112963005900383,-0.01616351678967476,-0.21124988794326782
1782845401558135800,2.9361357421875,0.08374845236539841,-0.01760944351553917,-0.08265449106693268
1782845401568139800,2.946139892578125,0.044929683208465576,-0.016146302223205566,0.02455851249396801
1782845401578144800,2.956144775390625,0.00472842063754797,0.0018710914300754666,0.10290718078613281
1782845401588148700,2.966148681640625,-0.016510555520653725,0.01974090188741684,0.1597406417131424
1782845401598153700,2.97615380859375,-0.022881224751472473,0.03795013576745987,0.18103507161140442
1782845401608158000,2.986157958984375,-0.011212851852178574,0.05137486383318901,0.1630941480398178
1782845401618163000,2.996162841796875,-0.0012541901087388396,0.06096544861793518,0.11608617007732391
1782845401628167000,3.0061669921875,0.009254377335309982,0.0679493248462677,0.06289352476596832
1782845401638172000,3.016171875,0.024998310953378677,0.06895240396261215,0.024586813524365425
1782845401648175600,3.026175537109375,0.04428785294294357,0.06262845546007156,-0.004405157640576363
1782845401658180600,3.0361806640625,0.07300734519958496,0.06445297598838806,-0.023436374962329865
1782845401668184800,3.046184814453125,0.10446779429912567,0.07392611354589462,-0.05446779727935791
1782845401678188800,3.056188720703125,0.13762995600700378,0.08248081058263779,-0.0714743360877037
1782845401688193800,3.06619384765625,0.16854099929332733,0.07490304857492447,-0.07292070239782333
1782845401698198800,3.07619873046875,0.18729187548160553,0.07033777981996536,-0.05823589861392975
1782845401708202800,3.08620263671875,0.19993843138217926,0.06688898801803589,-0.02600152976810932
1782845401718207700,3.096207763671875,0.19877292215824127,0.0634157657623291,0.011083785444498062
1782845401728212700,3.106212646484375,0.20046722888946533,0.07062521576881409,0.04873848333954811
1782845401738217000,3.116217041015625,0.19479428231716156,0.09274715930223465,0.09468460828065872
1782845401748222000,3.126221923828125,0.18723063170909882,0.10826273262500763,0.14523965120315552
1782845401758226000,3.136225830078125,0.17903852462768555,0.12672719359397888,0.17818023264408112
1782845401768231000,3.14623095703125,0.1753319352865219,0.13985496759414673,0.1850394755601883
1782845401778234600,3.156234619140625,0.18106882274150848,0.15015089511871338,0.17161361873149872
1782845401788239600,3.166239501953125,0.19048576056957245,0.14609570801258087,0.15504156053066254
1782845401798243800,3.176243896484375,0.21397988498210907,0.11865826696157455,0.14188534021377563
1782845401808248800,3.186248779296875,0.2411811500787735,0.08887560665607452,0.12020455300807953
1782845401818252800,3.196252685546875,0.2679288685321808,0.05947456508874893,0.10356072336435318
1782845401828257800,3.2062578125,0.29377511143684387,0.025600489228963852,0.09090352058410645
1782845401838261800,3.21626171875,0.3105918765068054,0.010349574498832226,0.09430044889450073
1782845401848266800,3.226266845703125,0.32657137513160706,0.014837000519037247,0.1066812127828598
1782845401858271000,3.23627099609375,0.3435872495174408,0.046637509018182755,0.13087238371372223
1782845401868276000,3.24627587890625,0.3561403155326843,0.08047083765268326,0.17514769732952118
1782845401878280000,3.256280029296875,0.3491111099720001,0.1098572164773941,0.22829067707061768
1782845401888285000,3.266284912109375,0.3330410420894623,0.14688074588775635,0.25332704186439514
1782845401898288600,3.27628857421875,0.31242501735687256,0.18412478268146515,0.21903978288173676
1782845401908293600,3.286293701171875,0.31589779257774353,0.21084481477737427,0.12048257887363434
1782845401918297900,3.2962978515625,0.32457712292671204,0.23001177608966827,-0.007794961798936129
1782845401928302800,3.306302734375,0.3323322534561157,0.24123220145702362,-0.13418591022491455
1782845401938306800,3.316306884765625,0.3679615557193756,0.24126824736595154,-0.23009860515594482
1782845401948311800,3.326311767578125,0.39880654215812683,0.22867974638938904,-0.2646866738796234
1782845401958315800,3.336315673828125,0.4272705614566803,0.17474070191383362,-0.24306340515613556
1782845401968320800,3.34632080078125,0.44652149081230164,0.09182237833738327,-0.18791893124580383
1782845401978325000,3.356324951171875,0.45646271109580994,0.004729859065264463,-0.11585266143083572
1782845401988330000,3.366330078125,0.4578070640563965,-0.07435031235218048,-0.021256648004055023
1782845401998334000,3.376333984375,0.4564956724643707,-0.13699714839458466,0.08382868766784668
1782845402008339000,3.3863388671875,0.4506415128707886,-0.18642833828926086,0.18889544904232025
1782845402018342700,3.3963427734375,0.4310009777545929,-0.19530481100082397,0.2786062955856323
1782845402028347600,3.40634765625,0.3985234498977661,-0.18042732775211334,0.3484556972980499
1782845402038352000,3.416351806640625,0.3595859408378601,-0.16963204741477966,0.3901321589946747
1782845402048356900,3.42635693359375,0.3271382451057434,-0.15291085839271545,0.4040088355541229
1782845402058360800,3.43636083984375,0.2931586503982544,-0.12183699756860733,0.400794118642807
1782845402068365800,3.44636572265625,0.2583383619785309,-0.09018772095441818,0.37300804257392883
1782845402078369800,3.456369873046875,0.220171257853508,-0.050852034240961075,0.35038116574287415
1782845402088374800,3.466374755859375,0.17626745998859406,-0.019298098981380463,0.32610246539115906
1782845402098379000,3.47637890625,0.1287042796611786,0.02079276740550995,0.30819377303123474
1782845402108384000,3.486384033203125,0.0793822631239891,0.04336092621088028,0.2948364317417145
1782845402118387700,3.4963876953125,0.018098793923854828,0.06088359281420708,0.2646520733833313
1782845402128392700,3.506392822265625,-0.04219624027609825,0.07830919325351715,0.2172030657529831
1782845402138396700,3.516396728515625,-0.10044259577989578,0.0947369858622551,0.15882456302642822
1782845402148401700,3.526401611328125,-0.14363053441047668,0.10445059835910797,0.0845538079738617
1782845402158406000,3.536406005859375,-0.15823400020599365,0.12530559301376343,0.012955590151250362
1782845402168411000,3.546410888671875,-0.15678337216377258,0.1310950517654419,-0.025314833968877792
1782845402178414800,3.556414794921875,-0.13684433698654175,0.13466505706310272,-0.04600087180733681
1782845402188419800,3.566419921875,-0.09955422580242157,0.15783561766147614,-0.07815428078174591
1782845402198423800,3.576423828125,-0.05815662071108818,0.17685343325138092,-0.10795864462852478
1782845402208428800,3.5864287109375,-0.012992072850465775,0.17096838355064392,-0.10356336832046509
1782845402218433000,3.59643310546875,0.024140523746609688,0.15161000192165375,-0.0825541540980339
1782845402228438000,3.60643798828125,0.06810425221920013,0.1066848635673523,-0.05639738216996193
1782845402238441700,3.616441650390625,0.11966922134160995,0.0459090918302536,-0.022958800196647644
1782845402248446700,3.62644677734375,0.1557726413011551,-0.017006490379571915,-0.006809125654399395
1782845402258450700,3.63645068359375,0.18008771538734436,-0.07066909968852997,-0.0018623049836605787
1782845402268455700,3.64645556640625,0.18901382386684418,-0.10881754755973816,0.013250601477921009
1782845402278460000,3.6564599609375,0.17439845204353333,-0.1345890611410141,0.0422954335808754
1782845402288465000,3.66646484375,0.14096380770206451,-0.15272758901119232,0.09173941612243652
1782845402298468900,3.67646875,0.10773846507072449,-0.1531432420015335,0.13126398622989655
1782845402308473900,3.686473876953125,0.07106008380651474,-0.13230906426906586,0.1564987599849701
1782845402318477800,3.696477783203125,0.016555575653910637,-0.10636375844478607,0.1771107167005539
1782845402328482800,3.70648291015625,-0.03758249059319496,-0.08154016733169556,0.18694843351840973
1782845402338486800,3.71648681640625,-0.08771222084760666,-0.05571921542286873,0.1935713142156601
1782845402348492000,3.726491943359375,-0.13565711677074432,-0.018220843747258186,0.19927500188350677
1782845402358495700,3.736495849609375,-0.1906203031539917,0.009744993411004543,0.20088620483875275
1782845402368500700,3.746500732421875,-0.2457141876220703,0.040896788239479065,0.20215973258018494
1782845402378504700,3.756504638671875,-0.2927893400192261,0.06439395248889923,0.18774975836277008
1782845402388509700,3.766509765625,-0.32858702540397644,0.08045973628759384,0.18423253297805786
1782845402398514000,3.776513916015625,-0.3693939447402954,0.0941988006234169,0.1731705516576767
1782845402408519000,3.786518798828125,-0.3939909040927887,0.10265912860631943,0.15063142776489258
1782845402418523000,3.79652294921875,-0.41552814841270447,0.09596266597509384,0.12116894870996475
1782845402428527900,3.80652783203125,-0.42470860481262207,0.09090425819158554,0.09112875163555145
1782845402438531800,3.81653173828125,-0.4295766353607178,0.08492571860551834,0.07704116404056549
1782845402448536800,3.826536865234375,-0.435835599899292,0.0673627033829689,0.05170757696032524
1782845402458540800,3.836540771484375,-0.4315623641014099,0.04261084645986557,0.018079310655593872
1782845402468545800,3.8465458984375,-0.42226076126098633,0.012108064256608486,-0.016040576621890068
1782845402478549800,3.8565498046875,-0.41030600666999817,-0.010732624679803848,-0.04170665889978409
1782845402488554800,3.8665546875,-0.3928218185901642,-0.022614583373069763,-0.060942936688661575
1782845402498558700,3.876558837890625,-0.3744235336780548,-0.02852342464029789,-0.07433796674013138
1782845402508563700,3.886563720703125,-0.3490566611289978,-0.025247205048799515,-0.07733402401208878
1782845402518567700,3.896567626953125,-0.3238863945007324,-0.01434338465332985,-0.06104167550802231
1782845402528572700,3.90657275390625,-0.29628485441207886,-0.009583517909049988,-0.04992324113845825
1782845402538577000,3.916576904296875,-0.2551780641078949,-0.0099796699360013,-0.04019918292760849
1782845402548582000,3.926581787109375,-0.21537631750106812,-0.017016539350152016,-0.04881184548139572
1782845402558585900,3.9365859375,-0.17977042496204376,-0.028481563553214073,-0.07023955881595612
1782845402568590800,3.9465908203125,-0.15286904573440552,-0.03774323686957359,-0.0936703160405159
1782845402578594800,3.9565947265625,-0.1389884501695633,-0.04551243782043457,-0.10111845284700394
1782845402588599800,3.966599853515625,-0.1348925083875656,-0.05241295322775841,-0.1060466319322586
1782845402598603800,3.976603759765625,-0.1402437537908554,-0.04458760470151901,-0.10736329108476639
1782845402608608800,3.98660888671875,-0.14489708840847015,-0.032275810837745667,-0.10372009128332138
1782845402618612700,3.99661279296875,-0.15998852252960205,-0.020672651007771492,-0.09047426283359528
1782845402628617700,4.00661767578125,-0.1800684928894043,-0.006578668020665646,-0.08311940729618073
1782845402638621700,4.01662158203125,-0.20361734926700592,-0.001553951995447278,-0.060131873935461044
1782845402648626700,4.026626708984375,-0.219676211476326,-0.010769288055598736,-0.04199974238872528
1782845402658631000,4.036630859375,-0.2250695675611496,-0.02572009526193142,-0.01758294552564621
1782845402668636000,4.046635986328125,-0.2284965217113495,-0.04674042388796806,0.019212353974580765
1782845402678639900,4.056639892578125,-0.23147359490394592,-0.06378176808357239,0.05447586998343468
1782845402688644900,4.066644775390625,-0.22816088795661926,-0.07261280715465546,0.07622004300355911
1782845402698648800,4.07664892578125,-0.22694028913974762,-0.06936890631914139,0.08839468657970428
1782845402708653800,4.08665380859375,-0.218153715133667,-0.06135891005396843,0.09963242709636688
1782845402718657800,4.09665771484375,-0.2138308584690094,-0.05160428583621979,0.10197028517723083
1782845402728663000,4.1066630859375,-0.20548531413078308,-0.029370082542300224,0.10490188747644424
1782845402738667000,4.1166669921875,-0.19856394827365875,-0.014486833475530148,0.10296923667192459
1782845402748672000,4.126672119140625,-0.18368832767009735,-0.010418322868645191,0.08760466426610947
1782845402758676000,4.136676025390625,-0.1665305346250534,-0.010813143104314804,0.06573404371738434
1782845402768680200,4.14668017578125,-0.14378686249256134,-0.02052782103419304,0.04546952247619629
1782845402778685200,4.156685302734375,-0.11826544255018234,-0.03770210221409798,0.030379919335246086
1782845402788689000,4.16668896484375,-0.09016776084899902,-0.05416656285524368,0.008729751221835613
1782845402798694000,4.17669384765625,-0.06744349002838135,-0.06641368567943573,-0.018898481503129005
1782845402808697900,4.18669775390625,-0.04549345374107361,-0.07101882249116898,-0.045359913259744644
1782845402818702800,4.196702880859375,-0.029461726546287537,-0.07354328036308289,-0.06265894323587418
1782845402828707000,4.20670703125,-0.01570090651512146,-0.06329464167356491,-0.06946438550949097
1782845402838712000,4.216712158203125,-0.009230215102434158,-0.05352744087576866,-0.0731063261628151
1782845402848716000,4.226716064453125,-0.01814381591975689,-0.04351049289107323,-0.06319910287857056
1782845402858721000,4.236720947265625,-0.024724848568439484,-0.03681282326579094,-0.04905411973595619
1782845402868725000,4.24672509765625,-0.020678972825407982,-0.042258720844984055,-0.029081741347908974
1782845402878730000,4.25672998046875,-0.009583226405084133,-0.047676876187324524,-0.007308202795684338
1782845402888734000,4.26673388671875,0.005006369203329086,-0.060574568808078766,0.02423001639544964
1782845402898739200,4.2767392578125,0.0380857028067112,-0.06913691014051437,0.06508542597293854
1782845402908743000,4.286742919921875,0.07549246400594711,-0.0740208849310875,0.1173664778470993
1782845402918748000,4.296747802734375,0.11500245332717896,-0.0831737071275711,0.17754526436328888
1782845402928751900,4.306751953125,0.14511294662952423,-0.0832594558596611,0.23240318894386292
1782845402938756900,4.3167568359375,0.16191896796226501,-0.094458669424057,0.2803356945514679
1782845402948761000,4.326760986328125,0.14636477828025818,-0.1014244332909584,0.28219273686408997
1782845402958766000,4.33676611328125,0.10423770546913147,-0.09458641707897186,0.22415311634540558
1782845402968770000,4.34677001953125,0.04678906500339508,-0.0756678506731987,0.11886610835790634
1782845402978775000,4.356775146484375,-0.024396926164627075,-0.04703151434659958,-0.04845018312335014
1782845402988779000,4.366779052734375,-0.12075409293174744,-0.005659040063619614,-0.261486291885376
1782845402998784000,4.376783935546875,-0.22550460696220398,0.017722636461257935,-0.512650191783905
1782845403008788000,4.3867880859375,-0.3304315507411957,0.01631409116089344,-0.7751502394676208
1782845403018793000,4.39679296875,-0.4094635844230652,-0.011710579507052898,-0.9794930815696716
1782845403028797000,4.406796875,-0.4348355233669281,-0.09085679799318314,-1.0571039915084839
1782845403038802000,4.416802001953125,-0.38790997862815857,-0.21437641978263855,-0.98652184009552
1782845403048806000,4.426805908203125,-0.33102619647979736,-0.2992849349975586,-0.81646728515625
1782845403058811000,4.436810791015625,-0.2750509977340698,-0.31733351945877075,-0.5997698307037354
1782845403068815000,4.446815185546875,-0.21656745672225952,-0.284512996673584,-0.37395644187927246
1782845403078820000,4.456820068359375,-0.13042253255844116,-0.24433831870555878,-0.14769108593463898
1782845403088824000,4.466823974609375,-0.033493056893348694,-0.19805896282196045,0.06585822254419327
1782845403098829000,4.4768291015625,0.04758752882480621,-0.15269343554973602,0.24804852902889252
1782845403108833000,4.4868330078125,0.10446172952651978,-0.10983332246541977,0.3912357687950134
1782845403118838000,4.496838134765625,0.12792852520942688,-0.08391451835632324,0.49173808097839355
1782845403128842000,4.506842041015625,0.13046573102474213,-0.06410619616508484,0.5406513214111328
1782845403138847000,4.516846923828125,0.10512253642082214,-0.029692772775888443,0.5426226854324341
1782845403148851000,4.526850830078125,0.0559491328895092,0.012544697150588036,0.5004139542579651
1782845403158856000,4.53685595703125,0.004375304561108351,0.06156665086746216,0.3991647958755493
1782845403168860000,4.54685986328125,-0.046801865100860596,0.10377349704504013,0.2657140791416168
1782845403178865000,4.556864990234375,-0.09684590250253677,0.12817953526973724,0.11935906112194061
1782845403188869000,4.566869140625,-0.1380399465560913,0.13449975848197937,-0.01623498648405075
1782845403198874000,4.5768740234375,-0.1637997180223465,0.12865260243415833,-0.12749533355236053
1782845403208878000,4.586878173828125,-0.16919182240962982,0.11536609381437302,-0.21859808266162872
1782845403218883000,4.596883056640625,-0.13687041401863098,0.0673256516456604,-0.2706829011440277
1782845403228887000,4.606886962890625,-0.052646342664957047,-0.01412580069154501,-0.264720618724823
1782845403238892000,4.61689208984375,0.05925843119621277,-0.0845222920179367,-0.21379806101322174
1782845403248896000,4.62689599609375,0.14686791598796844,-0.10588537156581879,-0.14505627751350403
1782845403258901000,4.63690087890625,0.18845677375793457,-0.10602372139692307,-0.09851907938718796
1782845403268905000,4.646905029296875,0.1906738579273224,-0.0734332874417305,-0.0865500345826149
1782845403278910000,4.656909912109375,0.14916761219501495,-0.012418046593666077,-0.10020565241575241
1782845403288914000,4.666913818359375,0.08047217130661011,0.04002039507031441,-0.13626858592033386
1782845403298919000,4.6769189453125,0.02314532920718193,0.0789669081568718,-0.18386445939540863
1782845403308923000,4.6869228515625,-0.007278622128069401,0.09730836749076843,-0.23994477093219757
1782845403318928100,4.69692822265625,0.02322683297097683,0.08683143556118011,-0.2851376235485077
1782845403328932000,4.70693212890625,0.06838978826999664,0.0655549094080925,-0.3154268264770508
1782845403338937000,4.71693701171875,0.11938129365444183,0.04187524691224098,-0.34165284037590027
1782845403348941000,4.726941162109375,0.1655157506465912,0.02712266519665718,-0.37197133898735046
1782845403358946000,4.736946044921875,0.209228053689003,0.024728741496801376,-0.39821863174438477
1782845403368950000,4.746949951171875,0.2372538298368454,0.025011569261550903,-0.41431450843811035
1782845403378955000,4.756955078125,0.2583976984024048,0.03384479135274887,-0.42144492268562317
1782845403388959000,4.766958984375,0.2691502273082733,0.04405801370739937,-0.4116024076938629
1782845403398964000,4.7769638671875,0.276443213224411,0.04948936030268669,-0.3786991834640503
1782845403408968000,4.786968017578125,0.27991411089897156,0.05412778630852699,-0.33079585433006287
1782845403418973000,4.796972900390625,0.27476194500923157,0.05330273509025574,-0.2689824104309082
1782845403428977000,4.806976806640625,0.2678641080856323,0.05209845304489136,-0.19308578968048096
1782845403438982000,4.81698193359375,0.26117250323295593,0.04938061162829399,-0.10918716341257095
1782845403448986000,4.826986083984375,0.2640630900859833,0.04909485578536987,-0.01733846589922905
1782845403458991000,4.8369912109375,0.26790276169776917,0.047106578946113586,0.08200349658727646
1782845403468995000,4.8469951171875,0.2729875445365906,0.05088241025805473,0.17689859867095947
1782845403479000000,4.857,0.2837541103363037,0.05254373326897621,0.255255788564682
1782845403489003800,4.867003662109375,0.29162243008613586,0.07809703052043915,0.3077535927295685
1782845403499008800,4.8770087890625,0.2982107996940613,0.10961686819791794,0.3403633236885071
1782845403509013000,4.887012939453125,0.30532702803611755,0.1245042011141777,0.35810184478759766
1782845403519018000,4.89701806640625,0.31147921085357666,0.13109387457370758,0.35293594002723694
1782845403529022000,4.90702197265625,0.32086074352264404,0.1294459104537964,0.3429906368255615
1782845403539027000,4.91702685546875,0.31773725152015686,0.12124112248420715,0.30000779032707214
1782845403549031000,4.927031005859375,0.30546435713768005,0.11441890150308609,0.22406643629074097
1782845403559036000,4.937035888671875,0.28587740659713745,0.10618383437395096,0.13121779263019562
1782845403569040100,4.9470400390625,0.25630059838294983,0.08488760143518448,0.024009039625525475
1782845403579045000,4.957045166015625,0.22681783139705658,0.07517186552286148,-0.08258944004774094
1782845403589048800,4.967048828125,0.1956077218055725,0.06200679391622543,-0.1756213754415512
1782845403599054000,4.97705419921875,0.17799735069274902,0.043471839278936386,-0.24429744482040405
1782845403609057800,4.987057861328125,0.1702622026205063,0.041290175169706345,-0.2959190905094147
1782845403619062000,4.99706201171875,0.15224279463291168,0.03300078585743904,-0.35058268904685974
1782845403629067000,5.00706689453125,0.15593473613262177,0.023743104189634323,-0.38015016913414
1782845403639072000,5.017072021484375,0.16055205464363098,0.0034874603152275085,-0.3855403959751129
1782845403649076000,5.027075927734375,0.15514370799064636,-0.024199560284614563,-0.3731263279914856
1782845403659080000,5.037079833984375,0.13635241985321045,-0.058105070143938065,-0.3541772663593292
1782845403669085000,5.0470849609375,0.10780546069145203,-0.08561365306377411,-0.32718425989151
1782845403679089200,5.057089111328125,0.07033538073301315,-0.10751446336507797,-0.2966073751449585
1782845403689094100,5.06709423828125,0.0343286469578743,-0.11641900986433029,-0.2614789605140686
1782845403699097900,5.077097900390625,-0.007285831030458212,-0.1290249228477478,-0.21989156305789948
1782845403709102800,5.087102783203125,-0.04597969725728035,-0.13006062805652618,-0.16458676755428314
1782845403719106800,5.09710693359375,-0.0793151929974556,-0.12883378565311432,-0.11251438409090042
1782845403729111800,5.10711181640625,-0.11224624514579773,-0.10601609200239182,-0.08008666336536407
1782845403739115800,5.11711572265625,-0.13959701359272003,-0.07796146720647812,-0.052849192172288895
1782845403749120800,5.127120849609375,-0.15856193006038666,-0.051451295614242554,-0.03693174198269844
1782845403759124700,5.137124755859375,-0.1742749959230423,-0.026638388633728027,-0.01293206587433815
1782845403769129700,5.147129638671875,-0.18128444254398346,-0.009705743752419949,0.0153453778475523
1782845403779133700,5.1571337890625,-0.1773538738489151,0.0011447734432294965,0.0415831059217453
1782845403789138700,5.167138671875,-0.16794972121715546,-0.00005098572000861168,0.051720164716243744
1782845403799143000,5.177142822265625,-0.15444053709506989,-0.013421434909105301,0.06374706327915192
1782845403809148000,5.18714794921875,-0.14346006512641907,-0.029429960995912552,0.07080443948507309
1782845403819152000,5.19715185546875,-0.1194063052535057,-0.038811832666397095,0.06619943678379059
1782845403829156900,5.207156982421875,-0.09252995252609253,-0.035865042358636856,0.05688529834151268
1782845403839160800,5.217160888671875,-0.07370855659246445,-0.020453911274671555,0.03880676254630089
1782845403849165800,5.227165771484375,-0.04892598092556,0.0015576464356854558,0.03254673629999161
1782845403859169800,5.237169677734375,-0.027800502255558968,0.026326419785618782,0.043094784021377563
1782845403869174800,5.2471748046875,-0.0014879393856972456,0.05279611051082611,0.0715344175696373
1782845403879178800,5.2571787109375,0.022403687238693237,0.08103880286216736,0.11156365275382996
1782845403889183700,5.267183837890625,0.04566507041454315,0.10131824016571045,0.13957612216472626
1782845403899187700,5.277187744140625,0.06400073319673538,0.11638050526380539,0.15688379108905792
1782845403909192700,5.287192626953125,0.08012084662914276,0.1324300467967987,0.15981434285640717
1782845403919197000,5.297197021484375,0.0948176383972168,0.13196086883544922,0.15636834502220154
1782845403929202000,5.307201904296875,0.09835031628608704,0.12597861886024475,0.14567895233631134
1782845403939206000,5.317205810546875,0.09233970940113068,0.12398650497198105,0.12956202030181885
1782845403949211000,5.3272109375,0.08438245207071304,0.11626413464546204,0.12025481462478638
1782845403959214800,5.33721484375,0.063088059425354,0.10859842598438263,0.10772004723548889
1782845403969219800,5.3472197265625,0.05265192687511444,0.09396888315677643,0.09344790130853653
1782845403979223800,5.357223876953125,0.039913639426231384,0.08306311070919037,0.08693520724773407
1782845403989228800,5.367228759765625,0.032760120928287506,0.0795527994632721,0.07697844505310059
1782845403999232800,5.377232666015625,0.023950356990098953,0.08636228740215302,0.07261239737272263
1782845404009237800,5.38723779296875,0.02657250501215458,0.09211418032646179,0.08163785189390182
1782845404019241700,5.39724169921875,0.04453670606017113,0.10240907967090607,0.09802588075399399
1782845404029246700,5.407246826171875,0.06663961708545685,0.1112704798579216,0.1290264129638672
1782845404039251000,5.4172509765625,0.09800490736961365,0.10472792387008667,0.17405973374843597
1782845404049256000,5.427255859375,0.13308991491794586,0.09459938853979111,0.23425514996051788
1782845404059260000,5.437260009765625,0.17180055379867554,0.07848407328128815,0.2910052537918091
1782845404069265000,5.447264892578125,0.21293655037879944,0.06688787043094635,0.336892306804657
1782845404079268900,5.457268798828125,0.2588793933391571,0.056837283074855804,0.3760570287704468
1782845404089273900,5.46727392578125,0.2994590401649475,0.04489060863852501,0.4093414843082428
1782845404099277800,5.47727783203125,0.33969011902809143,0.0292191319167614,0.43241018056869507
1782845404109282800,5.48728271484375,0.3653544485569,0.02429015375673771,0.4401293396949768
1782845404119286800,5.497286865234375,0.36870628595352173,0.023975739255547523,0.41742098331451416
1782845404129291800,5.507291748046875,0.34279000759124756,0.03877146169543266,0.3290596902370453
1782845404139295700,5.517295654296875,0.31859901547431946,0.058780238032341,0.1777786910533905
1782845404149300700,5.52730078125,0.31951168179512024,0.07301270216703415,-0.0075141978450119495
1782845404159305000,5.537304931640625,0.33881431818008423,0.07124560326337814,-0.18384914100170135
1782845404169310000,5.54731005859375,0.37657713890075684,0.05502721667289734,-0.3174319863319397
1782845404179314000,5.55731396484375,0.4104180634021759,0.02082783356308937,-0.3990258574485779
1782845404189319000,5.56731884765625,0.4394523799419403,-0.05679025873541832,-0.4486114978790283
1782845404199322600,5.577322509765625,0.45601603388786316,-0.13037380576133728,-0.46888968348503113
1782845404209327600,5.58732763671875,0.46551740169525146,-0.19888842105865479,-0.44809889793395996
1782845404219331800,5.597331787109375,0.4685918092727661,-0.22704951465129852,-0.37823694944381714
1782845404229336800,5.6073369140625,0.4598603844642639,-0.22256343066692352,-0.2837733030319214
1782845404239340800,5.6173408203125,0.4582904577255249,-0.1822243183851242,-0.15923649072647095
1782845404249345800,5.627345703125,0.43832236528396606,-0.14200232923030853,-0.015562141314148903
1782845404259349800,5.637349853515625,0.403225302696228,-0.10867436230182648,0.13481497764587402
1782845404269354800,5.647354736328125,0.35955291986465454,-0.0898418202996254,0.2728889584541321
1782845404279359000,5.65735888671875,0.31849047541618347,-0.07406609505414963,0.373445600271225
1782845404289364000,5.667364013671875,0.2683119773864746,-0.06817544996738434,0.4145522713661194
1782845404299368000,5.677367919921875,0.22055943310260773,-0.07186669111251831,0.41855236887931824
1782845404309373000,5.687373046875,0.1848546862602234,-0.08099839836359024,0.4077279269695282
1782845404319376600,5.697376708984375,0.15812358260154724,-0.10047684609889984,0.387716144323349
1782845404329381600,5.707381591796875,0.1257997304201126,-0.1064002513885498,0.3563039004802704
1782845404339385900,5.7173857421875,0.07557382434606552,-0.10578234493732452,0.3253113031387329
1782845404349390800,5.727390869140625,0.013717644847929478,-0.0967600867152214,0.3075062036514282
1782845404359394800,5.737394775390625,-0.05512528866529465,-0.08110234141349792,0.297757625579834
1782845404369399800,5.74739990234375,-0.12053252011537552,-0.05900024250149727,0.3014112412929535
1782845404379403800,5.75740380859375,-0.17721615731716156,-0.035044971853494644,0.29946184158325195
1782845404389408800,5.76740869140625,-0.22364944219589233,-0.008044511079788208,0.3063756823539734
1782845404399413000,5.7774130859375,-0.24699479341506958,0.016692832112312317,0.31219595670700073
1782845404409418000,5.78741796875,-0.26738154888153076,0.05322660878300667,0.31332463026046753
1782845404419422000,5.797421875,-0.2729051411151886,0.08460845798254013,0.281602680683136
1782845404429427000,5.807427001953125,-0.26908189058303833,0.10629298537969589,0.23276644945144653
1782845404439430700,5.8174306640625,-0.2359028458595276,0.10030264407396317,0.18681199848651886
1782845404449435000,5.827434814453125,-0.19508057832717896,0.0916963741183281,0.1432139277458191
1782845404459439900,5.83743994140625,-0.1427464634180069,0.08610422164201736,0.11092529445886612
1782845404469443800,5.84744384765625,-0.08666402101516724,0.0821390450000763,0.07913780212402344
1782845404479448800,5.85744873046875,-0.037302643060684204,0.06988561898469925,0.047888342291116714
1782845404489452800,5.867452880859375,0.014757628552615643,0.0638575553894043,0.01103285513818264
1782845404499457800,5.877457763671875,0.06935542076826096,0.060783904045820236,-0.039510082453489304
1782845404509461800,5.887461669921875,0.11854400485754013,0.0642489418387413,-0.09067527204751968
1782845404519466800,5.897466796875,0.1467188149690628,0.05300462990999222,-0.10599470138549805
1782845404529471000,5.907470947265625,0.1519005298614502,0.036318328231573105,-0.09455536305904388
1782845404539476000,5.91747607421875,0.1488652378320694,0.011481509543955326,-0.06065851077437401
1782845404549479700,5.927479736328125,0.1440664827823639,-0.019711028784513474,-0.025340469554066658
1782845404559484700,5.937484619140625,0.11800356954336166,-0.04001824930310249,-0.004475398920476437
1782845404569488600,5.947488525390625,0.07567049562931061,-0.04764341190457344,0.01592281647026539
1782845404579494000,5.957493896484375,0.04951786622405052,-0.057982731610536575,0.03774748742580414
1782845404589497900,5.967497802734375,0.017652342095971107,-0.061299167573451996,0.06616714596748352
1782845404599502800,5.9775029296875,-0.03479446470737457,-0.0611821711063385,0.07990346103906631
1782845404609506800,5.9875068359375,-0.09526553750038147,-0.052489880472421646,0.0742274671792984
1782845404619511800,5.99751171875,-0.160353422164917,-0.035799842327833176,0.05858033522963524
1782845404629515800,6.007515869140625,-0.2258213758468628,-0.019683456048369408,0.04396677017211914
1782845404639520800,6.017520751953125,-0.28593820333480835,-0.008524859324097633,0.026341237127780914
1782845404649525000,6.02752490234375,-0.3578973412513733,-0.009752576239407063,0.009191278368234634
1782845404659530000,6.037530029296875,-0.42283421754837036,-0.016192462295293808,0.0019625246059149504
1782845404669533700,6.04753369140625,-0.4642013609409332,-0.02113848552107811,0.004411567468196154
1782845404679538700,6.05753857421875,-0.49550050497055054,-0.0251413956284523,0.014495226554572582
1782845404689542700,6.067542724609375,-0.5152265429496765,-0.02808418869972229,0.022238368168473244
1782845404699547600,6.077547607421875,-0.5347312688827515,-0.02499970607459545,0.03413977101445198
1782845404709551900,6.0875517578125,-0.5468987226486206,-0.01505972445011139,0.049746427685022354
1782845404719556900,6.097556884765625,-0.5548561811447144,-0.009332102723419666,0.062018875032663345
1782845404729561000,6.10756103515625,-0.5552433729171753,0.01279317308217287,0.06234857439994812
1782845404739566000,6.117566162109375,-0.5440260171890259,0.04525825381278992,0.053976792842149734
1782845404749569800,6.12756982421875,-0.5202072262763977,0.0718240812420845,0.041151273995637894
1782845404759574800,6.13757470703125,-0.4827737510204315,0.0806606262922287,0.026612412184476852
1782845404769579000,6.1475791015625,-0.4271768033504486,0.08979474008083344,0.007496507838368416
1782845404779584000,6.157583984375,-0.36030882596969604,0.10000929236412048,-0.012290778569877148
1782845404789588000,6.167587890625,-0.29183629155158997,0.10802221298217773,-0.045273229479789734
1782845404799593000,6.177593017578125,-0.23200857639312744,0.09888540208339691,-0.07031247019767761
1782845404809597000,6.187596923828125,-0.1786835640668869,0.08912678062915802,-0.08456171303987503
1782845404819602000,6.197601806640625,-0.13097412884235382,0.06818932294845581,-0.09712204337120056
1782845404829606100,6.207606201171875,-0.09437696635723114,0.052454035729169846,-0.10278365761041641
1782845404839611100,6.217611083984375,-0.07054181396961212,0.03083457052707672,-0.09611630439758301
1782845404849615000,6.227614990234375,-0.06375954300165176,0.017680419608950615,-0.08504953980445862
1782845404859620000,6.2376201171875,-0.07689359784126282,0.0033926907926797867,-0.0760321393609047
1782845404869623800,6.247623779296875,-0.09822391718626022,-0.010793968103826046,-0.06942270696163177
1782845404879628800,6.25762890625,-0.12540718913078308,-0.020335938781499863,-0.06103847548365593
1782845404889633000,6.267633056640625,-0.1489359587430954,-0.029681237414479256,-0.044399846345186234
1782845404899638000,6.277637939453125,-0.16501115262508392,-0.048594120889902115,-0.010146401822566986
1782845404909642000,6.28764208984375,-0.17918981611728668,-0.067314013838768,0.03159145638346672
1782845404919647000,6.29764697265625,-0.1927008181810379,-0.08543335646390915,0.08747776597738266
1782845404929651000,6.30765087890625,-0.20334839820861816,-0.09300046414136887,0.15149562060832977
1782845404939656000,6.317656005859375,-0.20787234604358673,-0.09708469361066818,0.2131587266921997
1782845404949660200,6.32766015625,-0.21050381660461426,-0.09370860457420349,0.2615877687931061
1782845404959665200,6.3376650390625,-0.21568134427070618,-0.08431527763605118,0.28126972913742065
1782845404969668900,6.3476689453125,-0.21920761466026306,-0.07932690531015396,0.2756456732749939
1782845404979673900,6.357673828125,-0.22883766889572144,-0.06838340312242508,0.2460220605134964
1782845404989677800,6.367677734375,-0.23388701677322388,-0.06163681298494339,0.18692705035209656
1782845404999682800,6.377682861328125,-0.22985316812992096,-0.06591721624135971,0.11616793274879456
1782845405009687000,6.38768701171875,-0.20111526548862457,-0.08300618827342987,0.04650282859802246
1782845405019692000,6.397692138671875,-0.16828025877475739,-0.10535632073879242,-0.015219388529658318
1782845405029696000,6.407696044921875,-0.1165880486369133,-0.13591477274894714,-0.06600001454353333
1782845405039701000,6.417700927734375,-0.05788601189851761,-0.16231481730937958,-0.10537052154541016
1782845405049705000,6.427705078125,-0.0028704337310045958,-0.18232713639736176,-0.13591910898685455
1782845405059710000,6.4377099609375,0.04405280947685242,-0.19144172966480255,-0.14569303393363953
1782845405069714200,6.447714111328125,0.06626543402671814,-0.1944018304347992,-0.1469591110944748
1782845405079719200,6.45771923828125,0.08268385380506516,-0.17985008656978607,-0.14902032911777496
1782845405089723000,6.467722900390625,0.08378693461418152,-0.15932857990264893,-0.15389683842658997
1782845405099728000,6.477727783203125,0.08278445154428482,-0.12734289467334747,-0.14862439036369324
1782845405109731800,6.48773193359375,0.08147870749235153,-0.09787582606077194,-0.13016602396965027
1782845405119736800,6.49773681640625,0.08727088570594788,-0.07900363951921463,-0.09658774733543396
1782845405129741000,6.507740966796875,0.09974433481693268,-0.06586147099733353,-0.054079171270132065
1782845405139746000,6.51774609375,0.10835801064968109,-0.06769181787967682,0.007815956138074398
1782845405149750000,6.52775,0.09263070672750473,-0.07437022775411606,0.06445260345935822
1782845405159755000,6.537755126953125,0.04581655561923981,-0.0904141291975975,0.08904190361499786
1782845405169759000,6.547759033203125,-0.034298788756132126,-0.10829326510429382,0.10579531639814377
1782845405179763200,6.55776318359375,-0.11621450632810593,-0.13669845461845398,0.11030297726392746
1782845405189768200,6.567768310546875,-0.19531811773777008,-0.17535023391246796,0.11340636014938354
1782845405199772000,6.57777197265625,-0.244650736451149,-0.19737303256988525,0.1202777847647667
1782845405209777000,6.58777685546875,-0.25877344608306885,-0.19732801616191864,0.134251669049263
1782845405219780900,6.59778076171875,-0.25434383749961853,-0.18977801501750946,0.14977021515369415
1782845405229785900,6.607785888671875,-0.22402934730052948,-0.1501227468252182,0.15783347189426422
1782845405239790000,6.6177900390625,-0.16238193213939667,-0.09982521086931229,0.16288070380687714
1782845405249795000,6.627795166015625,-0.08956310898065567,-0.06851708889007568,0.1796889752149582
1782845405259799000,6.637799072265625,-0.023119540885090828,-0.037396010011434555,0.18709802627563477
1782845405269804000,6.647803955078125,0.03482365235686302,-0.00780429458245635,0.17486639320850372
1782845405279808000,6.65780810546875,0.04927924647927284,0.02153206616640091,0.15907391905784607
1782845405289813000,6.66781298828125,0.04000825062394142,0.05799340456724167,0.13725650310516357
1782845405299817000,6.67781689453125,0.018527407199144363,0.08372677862644196,0.10420966893434525
1782845405309822200,6.687822265625,0.003429948817938566,0.09174049645662308,0.07809337973594666
1782845405319826000,6.697825927734375,0.00014260876923799515,0.0923529788851738,0.07030956447124481
1782845405329831000,6.707830810546875,-0.013684789650142193,0.08863334357738495,0.0726720541715622
1782845405339835000,6.7178349609375,-0.025017300620675087,0.08974564075469971,0.06966081261634827
1782845405349840000,6.72783984375,-0.030543092638254166,0.08349654078483582,0.0541582852602005
1782845405359844000,6.737843994140625,-0.03352843225002289,0.07816964387893677,0.02839546464383602
1782845405369849000,6.74784912109375,-0.03118165209889412,0.06876789033412933,0.007716552820056677
1782845405379853000,6.75785302734375,-0.01029671635478735,0.07064102590084076,-0.022054191678762436
1782845405389858000,6.767858154296875,-0.0002494084183126688,0.07386717945337296,-0.029639407992362976
1782845405399862000,6.777862060546875,0.0013312830124050379,0.08841988444328308,-0.032112885266542435
1782845405409867000,6.787866943359375,0.007300758734345436,0.09729807078838348,-0.02594686858355999
1782845405419871000,6.79787109375,0.01590080000460148,0.10626932978630066,-0.008845445699989796
1782845405429876000,6.8078759765625,0.03136657550930977,0.10846483707427979,0.008239265531301498
1782845405439880000,6.8178798828125,0.05143236368894577,0.11294591426849365,0.02632046490907669
1782845405449885000,6.827885009765625,0.06461634486913681,0.1090017706155777,0.03438877686858177
1782845405459889000,6.837888916015625,0.08001791685819626,0.09751741588115692,0.021573245525360107
1782845405469894000,6.847893798828125,0.10239752382040024,0.08311451226472855,-0.005555311217904091
1782845405479897900,6.85789794921875,0.1151946634054184,0.07831301540136337,-0.04665800556540489
1782845405489902800,6.86790283203125,0.10980548709630966,0.060037337243556976,-0.06397973746061325
1782845405499907000,6.877906982421875,0.08773008733987808,0.05313033610582352,-0.07870887964963913
1782845405509912000,6.887912109375,0.04960640147328377,0.0606849268078804,-0.0929594561457634
1782845405519916000,6.897916015625,0.00920847523957491,0.08314141631126404,-0.10439733415842056
1782845405529921000,6.907921142578125,-0.021289512515068054,0.09578157216310501,-0.11299348622560501
1782845405539925000,6.917925048828125,-0.04494122788310051,0.09647225588560104,-0.1116153746843338
1782845405549930000,6.927929931640625,-0.06651230156421661,0.08981408923864365,-0.09766840189695358
1782845405559934000,6.937933837890625,-0.0943991169333458,0.06997735798358917,-0.07088112086057663
1782845405569939000,6.94793896484375,-0.11754890531301498,0.051808472722768784,-0.05717010423541069
1782845405579943000,6.95794287109375,-0.12618784606456757,0.044982973486185074,-0.06169334799051285
1782845405589948000,6.967947998046875,-0.12191613018512726,0.032838426530361176,-0.08930686116218567
1782845405599952000,6.977951904296875,-0.10237966477870941,0.028622863814234734,-0.12388142198324203
1782845405609956900,6.987956787109375,-0.08439134806394577,0.021485857665538788,-0.15162010490894318
1782845405619961000,6.997961181640625,-0.08293412625789642,0.0017193829407915473,-0.1634020060300827
1782845405629966000,7.007966064453125,-0.07000075280666351,-0.0026814904995262623,-0.16856907308101654
1782845405639970000,7.017969970703125,-0.0662788674235344,-0.008344252593815327,-0.1717906892299652
1782845405649975000,7.02797509765625,-0.06110355257987976,-0.016830947250127792,-0.16707371175289154
1782845405659978800,7.037978759765625,-0.056804779917001724,-0.040634140372276306,-0.16046619415283203
1782845405669983700,7.047983642578125,-0.04954154044389725,-0.06624842435121536,-0.15031476318836212
1782845405679988000,7.057988037109375,-0.039663899689912796,-0.08991806954145432,-0.14406605064868927
1782845405689993000,7.067992919921875,-0.0300565417855978,-0.10221362113952637,-0.15625587105751038
1782845405699997000,7.077996826171875,-0.027686454355716705,-0.10338182002305984,-0.18954424560070038
1782845405710002000,7.088001953125,-0.024489330127835274,-0.09115524590015411,-0.23165681958198547
1782845405720006000,7.098005859375,-0.021035807207226753,-0.07927270978689194,-0.28020843863487244
1782845405730011100,7.10801123046875,-0.00967689324170351,-0.06730686128139496,-0.32005438208580017
1782845405740015400,7.118015380859375,0.024052023887634277,-0.055682167410850525,-0.35002121329307556
1782845405750020400,7.128020263671875,0.06504446268081665,-0.04069016873836517,-0.370120108127594
1782845405760024000,7.138024169921875,0.11074512451887131,-0.03657877817749977,-0.3763730525970459
1782845405770029300,7.148029296875,0.14433930814266205,-0.040631841868162155,-0.3644213378429413
1782845405780033000,7.158032958984375,0.17327988147735596,-0.041472386568784714,-0.34862086176872253
1782845405790038000,7.1680380859375,0.18514053523540497,-0.042805831879377365,-0.3188411295413971
1782845405800042200,7.178042236328125,0.18679802119731903,-0.03718827664852142,-0.2801190912723541
1782845405810047200,7.188047119140625,0.1739535927772522,-0.029387079179286957,-0.22113433480262756
1782845405820051200,7.19805126953125,0.15307088196277618,-0.018862709403038025,-0.14850780367851257
1782845405830056200,7.20805615234375,0.1260051727294922,-0.011534221470355988,-0.08165234327316284
1782845405840060200,7.21806005859375,0.10059355944395065,-0.00013274932280182838,-0.03277594596147537
1782845405850064400,7.228064453125,0.07588928192853928,0.022941144183278084,-0.0011351951397955418
1782845405860069400,7.2380693359375,0.06032593920826912,0.04599009081721306,0.0015310284215956926
1782845405870073000,7.248072998046875,0.052477605640888214,0.06344311684370041,0.005861061625182629
1782845405880078000,7.258078125,0.05594435706734657,0.07883158326148987,-0.004493573680520058
1782845405890082000,7.26808203125,0.06773923337459564,0.09008077532052994,-0.02189520187675953
1782845405900087000,7.278087158203125,0.08070433139801025,0.10438775271177292,-0.04135724902153015
1782845405910091300,7.28809130859375,0.09263288974761963,0.11224061995744705,-0.045840948820114136
1782845405920096300,7.29809619140625,0.11411430686712265,0.11712902784347534,-0.056576281785964966
1782845405930100200,7.308100341796875,0.14283090829849243,0.11209352314472198,-0.06803054362535477
1782845405940105200,7.318105224609375,0.17922374606132507,0.10102946311235428,-0.0742509514093399
1782845405950109200,7.328109130859375,0.2226007729768753,0.08663001656532288,-0.07106047868728638
1782845405960114200,7.3381142578125,0.26774248480796814,0.07096926122903824,-0.08928189426660538
1782845405970118400,7.348118408203125,0.3061705529689789,0.06770981848239899,-0.11736892908811569
1782845405980123400,7.358123291015625,0.33150550723075867,0.06835105270147324,-0.15122589468955994
1782845405990127000,7.368127197265625,0.3433419167995453,0.07029649615287781,-0.17626653611660004
1782845406000132000,7.378132080078125,0.34426212310791016,0.06776730716228485,-0.1876842975616455
1782845406010136000,7.388135986328125,0.33528992533683777,0.06827490031719208,-0.19832682609558105
1782845406020141000,7.39814111328125,0.32300981879234314,0.06645345687866211,-0.18568666279315948
1782845406030145300,7.408145263671875,0.3098820149898529,0.06428085267543793,-0.18058565258979797
1782845406040150300,7.418150390625,0.30707454681396484,0.0630430206656456,-0.18907073140144348
1782845406050154200,7.428154296875,0.3060891926288605,0.06466089189052582,-0.17229175567626953
1782845406060159200,7.4381591796875,0.3284180760383606,0.0570116862654686,-0.15107396245002747
1782845406070163200,7.4481630859375,0.36197629570961,0.0621824786067009,-0.12505966424942017
1782845406080168200,7.458168212890625,0.3873588442802429,0.07546813040971756,-0.10537764430046082
1782845406090172400,7.46817236328125,0.40989506244659424,0.0856693685054779,-0.09060988575220108
1782845406100177400,7.478177490234375,0.4431959390640259,0.11985837668180466,-0.07081453502178192
1782845406110181000,7.48818115234375,0.47868016362190247,0.1326945424079895,-0.04036741703748703
1782845406120186000,7.49818603515625,0.5219729542732239,0.1214480996131897,0.012359042651951313
1782845406130190000,7.508190185546875,0.5459203124046326,0.10403874516487122,0.0691850408911705
1782845406140195000,7.518195068359375,0.5586522817611694,0.0772508904337883,0.10867466032505035
1782845406150199300,7.52819921875,0.5601583123207092,0.05595306679606438,0.1287519633769989
1782845406160204300,7.538204345703125,0.5593301653862,0.05674362927675247,0.1417253464460373
1782845406170208300,7.548208251953125,0.5575240254402161,0.07870751619338989,0.17348141968250275
1782845406180213200,7.558213134765625,0.563411295413971,0.09819851815700531,0.2150445133447647
1782845406190217200,7.56821728515625,0.5649293065071106,0.10856407135725021,0.27348092198371887
1782845406200222200,7.57822216796875,0.5616670250892639,0.10899174213409424,0.331624835729599
1782845406210226200,7.58822607421875,0.5358269214630127,0.09104230254888535,0.3786088526248932
1782845406220231200,7.598231201171875,0.49979519844055176,0.07919038832187653,0.38980698585510254
1782845406230235100,7.608235107421875,0.45837822556495667,0.07437938451766968,0.36701884865760803
1782845406240240000,7.618240234375,0.4262256622314453,0.0784180760383606,0.3191678524017334
1782845406250244000,7.628244140625,0.41195324063301086,0.09897288680076599,0.265437513589859
1782845406260249000,7.6382490234375,0.4225313067436218,0.13207629323005676,0.20894978940486908
1782845406270253000,7.648253173828125,0.4475836455821991,0.1776842623949051,0.15298692882061005
1782845406280258300,7.65825830078125,0.4726010859012604,0.18953825533390045,0.09995034337043762
1782845406290262300,7.66826220703125,0.4958867132663727,0.1709081083536148,0.06373721361160278
1782845406300267300,7.678267333984375,0.52049720287323,0.14962336421012878,0.032246194779872894
1782845406310271200,7.688271240234375,0.5325093865394592,0.13418635725975037,0.007184519432485104
1782845406320276200,7.698276123046875,0.5256659984588623,0.09178753197193146,-0.008958832360804081
1782845406330280200,7.7082802734375,0.4933645725250244,0.05076047405600548,-0.017878824844956398
1782845406340285200,7.71828515625,0.45025238394737244,0.024056831374764442,-0.025584744289517403
1782845406350289200,7.7282890625,0.4139614999294281,-0.005368703044950962,-0.025882219895720482
1782845406360294100,7.738294189453125,0.3792459964752197,-0.031576476991176605,-0.010990558192133904
1782845406370298000,7.748298095703125,0.34559985995292664,-0.05056188628077507,0.016610443592071533
1782845406380303000,7.75830322265625,0.3132587671279907,-0.06014557555317879,0.043798189610242844
1782845406390307000,7.76830712890625,0.28728577494621277,-0.06347399950027466,0.06147811561822891
1782845406400312000,7.77831201171875,0.2686850428581238,-0.05717809870839119,0.08633073419332504
1782845406410316300,7.78831640625,0.25524646043777466,-0.04141644760966301,0.11097802221775055
1782845406420321300,7.7983212890625,0.23780131340026855,-0.024093296378850937,0.13455939292907715
1782845406430325200,7.8083251953125,0.21746274828910828,-0.012473393231630325,0.1517394483089447
1782845406440329000,7.818328857421875,0.19321556389331818,-0.003225919557735324,0.16267824172973633
1782845406450334000,7.828333984375,0.16723322868347168,0.000019941246137022972,0.1692458689212799
1782845406460338200,7.838338134765625,0.12256831675767899,0.0016396802384406328,0.1739659160375595
1782845406470343200,7.84834326171875,0.07223110646009445,0.0016798940487205982,0.17113257944583893
1782845406480347100,7.85834716796875,0.017999760806560516,-0.01044517196714878,0.1665574610233307
1782845406490352000,7.86835205078125,-0.032265808433294296,-0.014978672377765179,0.16177788376808167
1782845406500356000,7.878356201171875,-0.07362491637468338,-0.013864714652299881,0.1430470198392868
1782845406510361000,7.888361083984375,-0.10928916931152344,-0.007109340280294418,0.0810113400220871
1782845406520365300,7.898365234375,-0.13120390474796295,0.004719172138720751,-0.03170109540224075
1782845406530370300,7.908370361328125,-0.143529012799263,0.015873555094003677,-0.1535191535949707
1782845406540374300,7.918374267578125,-0.1477368026971817,0.0254521481692791,-0.26828834414482117
1782845406550379300,7.928379150390625,-0.14238011837005615,0.03707125410437584,-0.3752845525741577
1782845406560383000,7.938383056640625,-0.13821803033351898,0.07248029112815857,-0.478668212890625
1782845406570388000,7.948387939453125,-0.12926927208900452,0.11063939332962036,-0.5630845427513123
1782845406580392200,7.95839208984375,-0.1213936135172844,0.14693224430084229,-0.6291583776473999
1782845406590397200,7.968397216796875,-0.10671134293079376,0.1695704460144043,-0.6691992878913879
1782845406600401200,7.978401123046875,-0.08631295710802078,0.18618279695510864,-0.666836678981781
1782845406610406100,7.98840625,-0.07519932091236115,0.175583153963089,-0.6355850100517273
1782845406620410000,7.99841015625,-0.06950397789478302,0.14749060571193695,-0.5557233095169067
1782845406630415000,8.0084150390625,-0.05579961836338043,0.10792749375104904,-0.43861132860183716
1782845406640419300,8.01841943359375,-0.04850724712014198,0.06761598587036133,-0.29536622762680054
1782845406650424300,8.02842431640625,-0.034195151180028915,0.02249911241233349,-0.16783517599105835
1782845406660428300,8.03842822265625,-0.01992679014801979,-0.00905110314488411,-0.061847079545259476
1782845406670433300,8.048433349609375,-0.0024234317243099213,-0.018598003312945366,0.014795233495533466
1782845406680437000,8.05843701171875,0.006426661275327206,-0.011122641153633595,0.06097744032740593
1782845406690442000,8.06844189453125,0.014690449461340904,0.004734085872769356,0.08874169737100601
1782845406700446200,8.0784462890625,0.020576072856783867,0.02180042862892151,0.10708635300397873
1782845406710451200,8.088451171875,0.02437666989862919,0.037548232823610306,0.11936406046152115
1782845406720455200,8.098455078125,0.014452630653977394,0.050703976303339005,0.1269386112689972
1782845406730460000,8.1084599609375,0.009811805561184883,0.054261960089206696,0.13359598815441132
1782845406740463600,8.118463623046875,-0.00030154851265251637,0.045891910791397095,0.13813693821430206
1782845406750468600,8.128468505859376,-0.02354748360812664,0.043774429708719254,0.15591301023960114
1782845406760472800,8.138472900390624,-0.05411200225353241,0.027171174064278603,0.17903824150562286
1782845406770477800,8.148477783203125,-0.08841591328382492,0.010716834105551243,0.20008732378482819
1782845406780481800,8.158481689453126,-0.12979570031166077,0.003219371661543846,0.21123486757278442
1782845406790486800,8.16848681640625,-0.16844961047172546,-0.004154388792812824,0.2208624631166458
1782845406800490800,8.17849072265625,-0.20560410618782043,-0.01725585013628006,0.23129358887672424
1782845406810495700,8.188495849609374,-0.23844434320926666,-0.025150522589683533,0.23767691850662231
1782845406820500000,8.1985,-0.267372190952301,-0.04303978756070137,0.2517509162425995
1782845406830505000,8.2085048828125,-0.28805962204933167,-0.042043495923280716,0.2648656368255615
1782845406840508700,8.2185087890625,-0.2946942150592804,-0.03855803236365318,0.27667611837387085
1782845406850513700,8.228513671875,-0.2891950309276581,-0.04118816927075386,0.28466373682022095
1782845406860517600,8.238517578125,-0.2789078950881958,-0.04411676153540611,0.2967696487903595
1782845406870522600,8.248522705078125,-0.26722756028175354,-0.05011233687400818,0.30094948410987854
1782845406880526800,8.25852685546875,-0.2606009840965271,-0.04203346371650696,0.2869577705860138
1782845406890531800,8.26853173828125,-0.23868663609027863,-0.04529210552573204,0.26820993423461914
1782845406900535800,8.278535888671875,-0.2203250527381897,-0.04875221103429794,0.23864184319972992
1782845406910540800,8.288540771484374,-0.20751923322677612,-0.06547153741121292,0.21675945818424225
1782845406920544800,8.298544677734375,-0.1970524936914444,-0.08896482735872269,0.19796054065227509
1782845406930549800,8.3085498046875,-0.17864444851875305,-0.10548015683889389,0.17617933452129364
1782845406940554000,8.318553955078125,-0.16475607454776764,-0.12863852083683014,0.15073983371257782
1782845406950559000,8.32855908203125,-0.15344004333019257,-0.13692282140254974,0.12200271338224411
1782845406960562700,8.338562744140624,-0.13019311428070068,-0.13818825781345367,0.08801771700382233
1782845406970567700,8.348567626953125,-0.09957367181777954,-0.12837716937065125,0.05349596217274666
1782845406980571600,8.358571533203126,-0.07562092691659927,-0.11431307345628738,0.023380333557724953
1782845406990576600,8.36857666015625,-0.05767122283577919,-0.09923958033323288,-0.013694596476852894
1782845407000580900,8.378580810546875,-0.04485776275396347,-0.08328688889741898,-0.052593257278203964
1782845407010585900,8.3885859375,-0.038215573877096176,-0.06307323276996613,-0.09417372941970825
1782845407020589800,8.39858984375,-0.03189453110098839,-0.05785960704088211,-0.12299438565969467
1782845407030594800,8.4085947265625,-0.03178800642490387,-0.07290220260620117,-0.12864163517951965
1782845407040598800,8.418598876953125,-0.03563568741083145,-0.10463322699069977,-0.11055862158536911
1782845407050603800,8.428603759765625,-0.04373329505324364,-0.13402387499809265,-0.06824152916669846
1782845407060608000,8.43860791015625,-0.051312077790498734,-0.15848271548748016,-0.012576667591929436
1782845407070611700,8.44861181640625,-0.047948237508535385,-0.16813986003398895,0.034901902079582214
1782845407080616700,8.45861669921875,-0.03485441952943802,-0.16760949790477753,0.07869832217693329
1782845407090620700,8.46862060546875,-0.02137535996735096,-0.16011376678943634,0.11551811546087265
1782845407100625700,8.478625732421875,-0.0054700979962944984,-0.14882892370224,0.15382109582424164
1782845407110630000,8.4886298828125,-0.005413372535258532,-0.14017365872859955,0.17777784168720245
1782845407120635000,8.498634765625,-0.0018335514469072223,-0.12909996509552002,0.17941194772720337
1782845407130638800,8.508638916015625,0.0026168569456785917,-0.11681880056858063,0.16274136304855347
1782845407140643800,8.518643798828125,0.007500047795474529,-0.10599038004875183,0.1332685500383377
1782845407150647800,8.528647705078125,0.0169817004352808,-0.10271788388490677,0.10432931780815125
1782845407160652800,8.53865283203125,0.03414854034781456,-0.09957895427942276,0.09058080613613129
1782845407170657000,8.548656982421875,0.053402129560709,-0.09034790843725204,0.0881890207529068
1782845407180662000,8.558662109375,0.07544310390949249,-0.08708135783672333,0.08051086962223053
1782845407190665700,8.568665771484374,0.09671802818775177,-0.021670658141374588,0.11354711651802063
1782845407200670700,8.578670654296875,0.08811970800161362,0.1682334989309311,0.22928570210933685
1782845407210674700,8.5886748046875,0.033348601311445236,0.1660774052143097,0.2613706588745117
1782845407220679700,8.5986796875,0.018957290798425674,0.06374263763427734,0.1615791618824005
1782845407230684000,8.608683837890625,0.039479080587625504,-0.041129983961582184,0.05348357558250427
1782845407240689000,8.61868896484375,0.07967841625213623,-0.14622172713279724,-0.005982614122331142
1782845407250692900,8.62869287109375,0.11308510601520538,-0.22255350649356842,-0.0499788336455822
1782845407260697900,8.63869775390625,0.12577970325946808,-0.20054370164871216,-0.07981523126363754
1782845407270701800,8.648701904296875,0.12340736389160156,-0.1322578489780426,-0.030941693112254143
1782845407280706800,8.658706787109375,0.11927027255296707,-0.051544707268476486,0.06984816491603851
1782845407290711000,8.6687109375,0.10620160400867462,-0.012054023332893848,0.14015908539295197
1782845407300716000,8.678716064453125,0.10331714898347855,0.006164609454572201,0.17675963044166565
