time,seconds_elapsed,z,y,x
1782846379811236600,0.067236572265625,-0.9808197021484375,-0.02056884765625,0.0073089599609375
1782846379821241900,0.077241943359375,-0.9983367919921875,-0.021728515625,0.000762939453125
1782846379831246800,0.087246826171875,-0.99749755859375,-0.01995849609375,0.0003509521484375
1782846379841251800,0.097251953125,-0.983489990234375,-0.0207366943359375,0.0045928955078125
1782846379851256800,0.1072568359375,-0.985809326171875,-0.020782470703125,0.0034332275390625
1782846379861261800,0.11726171875,-0.99725341796875,-0.0204620361328125,-0.000701904296875
1782846379871267800,0.127267822265625,-0.993438720703125,-0.0208587646484375,0.00201416015625
1782846379881272800,0.13727294921875,-0.984588623046875,-0.021484375,0.0034332275390625
1782846379891277800,0.14727783203125,-0.9893798828125,-0.0206756591796875,0.00335693359375
1782846379901282800,0.15728271484375,-0.9962005615234375,-0.0216827392578125,0.000762939453125
1782846379911287800,0.167287841796875,-0.9904327392578125,-0.0218505859375,0.0029296875
1782846379921292800,0.177292724609375,-0.9851531982421875,-0.022674560546875,0.004974365234375
1782846379931297800,0.1872978515625,-0.9905242919921875,-0.0224761962890625,0.00213623046875
1782846379941302800,0.197302734375,-0.9940948486328125,-0.021484375,-0.0000457763671875
1782846379951307800,0.207307861328125,-0.9882659912109375,-0.0203857421875,0.0027313232421875
1782846379961312800,0.217312744140625,-0.98687744140625,-0.022125244140625,0.00372314453125
1782846379971317800,0.22731787109375,-0.991363525390625,-0.0216217041015625,0.0025482177734375
1782846379981322800,0.23732275390625,-0.9928436279296875,-0.0204620361328125,0.002655029296875
1782846379991327700,0.24732763671875,-0.990966796875,-0.0208740234375,0.0035247802734375
1782846380001332700,0.257332763671875,-0.9894866943359375,-0.020965576171875,0.0045318603515625
1782846380011337700,0.267337646484375,-0.9922027587890625,-0.022735595703125,0.004180908203125
1782846380021342700,0.2773427734375,-0.990997314453125,-0.021453857421875,0.0019073486328125
1782846380031347700,0.28734765625,-0.98974609375,-0.0216217041015625,0.0026702880859375
1782846380041352700,0.297352783203125,-0.991180419921875,-0.022186279296875,0.0013580322265625
1782846380051357700,0.307357666015625,-0.9920806884765625,-0.022216796875,0.000732421875
1782846380061363700,0.31736376953125,-0.990753173828125,-0.0210113525390625,0.002716064453125
1782846380071368700,0.32736865234375,-0.9890289306640625,-0.02081298828125,0.0013275146484375
1782846380081373700,0.337373779296875,-0.9898529052734375,-0.021697998046875,0.001495361328125
1782846380091378700,0.347378662109375,-0.991729736328125,-0.02020263671875,0.0032196044921875
1782846380101383700,0.3573837890625,-0.989349365234375,-0.020050048828125,0.0047149658203125
1782846380111388700,0.367388671875,-0.9904327392578125,-0.02020263671875,0.00323486328125
1782846380121393700,0.3773935546875,-0.9916534423828125,-0.021697998046875,0.003997802734375
1782846380131398700,0.387398681640625,-0.9909820556640625,-0.0208740234375,0.0038299560546875
1782846380141403600,0.397403564453125,-0.989776611328125,-0.0206146240234375,0.003326416015625
1782846380151408600,0.40740869140625,-0.9898529052734375,-0.0224609375,0.0030364990234375
1782846380161413600,0.41741357421875,-0.990753173828125,-0.0225067138671875,0.0030670166015625
1782846380171418600,0.427418701171875,-0.9900970458984375,-0.0225830078125,0.00323486328125
1782846380181423600,0.437423583984375,-0.9897613525390625,-0.0223236083984375,0.004058837890625
1782846380191428600,0.4474287109375,-0.9903411865234375,-0.020904541015625,0.001708984375
1782846380201433600,0.45743359375,-0.9913177490234375,-0.0210418701171875,0.00396728515625
1782846380211438600,0.4674384765625,-0.991058349609375,-0.0216827392578125,0.0063629150390625
1782846380221443600,0.477443603515625,-0.9904632568359375,-0.0211029052734375,0.0020599365234375
1782846380231448600,0.487448486328125,-0.990325927734375,-0.0220489501953125,0.0029144287109375
1782846380241453600,0.49745361328125,-0.99176025390625,-0.0218505859375,0.0039215087890625
1782846380251459800,0.5074599609375,-0.9907684326171875,-0.0208892822265625,0.002044677734375
1782846380261464800,0.51746484375,-0.9907684326171875,-0.0220184326171875,0.000396728515625
1782846380271469800,0.5274697265625,-0.9927520751953125,-0.0198974609375,0.0005645751953125
1782846380281474800,0.537474853515625,-0.99078369140625,-0.021331787109375,0.003570556640625
1782846380291479800,0.547479736328125,-0.98944091796875,-0.0213775634765625,0.0034332275390625
1782846380301484800,0.55748486328125,-0.9896392822265625,-0.0213775634765625,0.0017852783203125
1782846380311489800,0.56748974609375,-0.9911956787109375,-0.021881103515625,0.00323486328125
1782846380321494800,0.577494873046875,-0.9915313720703125,-0.0224151611328125,0.0019378662109375
1782846380331499800,0.587499755859375,-0.9910125732421875,-0.0217742919921875,0.00396728515625
1782846380341504800,0.5975048828125,-0.99017333984375,-0.0232696533203125,0.003326416015625
1782846380351509800,0.607509765625,-0.990570068359375,-0.02264404296875,0.00421142578125
1782846380361514800,0.6175146484375,-0.9893951416015625,-0.021270751953125,0.0026702880859375
1782846380371519700,0.627519775390625,-0.9897003173828125,-0.0227203369140625,0.00384521484375
1782846380381524700,0.637524658203125,-0.99053955078125,-0.02215576171875,0.00347900390625
1782846380391529700,0.64752978515625,-0.9915008544921875,-0.0220184326171875,0.002960205078125
1782846380401534700,0.65753466796875,-0.99017333984375,-0.0205078125,0.004058837890625
1782846380411539700,0.667539794921875,-0.990692138671875,-0.020538330078125,0.001800537109375
1782846380421544700,0.677544677734375,-0.98968505859375,-0.0209503173828125,0.0035552978515625
1782846380431549700,0.6875498046875,-0.990142822265625,-0.0221405029296875,0.0024566650390625
1782846380441554700,0.6975546875,-0.9911346435546875,-0.0218658447265625,0.0019989013671875
1782846380451560700,0.707560791015625,-0.9897613525390625,-0.0218963623046875,0.0019073486328125
1782846380461565700,0.717565673828125,-0.99066162109375,-0.0205841064453125,0.0030364990234375
1782846380471570700,0.72757080078125,-0.990966796875,-0.0222320556640625,0.0029296875
1782846380481575700,0.73757568359375,-0.990509033203125,-0.0208892822265625,0.004241943359375
1782846380491580700,0.74758056640625,-0.993133544921875,-0.020233154296875,0.0035552978515625
1782846380501585700,0.757585693359375,-0.9909515380859375,-0.0216827392578125,0.0027923583984375
1782846380511590700,0.767590576171875,-0.99041748046875,-0.02105712890625,0.0039215087890625
1782846380521595600,0.777595703125,-0.99200439453125,-0.022247314453125,0.0029754638671875
1782846380531600600,0.7876005859375,-0.99017333984375,-0.022705078125,0.002532958984375
1782846380541605600,0.797605712890625,-0.9886322021484375,-0.0225982666015625,0.003265380859375
1782846380551610600,0.807610595703125,-0.990081787109375,-0.0208740234375,0.0026702880859375
1782846380561615600,0.81761572265625,-0.9886474609375,-0.022216796875,0.001312255859375
1782846380571620600,0.82762060546875,-0.9899444580078125,-0.0223388671875,0.00299072265625
1782846380581625600,0.83762548828125,-0.9908294677734375,-0.02081298828125,0.0041961669921875
1782846380591630600,0.847630615234375,-0.9906768798828125,-0.0211334228515625,0.003082275390625
1782846380601635600,0.857635498046875,-0.9911651611328125,-0.0209197998046875,0.00384521484375
1782846380611640600,0.867640625,-0.991180419921875,-0.02099609375,0.00360107421875
1782846380621645600,0.8776455078125,-0.9899749755859375,-0.0221099853515625,0.003814697265625
1782846380631650600,0.887650634765625,-0.991912841796875,-0.0212860107421875,0.0023345947265625
1782846380641655800,0.89765576171875,-0.99163818359375,-0.021209716796875,0.0030364990234375
1782846380651660300,0.907660400390625,-0.989501953125,-0.0219573974609375,0.0018310546875
1782846380661665300,0.917665283203125,-0.9908294677734375,-0.01947021484375,0.000518798828125
1782846380671671000,0.927671142578125,-0.991302490234375,-0.021240234375,0.0018768310546875
1782846380681676000,0.937676025390625,-0.990631103515625,-0.0219268798828125,0.0045013427734375
1782846380691681000,0.947680908203125,-0.9898529052734375,-0.0220947265625,0.003509521484375
1782846380701686000,0.95768603515625,-0.9916229248046875,-0.0214996337890625,0.0018310546875
1782846380711691300,0.967691162109375,-0.9902191162109375,-0.0216217041015625,0.003631591796875
1782846380721696300,0.9776962890625,-0.989105224609375,-0.020843505859375,0.0037994384765625
1782846380731701200,0.987701171875,-0.9903411865234375,-0.0217437744140625,0.0042877197265625
1782846380741706200,0.997706298828125,-0.990570068359375,-0.0208282470703125,0.00323486328125
1782846380751711200,1.007711181640625,-0.991455078125,-0.021881103515625,0.0013275146484375
1782846380761716200,1.01771630859375,-0.9896240234375,-0.0215911865234375,0.0040740966796875
1782846380771721200,1.02772119140625,-0.9910430908203125,-0.0202484130859375,0.003448486328125
1782846380781726200,1.037726318359375,-0.9899139404296875,-0.0221710205078125,0.0034027099609375
1782846380791731200,1.047731201171875,-0.991058349609375,-0.0224609375,0.002166748046875
1782846380801736200,1.057736083984375,-0.990631103515625,-0.0214996337890625,0.0022125244140625
1782846380811741200,1.0677412109375,-0.9899139404296875,-0.02130126953125,0.00323486328125
1782846380821746200,1.07774609375,-0.991058349609375,-0.021209716796875,0.003875732421875
1782846380831751200,1.087751220703125,-0.989654541015625,-0.0208740234375,0.0036163330078125
1782846380841756200,1.097756103515625,-0.9910888671875,-0.020416259765625,0.0021209716796875
1782846380851761200,1.10776123046875,-0.99066162109375,-0.0229949951171875,0.0016632080078125
1782846380861766100,1.11776611328125,-0.990631103515625,-0.020355224609375,0.0024566650390625
1782846380871771100,1.127771240234375,-0.9911041259765625,-0.0201568603515625,0.0023193359375
1782846380881776000,1.137776123046875,-0.9901885986328125,-0.0211944580078125,0.00439453125
1782846380891781000,1.147781005859375,-0.9907073974609375,-0.02227783203125,0.0024871826171875
1782846380901787100,1.157787109375,-0.989715576171875,-0.0222015380859375,0.0015716552734375
1782846380911792000,1.167792236328125,-0.9913177490234375,-0.0215911865234375,0.0030517578125
1782846380921797000,1.177797119140625,-0.9917144775390625,-0.02056884765625,0.0019073486328125
1782846380931802000,1.187802001953125,-0.990509033203125,-0.0219879150390625,0.0025787353515625
1782846380941807000,1.19780712890625,-0.9902496337890625,-0.0211944580078125,0.0029144287109375
1782846380951812000,1.20781201171875,-0.9896697998046875,-0.021209716796875,0.0027618408203125
1782846380961817000,1.217817138671875,-0.991485595703125,-0.0220184326171875,0.0038909912109375
1782846380971822000,1.227822021484375,-0.99072265625,-0.0220794677734375,0.0032196044921875
1782846380981827000,1.2378271484375,-0.9905853271484375,-0.021636962890625,0.0028228759765625
1782846380991832000,1.24783203125,-0.99041748046875,-0.0208587646484375,0.0023040771484375
1782846381001837000,1.257837158203125,-0.9904022216796875,-0.0201873779296875,0.0013427734375
1782846381011842000,1.267842041015625,-0.989990234375,-0.021728515625,0.0020294189453125
1782846381021847000,1.277846923828125,-0.9916839599609375,-0.0198974609375,0.0033111572265625
1782846381031852000,1.28785205078125,-0.9909515380859375,-0.020721435546875,0.002685546875
1782846381041857000,1.29785693359375,-0.988525390625,-0.02215576171875,0.002685546875
1782846381051862000,1.307862060546875,-0.9897308349609375,-0.020904541015625,0.0041351318359375
1782846381061867000,1.317866943359375,-0.989013671875,-0.0212554931640625,0.002410888671875
1782846381071872000,1.3278720703125,-0.9904022216796875,-0.0223236083984375,0.0016326904296875
1782846381081877000,1.337876953125,-0.9908447265625,-0.020599365234375,0.00390625
1782846381091882200,1.34788232421875,-0.990814208984375,-0.021514892578125,0.003021240234375
1782846381101887200,1.35788720703125,-0.99072265625,-0.0222320556640625,0.003265380859375
1782846381111892200,1.367892333984375,-0.9913330078125,-0.0228424072265625,0.00433349609375
1782846381121897200,1.377897216796875,-0.992828369140625,-0.0218505859375,0.002899169921875
1782846381131902200,1.387902099609375,-0.9913787841796875,-0.0211181640625,0.0033416748046875
1782846381141907200,1.3979072265625,-0.9909210205078125,-0.021148681640625,0.0026092529296875
1782846381151912200,1.407912109375,-0.9915008544921875,-0.022064208984375,0.0026092529296875
1782846381161918200,1.417918212890625,-0.9910888671875,-0.0216064453125,0.0030975341796875
1782846381171923200,1.427923095703125,-0.9901885986328125,-0.0220794677734375,0.00347900390625
1782846381181928200,1.43792822265625,-0.990570068359375,-0.0215301513671875,0.0024566650390625
1782846381191933200,1.44793310546875,-0.9898834228515625,-0.0214385986328125,0.00341796875
1782846381201938200,1.457938232421875,-0.9905853271484375,-0.022216796875,0.002288818359375
1782846381211943200,1.467943115234375,-0.990386962890625,-0.02337646484375,0.00286865234375
1782846381221948200,1.4779482421875,-0.9903564453125,-0.02142333984375,0.002410888671875
1782846381231953200,1.487953125,-0.99090576171875,-0.022125244140625,0.002685546875
1782846381241958100,1.497958251953125,-0.989837646484375,-0.022613525390625,0.0044097900390625
1782846381251963100,1.507963134765625,-0.9895782470703125,-0.021026611328125,0.0019378662109375
1782846381261968100,1.517968017578125,-0.991058349609375,-0.020660400390625,0.0028228759765625
1782846381271973000,1.52797314453125,-0.9918670654296875,-0.020355224609375,0.0021820068359375
1782846381281978000,1.53797802734375,-0.990478515625,-0.0225372314453125,0.0022430419921875
1782846381291983000,1.547983154296875,-0.9909210205078125,-0.0217742919921875,0.0029144287109375
1782846381301988000,1.557988037109375,-0.990875244140625,-0.0205078125,0.00189208984375
1782846381311993000,1.5679931640625,-0.98992919921875,-0.0215301513671875,0.0042877197265625
1782846381321998000,1.577998046875,-0.99114990234375,-0.023101806640625,0.0016326904296875
1782846381332003000,1.588003173828125,-0.990814208984375,-0.0231170654296875,0.0032958984375
1782846381342008000,1.598008056640625,-0.9906158447265625,-0.022247314453125,0.0026397705078125
1782846381352013000,1.608012939453125,-0.9903717041015625,-0.022125244140625,0.001953125
1782846381362018000,1.61801806640625,-0.990875244140625,-0.0213623046875,0.0034332275390625
1782846381372023000,1.62802294921875,-0.989288330078125,-0.021820068359375,0.0025787353515625
1782846381382028000,1.638028076171875,-0.988983154296875,-0.0200042724609375,0.0035552978515625
1782846381392033000,1.648032958984375,-0.991302490234375,-0.0205535888671875,0.0032501220703125
1782846381402038000,1.6580380859375,-0.991180419921875,-0.0217437744140625,0.003143310546875
1782846381412043000,1.66804296875,-0.99102783203125,-0.0205535888671875,0.004058837890625
1782846381422049000,1.678049072265625,-0.9895477294921875,-0.020599365234375,0.003997802734375
1782846381432054000,1.688053955078125,-0.989227294921875,-0.0209808349609375,0.0028076171875
1782846381442059000,1.69805908203125,-0.9912872314453125,-0.0203857421875,0.0030670166015625
1782846381452064000,1.70806396484375,-0.98980712890625,-0.021453857421875,0.0037078857421875
1782846381462069000,1.718069091796875,-0.989532470703125,-0.0222625732421875,0.0035552978515625
1782846381472074000,1.728073974609375,-0.9909820556640625,-0.02117919921875,0.00274658203125
1782846381482079000,1.738078857421875,-0.9907989501953125,-0.022735595703125,-0.0000762939453125
1782846381492084000,1.748083984375,-0.99078369140625,-0.0211334228515625,0.002166748046875
1782846381502089000,1.7580888671875,-0.990264892578125,-0.021697998046875,0.00201416015625
1782846381512094000,1.768093994140625,-0.9911346435546875,-0.0219268798828125,0.0017547607421875
1782846381522099000,1.778098876953125,-0.9913330078125,-0.0220947265625,0.003143310546875
1782846381532104000,1.78810400390625,-0.9911041259765625,-0.0200042724609375,0.002593994140625
1782846381542109000,1.79810888671875,-0.9910736083984375,-0.0215606689453125,0.0051116943359375
1782846381552114000,1.808114013671875,-0.9908905029296875,-0.0216522216796875,0.0039520263671875
1782846381562119000,1.818118896484375,-0.9889068603515625,-0.0218048095703125,0.0027923583984375
1782846381572124000,1.8281240234375,-0.99114990234375,-0.0223236083984375,0.0030059814453125
1782846381582129000,1.83812890625,-0.9907073974609375,-0.0224151611328125,0.00238037109375
1782846381592134000,1.8481337890625,-0.9904632568359375,-0.020111083984375,0.002197265625
1782846381602139000,1.858138916015625,-0.990081787109375,-0.020477294921875,0.0025177001953125
1782846381612143900,1.868143798828125,-0.990753173828125,-0.0209808349609375,0.0014801025390625
1782846381622149000,1.878149169921875,-0.9905853271484375,-0.021636962890625,0.0026702880859375
1782846381632154000,1.888154052734375,-0.9901885986328125,-0.0225677490234375,0.0025787353515625
1782846381642159000,1.8981591796875,-0.99029541015625,-0.02044677734375,0.0005035400390625
1782846381652164000,1.9081640625,-0.991302490234375,-0.0216522216796875,0.001739501953125
1782846381662169300,1.91816943359375,-0.9912872314453125,-0.0213623046875,0.0028533935546875
1782846381672174300,1.92817431640625,-0.9893035888671875,-0.02154541015625,0.003265380859375
1782846381682179300,1.938179443359375,-0.9897003173828125,-0.022369384765625,0.0022735595703125
1782846381692184300,1.948184326171875,-0.991424560546875,-0.02166748046875,0.0034027099609375
1782846381702190000,1.958190185546875,-0.9915618896484375,-0.02252197265625,0.00189208984375
1782846381712195000,1.968195068359375,-0.9895782470703125,-0.021484375,0.0022125244140625
1782846381722200000,1.978199951171875,-0.9890594482421875,-0.0216827392578125,0.00274658203125
1782846381732205000,1.988205078125,-0.99066162109375,-0.0206298828125,0.003509521484375
1782846381742210000,1.9982099609375,-0.99066162109375,-0.0216827392578125,0.0032958984375
1782846381752215000,2.008215087890625,-0.9901275634765625,-0.02056884765625,0.0026702880859375
1782846381762220000,2.018219970703125,-0.9897308349609375,-0.020263671875,0.0024261474609375
1782846381772225000,2.02822509765625,-0.99127197265625,-0.0207672119140625,0.00335693359375
1782846381782230000,2.03822998046875,-0.9909515380859375,-0.021392822265625,0.0024566650390625
1782846381792235300,2.0482353515625,-0.989532470703125,-0.020172119140625,0.002349853515625
1782846381802240300,2.058240234375,-0.9898834228515625,-0.0209503173828125,0.0035247802734375
1782846381812245200,2.068245361328125,-0.990631103515625,-0.0210113525390625,0.0033721923828125
1782846381822250200,2.078250244140625,-0.9899749755859375,-0.021270751953125,0.0025482177734375
1782846381832255200,2.088255126953125,-0.9910430908203125,-0.022613525390625,0.0029296875
1782846381842260200,2.09826025390625,-0.9891815185546875,-0.0217132568359375,0.0030670166015625
1782846381852265200,2.10826513671875,-0.9908294677734375,-0.02008056640625,0.0040283203125
1782846381862270200,2.118270263671875,-0.991973876953125,-0.0221405029296875,0.002777099609375
1782846381872275200,2.128275146484375,-0.99041748046875,-0.0234832763671875,0.002960205078125
1782846381882280200,2.1382802734375,-0.9901123046875,-0.0222015380859375,0.0027618408203125
1782846381892285200,2.14828515625,-0.9904327392578125,-0.0197601318359375,0.0014801025390625
1782846381902290200,2.158290283203125,-0.99188232421875,-0.02081298828125,0.0036163330078125
1782846381912295200,2.168295166015625,-0.9915313720703125,-0.021636962890625,0.0045623779296875
1782846381922300200,2.178300048828125,-0.991424560546875,-0.022186279296875,0.003570556640625
1782846381932305200,2.18830517578125,-0.990966796875,-0.0199432373046875,0.0023345947265625
1782846381942310100,2.19831005859375,-0.9900665283203125,-0.02081298828125,0.003082275390625
1782846381952315100,2.208315185546875,-0.990966796875,-0.0204925537109375,0.000579833984375
1782846381962320100,2.218320068359375,-0.990753173828125,-0.0218658447265625,0.0019683837890625
1782846381972325000,2.2283251953125,-0.99029541015625,-0.0211181640625,0.001678466796875
1782846381982330000,2.238330078125,-0.9903411865234375,-0.0220184326171875,0.0028839111328125
1782846381992335000,2.248335205078125,-0.9893646240234375,-0.0205230712890625,0.0034942626953125
1782846382002341400,2.25834130859375,-0.99053955078125,-0.0209808349609375,0.0023345947265625
1782846382012346400,2.268346435546875,-0.992767333984375,-0.0211029052734375,0.002410888671875
1782846382022351400,2.278351318359375,-0.9901123046875,-0.020660400390625,0.002899169921875
1782846382032356400,2.2883564453125,-0.990478515625,-0.0203857421875,0.00262451171875
1782846382042361300,2.298361328125,-0.989654541015625,-0.0213165283203125,0.002227783203125
1782846382052366300,2.308366455078125,-0.9899749755859375,-0.0208740234375,0.00323486328125
1782846382062371300,2.318371337890625,-0.9896392822265625,-0.0217132568359375,0.0032501220703125
1782846382072376300,2.328376220703125,-0.9905853271484375,-0.0212860107421875,0.0041656494140625
1782846382082381300,2.33838134765625,-0.990509033203125,-0.0226287841796875,0.0041656494140625
1782846382092386300,2.34838623046875,-0.9907379150390625,-0.022552490234375,0.0030517578125
1782846382102391300,2.358391357421875,-0.9907379150390625,-0.0211029052734375,0.0037841796875
1782846382112396300,2.368396240234375,-0.9900970458984375,-0.02093505859375,0.004119873046875
1782846382122401300,2.3784013671875,-0.9912872314453125,-0.02301025390625,0.0027313232421875
1782846382132406300,2.38840625,-0.990692138671875,-0.0213165283203125,0.002471923828125
1782846382142411300,2.398411376953125,-0.9901123046875,-0.0207672119140625,0.0023651123046875
1782846382152416300,2.408416259765625,-0.9903106689453125,-0.0217132568359375,0.002471923828125
1782846382162421200,2.418421142578125,-0.990966796875,-0.0211944580078125,0.0040435791015625
1782846382172426200,2.42842626953125,-0.99072265625,-0.022918701171875,0.0045013427734375
1782846382182431200,2.43843115234375,-0.9900054931640625,-0.0200653076171875,0.0031585693359375
1782846382192436200,2.448436279296875,-0.9907073974609375,-0.0206298828125,0.002044677734375
1782846382202441200,2.458441162109375,-0.992431640625,-0.019500732421875,0.00238037109375
1782846382212446200,2.4684462890625,-0.990692138671875,-0.0215911865234375,0.0023040771484375
1782846382222451200,2.478451171875,-0.9907989501953125,-0.022430419921875,0.001953125
1782846382232456200,2.488456298828125,-0.99169921875,-0.0215911865234375,0.0032958984375
1782846382242461200,2.498461181640625,-0.9908905029296875,-0.0221710205078125,0.00604248046875
1782846382252466200,2.508466064453125,-0.9904632568359375,-0.021759033203125,0.0035247802734375
1782846382262471200,2.51847119140625,-0.990325927734375,-0.0210418701171875,0.001708984375
1782846382272476200,2.52847607421875,-0.9908294677734375,-0.0222320556640625,0.00262451171875
1782846382282481200,2.538481201171875,-0.990753173828125,-0.020843505859375,0.003570556640625
1782846382292486100,2.548486083984375,-0.99072265625,-0.0218658447265625,0.0030975341796875
1782846382302491100,2.5584912109375,-0.9898223876953125,-0.0214996337890625,0.00274658203125
1782846382312496000,2.56849609375,-0.9900970458984375,-0.02203369140625,0.0030975341796875
1782846382322501000,2.578501220703125,-0.9912109375,-0.0218048095703125,0.0025787353515625
1782846382332507100,2.588507080078125,-0.990966796875,-0.0217437744140625,0.001556396484375
1782846382342512000,2.59851220703125,-0.989410400390625,-0.0211944580078125,0.002838134765625
1782846382352517000,2.60851708984375,-0.9898681640625,-0.0205078125,0.0037841796875
1782846382362522000,2.618522216796875,-0.990692138671875,-0.0222625732421875,0.00244140625
1782846382372527000,2.628527099609375,-0.9900360107421875,-0.0219573974609375,0.0021514892578125
1782846382382532000,2.638531982421875,-0.9913330078125,-0.0212554931640625,0.0031280517578125
1782846382392537000,2.648537109375,-0.9903106689453125,-0.0221405029296875,0.0045623779296875
1782846382402542000,2.6585419921875,-0.9881439208984375,-0.020965576171875,0.00286865234375
1782846382412547000,2.668547119140625,-0.9893341064453125,-0.0211944580078125,0.00189208984375
1782846382422552000,2.678552001953125,-0.9920806884765625,-0.0204010009765625,0.0032958984375
1782846382432557000,2.68855712890625,-0.9905548095703125,-0.0227508544921875,0.003936767578125
1782846382442562000,2.69856201171875,-0.99102783203125,-0.02239990234375,0.0021209716796875
1782846382452567000,2.708567138671875,-0.99041748046875,-0.0214080810546875,0.002899169921875
1782846382462572000,2.718572021484375,-0.9908599853515625,-0.0220184326171875,0.0033721923828125
1782846382472577000,2.728576904296875,-0.98956298828125,-0.0195465087890625,0.0021514892578125
1782846382482582000,2.73858203125,-0.9902801513671875,-0.021087646484375,0.0020904541015625
1782846382492587000,2.7485869140625,-0.9897613525390625,-0.021148681640625,0.002288818359375
1782846382502592000,2.758592041015625,-0.99041748046875,-0.0217742919921875,0.0034637451171875
1782846382512597000,2.768596923828125,-0.9899749755859375,-0.02099609375,0.00189208984375
1782846382522602000,2.77860205078125,-0.989105224609375,-0.0209808349609375,0.0022430419921875
1782846382532607000,2.78860693359375,-0.9905853271484375,-0.0204315185546875,0.0020294189453125
1782846382542612000,2.798612060546875,-0.990142822265625,-0.0217742919921875,0.0036773681640625
1782846382552617200,2.8086171875,-0.9895782470703125,-0.021697998046875,0.0040283203125
1782846382562622200,2.818622314453125,-0.9909515380859375,-0.020843505859375,0.0029296875
1782846382572627200,2.828627197265625,-0.989501953125,-0.0215606689453125,0.0006256103515625
1782846382582632200,2.838632080078125,-0.99005126953125,-0.0218505859375,0.0019989013671875
1782846382592637200,2.84863720703125,-0.9893951416015625,-0.02117919921875,0.004241943359375
1782846382602642200,2.85864208984375,-0.9894256591796875,-0.0208282470703125,0.003021240234375
1782846382612647200,2.868647216796875,-0.989288330078125,-0.02130126953125,0.00390625
1782846382622652400,2.87865234375,-0.991943359375,-0.0207977294921875,0.0024566650390625
1782846382632657400,2.888657470703125,-0.99163818359375,-0.0222930908203125,0.0030975341796875
1782846382642662400,2.898662353515625,-0.987945556640625,-0.0224609375,0.0016021728515625
1782846382652667400,2.90866748046875,-0.9898681640625,-0.0214385986328125,0.0034637451171875
1782846382662672000,2.918671875,-0.990509033203125,-0.0200042724609375,0.00299072265625
1782846382672676900,2.9286767578125,-0.990386962890625,-0.0214385986328125,0.0028533935546875
1782846382682681900,2.938681884765625,-0.99053955078125,-0.0194549560546875,0.0020904541015625
1782846382692686800,2.948686767578125,-0.9914093017578125,-0.0212860107421875,0.003204345703125
1782846382702692900,2.95869287109375,-0.991302490234375,-0.0215911865234375,0.002105712890625
1782846382712697900,2.96869775390625,-0.991973876953125,-0.0204315185546875,0.00164794921875
1782846382722702800,2.978702880859375,-0.9901580810546875,-0.019378662109375,0.0030670166015625
1782846382732707800,2.988707763671875,-0.9880523681640625,-0.0218658447265625,0.0031890869140625
1782846382742712800,2.998712890625,-0.9923095703125,-0.0210113525390625,0.0026397705078125
1782846382752717800,3.0087177734375,-0.991241455078125,-0.0205841064453125,0.002532958984375
1782846382762722800,3.018722900390625,-0.99139404296875,-0.022918701171875,0.0033111572265625
1782846382772727800,3.028727783203125,-0.990997314453125,-0.02117919921875,0.0027008056640625
1782846382782732800,3.03873291015625,-0.9898834228515625,-0.0211181640625,0.00201416015625
1782846382792737800,3.04873779296875,-0.9916534423828125,-0.0211639404296875,0.0044097900390625
1782846382802742800,3.05874267578125,-0.989776611328125,-0.020965576171875,0.0035247802734375
1782846382812747800,3.068747802734375,-0.9903717041015625,-0.0214080810546875,0.0032806396484375
1782846382822752800,3.078752685546875,-0.9907684326171875,-0.021697998046875,0.0024261474609375
1782846382832757800,3.0887578125,-0.9908905029296875,-0.021240234375,0.0032196044921875
1782846382842762800,3.0987626953125,-0.988555908203125,-0.0206756591796875,0.0024566650390625
1782846382852767700,3.108767822265625,-0.990447998046875,-0.0208587646484375,0.0033416748046875
1782846382862772700,3.118772705078125,-0.992156982421875,-0.0216522216796875,0.00262451171875
1782846382872777700,3.12877783203125,-0.991058349609375,-0.0205078125,0.00323486328125
1782846382882782700,3.13878271484375,-0.990203857421875,-0.0201416015625,0.00323486328125
1782846382892787700,3.14878759765625,-0.9902496337890625,-0.0207366943359375,0.0031585693359375
1782846382902792700,3.158792724609375,-0.9915618896484375,-0.0213623046875,0.002197265625
1782846382912797700,3.168797607421875,-0.989288330078125,-0.021392822265625,0.0021209716796875
1782846382922802700,3.178802734375,-0.9901275634765625,-0.0222015380859375,0.00201416015625
1782846382932807700,3.1888076171875,-0.989654541015625,-0.022369384765625,0.0020751953125
1782846382942812700,3.198812744140625,-0.989898681640625,-0.0224151611328125,0.001617431640625
1782846382952817700,3.208817626953125,-0.990234375,-0.0216522216796875,0.0028533935546875
1782846382962822700,3.21882275390625,-0.9910125732421875,-0.0196533203125,0.0046844482421875
1782846382972827600,3.22882763671875,-0.99005126953125,-0.02069091796875,0.0021820068359375
1782846382982832600,3.23883251953125,-0.9916229248046875,-0.0217132568359375,0.0039825439453125
1782846382992837600,3.248837646484375,-0.990325927734375,-0.021331787109375,0.0020904541015625
1782846383002842600,3.258842529296875,-0.9912261962890625,-0.02252197265625,0.0022430419921875
1782846383012847600,3.26884765625,-0.9907684326171875,-0.0216522216796875,0.0038299560546875
1782846383022852600,3.2788525390625,-0.9916229248046875,-0.0203399658203125,0.0032958984375
1782846383032857600,3.288857666015625,-0.9917144775390625,-0.023040771484375,0.0029144287109375
1782846383042862600,3.298862548828125,-0.991943359375,-0.022674560546875,0.00323486328125
1782846383052867600,3.30886767578125,-0.9928131103515625,-0.0208587646484375,0.00408935546875
1782846383062872600,3.31887255859375,-0.9908447265625,-0.02117919921875,0.00244140625
1782846383072877600,3.328877685546875,-0.9908905029296875,-0.0235443115234375,0.00152587890625
1782846383082882600,3.338882568359375,-0.9900360107421875,-0.0210113525390625,0.0030364990234375
1782846383092887600,3.348887451171875,-0.9920654296875,-0.02252197265625,0.0033416748046875
1782846383102892500,3.358892578125,-0.988800048828125,-0.02105712890625,0.0034637451171875
1782846383112897500,3.3688974609375,-0.991363525390625,-0.0212249755859375,0.0026702880859375
1782846383122903800,3.37890380859375,-0.9917144775390625,-0.02197265625,0.0020751953125
1782846383132908800,3.38890869140625,-0.9908294677734375,-0.021759033203125,0.0019989013671875
1782846383142913800,3.398913818359375,-0.9928741455078125,-0.0211029052734375,0.00225830078125
1782846383152918800,3.408918701171875,-0.9906768798828125,-0.0213165283203125,0.003570556640625
1782846383162923800,3.418923828125,-0.9911956787109375,-0.0207061767578125,0.0018463134765625
1782846383172928800,3.4289287109375,-0.9914703369140625,-0.0211029052734375,0.003265380859375
1782846383182933800,3.438933837890625,-0.99072265625,-0.0209503173828125,0.00286865234375
1782846383192938800,3.448938720703125,-0.9897003173828125,-0.021453857421875,0.003265380859375
1782846383202943700,3.45894384765625,-0.990386962890625,-0.0206756591796875,0.00274658203125
1782846383212948700,3.46894873046875,-0.9903564453125,-0.0217132568359375,0.0021514892578125
1782846383222953700,3.47895361328125,-0.988922119140625,-0.0226898193359375,0.00286865234375
1782846383232958700,3.488958740234375,-0.9891510009765625,-0.021331787109375,0.0022125244140625
1782846383242963700,3.498963623046875,-0.991302490234375,-0.020660400390625,0.002044677734375
1782846383252968700,3.50896875,-0.9913787841796875,-0.0216217041015625,0.0032501220703125
1782846383262973700,3.5189736328125,-0.990997314453125,-0.0211334228515625,0.0032806396484375
1782846383272978700,3.528978759765625,-0.9913787841796875,-0.0214691162109375,0.00201416015625
1782846383282983700,3.538983642578125,-0.9907989501953125,-0.0209503173828125,0.0036163330078125
1782846383292988700,3.54898876953125,-0.9919586181640625,-0.0199432373046875,0.00274658203125
1782846383302993700,3.55899365234375,-0.9900360107421875,-0.0210113525390625,0.0046234130859375
1782846383312998700,3.56899853515625,-0.99139404296875,-0.02154541015625,0.00286865234375
1782846383323003600,3.579003662109375,-0.9911956787109375,-0.0211334228515625,0.0015106201171875
1782846383333008600,3.589008544921875,-0.990570068359375,-0.020599365234375,0.00372314453125
1782846383343014000,3.599013916015625,-0.9916229248046875,-0.0216064453125,0.0039215087890625
1782846383353019000,3.609018798828125,-0.991302490234375,-0.02191162109375,0.003082275390625
1782846383363024000,3.61902392578125,-0.9918975830078125,-0.02093505859375,0.0033721923828125
1782846383373028900,3.62902880859375,-0.990753173828125,-0.0218658447265625,0.0023193359375
1782846383383033900,3.639033935546875,-0.9903564453125,-0.0205841064453125,0.004974365234375
1782846383393038800,3.649038818359375,-0.9912261962890625,-0.0215911865234375,0.0028228759765625
1782846383403043800,3.6590439453125,-0.9900665283203125,-0.0196685791015625,0.0028533935546875
1782846383413048800,3.669048828125,-0.9908599853515625,-0.0214385986328125,0.00189208984375
1782846383423053800,3.6790537109375,-0.9918060302734375,-0.0212249755859375,0.0030364990234375
1782846383433058800,3.689058837890625,-0.9915008544921875,-0.021697998046875,0.0039825439453125
1782846383443063800,3.699063720703125,-0.992279052734375,-0.0215301513671875,0.00213623046875
1782846383453068800,3.70906884765625,-0.98834228515625,-0.02130126953125,0.00311279296875
1782846383463073800,3.71907373046875,-0.990478515625,-0.0213775634765625,0.003570556640625
1782846383473078800,3.729078857421875,-0.991180419921875,-0.02130126953125,0.0018310546875
1782846383483083800,3.739083740234375,-0.9905242919921875,-0.020538330078125,0.003326416015625
1782846383493088800,3.7490888671875,-0.9896240234375,-0.021514892578125,0.0024871826171875
1782846383503093800,3.75909375,-0.989471435546875,-0.0212249755859375,0.004058837890625
1782846383513098800,3.7690986328125,-0.989227294921875,-0.021453857421875,0.001434326171875
1782846383523103700,3.779103759765625,-0.99053955078125,-0.02069091796875,0.002227783203125
1782846383533108700,3.789108642578125,-0.990966796875,-0.0215301513671875,0.00372314453125
1782846383543113700,3.79911376953125,-0.9908599853515625,-0.021514892578125,0.004547119140625
1782846383553118700,3.80911865234375,-0.990447998046875,-0.0218658447265625,0.00225830078125
1782846383563123700,3.819123779296875,-0.98974609375,-0.0211334228515625,0.003936767578125
1782846383573128700,3.829128662109375,-0.9905242919921875,-0.021331787109375,0.003509521484375
1782846383583133700,3.8391337890625,-0.989837646484375,-0.0213165283203125,0.0020294189453125
1782846383593138700,3.849138671875,-0.9910736083984375,-0.022064208984375,0.0020751953125
1782846383603143700,3.859143798828125,-0.9898529052734375,-0.0224609375,0.0025482177734375
1782846383613149700,3.869149658203125,-0.9907989501953125,-0.0221099853515625,0.0024261474609375
1782846383623154700,3.87915478515625,-0.9910430908203125,-0.021514892578125,0.002655029296875
1782846383633159700,3.88915966796875,-0.9903564453125,-0.0215911865234375,0.0015106201171875
1782846383643164700,3.89916455078125,-0.9906768798828125,-0.02191162109375,0.0030059814453125
1782846383653169700,3.909169677734375,-0.9902191162109375,-0.0220184326171875,0.0039215087890625
1782846383663175400,3.919175537109375,-0.989501953125,-0.0216217041015625,0.0034637451171875
1782846383673180400,3.929180419921875,-0.9916839599609375,-0.020294189453125,0.00384521484375
1782846383683185400,3.939185302734375,-0.991790771484375,-0.021575927734375,0.00457763671875
1782846383693190400,3.9491904296875,-0.991241455078125,-0.0213470458984375,0.0028533935546875
1782846383703195400,3.9591953125,-0.9911651611328125,-0.022918701171875,0.0023651123046875
1782846383713200400,3.969200439453125,-0.9905242919921875,-0.021453857421875,0.0039215087890625
1782846383723205400,3.979205322265625,-0.9910888671875,-0.0206756591796875,0.00323486328125
1782846383733210400,3.98921044921875,-0.990386962890625,-0.021575927734375,0.003753662109375
1782846383743215400,3.99921533203125,-0.9901123046875,-0.022369384765625,0.004364013671875
1782846383753220400,4.009220458984375,-0.9900360107421875,-0.0210418701171875,0.0019378662109375
1782846383763225300,4.019225341796875,-0.99078369140625,-0.0211181640625,0.00238037109375
1782846383773230300,4.029230224609375,-0.990570068359375,-0.0216827392578125,0.0015411376953125
1782846383783235300,4.0392353515625,-0.9910430908203125,-0.02203369140625,0.002716064453125
1782846383793240300,4.049240234375,-0.9893341064453125,-0.0211639404296875,0.002288818359375
1782846383803245300,4.059245361328125,-0.9911956787109375,-0.0208892822265625,0.0029144287109375
1782846383813250300,4.069250244140625,-0.9907379150390625,-0.0222930908203125,0.004150390625
1782846383823255300,4.07925537109375,-0.9908294677734375,-0.0231170654296875,0.00421142578125
1782846383833260300,4.08926025390625,-0.9897003173828125,-0.020843505859375,0.002685546875
1782846383843265300,4.099265380859375,-0.9904632568359375,-0.021575927734375,0.00335693359375
1782846383853270300,4.109270263671875,-0.9911041259765625,-0.022369384765625,0.001556396484375
1782846383863275300,4.119275146484375,-0.990814208984375,-0.02056884765625,0.0029449462890625
1782846383873280300,4.1292802734375,-0.989776611328125,-0.0206451416015625,0.0025634765625
1782846383883285200,4.13928515625,-0.9902801513671875,-0.0222625732421875,0.0024566650390625
1782846383893290200,4.149290283203125,-0.9903564453125,-0.0216064453125,0.0027313232421875
1782846383903295200,4.159295166015625,-0.990753173828125,-0.0219879150390625,0.0022735595703125
1782846383913300200,4.16930029296875,-0.9911346435546875,-0.0226898193359375,0.00286865234375
1782846383923305200,4.17930517578125,-0.99078369140625,-0.021240234375,0.0031585693359375
1782846383933310200,4.189310302734375,-0.9911041259765625,-0.02105712890625,0.00244140625
1782846383943315200,4.199315185546875,-0.9904327392578125,-0.0208892822265625,0.0018463134765625
1782846383953320200,4.2093203125,-0.99072265625,-0.020294189453125,0.0026702880859375
1782846383963325200,4.2193251953125,-0.9899749755859375,-0.02056884765625,0.0026702880859375
1782846383973330200,4.229330078125,-0.9910430908203125,-0.021240234375,0.004486083984375
1782846383983335200,4.239335205078125,-0.991058349609375,-0.0216217041015625,0.003753662109375
1782846383993340200,4.249340087890625,-0.9915771484375,-0.0213775634765625,0.0021514892578125
1782846384003345200,4.25934521484375,-0.9924774169921875,-0.0213165283203125,0.0028839111328125
1782846384013350100,4.26935009765625,-0.989532470703125,-0.02130126953125,0.003082275390625
1782846384023355100,4.279355224609375,-0.99041748046875,-0.0212249755859375,0.0028228759765625
1782846384033360100,4.289360107421875,-0.991485595703125,-0.0216064453125,0.0022125244140625
1782846384043365000,4.299365234375,-0.991180419921875,-0.022369384765625,0.0027313232421875
1782846384053370000,4.3093701171875,-0.9915771484375,-0.021331787109375,0.002197265625
1782846384063375400,4.319375244140625,-0.990478515625,-0.0218505859375,0.00189208984375
1782846384073380400,4.32938037109375,-0.9911956787109375,-0.021881103515625,0.0036773681640625
1782846384083385300,4.33938525390625,-0.989990234375,-0.02178955078125,0.00335693359375
1782846384093390300,4.349390380859375,-0.990478515625,-0.0219573974609375,0.0037689208984375
1782846384103395300,4.359395263671875,-0.989898681640625,-0.019744873046875,0.0034637451171875
1782846384113400300,4.369400390625,-0.9913787841796875,-0.0213470458984375,0.0034332275390625
1782846384123405300,4.3794052734375,-0.99114990234375,-0.0217742919921875,0.0044097900390625
1782846384133410300,4.389410400390625,-0.99151611328125,-0.0218658447265625,0.00225830078125
1782846384143415300,4.399415283203125,-0.9898834228515625,-0.021453857421875,0.0024261474609375
1782846384153420300,4.409420166015625,-0.9905853271484375,-0.0227813720703125,0.003936767578125
1782846384163425300,4.41942529296875,-0.9888458251953125,-0.022064208984375,0.0010833740234375
1782846384173430300,4.42943017578125,-0.99029541015625,-0.02142333984375,0.0034942626953125
1782846384183435300,4.439435302734375,-0.9886474609375,-0.02142333984375,0.0037994384765625
1782846384193440300,4.449440185546875,-0.990997314453125,-0.0215911865234375,0.002166748046875
1782846384203445200,4.4594453125,-0.9911651611328125,-0.0207366943359375,0.0030059814453125
1782846384213450200,4.4694501953125,-0.99102783203125,-0.0211181640625,0.0028228759765625
1782846384223455200,4.479455322265625,-0.989593505859375,-0.0201568603515625,0.00201416015625
1782846384233460200,4.489460205078125,-0.9909820556640625,-0.019927978515625,0.0029296875
1782846384243465200,4.49946533203125,-0.991790771484375,-0.0214691162109375,0.001953125
1782846384253470200,4.50947021484375,-0.9909820556640625,-0.021148681640625,0.0048065185546875
1782846384263475200,4.51947509765625,-0.990570068359375,-0.02081298828125,0.003662109375
1782846384273480200,4.529480224609375,-0.9897308349609375,-0.0199737548828125,0.005401611328125
1782846384283485200,4.539485107421875,-0.9906768798828125,-0.0221405029296875,0.0034942626953125
1782846384293490200,4.549490234375,-0.9905242919921875,-0.0224151611328125,0.0018463134765625
1782846384303495200,4.5594951171875,-0.9906158447265625,-0.0225830078125,0.0025177001953125
1782846384313500200,4.569500244140625,-0.990264892578125,-0.0217132568359375,0.0040283203125
1782846384323506400,4.57950634765625,-0.9900054931640625,-0.0219573974609375,0.00469970703125
1782846384333511400,4.589511474609375,-0.9893341064453125,-0.022247314453125,0.003509521484375
1782846384343516400,4.599516357421875,-0.9912261962890625,-0.0193939208984375,0.003997802734375
1782846384353521400,4.609521484375,-0.9915008544921875,-0.020843505859375,0.003082275390625
1782846384363526400,4.6195263671875,-0.9910430908203125,-0.022491455078125,0.003021240234375
1782846384373531400,4.629531494140625,-0.99066162109375,-0.021240234375,0.0035858154296875
1782846384383536400,4.639536376953125,-0.99041748046875,-0.0221099853515625,0.0023345947265625
1782846384393541400,4.649541259765625,-0.9911956787109375,-0.02081298828125,0.0020294189453125
1782846384403546400,4.65954638671875,-0.990692138671875,-0.021453857421875,0.003448486328125
1782846384413551400,4.66955126953125,-0.99163818359375,-0.023040771484375,0.00274658203125
1782846384423556400,4.679556396484375,-0.99127197265625,-0.0202484130859375,0.0030059814453125
1782846384433561300,4.689561279296875,-0.9901885986328125,-0.02227783203125,0.0024261474609375
1782846384443566300,4.69956640625,-0.9911041259765625,-0.021026611328125,0.00384521484375
1782846384453571300,4.7095712890625,-0.9897003173828125,-0.0208282470703125,0.0023040771484375
1782846384463576300,4.719576416015625,-0.989044189453125,-0.021942138671875,0.0027618408203125
1782846384473581300,4.729581298828125,-0.9901580810546875,-0.0207366943359375,0.00262451171875
1782846384483586300,4.73958642578125,-0.9904937744140625,-0.0217437744140625,0.0027313232421875
1782846384493591300,4.74959130859375,-0.9911956787109375,-0.0228424072265625,0.0023956298828125
1782846384503596300,4.75959619140625,-0.990234375,-0.0215911865234375,0.0010528564453125
1782846384513601300,4.769601318359375,-0.9913330078125,-0.0218963623046875,0.0016937255859375
1782846384523606300,4.779606201171875,-0.9907073974609375,-0.0211029052734375,0.003173828125
1782846384533611300,4.789611328125,-0.9907684326171875,-0.0214691162109375,0.0025634765625
1782846384543616300,4.7996162109375,-0.9919586181640625,-0.0219573974609375,0.0028839111328125
1782846384553621200,4.809621337890625,-0.99066162109375,-0.0220489501953125,0.0014801025390625
1782846384563626200,4.819626220703125,-0.991455078125,-0.021087646484375,0.0021514892578125
1782846384573631200,4.82963134765625,-0.9899749755859375,-0.0210723876953125,0.0032196044921875
1782846384583636200,4.83963623046875,-0.9908905029296875,-0.0213470458984375,0.0029144287109375
1782846384593641200,4.84964111328125,-0.99066162109375,-0.021148681640625,0.0036773681640625
1782846384603646200,4.859646240234375,-0.990325927734375,-0.0213470458984375,0.00274658203125
1782846384613651200,4.869651123046875,-0.9903717041015625,-0.021942138671875,0.0022735595703125
1782846384623656200,4.87965625,-0.990325927734375,-0.019744873046875,0.003570556640625
1782846384633661200,4.8896611328125,-0.9891815185546875,-0.021636962890625,0.0032806396484375
1782846384643666200,4.899666259765625,-0.9904632568359375,-0.019805908203125,0.0034332275390625
1782846384653671200,4.909671142578125,-0.99114990234375,-0.0215911865234375,0.004119873046875
1782846384663676000,4.919676025390625,-0.9901275634765625,-0.0211334228515625,0.003173828125
1782846384673681000,4.929680908203125,-0.9912109375,-0.0217742919921875,0.002655029296875
1782846384683686100,4.93968603515625,-0.99053955078125,-0.02197265625,0.0032806396484375
1782846384693691100,4.949691162109375,-0.9892578125,-0.021759033203125,0.002777099609375
1782846384703696100,4.959696044921875,-0.9894256591796875,-0.02081298828125,0.0036163330078125
1782846384713701000,4.969701171875,-0.9898223876953125,-0.0214385986328125,0.0019683837890625
1782846384723706000,4.9797060546875,-0.9919891357421875,-0.0206451416015625,0.0010223388671875
1782846384733711000,4.989711181640625,-0.991119384765625,-0.0220947265625,0.003326416015625
1782846384743716000,4.999716064453125,-0.9920501708984375,-0.02056884765625,0.0019073486328125
1782846384753721000,5.00972119140625,-0.98992919921875,-0.02081298828125,0.0021514892578125
1782846384763726000,5.01972607421875,-0.990570068359375,-0.02001953125,0.004425048828125
1782846384773731000,5.02973095703125,-0.9905242919921875,-0.0200653076171875,0.0042877197265625
1782846384783736000,5.039736083984375,-0.9912567138671875,-0.0214996337890625,0.0026092529296875
1782846384793741000,5.049740966796875,-0.991058349609375,-0.0221405029296875,0.0028533935546875
1782846384803746000,5.05974609375,-0.990478515625,-0.021453857421875,0.0020599365234375
1782846384813751000,5.0697509765625,-0.990264892578125,-0.0215911865234375,0.0019989013671875
1782846384823756000,5.079756103515625,-0.9893798828125,-0.0211334228515625,0.001220703125
1782846384833761000,5.089760986328125,-0.98992919921875,-0.0215911865234375,0.002166748046875
1782846384843766000,5.09976611328125,-0.991119384765625,-0.0205841064453125,0.0027923583984375
1782846384853771000,5.10977099609375,-0.990264892578125,-0.0212554931640625,0.0023345947265625
1782846384863776000,5.11977587890625,-0.9900360107421875,-0.0210418701171875,0.0032501220703125
1782846384873781000,5.129781005859375,-0.9911041259765625,-0.020843505859375,0.0041961669921875
1782846384883786000,5.139785888671875,-0.98980712890625,-0.020721435546875,0.003814697265625
1782846384893791000,5.149791015625,-0.9910736083984375,-0.0209503173828125,0.0013885498046875
1782846384903796000,5.1597958984375,-0.9906005859375,-0.0201568603515625,0.003326416015625
1782846384913801000,5.169801025390625,-0.9903106689453125,-0.021026611328125,0.0025177001953125
1782846384923806000,5.179805908203125,-0.991302490234375,-0.0208892822265625,0.00299072265625
1782846384933811000,5.18981103515625,-0.990264892578125,-0.0218353271484375,0.0018310546875
1782846384943816000,5.19981591796875,-0.9902496337890625,-0.0213470458984375,0.0032196044921875
1782846384953821000,5.209821044921875,-0.9903717041015625,-0.0215301513671875,0.0010528564453125
1782846384963826000,5.219825927734375,-0.9896087646484375,-0.0211639404296875,0.0032501220703125
1782846384973831000,5.229830810546875,-0.9907379150390625,-0.01995849609375,0.0029144287109375
1782846384983836000,5.2398359375,-0.9913787841796875,-0.0218353271484375,0.0030059814453125
1782846384993841000,5.2498408203125,-0.9901580810546875,-0.0217132568359375,0.00146484375
1782846385003846000,5.259845947265625,-0.98968505859375,-0.0218505859375,0.00286865234375
1782846385013851000,5.269850830078125,-0.9908294677734375,-0.0216064453125,0.002044677734375
1782846385023855900,5.27985595703125,-0.9905242919921875,-0.021209716796875,0.0026092529296875
1782846385033860900,5.28986083984375,-0.991546630859375,-0.0214996337890625,0.0029754638671875
1782846385043865900,5.299865966796875,-0.989349365234375,-0.021636962890625,0.0028228759765625
1782846385053870800,5.309870849609375,-0.9894256591796875,-0.02105712890625,0.0023040771484375
1782846385063875800,5.319875732421875,-0.98974609375,-0.02069091796875,0.0032501220703125
1782846385073880800,5.329880859375,-0.9893035888671875,-0.0204620361328125,0.0031585693359375
1782846385083885800,5.3398857421875,-0.990509033203125,-0.022064208984375,0.0039825439453125
1782846385093890800,5.349890869140625,-0.9897003173828125,-0.021942138671875,0.004547119140625
1782846385103895800,5.359895751953125,-0.9905853271484375,-0.0213623046875,0.004547119140625
1782846385113900800,5.36990087890625,-0.991241455078125,-0.020843505859375,0.0044708251953125
1782846385123905800,5.37990576171875,-0.9893798828125,-0.020660400390625,0.0036773681640625
1782846385133910800,5.389910888671875,-0.9906005859375,-0.0210113525390625,0.002105712890625
1782846385143915800,5.399915771484375,-0.9910888671875,-0.0214385986328125,0.001220703125
1782846385153920800,5.409920654296875,-0.99072265625,-0.021453857421875,0.003570556640625
1782846385163925800,5.41992578125,-0.9912872314453125,-0.0215606689453125,0.0026702880859375
1782846385173931000,5.429930908203125,-0.98956298828125,-0.0213775634765625,0.00274658203125
1782846385183936000,5.43993603515625,-0.9912567138671875,-0.0212249755859375,0.0038909912109375
1782846385193941000,5.44994091796875,-0.9900054931640625,-0.0224151611328125,0.002655029296875
1782846385203946000,5.459946044921875,-0.989593505859375,-0.0210113525390625,0.003692626953125
1782846385213951000,5.469950927734375,-0.990631103515625,-0.020233154296875,0.00225830078125
1782846385223956000,5.4799560546875,-0.990386962890625,-0.019805908203125,0.002960205078125
1782846385233961200,5.489961181640625,-0.9910430908203125,-0.019866943359375,0.0050506591796875
1782846385243966200,5.49996630859375,-0.9899139404296875,-0.02166748046875,0.0021514892578125
1782846385253971200,5.50997119140625,-0.99072265625,-0.021240234375,0.00177001953125
1782846385263976200,5.51997607421875,-0.991546630859375,-0.0211029052734375,0.003448486328125
1782846385273981200,5.529981201171875,-0.9914093017578125,-0.0215911865234375,0.001251220703125
1782846385283986200,5.539986083984375,-0.98828125,-0.0212554931640625,0.00372314453125
1782846385293991200,5.5499912109375,-0.9903717041015625,-0.02130126953125,0.0015411376953125
1782846385303996200,5.55999609375,-0.9904937744140625,-0.0210418701171875,0.0020294189453125
1782846385314001200,5.570001220703125,-0.990753173828125,-0.0215606689453125,0.002532958984375
1782846385324006100,5.580006103515625,-0.9914703369140625,-0.020904541015625,0.0032958984375
1782846385334011100,5.59001123046875,-0.9907073974609375,-0.0196380615234375,0.001800537109375
1782846385344016100,5.60001611328125,-0.988983154296875,-0.0209503173828125,0.001800537109375
1782846385354021000,5.610021240234375,-0.9897308349609375,-0.022247314453125,0.003387451171875
1782846385364026000,5.620026123046875,-0.9892425537109375,-0.0202789306640625,0.0021514892578125
1782846385374031000,5.630031005859375,-0.991058349609375,-0.0198822021484375,0.00140380859375
1782846385384036000,5.6400361328125,-0.9915008544921875,-0.0200653076171875,0.0021209716796875
1782846385394041000,5.650041015625,-0.9897308349609375,-0.0195465087890625,0.0025787353515625
1782846385404046000,5.660046142578125,-0.9894256591796875,-0.0218963623046875,0.002899169921875
1782846385414051000,5.670051025390625,-0.989410400390625,-0.0220947265625,0.0042266845703125
1782846385424056000,5.68005615234375,-0.99163818359375,-0.0219879150390625,0.003326416015625
1782846385434061000,5.69006103515625,-0.9911651611328125,-0.02056884765625,0.002105712890625
1782846385444066000,5.700066162109375,-0.9918212890625,-0.0223388671875,0.0019073486328125
1782846385454071000,5.710071044921875,-0.9891815185546875,-0.02252197265625,0.0030364990234375
1782846385464076000,5.720075927734375,-0.9910888671875,-0.0210418701171875,0.0023651123046875
1782846385474081000,5.7300810546875,-0.99029541015625,-0.02166748046875,0.0035858154296875
1782846385484086000,5.7400859375,-0.990692138671875,-0.0219268798828125,0.0036468505859375
1782846385494091000,5.750091064453125,-0.9910736083984375,-0.0201568603515625,0.0026397705078125
1782846385504096000,5.760095947265625,-0.9913330078125,-0.02227783203125,0.0034942626953125
1782846385514101000,5.77010107421875,-0.9891204833984375,-0.021453857421875,0.00408935546875
1782846385524106000,5.78010595703125,-0.990966796875,-0.0219268798828125,0.0029296875
1782846385534111000,5.790111083984375,-0.9904937744140625,-0.020751953125,0.0023651123046875
1782846385544116000,5.800115966796875,-0.9900970458984375,-0.0223236083984375,0.0023193359375
1782846385554121000,5.810120849609375,-0.9900054931640625,-0.021942138671875,0.0034027099609375
1782846385564126000,5.8201259765625,-0.99114990234375,-0.0205230712890625,0.002777099609375
1782846385574131000,5.830130859375,-0.9901580810546875,-0.0211639404296875,0.003448486328125
1782846385584136000,5.840135986328125,-0.9915313720703125,-0.0204010009765625,0.0034942626953125
1782846385594141000,5.850140869140625,-0.99072265625,-0.021270751953125,0.003143310546875
1782846385604146000,5.86014599609375,-0.9903106689453125,-0.0208587646484375,0.002227783203125
1782846385614151000,5.87015087890625,-0.9902801513671875,-0.0208282470703125,0.003326416015625
1782846385624156000,5.880156005859375,-0.9913330078125,-0.0214080810546875,0.00335693359375
1782846385634161000,5.890160888671875,-0.9897003173828125,-0.021820068359375,0.00177001953125
1782846385644166000,5.900165771484375,-0.99151611328125,-0.0218658447265625,0.0008544921875
1782846385654171000,5.9101708984375,-0.9912872314453125,-0.0207977294921875,0.0025177001953125
1782846385664175900,5.92017578125,-0.99066162109375,-0.0206756591796875,0.0027923583984375
1782846385674180900,5.930180908203125,-0.99114990234375,-0.021087646484375,0.0024871826171875
1782846385684185900,5.940185791015625,-0.99127197265625,-0.021453857421875,0.0029296875
1782846385694191000,5.950191162109375,-0.9905853271484375,-0.020050048828125,0.0042724609375
1782846385704196000,5.960196044921875,-0.991302490234375,-0.0215606689453125,0.00128173828125
1782846385714201000,5.970201171875,-0.989837646484375,-0.0216064453125,0.0026702880859375
1782846385724206000,5.9802060546875,-0.9905853271484375,-0.0212249755859375,0.00225830078125
1782846385734211000,5.990211181640625,-0.9890899658203125,-0.02069091796875,0.0032501220703125
1782846385744216000,6.000216064453125,-0.9892425537109375,-0.02178955078125,0.0033111572265625
1782846385754221000,6.010220947265625,-0.990631103515625,-0.0202178955078125,0.00323486328125
1782846385764226000,6.02022607421875,-0.9895477294921875,-0.0215911865234375,0.002899169921875
1782846385774231000,6.03023095703125,-0.9904022216796875,-0.0210723876953125,0.00311279296875
1782846385784236000,6.040236083984375,-0.9896240234375,-0.0218353271484375,0.0036773681640625
1782846385794241000,6.050240966796875,-0.99090576171875,-0.0203399658203125,0.003082275390625
1782846385804246000,6.06024609375,-0.9895172119140625,-0.021240234375,0.002716064453125
1782846385814251000,6.0702509765625,-0.990478515625,-0.02178955078125,0.001953125
1782846385824256000,6.080256103515625,-0.9911956787109375,-0.0213470458984375,0.0028228759765625
1782846385834261000,6.090260986328125,-0.9894561767578125,-0.0211334228515625,0.003997802734375
1782846385844266000,6.100265869140625,-0.9894866943359375,-0.0209197998046875,0.0024261474609375
1782846385854271000,6.11027099609375,-0.990447998046875,-0.0199127197265625,0.00335693359375
1782846385864276000,6.12027587890625,-0.9915313720703125,-0.0222625732421875,0.0040130615234375
1782846385874281000,6.130281005859375,-0.990447998046875,-0.0214385986328125,0.003753662109375
1782846385884286000,6.140285888671875,-0.99005126953125,-0.0205841064453125,0.00238037109375
1782846385894291000,6.150291015625,-0.990966796875,-0.019561767578125,0.0052337646484375
1782846385904296000,6.1602958984375,-0.9903564453125,-0.0215911865234375,0.0026397705078125
1782846385914301000,6.170301025390625,-0.9899139404296875,-0.02313232421875,0.001953125
1782846385924306000,6.180305908203125,-0.9904632568359375,-0.0204925537109375,0.0027618408203125
1782846385934311000,6.190310791015625,-0.9917449951171875,-0.0202484130859375,0.0036468505859375
1782846385944316000,6.20031591796875,-0.989471435546875,-0.021270751953125,0.0018310546875
1782846385954321000,6.21032080078125,-0.9915618896484375,-0.021759033203125,0.0016021728515625
1782846385964326000,6.220325927734375,-0.9911956787109375,-0.02154541015625,0.0017852783203125
1782846385974331000,6.230330810546875,-0.99005126953125,-0.0215301513671875,0.00164794921875
1782846385984336000,6.2403359375,-0.9887847900390625,-0.0209197998046875,0.001556396484375
1782846385994340900,6.2503408203125,-0.990264892578125,-0.02203369140625,0.0018463134765625
1782846386004345900,6.260345947265625,-0.9893798828125,-0.0218505859375,0.002960205078125
1782846386014350800,6.270350830078125,-0.9884185791015625,-0.021392822265625,0.003692626953125
1782846386024355800,6.28035595703125,-0.9901123046875,-0.020416259765625,0.0018463134765625
1782846386034360800,6.29036083984375,-0.989349365234375,-0.0216522216796875,0.0035552978515625
1782846386044365800,6.30036572265625,-0.9898529052734375,-0.022796630859375,0.0016021728515625
1782846386054370800,6.310370849609375,-0.9892120361328125,-0.0231781005859375,0.002777099609375
1782846386064375800,6.320375732421875,-0.9904022216796875,-0.0211639404296875,0.0026397705078125
1782846386074380800,6.330380859375,-0.9919586181640625,-0.0190582275390625,0.0037384033203125
1782846386084385800,6.3403857421875,-0.990509033203125,-0.02105712890625,0.003265380859375
1782846386094390800,6.350390869140625,-0.990570068359375,-0.0211181640625,0.00360107421875
1782846386104396000,6.36039599609375,-0.9915008544921875,-0.021392822265625,0.0032196044921875
1782846386114401000,6.370401123046875,-0.9915313720703125,-0.02197265625,0.0023193359375
1782846386124406000,6.380406005859375,-0.989776611328125,-0.02020263671875,0.0028076171875
1782846386134411000,6.390410888671875,-0.9910125732421875,-0.0220184326171875,0.00274658203125
1782846386144416000,6.400416015625,-0.991912841796875,-0.020599365234375,0.0027313232421875
1782846386154421000,6.4104208984375,-0.9915771484375,-0.021484375,0.0024566650390625
1782846386164426000,6.420426025390625,-0.9913482666015625,-0.0224761962890625,0.0023651123046875
1782846386174431000,6.430430908203125,-0.9908294677734375,-0.022125244140625,0.002685546875
1782846386184436000,6.44043603515625,-0.9913787841796875,-0.021209716796875,0.00244140625
1782846386194441000,6.45044091796875,-0.98944091796875,-0.022003173828125,0.0031890869140625
1782846386204446000,6.460446044921875,-0.9907379150390625,-0.020721435546875,0.0035400390625
1782846386214451200,6.470451171875,-0.9898681640625,-0.0218353271484375,0.0043792724609375
1782846386224456200,6.480456298828125,-0.9911041259765625,-0.020477294921875,0.0035552978515625
1782846386234461200,6.490461181640625,-0.991424560546875,-0.0208282470703125,0.0014801025390625
1782846386244466200,6.500466064453125,-0.9907379150390625,-0.02252197265625,0.00274658203125
1782846386254471200,6.51047119140625,-0.9909515380859375,-0.0212554931640625,0.00274658203125
1782846386264476200,6.52047607421875,-0.99169921875,-0.0226593017578125,0.002716064453125
1782846386274481200,6.530481201171875,-0.9900054931640625,-0.01983642578125,0.0029449462890625
1782846386284486100,6.540486083984375,-0.9903106689453125,-0.02069091796875,0.004547119140625
1782846386294491100,6.5504912109375,-0.9894256591796875,-0.02178955078125,0.002685546875
1782846386304496000,6.56049609375,-0.9906768798828125,-0.0208892822265625,0.0028228759765625
1782846386314501000,6.570501220703125,-0.9906158447265625,-0.022003173828125,0.0021514892578125
1782846386324506000,6.580506103515625,-0.9919891357421875,-0.0219268798828125,0.0010986328125
1782846386334511000,6.590510986328125,-0.9907684326171875,-0.021697998046875,0.0018157958984375
1782846386344516000,6.60051611328125,-0.9914703369140625,-0.021728515625,0.003570556640625
1782846386354521000,6.61052099609375,-0.9915618896484375,-0.0215301513671875,0.0023345947265625
1782846386364526000,6.620526123046875,-0.989715576171875,-0.0206756591796875,0.00299072265625
1782846386374531000,6.630531005859375,-0.9903411865234375,-0.0213165283203125,0.002105712890625
1782846386384536000,6.6405361328125,-0.990570068359375,-0.021759033203125,0.002655029296875
1782846386394541000,6.650541015625,-0.99066162109375,-0.0222015380859375,0.0023193359375
1782846386404546000,6.660546142578125,-0.9899139404296875,-0.0220184326171875,0.0038299560546875
1782846386414551000,6.670551025390625,-0.9901275634765625,-0.02099609375,0.00384521484375
1782846386424556000,6.68055615234375,-0.9896697998046875,-0.02105712890625,0.0017242431640625
1782846386434561000,6.69056103515625,-0.9906005859375,-0.0212554931640625,0.002716064453125
1782846386444566000,6.70056591796875,-0.9910736083984375,-0.021331787109375,0.0044708251953125
1782846386454571000,6.710571044921875,-0.989532470703125,-0.021484375,0.0042266845703125
1782846386464576000,6.720575927734375,-0.989471435546875,-0.0205841064453125,0.0033111572265625
1782846386474581000,6.7305810546875,-0.99078369140625,-0.0214385986328125,0.0030670166015625
1782846386484586000,6.7405859375,-0.9907684326171875,-0.0213470458984375,0.0025177001953125
1782846386494591000,6.750591064453125,-0.99102783203125,-0.021148681640625,0.0017852783203125
1782846386504596000,6.760595947265625,-0.9916229248046875,-0.021453857421875,0.003204345703125
1782846386514601000,6.77060107421875,-0.98895263671875,-0.0206146240234375,0.0038909912109375
1782846386524606000,6.78060595703125,-0.9897308349609375,-0.022186279296875,0.00335693359375
1782846386534611000,6.79061083984375,-0.990081787109375,-0.0228729248046875,0.0008544921875
1782846386544616000,6.800615966796875,-0.9893646240234375,-0.0207672119140625,0.0036163330078125
1782846386554621000,6.810620849609375,-0.9900970458984375,-0.02069091796875,0.00390625
1782846386564626000,6.8206259765625,-0.9890899658203125,-0.0218048095703125,0.0047454833984375
1782846386574631000,6.830630859375,-0.990631103515625,-0.02044677734375,0.0026702880859375
1782846386584636000,6.840635986328125,-0.99176025390625,-0.020599365234375,0.0018310546875
1782846386594641000,6.850640869140625,-0.9918365478515625,-0.0225067138671875,0.0028839111328125
1782846386604646000,6.86064599609375,-0.99102783203125,-0.020050048828125,0.0024566650390625
1782846386614651000,6.87065087890625,-0.990264892578125,-0.0206298828125,0.0023956298828125
1782846386624656000,6.88065576171875,-0.9893798828125,-0.0205841064453125,0.0016937255859375
1782846386634660900,6.890660888671875,-0.990386962890625,-0.021759033203125,0.003814697265625
1782846386644665900,6.900665771484375,-0.9910736083984375,-0.0205078125,0.0041351318359375
1782846386654670000,6.910670166015625,-0.98980712890625,-0.020904541015625,0.003936767578125
1782846386664674300,6.92067431640625,-0.9897613525390625,-0.02301025390625,0.0020599365234375
1782846386674679300,6.93067919921875,-0.989715576171875,-0.0214080810546875,0.0021209716796875
1782846386684684300,6.940684326171875,-0.9891357421875,-0.021575927734375,0.0028839111328125
1782846386694689300,6.950689208984375,-0.99053955078125,-0.0206146240234375,0.001312255859375
1782846386704694300,6.9606943359375,-0.99078369140625,-0.0214691162109375,0.0018768310546875
1782846386714699300,6.97069921875,-0.9911956787109375,-0.0211944580078125,0.0017852783203125
1782846386724704300,6.980704345703125,-0.98974609375,-0.0221099853515625,0.00238037109375
1782846386734709200,6.990709228515625,-0.9899139404296875,-0.019927978515625,0.0023651123046875
1782846386744714200,7.00071435546875,-0.9895782470703125,-0.0211029052734375,0.001312255859375
1782846386754719200,7.01071923828125,-0.991180419921875,-0.0215911865234375,-0.000030517578125
1782846386764724200,7.02072412109375,-0.9904632568359375,-0.0210113525390625,0.0042877197265625
1782846386774729200,7.030729248046875,-0.991546630859375,-0.022552490234375,0.001922607421875
1782846386784734200,7.040734130859375,-0.991363525390625,-0.020477294921875,0.0052490234375
1782846386794739200,7.0507392578125,-0.9915771484375,-0.021331787109375,0.003631591796875
1782846386804744200,7.060744140625,-0.9897918701171875,-0.022552490234375,0.0016326904296875
1782846386814749200,7.070749267578125,-0.9907684326171875,-0.0207977294921875,0.0051116943359375
1782846386824754200,7.080754150390625,-0.9906463623046875,-0.0212249755859375,0.00311279296875
1782846386834759200,7.09075927734375,-0.991943359375,-0.0217742919921875,0.0042877197265625
1782846386844764200,7.10076416015625,-0.989044189453125,-0.0211334228515625,0.0028076171875
1782846386854769200,7.11076904296875,-0.991241455078125,-0.0206756591796875,0.003082275390625
1782846386864774100,7.120774169921875,-0.9916839599609375,-0.0218048095703125,0.0026397705078125
1782846386874779100,7.130779052734375,-0.988525390625,-0.0219268798828125,0.00335693359375
1782846386884784000,7.1407841796875,-0.9898681640625,-0.0201568603515625,0.00286865234375
1782846386894789000,7.1507890625,-0.9911651611328125,-0.0205841064453125,0.0028533935546875
1782846386904794000,7.160794189453125,-0.9906158447265625,-0.0206298828125,0.00299072265625
1782846386914799000,7.170799072265625,-0.9903106689453125,-0.0213165283203125,0.0035247802734375
1782846386924804000,7.18080419921875,-0.990875244140625,-0.020538330078125,0.00341796875
1782846386934809000,7.19080908203125,-0.990264892578125,-0.0213775634765625,0.0023040771484375
1782846386944814000,7.20081396484375,-0.9915924072265625,-0.02130126953125,0.003204345703125
1782846386954819300,7.2108193359375,-0.9907989501953125,-0.021453857421875,0.0035858154296875
1782846386964824300,7.22082421875,-0.9908599853515625,-0.0212554931640625,0.0022125244140625
1782846386974829300,7.230829345703125,-0.9898681640625,-0.0220489501953125,0.0027008056640625
1782846386984834600,7.24083447265625,-0.9902191162109375,-0.020721435546875,0.0030975341796875
1782846386994839600,7.250839599609375,-0.9895782470703125,-0.0222930908203125,0.00360107421875
1782846387004844500,7.260844482421875,-0.9891204833984375,-0.022369384765625,0.0034942626953125
1782846387014849500,7.270849609375,-0.9897308349609375,-0.02117919921875,0.0019378662109375
1782846387024854500,7.2808544921875,-0.9908447265625,-0.0207366943359375,0.001251220703125
1782846387034859500,7.290859619140625,-0.991668701171875,-0.0215301513671875,0.00262451171875
1782846387044864500,7.300864501953125,-0.9913787841796875,-0.0218963623046875,0.0012054443359375
1782846387054869500,7.310869384765625,-0.9900054931640625,-0.0211029052734375,0.0031890869140625
1782846387064874500,7.32087451171875,-0.9911651611328125,-0.0208587646484375,0.0018157958984375
1782846387074879500,7.33087939453125,-0.9897308349609375,-0.0216522216796875,0.00408935546875
1782846387084884500,7.340884521484375,-0.9888763427734375,-0.0215301513671875,0.0023956298828125
1782846387094889500,7.350889404296875,-0.99072265625,-0.0228118896484375,0.0025482177734375
1782846387104894500,7.36089453125,-0.9915618896484375,-0.0226593017578125,0.003326416015625
1782846387114899500,7.3708994140625,-0.99169921875,-0.021331787109375,0.003173828125
1782846387124904400,7.380904541015625,-0.9903717041015625,-0.021087646484375,0.003387451171875
1782846387134909400,7.390909423828125,-0.989166259765625,-0.0216217041015625,0.002044677734375
1782846387144914400,7.40091455078125,-0.989654541015625,-0.020355224609375,0.00225830078125
1782846387154919400,7.41091943359375,-0.9903717041015625,-0.02044677734375,0.003173828125
1782846387164924400,7.42092431640625,-0.9903106689453125,-0.021942138671875,0.00439453125
1782846387174929400,7.430929443359375,-0.991485595703125,-0.022003173828125,0.0018768310546875
1782846387184934400,7.440934326171875,-0.990753173828125,-0.021575927734375,0.0035858154296875
1782846387194939400,7.450939453125,-0.9899139404296875,-0.0211029052734375,0.0017242431640625
1782846387204944400,7.4609443359375,-0.990234375,-0.02276611328125,0.0034332275390625
1782846387214949400,7.470949462890625,-0.99249267578125,-0.02203369140625,0.00421142578125
1782846387224954400,7.480954345703125,-0.991729736328125,-0.0218353271484375,0.0016632080078125
1782846387234959400,7.49095947265625,-0.9908447265625,-0.0216217041015625,0.0012969970703125
1782846387244964400,7.50096435546875,-0.9906005859375,-0.0221405029296875,0.0023040771484375
1782846387254969300,7.51096923828125,-0.9908294677734375,-0.0214080810546875,0.00360107421875
1782846387264974300,7.520974365234375,-0.9892730712890625,-0.0209808349609375,0.0029296875
1782846387274979300,7.530979248046875,-0.9897918701171875,-0.0223541259765625,0.0033416748046875
1782846387284984300,7.540984375,-0.9906005859375,-0.0216217041015625,0.0031890869140625
1782846387294989300,7.5509892578125,-0.9911346435546875,-0.021728515625,0.003570556640625
1782846387304994300,7.560994384765625,-0.9915008544921875,-0.021820068359375,0.0020294189453125
1782846387314999300,7.570999267578125,-0.989990234375,-0.0205535888671875,0.00286865234375
1782846387325004300,7.58100439453125,-0.98919677734375,-0.0220947265625,0.002410888671875
1782846387335009300,7.59100927734375,-0.9910125732421875,-0.0211944580078125,0.0018768310546875
1782846387345014300,7.60101416015625,-0.9899139404296875,-0.0225677490234375,0.0043792724609375
1782846387355019300,7.611019287109375,-0.9906768798828125,-0.0225372314453125,0.0027923583984375
1782846387365023500,7.6210234375,-0.990020751953125,-0.0205230712890625,0.0020599365234375
1782846387375029200,7.631029296875,-0.991546630859375,-0.0211181640625,0.003173828125
1782846387385033500,7.641033447265625,-0.98992919921875,-0.0217742919921875,0.0034942626953125
1782846387395038500,7.65103857421875,-0.9894561767578125,-0.0214691162109375,0.0038299560546875
1782846387405043500,7.66104345703125,-0.991119384765625,-0.0202789306640625,0.002716064453125
1782846387415048400,7.67104833984375,-0.9895782470703125,-0.020965576171875,0.0017852783203125
1782846387425053400,7.681053466796875,-0.9902496337890625,-0.022216796875,0.001556396484375
1782846387435058400,7.691058349609375,-0.990325927734375,-0.02142333984375,0.0009765625
1782846387445063400,7.7010634765625,-0.9908905029296875,-0.02069091796875,0.0023956298828125
1782846387455068400,7.711068359375,-0.9912261962890625,-0.0223541259765625,0.001922607421875
1782846387465073400,7.721073486328125,-0.99127197265625,-0.022064208984375,0.003265380859375
1782846387475078400,7.731078369140625,-0.9908599853515625,-0.0209503173828125,0.00323486328125
1782846387485083400,7.74108349609375,-0.98931884765625,-0.020599365234375,0.00225830078125
1782846387495088400,7.75108837890625,-0.9903564453125,-0.02093505859375,0.002899169921875
1782846387505093400,7.76109326171875,-0.9901123046875,-0.021270751953125,0.002777099609375
1782846387515098400,7.771098388671875,-0.990447998046875,-0.0217437744140625,0.002655029296875
1782846387525103400,7.781103271484375,-0.9905242919921875,-0.020965576171875,0.0033416748046875
1782846387535108400,7.7911083984375,-0.9900970458984375,-0.0219573974609375,0.0041656494140625
1782846387545113300,7.80111328125,-0.9911956787109375,-0.02227783203125,0.0030517578125
1782846387555118300,7.811118408203125,-0.990081787109375,-0.02117919921875,0.00408935546875
1782846387565123300,7.821123291015625,-0.9902496337890625,-0.0208282470703125,0.0034332275390625
1782846387575128300,7.83112841796875,-0.990936279296875,-0.021087646484375,0.002655029296875
1782846387585133300,7.84113330078125,-0.98944091796875,-0.0211944580078125,0.00341796875
1782846387595138300,7.85113818359375,-0.9906463623046875,-0.021392822265625,0.0033416748046875
1782846387605143300,7.861143310546875,-0.9913177490234375,-0.0213165283203125,0.0017242431640625
1782846387615148300,7.871148193359375,-0.9912109375,-0.0209503173828125,0.002166748046875
1782846387625153300,7.8811533203125,-0.9924163818359375,-0.0214385986328125,0.003082275390625
1782846387635158300,7.891158203125,-0.989959716796875,-0.022705078125,0.00244140625
1782846387645163300,7.901163330078125,-0.9906158447265625,-0.0211944580078125,0.0034027099609375
1782846387655168300,7.911168212890625,-0.9904022216796875,-0.0216827392578125,0.00189208984375
1782846387665174300,7.92117431640625,-0.990509033203125,-0.021331787109375,0.0010528564453125
1782846387675179300,7.93117919921875,-0.991546630859375,-0.02081298828125,0.00213623046875
1782846387685184300,7.941184326171875,-0.9910125732421875,-0.0213470458984375,0.003692626953125
1782846387695189200,7.951189208984375,-0.991668701171875,-0.0222015380859375,0.002471923828125
1782846387705194200,7.9611943359375,-0.99066162109375,-0.021148681640625,0.0021514892578125
1782846387715199200,7.97119921875,-0.990631103515625,-0.02093505859375,0.0027008056640625
1782846387725204200,7.981204345703125,-0.990203857421875,-0.0207366943359375,0.002593994140625
1782846387735209200,7.991209228515625,-0.9899139404296875,-0.02008056640625,0.003631591796875
1782846387745214200,8.001214111328125,-0.9900360107421875,-0.0208587646484375,0.0032196044921875
1782846387755219200,8.01121923828125,-0.99188232421875,-0.021148681640625,0.00262451171875
1782846387765224200,8.02122412109375,-0.9917144775390625,-0.02130126953125,0.0031890869140625
1782846387775229200,8.031229248046875,-0.991729736328125,-0.02166748046875,0.003570556640625
1782846387785234200,8.041234130859374,-0.989501953125,-0.0208587646484375,0.0047607421875
1782846387795239200,8.0512392578125,-0.98919677734375,-0.0210418701171875,0.00360107421875
1782846387805244200,8.061244140625,-0.9894866943359375,-0.021392822265625,0.0038604736328125
1782846387815249200,8.071249267578125,-0.9909210205078125,-0.021881103515625,0.0026702880859375
1782846387825254100,8.081254150390626,-0.9906768798828125,-0.020233154296875,0.0029754638671875
1782846387835259400,8.09125927734375,-0.990753173828125,-0.01995849609375,0.0030364990234375
1782846387845264400,8.101264404296876,-0.991607666015625,-0.0212554931640625,0.003631591796875
1782846387855269400,8.111269287109375,-0.990509033203125,-0.0205230712890625,0.0015716552734375
1782846387865274400,8.1212744140625,-0.9913330078125,-0.0205078125,0.003082275390625
1782846387875279400,8.131279296875,-0.99041748046875,-0.0206298828125,0.002899169921875
1782846387885283300,8.141283447265625,-0.9906005859375,-0.0219268798828125,0.0022735595703125
1782846387895288300,8.151288330078126,-0.9899749755859375,-0.0218658447265625,0.0016632080078125
1782846387905293300,8.161293212890625,-0.9900665283203125,-0.0211029052734375,0.0024871826171875
1782846387915298300,8.17129833984375,-0.989288330078125,-0.0218963623046875,0.0029754638671875
1782846387925303300,8.18130322265625,-0.9898834228515625,-0.021759033203125,0.004302978515625
1782846387935308300,8.191308349609375,-0.9899139404296875,-0.02197265625,0.0030670166015625
1782846387945313300,8.201313232421874,-0.990325927734375,-0.021575927734375,0.0039215087890625
1782846387955318300,8.211318359375,-0.991058349609375,-0.0217437744140625,0.002899169921875
1782846387965323300,8.2213232421875,-0.9911346435546875,-0.0211029052734375,0.0029144287109375
1782846387975328300,8.231328369140625,-0.99053955078125,-0.021270751953125,0.002960205078125
1782846387985333200,8.241333251953124,-0.99139404296875,-0.02093505859375,0.00408935546875
1782846387995338200,8.251338134765625,-0.990203857421875,-0.0214080810546875,0.0018310546875
1782846388005343500,8.261343505859376,-0.9904327392578125,-0.0215911865234375,0.00244140625
1782846388015348500,8.271348388671875,-0.989715576171875,-0.0206451416015625,0.0040435791015625
1782846388025353500,8.281353515625,-0.991424560546875,-0.02020263671875,0.0035247802734375
1782846388035358500,8.2913583984375,-0.990631103515625,-0.0211029052734375,0.00408935546875
1782846388045363500,8.301363525390625,-0.990081787109375,-0.0211944580078125,0.00390625
1782846388055368400,8.311368408203125,-0.9926910400390625,-0.02056884765625,0.004302978515625
1782846388065373400,8.32137353515625,-0.9914703369140625,-0.0205841064453125,0.00469970703125
1782846388075378400,8.33137841796875,-0.989227294921875,-0.0215301513671875,0.003265380859375
1782846388085383400,8.341383544921875,-0.9920501708984375,-0.0225677490234375,0.0037841796875
1782846388095388400,8.351388427734374,-0.99102783203125,-0.0215301513671875,0.001861572265625
1782846388105393400,8.361393310546875,-0.9906005859375,-0.02203369140625,0.0012664794921875
1782846388115398400,8.3713984375,-0.98992919921875,-0.02215576171875,0.0027313232421875
1782846388125403400,8.3814033203125,-0.9900054931640625,-0.0212554931640625,0.0024871826171875
1782846388135408400,8.391408447265626,-0.9900054931640625,-0.021240234375,0.0015716552734375
1782846388145413400,8.401413330078125,-0.9916534423828125,-0.0194854736328125,0.002960205078125
1782846388155418400,8.41141845703125,-0.9908447265625,-0.020263671875,0.0034027099609375
1782846388165423400,8.42142333984375,-0.9903564453125,-0.0219268798828125,0.003265380859375
1782846388175428400,8.431428466796875,-0.991546630859375,-0.0207672119140625,0.00213623046875
1782846388185433300,8.441433349609374,-0.9907989501953125,-0.0212860107421875,0.003173828125
1782846388195438300,8.451438232421875,-0.990142822265625,-0.0197906494140625,0.0049591064453125
1782846388205443300,8.461443359375,-0.98919677734375,-0.0205841064453125,0.00323486328125
1782846388215448300,8.4714482421875,-0.99041748046875,-0.0215606689453125,0.002288818359375
1782846388225453300,8.481453369140626,-0.9898223876953125,-0.0219573974609375,0.0019073486328125
1782846388235458300,8.491458251953125,-0.9899444580078125,-0.021331787109375,0.0040740966796875
1782846388245463300,8.50146337890625,-0.9906463623046875,-0.020843505859375,0.00421142578125
1782846388255468300,8.51146826171875,-0.98907470703125,-0.0216217041015625,0.000823974609375
1782846388265473300,8.521473388671875,-0.990936279296875,-0.0212249755859375,0.003631591796875
1782846388275478300,8.531478271484374,-0.99176025390625,-0.0220184326171875,0.0016021728515625
1782846388285483300,8.541483154296875,-0.990875244140625,-0.0206146240234375,0.002471923828125
1782846388295488300,8.55148828125,-0.989501953125,-0.0217132568359375,0.0041351318359375
1782846388305493200,8.5614931640625,-0.9904022216796875,-0.0226287841796875,0.003509521484375
1782846388315497500,8.57149755859375,-0.9902801513671875,-0.0214385986328125,0.0040130615234375
1782846388325502500,8.58150244140625,-0.98931884765625,-0.0224609375,0.0033721923828125
1782846388335507500,8.591507568359376,-0.9892578125,-0.0226593017578125,0.00323486328125
1782846388345512400,8.601512451171875,-0.9908599853515625,-0.021270751953125,0.00244140625
1782846388355517400,8.611517333984375,-0.9900360107421875,-0.0222625732421875,0.0023193359375
1782846388365522400,8.6215224609375,-0.990081787109375,-0.0234375,0.0017242431640625
1782846388375527400,8.63152734375,-0.9900360107421875,-0.02264404296875,0.0035400390625
1782846388385532400,8.641532470703124,-1.042083740234375,-0.0226287841796875,-0.00830078125
1782846388395537400,8.651537353515625,-0.9344635009765625,-0.020843505859375,0.017608642578125
1782846388405542400,8.66154248046875,-0.989959716796875,-0.0218505859375,0.0005035400390625
1782846388415547400,8.67154736328125,-0.991180419921875,-0.0226593017578125,0.007080078125
1782846388425552400,8.681552490234376,-0.9645233154296875,-0.0225830078125,0.006500244140625
1782846388435557400,8.691557373046875,-0.9871063232421875,-0.0226287841796875,0.0061187744140625
