time,seconds_elapsed,z,y,x
1782846859782150100,0.066150146484375,-1.447723388671875,-1.11334228515625,0.076385498046875
1782846859792155400,0.0761552734375,-1.5796966552734375,-1.15643310546875,0.063323974609375
1782846859802159400,0.086159423828125,-1.895111083984375,-1.1238555908203125,0.117950439453125
1782846859812164400,0.096164306640625,-2.285186767578125,-1.0109710693359375,0.2303619384765625
1782846859822169300,0.10616943359375,-2.5787811279296875,-0.816436767578125,0.379486083984375
1782846859832174300,0.11617431640625,-2.665496826171875,-0.63818359375,0.479461669921875
1782846859842178000,0.126177978515625,-2.630523681640625,-0.546356201171875,0.5106048583984375
1782846859852183000,0.13618310546875,-2.49737548828125,-0.4811553955078125,0.4812469482421875
1782846859862188000,0.14618798828125,-2.2444000244140625,-0.453948974609375,0.5106353759765625
1782846859872193000,0.156193115234375,-1.98370361328125,-0.41094970703125,0.4091644287109375
1782846859882198300,0.1661982421875,-1.741424560546875,-0.3865966796875,0.3010406494140625
1782846859892202500,0.176202392578125,-1.4563751220703125,-0.33258056640625,0.1741790771484375
1782846859902207500,0.18620751953125,-1.1574859619140625,-0.30694580078125,0.0934600830078125
1782846859912212500,0.19621240234375,-0.8538055419921875,-0.26983642578125,0.0500030517578125
1782846859922217500,0.206217529296875,-0.567047119140625,-0.2321929931640625,0.0104522705078125
1782846859932222500,0.216222412109375,-0.3479766845703125,-0.1855621337890625,-0.0005035400390625
1782846859942226400,0.226226318359375,-0.1997222900390625,-0.14013671875,-0.007293701171875
1782846859952231400,0.2362314453125,-0.131744384765625,-0.103790283203125,-0.0106353759765625
1782846859962236400,0.246236328125,-0.1296539306640625,-0.0609588623046875,-0.0006103515625
1782846859972241400,0.256241455078125,-0.1157989501953125,-0.0019989013671875,0.0208892822265625
1782846859982246400,0.266246337890625,-0.1051483154296875,0.0522918701171875,0.0239105224609375
1782846859992250400,0.27625048828125,-0.12579345703125,0.1070709228515625,0.0221099853515625
1782846860002255400,0.28625537109375,-0.15130615234375,0.151336669921875,0.0185546875
1782846860012260400,0.29626025390625,-0.1526641845703125,0.1834564208984375,0.017578125
1782846860022265300,0.306265380859375,-0.1316680908203125,0.19464111328125,0.013671875
1782846860032270300,0.316270263671875,-0.0960235595703125,0.1708221435546875,-0.0082244873046875
1782846860042274300,0.3262744140625,-0.0526580810546875,0.129425048828125,-0.02581787109375
1782846860052279300,0.336279296875,-0.0179595947265625,0.0911407470703125,-0.0248565673828125
1782846860062284300,0.3462841796875,-0.0003814697265625,0.049713134765625,-0.025482177734375
1782846860072289300,0.356289306640625,0.01904296875,0.007568359375,-0.0351104736328125
1782846860082294300,0.366294189453125,0.0272216796875,-0.0156707763671875,-0.0431060791015625
1782846860092298200,0.37629833984375,0.037567138671875,-0.029022216796875,-0.0363006591796875
1782846860102303200,0.38630322265625,0.056396484375,-0.0318603515625,-0.0309600830078125
1782846860112308200,0.39630810546875,0.0657958984375,-0.0365142822265625,-0.0254364013671875
1782846860122313200,0.406313232421875,0.0320587158203125,-0.0322418212890625,-0.0213623046875
1782846860132318200,0.416318115234375,-0.024322509765625,-0.0159912109375,-0.03802490234375
1782846860142322200,0.426322265625,-0.061126708984375,-0.008575439453125,-0.0416412353515625
1782846860152327400,0.436327392578125,-0.071868896484375,-0.0185089111328125,-0.01275634765625
1782846860162332400,0.44633251953125,-0.0858612060546875,-0.0351104736328125,0.0341796875
1782846860172337400,0.45633740234375,-0.1171722412109375,-0.0589752197265625,0.05596923828125
1782846860182341400,0.46634130859375,-0.190460205078125,-0.0883636474609375,0.049163818359375
1782846860192346400,0.476346435546875,-0.3410186767578125,-0.1291656494140625,0.024169921875
1782846860202351400,0.486351318359375,-0.54669189453125,-0.2020721435546875,0.0025787353515625
1782846860212356400,0.4963564453125,-0.77301025390625,-0.2822113037109375,0.0325775146484375
1782846860222361300,0.506361328125,-0.999725341796875,-0.3321075439453125,0.07147216796875
1782846860232365300,0.516365234375,-1.2472076416015625,-0.353424072265625,0.0835113525390625
1782846860242370300,0.526370361328125,-1.49554443359375,-0.38677978515625,0.09576416015625
1782846860252375300,0.536375244140625,-1.6915130615234375,-0.4639892578125,0.153656005859375
1782846860262380300,0.54638037109375,-1.8164520263671875,-0.575347900390625,0.2266845703125
1782846860272385300,0.55638525390625,-1.84429931640625,-0.6464691162109375,0.2856292724609375
1782846860282389500,0.566389404296875,-1.9076995849609375,-0.66851806640625,0.293212890625
1782846860292394500,0.57639453125,-2.294158935546875,-0.7545166015625,0.270050048828125
1782846860302399500,0.5863994140625,-2.8145294189453125,-0.65057373046875,0.352386474609375
1782846860312404500,0.596404541015625,-2.9711151123046875,-0.250274658203125,0.5636444091796875
1782846860322409500,0.606409423828125,-2.815338134765625,0.1773223876953125,0.734375
1782846860332413400,0.616413330078125,-2.67205810546875,0.337860107421875,0.7064056396484375
1782846860342418400,0.62641845703125,-2.508056640625,0.2677001953125,0.5347747802734375
1782846860352423400,0.63642333984375,-2.235015869140625,0.0378265380859375,0.3179168701171875
1782846860362428400,0.646428466796875,-1.7906494140625,-0.371124267578125,0.103515625
1782846860372433400,0.656433349609375,-1.2171630859375,-0.805145263671875,0.0224609375
1782846860382437000,0.66643701171875,-0.7172698974609375,-0.9794769287109375,0.1025390625
1782846860392442000,0.676442138671875,-0.500762939453125,-0.8756103515625,0.2283172607421875
1782846860402447000,0.686447021484375,-0.5777435302734375,-0.67877197265625,0.3089752197265625
1782846860412452400,0.696452392578125,-0.75518798828125,-0.4969635009765625,0.328155517578125
1782846860422457300,0.706457275390625,-0.8871612548828125,-0.3368072509765625,0.330230712890625
1782846860432461300,0.71646142578125,-0.969696044921875,-0.18359375,0.35321044921875
1782846860442466300,0.72646630859375,-1.018402099609375,-0.0559234619140625,0.3384552001953125
1782846860452471300,0.73647119140625,-0.981536865234375,0.025299072265625,0.289642333984375
1782846860462476300,0.746476318359375,-0.8851318359375,0.061309814453125,0.231719970703125
1782846860472481300,0.756481201171875,-0.7738037109375,0.065765380859375,0.176116943359375
1782846860482485200,0.7664853515625,-0.6285247802734375,0.0389862060546875,0.122772216796875
1782846860492490200,0.776490234375,-0.4802093505859375,-0.000091552734375,0.0910797119140625
1782846860502495200,0.7864951171875,-0.37255859375,-0.0359954833984375,0.08709716796875
1782846860512500200,0.796500244140625,-0.287811279296875,-0.052978515625,0.068359375
1782846860522504400,0.80650439453125,-0.2341156005859375,-0.0608978271484375,0.033355712890625
1782846860532509400,0.816509521484375,-0.1947174072265625,-0.0579681396484375,0.0043792724609375
1782846860542514400,0.826514404296875,-0.1680145263671875,-0.0611724853515625,-0.0262451171875
1782846860552519400,0.83651953125,-0.1800537109375,-0.085296630859375,-0.045379638671875
1782846860562524400,0.8465244140625,-0.21612548828125,-0.1103973388671875,-0.0530548095703125
1782846860572528400,0.8565283203125,-0.27178955078125,-0.1387176513671875,-0.0352325439453125
1782846860582533400,0.866533447265625,-0.321533203125,-0.1681060791015625,-0.01019287109375
1782846860592538400,0.876538330078125,-0.3526458740234375,-0.178192138671875,0.0460968017578125
1782846860602543400,0.88654345703125,-0.3817138671875,-0.173095703125,0.1240234375
1782846860612548400,0.89654833984375,-0.44512939453125,-0.1576080322265625,0.16082763671875
1782846860622552300,0.90655224609375,-0.549560546875,-0.107818603515625,0.1660308837890625
1782846860632557300,0.916557373046875,-0.6305999755859375,-0.03338623046875,0.1697235107421875
1782846860642562300,0.926562255859375,-0.686126708984375,0.0334625244140625,0.154022216796875
1782846860652567300,0.9365673828125,-0.7456817626953125,0.0834197998046875,0.1252899169921875
1782846860662572300,0.946572265625,-0.786590576171875,0.1150054931640625,0.0865936279296875
1782846860672576500,0.956576416015625,-0.82391357421875,0.1217041015625,0.0534820556640625
1782846860682581500,0.96658154296875,-0.8680877685546875,0.099273681640625,0.0366668701171875
1782846860692586500,0.97658642578125,-0.9104156494140625,0.0452423095703125,0.0369720458984375
1782846860702591500,0.986591552734375,-0.950592041015625,-0.0190277099609375,0.0662384033203125
1782846860712596500,0.996596435546875,-1.0387115478515625,-0.0942840576171875,0.103179931640625
1782846860722600400,1.006600341796875,-1.162750244140625,-0.1953125,0.1209716796875
1782846860732605400,1.01660546875,-1.2696533203125,-0.301788330078125,0.13311767578125
1782846860742610400,1.0266103515625,-1.4148406982421875,-0.4130859375,0.15924072265625
1782846860752615400,1.036615478515625,-1.6218109130859375,-0.5269775390625,0.21282958984375
1782846860762620400,1.046620361328125,-1.835968017578125,-0.6143035888671875,0.3278656005859375
1782846860772624100,1.0566240234375,-1.999114990234375,-0.6956634521484375,0.478912353515625
1782846860782629400,1.06662939453125,-2.158782958984375,-0.78265380859375,0.550506591796875
1782846860792634400,1.07663427734375,-2.341156005859375,-0.835906982421875,0.55792236328125
1782846860802639400,1.086639404296875,-2.5443878173828125,-0.8124847412109375,0.573394775390625
1782846860812644400,1.096644287109375,-2.7458953857421875,-0.746551513671875,0.5773773193359375
1782846860822648300,1.1066484375,-2.900726318359375,-0.6691131591796875,0.5178375244140625
1782846860832653300,1.1166533203125,-2.95556640625,-0.6037445068359375,0.394500732421875
1782846860842658300,1.126658203125,-2.8962249755859375,-0.5630340576171875,0.2489013671875
1782846860852663300,1.136663330078125,-2.724456787109375,-0.54266357421875,0.108062744140625
1782846860862667300,1.146667236328125,-2.50714111328125,-0.5084991455078125,0.03131103515625
1782846860872672300,1.15667236328125,-2.246246337890625,-0.4329376220703125,0.02813720703125
1782846860882677800,1.166677734375,-1.9318695068359375,-0.3364410400390625,0.0451507568359375
1782846860892682800,1.176682861328125,-1.59173583984375,-0.258056640625,0.0318756103515625
1782846860902687700,1.186687744140625,-1.2743988037109375,-0.1896514892578125,0.0057373046875
1782846860912691700,1.196691650390625,-0.998626708984375,-0.129638671875,-0.028900146484375
1782846860922696700,1.20669677734375,-0.7669525146484375,-0.0933837890625,-0.072265625
1782846860932702000,1.216701904296875,-0.573394775390625,-0.07598876953125,-0.111358642578125
1782846860942707000,1.22670703125,-0.402496337890625,-0.074188232421875,-0.1358489990234375
1782846860952712000,1.2367119140625,-0.2469940185546875,-0.0674285888671875,-0.141937255859375
1782846860962716000,1.2467158203125,-0.1192626953125,-0.064239501953125,-0.14373779296875
1782846860972721000,1.256720947265625,-0.017486572265625,-0.0645599365234375,-0.1384735107421875
1782846860982726000,1.266725830078125,0.0627593994140625,-0.0575408935546875,-0.1280517578125
1782846860992731000,1.27673095703125,0.121246337890625,-0.0356903076171875,-0.102325439453125
1782846861002735900,1.28673583984375,0.1548614501953125,-0.003387451171875,-0.0625152587890625
1782846861012739600,1.296739501953125,0.1860809326171875,0.0229034423828125,-0.0259552001953125
1782846861022744600,1.30674462890625,0.2055511474609375,0.0408477783203125,0.019134521484375
1782846861032749600,1.31674951171875,0.2050018310546875,0.050689697265625,0.043212890625
1782846861042754600,1.326754638671875,0.2113037109375,0.0557861328125,0.051788330078125
1782846861052759600,1.336759521484375,0.21856689453125,0.0384674072265625,0.0469207763671875
1782846861062763800,1.346763671875,0.242584228515625,-0.000640869140625,0.03753662109375
1782846861072768800,1.356768798828125,0.2861175537109375,-0.0357666015625,0.027435302734375
1782846861082773800,1.366773681640625,0.3352203369140625,-0.067352294921875,0.0345001220703125
1782846861092778800,1.37677880859375,0.3724212646484375,-0.10101318359375,0.0440673828125
1782846861102783700,1.38678369140625,0.38897705078125,-0.118072509765625,0.0652313232421875
1782846861112787700,1.39678759765625,0.3792877197265625,-0.099334716796875,0.10205078125
1782846861122792700,1.406792724609375,0.3076171875,-0.0720367431640625,0.1162109375
1782846861132797700,1.416797607421875,0.214263916015625,-0.03741455078125,0.1026458740234375
1782846861142802700,1.426802734375,0.145660400390625,0.0105438232421875,0.0770263671875
1782846861152807700,1.4368076171875,0.0934295654296875,0.0395965576171875,0.0683135986328125
1782846861162811600,1.446811767578125,0.0475311279296875,0.0601348876953125,0.046722412109375
1782846861172816600,1.456816650390625,0.003814697265625,0.088470458984375,0.0302276611328125
1782846861182821600,1.466821533203125,-0.0558013916015625,0.1092376708984375,0.0085906982421875
1782846861192826600,1.47682666015625,-0.1535186767578125,0.10980224609375,-0.0034942626953125
1782846861202830800,1.486830810546875,-0.2884674072265625,0.0818634033203125,0.003631591796875
1782846861212835800,1.4968359375,-0.494537353515625,0.0417633056640625,0.0117645263671875
1782846861222840800,1.5068408203125,-0.8156890869140625,0.0050811767578125,-0.018280029296875
1782846861232845800,1.516845703125,-1.2186279296875,-0.045166015625,-0.0665740966796875
1782846861242850800,1.526850830078125,-1.551971435546875,-0.0966644287109375,-0.0472869873046875
1782846861252854800,1.536854736328125,-1.75494384765625,-0.12835693359375,0.0611724853515625
1782846861262859800,1.54685986328125,-1.8958587646484375,-0.1483612060546875,0.194366455078125
1782846861272864800,1.55686474609375,-2.1165008544921875,-0.27008056640625,0.29248046875
1782846861282869800,1.566869873046875,-2.255401611328125,-0.476318359375,0.3516693115234375
1782846861292874800,1.576874755859375,-2.1510467529296875,-0.63641357421875,0.4031219482421875
1782846861302879000,1.58687890625,-2.11651611328125,-0.925506591796875,0.431610107421875
1782846861312884000,1.596884033203125,-2.3365478515625,-1.042938232421875,0.5032501220703125
1782846861322889000,1.606888916015625,-2.537750244140625,-0.8369140625,0.5913848876953125
1782846861332894000,1.61689404296875,-2.6535797119140625,-0.5896453857421875,0.62347412109375
1782846861342899000,1.62689892578125,-2.706634521484375,-0.43798828125,0.592437744140625
1782846861352902700,1.636902587890625,-2.6622314453125,-0.3355712890625,0.50738525390625
1782846861362907600,1.64690771484375,-2.5135040283203125,-0.291717529296875,0.378173828125
1782846861372912600,1.65691259765625,-2.292388916015625,-0.350433349609375,0.23455810546875
1782846861382917600,1.666917724609375,-2.0214996337890625,-0.4504852294921875,0.1415252685546875
1782846861392922600,1.676922607421875,-1.724212646484375,-0.5339508056640625,0.09918212890625
1782846861402926600,1.686926513671875,-1.434967041015625,-0.567718505859375,0.0836639404296875
1782846861412931600,1.696931640625,-1.2021942138671875,-0.51409912109375,0.0672760009765625
1782846861422936600,1.7069365234375,-1.059112548828125,-0.4088592529296875,0.040924072265625
1782846861432941600,1.716941650390625,-0.9882659912109375,-0.2839508056640625,0.015167236328125
1782846861442946600,1.726946533203125,-0.9347991943359375,-0.1819610595703125,0.006439208984375
1782846861452950800,1.73695068359375,-0.876251220703125,-0.099365234375,0.0222930908203125
1782846861462955800,1.746955810546875,-0.7916412353515625,-0.019134521484375,0.0727996826171875
1782846861472960800,1.756960693359375,-0.705535888671875,0.038543701171875,0.098846435546875
1782846861482965800,1.7669658203125,-0.618255615234375,0.0720367431640625,0.08575439453125
1782846861492969700,1.7769697265625,-0.5475311279296875,0.086029052734375,0.040008544921875
1782846861502974700,1.786974609375,-0.4712982177734375,0.0898284912109375,-0.00982666015625
1782846861512979700,1.796979736328125,-0.3818817138671875,0.07147216796875,-0.062042236328125
1782846861522984700,1.806984619140625,-0.30084228515625,0.0331268310546875,-0.1003265380859375
1782846861532989700,1.81698974609375,-0.2331085205078125,0.0034637451171875,-0.1175384521484375
1782846861542993700,1.82699365234375,-0.1734619140625,-0.0239410400390625,-0.1233978271484375
1782846861552998700,1.83699853515625,-0.1307830810546875,-0.048583984375,-0.1162109375
1782846861563004000,1.84700390625,-0.098480224609375,-0.069305419921875,-0.0953216552734375
1782846861573009000,1.8570087890625,-0.0780792236328125,-0.08648681640625,-0.060699462890625
1782846861583014000,1.867013916015625,-0.0775604248046875,-0.0991058349609375,-0.0240631103515625
1782846861593017900,1.877017822265625,-0.1043853759765625,-0.0942840576171875,0.00909423828125
1782846861603022800,1.88702294921875,-0.155853271484375,-0.068084716796875,0.0426025390625
1782846861613027800,1.89702783203125,-0.207916259765625,-0.04632568359375,0.0711822509765625
1782846861623032800,1.90703271484375,-0.24615478515625,-0.03564453125,0.0998687744140625
1782846861633037800,1.917037841796875,-0.2875518798828125,-0.030426025390625,0.123870849609375
1782846861643041800,1.927041748046875,-0.3375396728515625,-0.023101806640625,0.1463165283203125
1782846861653046800,1.937046875,-0.383819580078125,-0.0235748291015625,0.1545562744140625
1782846861663051800,1.9470517578125,-0.423583984375,-0.0335235595703125,0.1490325927734375
1782846861673056800,1.957056884765625,-0.460418701171875,-0.0506591796875,0.1323089599609375
1782846861683061800,1.967061767578125,-0.5065155029296875,-0.0640869140625,0.11358642578125
1782846861693065700,1.977065673828125,-0.5677642822265625,-0.0814666748046875,0.0992584228515625
1782846861703070700,1.98707080078125,-0.632720947265625,-0.11553955078125,0.0994720458984375
1782846861713076000,1.997075927734375,-0.699310302734375,-0.17095947265625,0.0972747802734375
1782846861723081000,2.0070810546875,-0.759979248046875,-0.230224609375,0.0865936279296875
1782846861733086000,2.0170859375,-0.83270263671875,-0.278076171875,0.1173553466796875
1782846861743089700,2.027089599609375,-0.9640045166015625,-0.30987548828125,0.1768035888671875
1782846861753094700,2.0370947265625,-1.1719207763671875,-0.314910888671875,0.2417144775390625
1782846861763099600,2.047099609375,-1.4405517578125,-0.2962799072265625,0.3236236572265625
1782846861773104600,2.057104736328125,-1.7458648681640625,-0.2814178466796875,0.3836669921875
1782846861783108600,2.067108642578125,-2.00262451171875,-0.3024444580078125,0.419525146484375
1782846861793113600,2.077113525390625,-2.169677734375,-0.34893798828125,0.418365478515625
1782846861803118600,2.08711865234375,-2.3948822021484375,-0.433746337890625,0.376922607421875
1782846861813123600,2.09712353515625,-2.6279449462890625,-0.5332183837890625,0.3580474853515625
1782846861823128600,2.107128662109375,-2.8115692138671875,-0.583709716796875,0.4146575927734375
1782846861833133800,2.1171337890625,-2.935638427734375,-0.61865234375,0.545013427734375
1782846861843137800,2.1271376953125,-3.0057830810546875,-0.655029296875,0.6859588623046875
1782846861853142800,2.137142822265625,-2.974365234375,-0.68572998046875,0.7505035400390625
1782846861863147800,2.147147705078125,-2.8336334228515625,-0.7358856201171875,0.68463134765625
1782846861873152800,2.15715283203125,-2.648101806640625,-0.776275634765625,0.5329132080078125
1782846861883156500,2.167156494140625,-2.4438629150390625,-0.76995849609375,0.3856201171875
1782846861893161500,2.177161376953125,-2.221527099609375,-0.7393798828125,0.2572479248046875
1782846861903166500,2.18716650390625,-2.01739501953125,-0.701141357421875,0.1508636474609375
1782846861913171500,2.19717138671875,-1.830352783203125,-0.631256103515625,0.084442138671875
1782846861923176400,2.207176513671875,-1.662689208984375,-0.53759765625,0.0582427978515625
1782846861933180700,2.2171806640625,-1.509796142578125,-0.4203643798828125,0.080596923828125
1782846861943185700,2.227185546875,-1.364898681640625,-0.2928924560546875,0.13055419921875
1782846861953190700,2.237190673828125,-1.202056884765625,-0.1904144287109375,0.170135498046875
1782846861963195600,2.247195556640625,-1.0146636962890625,-0.11358642578125,0.188873291015625
1782846861973200600,2.25720068359375,-0.8131561279296875,-0.0566864013671875,0.1873321533203125
1782846861983204400,2.267204345703125,-0.5965576171875,-0.029205322265625,0.164581298828125
1782846861993209300,2.277209228515625,-0.3870391845703125,-0.0308380126953125,0.127685546875
1782846862003214300,2.28721435546875,-0.191009521484375,-0.0386505126953125,0.0851287841796875
1782846862013219300,2.29721923828125,-0.034027099609375,-0.0459136962890625,0.0379180908203125
1782846862023224300,2.307224365234375,0.09112548828125,-0.0398406982421875,0.00091552734375
1782846862033228300,2.317228271484375,0.178131103515625,-0.02593994140625,-0.040313720703125
1782846862043233300,2.3272333984375,0.2293701171875,-0.00994873046875,-0.0902862548828125
1782846862053238300,2.33723828125,0.248321533203125,0.0160980224609375,-0.13372802734375
1782846862063243300,2.3472431640625,0.2320709228515625,0.047607421875,-0.1889495849609375
1782846862073247500,2.35724755859375,0.1875457763671875,0.0811920166015625,-0.24090576171875
1782846862083252500,2.36725244140625,0.1518707275390625,0.1124725341796875,-0.2684478759765625
1782846862093257500,2.377257568359375,0.1610107421875,0.132232666015625,-0.262298583984375
1782846862103262500,2.387262451171875,0.188446044921875,0.117279052734375,-0.2305450439453125
1782846862113267500,2.397267333984375,0.2154693603515625,0.0889434814453125,-0.1837005615234375
1782846862123271400,2.407271484375,0.256500244140625,0.0573883056640625,-0.1162872314453125
1782846862133276400,2.4172763671875,0.307281494140625,0.0238800048828125,-0.041046142578125
1782846862143281400,2.427281494140625,0.3432464599609375,0.000274658203125,0.0329437255859375
1782846862153286400,2.437286376953125,0.348419189453125,-0.028533935546875,0.089813232421875
1782846862163291400,2.44729150390625,0.3258514404296875,-0.038604736328125,0.1292877197265625
1782846862173295600,2.457295654296875,0.2729034423828125,-0.021209716796875,0.149200439453125
1782846862183300600,2.467300537109375,0.1839447021484375,0.0092926025390625,0.1652069091796875
1782846862193305600,2.4773056640625,0.0882415771484375,0.0393829345703125,0.162445068359375
1782846862203310600,2.487310546875,0.013214111328125,0.060638427734375,0.1309661865234375
1782846862213315600,2.497315673828125,-0.0482025146484375,0.0694580078125,0.089141845703125
1782846862223319600,2.507319580078125,-0.106781005859375,0.0642547607421875,0.0462646484375
1782846862233324500,2.517324462890625,-0.1890106201171875,0.0468902587890625,0.023345947265625
1782846862243329500,2.52732958984375,-0.275909423828125,0.0037841796875,-0.0052032470703125
1782846862253334500,2.53733447265625,-0.4028167724609375,-0.0483551025390625,-0.0209808349609375
1782846862263339500,2.547339599609375,-0.6064453125,-0.0961761474609375,-0.0113983154296875
1782846862273343500,2.557343505859375,-0.8485260009765625,-0.131866455078125,0.0476837158203125
1782846862283348500,2.567348388671875,-1.116668701171875,-0.187591552734375,0.0839385986328125
1782846862293353500,2.577353515625,-1.3521270751953125,-0.29876708984375,0.0909576416015625
1782846862303358500,2.5873583984375,-1.5270233154296875,-0.4419097900390625,0.0655364990234375
1782846862313363500,2.597363525390625,-1.6173553466796875,-0.5821685791015625,0.0285797119140625
1782846862323367400,2.607367431640625,-1.6394805908203125,-0.7068023681640625,0.0444183349609375
1782846862333372400,2.617372314453125,-1.633575439453125,-0.7195281982421875,0.1603546142578125
1782846862343377400,2.62737744140625,-1.7227020263671875,-0.7787322998046875,0.2988128662109375
1782846862353382400,2.63738232421875,-2.0279388427734375,-0.9173126220703125,0.4349365234375
1782846862363386400,2.647386474609375,-2.427978515625,-0.91876220703125,0.5556488037109375
1782846862373391400,2.657391357421875,-2.6889495849609375,-0.7326202392578125,0.60498046875
1782846862383396400,2.667396240234375,-2.800537109375,-0.4734954833984375,0.6292266845703125
1782846862393401300,2.6774013671875,-2.8327789306640625,-0.2889862060546875,0.62713623046875
1782846862403406300,2.68740625,-2.7322540283203125,-0.200286865234375,0.59161376953125
1782846862413410300,2.697410400390625,-2.55816650390625,-0.2086029052734375,0.5257415771484375
1782846862423415300,2.707415283203125,-2.3394775390625,-0.310791015625,0.4438018798828125
1782846862433420500,2.717420654296875,-2.02838134765625,-0.4949798583984375,0.37969970703125
1782846862443425500,2.727425537109375,-1.678009033203125,-0.6466827392578125,0.3526763916015625
1782846862453430500,2.737430419921875,-1.3306427001953125,-0.665374755859375,0.3656005859375
1782846862463434500,2.7474345703125,-1.066497802734375,-0.5861663818359375,0.35443115234375
1782846862473439500,2.757439453125,-0.941864013671875,-0.4772491455078125,0.304107666015625
1782846862483444500,2.767444580078125,-0.913055419921875,-0.375457763671875,0.2464141845703125
1782846862493449500,2.777449462890625,-0.9245147705078125,-0.2778472900390625,0.19891357421875
1782846862503454500,2.787454345703125,-0.9065399169921875,-0.18310546875,0.161285400390625
1782846862513458400,2.79745849609375,-0.8617706298828125,-0.101593017578125,0.1221466064453125
1782846862523463400,2.80746337890625,-0.8092498779296875,-0.03515625,0.0816497802734375
1782846862533468400,2.817468505859375,-0.7376861572265625,0.0189971923828125,0.0394287109375
1782846862543473400,2.827473388671875,-0.6473236083984375,0.060882568359375,-0.0109100341796875
1782846862553478400,2.837478515625,-0.540802001953125,0.0882720947265625,-0.058319091796875
1782846862563482600,2.847482666015625,-0.4392547607421875,0.0984649658203125,-0.106109619140625
1782846862573487600,2.857487548828125,-0.3514251708984375,0.0968475341796875,-0.14984130859375
1782846862583492600,2.86749267578125,-0.2789459228515625,0.0857696533203125,-0.1794891357421875
1782846862593497600,2.87749755859375,-0.2226715087890625,0.073883056640625,-0.1978759765625
1782846862603501600,2.88750146484375,-0.1964263916015625,0.06396484375,-0.203948974609375
1782846862613506600,2.897506591796875,-0.1860809326171875,0.0501251220703125,-0.196868896484375
1782846862623511600,2.907511474609375,-0.1661224365234375,0.029266357421875,-0.1757049560546875
1782846862633516500,2.9175166015625,-0.1525115966796875,-0.00091552734375,-0.1437835693359375
1782846862643521500,2.927521484375,-0.14349365234375,-0.0265350341796875,-0.089813232421875
1782846862653525200,2.937525146484375,-0.119415283203125,-0.056610107421875,-0.017974853515625
1782846862663530200,2.9475302734375,-0.0799713134765625,-0.091766357421875,0.0497589111328125
1782846862673535500,2.957535400390625,-0.050872802734375,-0.108428955078125,0.105010986328125
1782846862683540500,2.96754052734375,-0.050628662109375,-0.1275787353515625,0.123138427734375
1782846862693545500,2.97754541015625,-0.0785980224609375,-0.13677978515625,0.1172332763671875
1782846862703549400,2.987549560546875,-0.1409759521484375,-0.1324462890625,0.088287353515625
1782846862713554400,2.997554443359375,-0.230712890625,-0.1451873779296875,0.04071044921875
1782846862723559400,3.007559326171875,-0.3218536376953125,-0.1834259033203125,-0.0014801025390625
1782846862733564400,3.017564453125,-0.4048004150390625,-0.218597412109375,-0.020904541015625
1782846862743569400,3.0275693359375,-0.5084075927734375,-0.249755859375,-0.0179443359375
1782846862753573400,3.037573486328125,-0.6099853515625,-0.27032470703125,0.005126953125
1782846862763578400,3.047578369140625,-0.7615966796875,-0.2652130126953125,0.0354156494140625
1782846862773583400,3.057583251953125,-0.9839935302734375,-0.235107421875,0.0924224853515625
1782846862783588400,3.06758837890625,-1.2526397705078125,-0.2017364501953125,0.1373443603515625
1782846862793592600,3.077592529296875,-1.6036224365234375,-0.1487884521484375,0.1761932373046875
1782846862803597600,3.08759765625,-1.9540557861328125,-0.1181640625,0.2141571044921875
1782846862813602600,3.0976025390625,-2.2297210693359375,-0.1386260986328125,0.231903076171875
1782846862823607600,3.107607666015625,-2.41558837890625,-0.22430419921875,0.240020751953125
1782846862833612500,3.117612548828125,-2.492645263671875,-0.4240875244140625,0.2684173583984375
1782846862843616500,3.127616455078125,-2.4614715576171875,-0.7194671630859375,0.3762969970703125
1782846862853621500,3.13762158203125,-2.3685150146484375,-0.9846649169921875,0.543609619140625
1782846862863626500,3.14762646484375,-2.281219482421875,-1.080078125,0.6940460205078125
1782846862873631500,3.157631591796875,-2.3563232421875,-1.0509796142578125,0.7508697509765625
1782846862883636000,3.167635986328125,-2.59368896484375,-0.97119140625,0.6766815185546875
1782846862893640000,3.177639892578125,-2.846649169921875,-0.8398284912109375,0.5641937255859375
1782846862903645000,3.18764501953125,-2.9816741943359375,-0.700469970703125,0.4660491943359375
1782846862913650000,3.19764990234375,-2.961517333984375,-0.572174072265625,0.4018096923828125
1782846862923655000,3.207655029296875,-2.8000946044921875,-0.4732513427734375,0.3463897705078125
1782846862933660000,3.217659912109375,-2.5825347900390625,-0.4036407470703125,0.2592010498046875
1782846862943664000,3.2276640625,-2.35980224609375,-0.337493896484375,0.1600189208984375
1782846862953669000,3.237669189453125,-2.0992431640625,-0.2642669677734375,0.0929107666015625
1782846862963674000,3.247674072265625,-1.7843017578125,-0.1704864501953125,0.095947265625
1782846862973679000,3.25767919921875,-1.4441375732421875,-0.11151123046875,0.1240081787109375
1782846862983682800,3.267682861328125,-1.1009063720703125,-0.081390380859375,0.1241302490234375
1782846862993687800,3.277687744140625,-0.7478179931640625,-0.0529022216796875,0.1035308837890625
1782846863003692800,3.28769287109375,-0.435028076171875,-0.0389862060546875,0.0571441650390625
1782846863013697800,3.29769775390625,-0.18017578125,-0.03436279296875,-0.0241546630859375
1782846863023702800,3.307702880859375,0.01531982421875,-0.0307769775390625,-0.11865234375
1782846863033707000,3.31770703125,0.126312255859375,-0.039154052734375,-0.221588134765625
1782846863043712000,3.3277119140625,0.1831817626953125,-0.0261993408203125,-0.2890167236328125
1782846863053717000,3.337717041015625,0.1861419677734375,0.006805419921875,-0.3078460693359375
1782846863063722000,3.347721923828125,0.1673126220703125,0.045806884765625,-0.2826690673828125
1782846863073727000,3.35772705078125,0.1492462158203125,0.0843048095703125,-0.2329864501953125
1782846863083731000,3.36773095703125,0.1307373046875,0.1316680908203125,-0.181396484375
1782846863093736000,3.37773583984375,0.1251678466796875,0.164581298828125,-0.1413421630859375
1782846863103741000,3.387740966796875,0.1712799072265625,0.173614501953125,-0.1103057861328125
1782846863113746000,3.397745849609375,0.2199554443359375,0.1548309326171875,-0.1056976318359375
1782846863123751000,3.4077509765625,0.253509521484375,0.1133880615234375,-0.1148223876953125
1782846863133755000,3.4177548828125,0.29150390625,0.0704193115234375,-0.122039794921875
1782846863143760000,3.427759765625,0.3286895751953125,0.0350494384765625,-0.12249755859375
1782846863153764900,3.437764892578125,0.367645263671875,0.00299072265625,-0.1025238037109375
1782846863163769900,3.447769775390625,0.400787353515625,-0.0235595703125,-0.0742340087890625
1782846863173774000,3.457774169921875,0.4023590087890625,-0.0380096435546875,-0.0394134521484375
1782846863183779000,3.467779052734375,0.3922576904296875,-0.0430755615234375,0.0053253173828125
1782846863193784000,3.4777841796875,0.3745574951171875,-0.0375823974609375,0.060821533203125
1782846863203789000,3.4877890625,0.33050537109375,-0.0335235595703125,0.0980072021484375
1782846863213794000,3.4977939453125,0.265350341796875,-0.0265655517578125,0.141357421875
1782846863223798000,3.507798095703125,0.193695068359375,-0.0033416748046875,0.18115234375
1782846863233803000,3.517802978515625,0.096405029296875,-0.0111541748046875,0.1672821044921875
1782846863243808000,3.52780810546875,-0.0137939453125,-0.0328826904296875,0.1299896240234375
1782846863253813000,3.53781298828125,-0.12225341796875,-0.0393829345703125,0.120330810546875
1782846863263818000,3.54781787109375,-0.2411956787109375,-0.0594482421875,0.1243896484375
1782846863273822000,3.557822021484375,-0.3939971923828125,-0.1019134521484375,0.13525390625
1782846863283827000,3.567826904296875,-0.6073760986328125,-0.15924072265625,0.1402740478515625
1782846863293832000,3.57783203125,-0.8790435791015625,-0.205841064453125,0.127471923828125
1782846863303837200,3.587837158203125,-1.1844024658203125,-0.2727508544921875,0.1029815673828125
1782846863313842200,3.59784228515625,-1.4694061279296875,-0.39044189453125,0.082489013671875
1782846863323846000,3.607845947265625,-1.6923370361328125,-0.5290679931640625,0.08355712890625
1782846863333851000,3.617850830078125,-1.8183135986328125,-0.658538818359375,0.138275146484375
1782846863343855900,3.62785595703125,-1.8444671630859375,-0.76043701171875,0.2489166259765625
1782846863353860900,3.63786083984375,-1.8289947509765625,-0.8114166259765625,0.4210205078125
1782846863363864800,3.64786474609375,-1.9622344970703125,-0.882476806640625,0.57830810546875
1782846863373869800,3.657869873046875,-2.291351318359375,-0.8583831787109375,0.6519012451171875
1782846863383874800,3.667874755859375,-2.5263671875,-0.628143310546875,0.682952880859375
1782846863393879800,3.6778798828125,-2.6257781982421875,-0.30670166015625,0.6994781494140625
1782846863403884800,3.687884765625,-2.64801025390625,-0.100921630859375,0.689208984375
1782846863413889000,3.697888916015625,-2.575897216796875,-0.048675537109375,0.661895751953125
1782846863423894000,3.70789404296875,-2.4202423095703125,-0.14202880859375,0.592193603515625
1782846863433899000,3.71789892578125,-2.13201904296875,-0.4117584228515625,0.4906768798828125
1782846863443904000,3.727904052734375,-1.6706085205078125,-0.8251190185546875,0.42938232421875
1782846863453909000,3.737908935546875,-1.139617919921875,-1.0575103759765625,0.4757232666015625
1782846863463913000,3.747912841796875,-0.7607269287109375,-0.882781982421875,0.5607757568359375
1782846863473918000,3.75791796875,-0.6993408203125,-0.6332244873046875,0.4918060302734375
1782846863483923000,3.7679228515625,-0.912841796875,-0.50384521484375,0.274444580078125
1782846863493928000,3.777927978515625,-1.141571044921875,-0.3677978515625,0.1235809326171875
1782846863503932000,3.787931884765625,-1.2593841552734375,-0.2342376708984375,0.0427398681640625
1782846863513937000,3.79793701171875,-1.27734375,-0.1221923828125,0.0073699951171875
1782846863523942000,3.80794189453125,-1.2270355224609375,-0.0128173828125,0.01519775390625
1782846863533947000,3.81794677734375,-1.1344146728515625,0.0737152099609375,0.0241851806640625
1782846863543952000,3.827951904296875,-1.0219268798828125,0.124542236328125,0.0242919921875
1782846863553956000,3.8379560546875,-0.9125823974609375,0.1330718994140625,0.013092041015625
1782846863563961000,3.847961181640625,-0.782745361328125,0.1113433837890625,-0.0159149169921875
1782846863573966000,3.857966064453125,-0.66094970703125,0.0747222900390625,-0.041961669921875
1782846863583971000,3.86797119140625,-0.543914794921875,0.0278167724609375,-0.056915283203125
1782846863593976000,3.87797607421875,-0.4394378662109375,-0.031524658203125,-0.057403564453125
1782846863603980000,3.88797998046875,-0.3424072265625,-0.0894317626953125,-0.04803466796875
1782846863613985000,3.897985107421875,-0.2580108642578125,-0.1114044189453125,-0.021514892578125
1782846863623990000,3.907989990234375,-0.211639404296875,-0.1405029296875,0.0102691650390625
1782846863633995000,3.9179951171875,-0.1782684326171875,-0.15625,0.058990478515625
1782846863644000000,3.928,-0.164581298828125,-0.1438140869140625,0.1053619384765625
1782846863654004000,3.93800390625,-0.186187744140625,-0.1171875,0.1355438232421875
1782846863664009000,3.948009033203125,-0.2381134033203125,-0.0889892578125,0.15576171875
1782846863674014000,3.958013916015625,-0.28753662109375,-0.06976318359375,0.1814422607421875
1782846863684019000,3.96801904296875,-0.3262176513671875,-0.062530517578125,0.1989288330078125
1782846863694023000,3.97802294921875,-0.3504791259765625,-0.0624847412109375,0.19647216796875
1782846863704028000,3.98802783203125,-0.3869476318359375,-0.066009521484375,0.1815948486328125
1782846863714033000,3.998032958984375,-0.4335174560546875,-0.076019287109375,0.1543426513671875
1782846863724038000,4.008037841796875,-0.4870147705078125,-0.0890655517578125,0.104034423828125
1782846863734043000,4.01804296875,-0.559967041015625,-0.088958740234375,0.05889892578125
1782846863744046800,4.028046875,-0.6404571533203125,-0.0792236328125,0.0249481201171875
1782846863754051800,4.0380517578125,-0.730194091796875,-0.052581787109375,0.011474609375
1782846863764056800,4.048056884765625,-0.839324951171875,-0.0048828125,0.042724609375
1782846863774061800,4.058061767578125,-0.9547576904296875,0.0308837890625,0.08538818359375
1782846863784066800,4.06806689453125,-1.07073974609375,0.05474853515625,0.149078369140625
1782846863794071000,4.078071044921875,-1.203369140625,0.05657958984375,0.224212646484375
1782846863804076000,4.088075927734375,-1.312042236328125,0.0101470947265625,0.26995849609375
1782846863814081000,4.0980810546875,-1.4264068603515625,-0.079498291015625,0.2745361328125
1782846863824086000,4.1080859375,-1.5439605712890625,-0.1962432861328125,0.237030029296875
1782846863834090000,4.118090087890625,-1.6495513916015625,-0.310546875,0.2249908447265625
1782846863844095000,4.128094970703125,-1.7579498291015625,-0.4130706787109375,0.2372283935546875
1782846863854100000,4.138099853515625,-1.8964996337890625,-0.483978271484375,0.2736053466796875
1782846863864105000,4.14810498046875,-1.9996337890625,-0.5378570556640625,0.3283233642578125
1782846863874110000,4.15810986328125,-2.07635498046875,-0.601531982421875,0.3818511962890625
1782846863884114200,4.1681142578125,-2.2064361572265625,-0.6602020263671875,0.424713134765625
1782846863894119200,4.178119140625,-2.372894287109375,-0.6830596923828125,0.47821044921875
1782846863904124200,4.188124267578125,-2.531097412109375,-0.6641387939453125,0.5423126220703125
1782846863914129200,4.198129150390625,-2.6475677490234375,-0.5961456298828125,0.60223388671875
1782846863924134100,4.208134033203125,-2.7053375244140625,-0.525482177734375,0.608245849609375
1782846863934138400,4.218138427734375,-2.670440673828125,-0.48004150390625,0.5438995361328125
1782846863944143400,4.228143310546875,-2.524261474609375,-0.4609527587890625,0.4279327392578125
1782846863954148400,4.2381484375,-2.329071044921875,-0.4297332763671875,0.3224029541015625
1782846863964153300,4.2481533203125,-2.1419525146484375,-0.3772125244140625,0.2509613037109375
1782846863974158300,4.258158447265625,-1.930908203125,-0.352325439453125,0.1999053955078125
1782846863984162300,4.268162353515625,-1.671722412109375,-0.331024169921875,0.1804351806640625
1782846863994167300,4.278167236328125,-1.3819122314453125,-0.30718994140625,0.1756439208984375
1782846864004172300,4.28817236328125,-1.0803680419921875,-0.2955474853515625,0.1796875
1782846864014177300,4.29817724609375,-0.807952880859375,-0.2740478515625,0.1823577880859375
1782846864024181200,4.30818115234375,-0.57940673828125,-0.251617431640625,0.168731689453125
1782846864034186200,4.318186279296875,-0.4090423583984375,-0.212066650390625,0.1278228759765625
1782846864044191500,4.32819140625,-0.2977142333984375,-0.1700592041015625,0.0673065185546875
1782846864054196500,4.338196533203125,-0.229888916015625,-0.138397216796875,0.0085296630859375
1782846864064201500,4.348201416015625,-0.1641693115234375,-0.07879638671875,-0.0302886962890625
1782846864074205200,4.358205078125,-0.1158905029296875,-0.0203399658203125,-0.0533599853515625
1782846864084210200,4.368210205078125,-0.0844573974609375,0.03363037109375,-0.0448150634765625
1782846864094215200,4.378215087890625,-0.067596435546875,0.0971527099609375,-0.0227813720703125
1782846864104220200,4.38822021484375,-0.079376220703125,0.155914306640625,-0.0160064697265625
1782846864114225200,4.39822509765625,-0.1015777587890625,0.2012176513671875,-0.013946533203125
1782846864124229000,4.40822900390625,-0.10101318359375,0.2314300537109375,-0.0188751220703125
1782846864134234000,4.418234130859375,-0.0586395263671875,0.2183837890625,-0.025421142578125
1782846864144239000,4.428239013671875,0.01373291015625,0.1604156494140625,-0.047210693359375
1782846864154244000,4.438244140625,0.0828094482421875,0.0927886962890625,-0.061431884765625
1782846864164248300,4.448248291015625,0.15716552734375,0.0160675048828125,-0.063507080078125
1782846864174253300,4.45825341796875,0.2455596923828125,-0.0588226318359375,-0.0733642578125
1782846864184258300,4.46825830078125,0.318023681640625,-0.1082611083984375,-0.0692901611328125
1782846864194263300,4.47826318359375,0.3549652099609375,-0.1208953857421875,-0.041656494140625
1782846864204268300,4.488268310546875,0.356842041015625,-0.1151123046875,-0.0104522705078125
1782846864214272300,4.498272216796875,0.3250579833984375,-0.091888427734375,0.004425048828125
1782846864224277200,4.50827734375,0.2667999267578125,-0.06341552734375,0.004241943359375
1782846864234282200,4.5182822265625,0.1918487548828125,-0.035797119140625,-0.0063934326171875
1782846864244287200,4.528287353515625,0.1256256103515625,-0.0019378662109375,-0.0136871337890625
1782846864254292200,4.538292236328125,0.0689239501953125,0.0274658203125,-0.0137939453125
1782846864264296200,4.548296142578125,0.009979248046875,0.0463409423828125,-0.012420654296875
1782846864274301200,4.55830126953125,-0.0778656005859375,0.044158935546875,-0.0343017578125
1782846864284306200,4.56830615234375,-0.1945037841796875,0.031280517578125,-0.0446319580078125
1782846864294311200,4.578311279296875,-0.3163299560546875,0.0047454833984375,-0.0036163330078125
1782846864304316200,4.588316162109375,-0.43011474609375,-0.0536346435546875,0.0299835205078125
1782846864314320400,4.5983203125,-0.5362548828125,-0.1342315673828125,0.0268096923828125
1782846864324325400,4.608325439453125,-0.7204742431640625,-0.21832275390625,0.02825927734375
1782846864334330400,4.618330322265625,-0.97515869140625,-0.2908477783203125,0.055023193359375
1782846864344335400,4.62833544921875,-1.2659149169921875,-0.347869873046875,0.0666656494140625
1782846864354339300,4.63833935546875,-1.5094757080078125,-0.416473388671875,0.13653564453125
1782846864364344300,4.64834423828125,-1.648773193359375,-0.50213623046875,0.2998504638671875
1782846864374349300,4.658349365234375,-1.7141265869140625,-0.5858306884765625,0.488800048828125
1782846864384354300,4.668354248046875,-1.7778472900390625,-0.67144775390625,0.61212158203125
1782846864394359300,4.678359375,-1.899932861328125,-0.8220977783203125,0.5324249267578125
1782846864404363300,4.68836328125,-2.049652099609375,-0.9673309326171875,0.3835906982421875
1782846864414368300,4.6983681640625,-2.2652435302734375,-0.9679412841796875,0.322418212890625
1782846864424373200,4.708373291015625,-2.490570068359375,-0.7564239501953125,0.40850830078125
1782846864434378200,4.718378173828125,-2.5774383544921875,-0.4194488525390625,0.592315673828125
1782846864444383200,4.72838330078125,-2.5169525146484375,-0.11395263671875,0.7457275390625
1782846864454387200,4.73838720703125,-2.4355010986328125,-0.0028533935546875,0.742095947265625
1782846864464392200,4.74839208984375,-2.28179931640625,-0.1063232421875,0.5601043701171875
1782846864474397200,4.758397216796875,-2.017333984375,-0.34393310546875,0.32354736328125
1782846864484402200,4.768402099609375,-1.6260986328125,-0.634521484375,0.171722412109375
1782846864494406100,4.77840625,-1.1466827392578125,-0.8410797119140625,0.12127685546875
1782846864504411100,4.7884111328125,-0.797271728515625,-0.852264404296875,0.1424560546875
1782846864514416000,4.798416015625,-0.6766815185546875,-0.7728271484375,0.1482086181640625
1782846864524421000,4.808421142578125,-0.7459716796875,-0.6885223388671875,0.1104888916015625
1782846864534426000,4.818426025390625,-0.890167236328125,-0.5511627197265625,0.0999603271484375
1782846864544430300,4.828430419921875,-1.0275115966796875,-0.3730316162109375,0.1223297119140625
1782846864554435300,4.838435302734375,-1.1509246826171875,-0.19171142578125,0.142059326171875
1782846864564440300,4.8484404296875,-1.23260498046875,-0.039306640625,0.1680755615234375
1782846864574445300,4.8584453125,-1.2344512939453125,0.0552215576171875,0.1682891845703125
1782846864584450300,4.8684501953125,-1.16827392578125,0.1099853515625,0.1457672119140625
1782846864594454300,4.878454345703125,-1.0516357421875,0.127899169921875,0.117431640625
1782846864604459300,4.888459228515625,-0.9188995361328125,0.126190185546875,0.070068359375
1782846864614464300,4.89846435546875,-0.79559326171875,0.116485595703125,0.0320892333984375
1782846864624469200,4.90846923828125,-0.6502838134765625,0.084503173828125,0
1782846864634473200,4.91847314453125,-0.511566162109375,0.0310516357421875,-0.02593994140625
1782846864644478200,4.928478271484375,-0.38800048828125,-0.0115509033203125,-0.0350189208984375
1782846864654483200,4.938483154296875,-0.279876708984375,-0.0421600341796875,-0.03533935546875
1782846864664488200,4.94848828125,-0.19903564453125,-0.0632476806640625,-0.0231170654296875
1782846864674493400,4.958493408203125,-0.14508056640625,-0.0801544189453125,-0.0025482177734375
1782846864684497400,4.968497314453125,-0.1141357421875,-0.0872344970703125,0.028839111328125
1782846864694502400,4.97850244140625,-0.101226806640625,-0.090301513671875,0.0587310791015625
1782846864704507400,4.98850732421875,-0.1064605712890625,-0.0975189208984375,0.0774383544921875
1782846864714512400,4.998512451171875,-0.1320343017578125,-0.0971221923828125,0.0870208740234375
1782846864724516000,5.00851611328125,-0.17315673828125,-0.0830535888671875,0.08990478515625
1782846864734521000,5.01852099609375,-0.2135772705078125,-0.065185546875,0.094635009765625
1782846864744526000,5.028526123046875,-0.241851806640625,-0.054290771484375,0.10028076171875
1782846864754531000,5.038531005859375,-0.2488250732421875,-0.0451812744140625,0.100616455078125
1782846864764536000,5.0485361328125,-0.2722625732421875,-0.032379150390625,0.111053466796875
1782846864774540300,5.058540283203125,-0.34991455078125,-0.021270751953125,0.114501953125
1782846864784545300,5.068545166015625,-0.4862518310546875,-0.014007568359375,0.1057586669921875
1782846864794550300,5.07855029296875,-0.64031982421875,-0.020294189453125,0.0936279296875
1782846864804555300,5.08855517578125,-0.790069580078125,-0.029296875,0.0849761962890625
1782846864814560300,5.098560302734375,-0.9584197998046875,-0.0336151123046875,0.1000518798828125
1782846864824564200,5.108564208984375,-1.11175537109375,-0.045654296875,0.133087158203125
1782846864834569200,5.1185693359375,-1.249267578125,-0.049652099609375,0.1873016357421875
1782846864844574200,5.12857421875,-1.404632568359375,-0.054779052734375,0.2432861328125
1782846864854579200,5.1385791015625,-1.604705810546875,-0.0784454345703125,0.2869415283203125
1782846864864583200,5.148583251953125,-1.8191070556640625,-0.1328582763671875,0.2961578369140625
1782846864874588200,5.158588134765625,-2.0152130126953125,-0.21954345703125,0.2796630859375
1782846864884593700,5.16859375,-2.1354217529296875,-0.319183349609375,0.2818603515625
1782846864894598700,5.1785986328125,-2.18133544921875,-0.4127349853515625,0.2892913818359375
1782846864904603600,5.188603759765625,-2.1916351318359375,-0.519195556640625,0.3229827880859375
1782846864914607900,5.19860791015625,-2.2037506103515625,-0.6660919189453125,0.3790740966796875
1782846864924612900,5.20861279296875,-2.22149658203125,-0.8098297119140625,0.450592041015625
1782846864934617900,5.218617919921875,-2.2556610107421875,-0.8982391357421875,0.5105438232421875
1782846864944622800,5.228622802734375,-2.3284149169921875,-0.9043426513671875,0.5337982177734375
1782846864954627800,5.2386279296875,-2.4477386474609375,-0.827728271484375,0.497711181640625
1782846864964631800,5.2486318359375,-2.5691986083984375,-0.6937255859375,0.4456787109375
1782846864974636800,5.25863671875,-2.6132049560546875,-0.5743865966796875,0.399169921875
1782846864984641800,5.268641845703125,-2.5500946044921875,-0.4830780029296875,0.3411102294921875
1782846864994646800,5.278646728515625,-2.3856201171875,-0.4149017333984375,0.269195556640625
1782846865004651800,5.28865185546875,-2.173004150390625,-0.361236572265625,0.2152252197265625
1782846865014655700,5.29865576171875,-1.937744140625,-0.3010711669921875,0.1934051513671875
1782846865024660700,5.30866064453125,-1.6596832275390625,-0.2477264404296875,0.1788787841796875
1782846865034665700,5.318665771484375,-1.3834686279296875,-0.2056427001953125,0.1591339111328125
1782846865044670700,5.328670654296875,-1.0833740234375,-0.1699981689453125,0.1234588623046875
1782846865054674700,5.3386748046875,-0.8047027587890625,-0.1489410400390625,0.080108642578125
1782846865064679700,5.3486796875,-0.5654449462890625,-0.1321563720703125,0.04083251953125
1782846865074684700,5.3586845703125,-0.3641357421875,-0.1085662841796875,0.0110015869140625
1782846865084689700,5.368689697265625,-0.1959228515625,-0.068817138671875,-0.0195159912109375
1782846865094694700,5.378694580078125,-0.061431884765625,-0.0174102783203125,-0.0539703369140625
1782846865104698600,5.38869873046875,0.024017333984375,0.024078369140625,-0.0962982177734375
1782846865114703600,5.39870361328125,0.0832977294921875,0.0591278076171875,-0.1426239013671875
1782846865124708600,5.40870849609375,0.13702392578125,0.0879974365234375,-0.1802520751953125
1782846865134713600,5.418713623046875,0.1719207763671875,0.1077880859375,-0.2138671875
1782846865144718600,5.428718505859375,0.1946868896484375,0.1259918212890625,-0.2375335693359375
1782846865154722800,5.438722900390625,0.206512451171875,0.14776611328125,-0.2470703125
1782846865164727800,5.448727783203125,0.2109527587890625,0.16241455078125,-0.2445068359375
1782846865174732800,5.45873291015625,0.22955322265625,0.16180419921875,-0.2320709228515625
1782846865184737800,5.46873779296875,0.260223388671875,0.1414642333984375,-0.207366943359375
1782846865194741800,5.47874169921875,0.279632568359375,0.1078643798828125,-0.18701171875
1782846865204746800,5.488746826171875,0.2922821044921875,0.07318115234375,-0.1573486328125
1782846865214751700,5.498751708984375,0.30810546875,0.0261993408203125,-0.11505126953125
1782846865224756700,5.5087568359375,0.31646728515625,-0.0189666748046875,-0.06072998046875
1782846865234761700,5.51876171875,0.321319580078125,-0.051483154296875,-0.01129150390625
1782846865244765700,5.528765625,0.3058929443359375,-0.0687103271484375,0.0323333740234375
1782846865254770700,5.538770751953125,0.26409912109375,-0.0705718994140625,0.073272705078125
1782846865264775700,5.548775634765625,0.1949005126953125,-0.0629425048828125,0.102203369140625
1782846865274780700,5.55878076171875,0.101898193359375,-0.04156494140625,0.1170806884765625
1782846865284785700,5.56878564453125,0.000457763671875,-0.00933837890625,0.1243438720703125
1782846865294790000,5.578789794921875,-0.1136016845703125,0.0033721923828125,0.1298370361328125
1782846865304795000,5.588794921875,-0.2173919677734375,-0.0009918212890625,0.130828857421875
1782846865314799900,5.5987998046875,-0.32843017578125,-0.024932861328125,0.1405792236328125
1782846865324804900,5.608804931640625,-0.463409423828125,-0.06494140625,0.148895263671875
1782846865334808800,5.618808837890625,-0.60205078125,-0.1088714599609375,0.1672210693359375
1782846865344813800,5.628813720703125,-0.7646942138671875,-0.1811981201171875,0.1963348388671875
1782846865354818800,5.63881884765625,-0.956268310546875,-0.265625,0.186859130859375
1782846865364823800,5.64882373046875,-1.1983489990234375,-0.351348876953125,0.1632843017578125
1782846865374828800,5.658828857421875,-1.4329986572265625,-0.448272705078125,0.1416168212890625
1782846865384832500,5.66883251953125,-1.636383056640625,-0.5264434814453125,0.136077880859375
1782846865394837500,5.67883740234375,-1.791595458984375,-0.5627899169921875,0.18597412109375
1782846865404842500,5.688842529296875,-1.8874969482421875,-0.644866943359375,0.212554931640625
1782846865414847500,5.698847412109375,-1.908447265625,-0.7491455078125,0.216827392578125
1782846865424852700,5.708852783203125,-1.903961181640625,-0.9202728271484375,0.2307891845703125
1782846865434856700,5.718856689453125,-2.086395263671875,-1.0237884521484375,0.30096435546875
1782846865444861700,5.72886181640625,-2.3830718994140625,-0.9063568115234375,0.42529296875
1782846865454866700,5.73886669921875,-2.4584197998046875,-0.5759124755859375,0.5881195068359375
1782846865464871700,5.74887158203125,-2.4198150634765625,-0.257293701171875,0.6523284912109375
1782846865474875600,5.758875732421875,-2.41693115234375,-0.0956573486328125,0.5220489501953125
1782846865484880600,5.768880615234375,-2.412353515625,-0.041351318359375,0.32379150390625
1782846865494885600,5.7788857421875,-2.345550537109375,-0.0548553466796875,0.17059326171875
1782846865504890600,5.788890625,-2.15142822265625,-0.144317626953125,0.0922088623046875
1782846865514895600,5.7988955078125,-1.8421173095703125,-0.3196258544921875,0.1050262451171875
1782846865524899800,5.80889990234375,-1.4539947509765625,-0.54925537109375,0.185028076171875
1782846865534904800,5.81890478515625,-1.0638275146484375,-0.706634521484375,0.271240234375
1782846865544909800,5.828909912109375,-0.7739105224609375,-0.684417724609375,0.3229827880859375
1782846865554914800,5.838914794921875,-0.6041412353515625,-0.53094482421875,0.3120880126953125
1782846865564919800,5.848919921875,-0.553497314453125,-0.3861083984375,0.2496795654296875
1782846865574923800,5.858923828125,-0.6066741943359375,-0.3014678955078125,0.1568756103515625
1782846865584928800,5.8689287109375,-0.66961669921875,-0.2161407470703125,0.1060333251953125
1782846865594933800,5.878933837890625,-0.6995697021484375,-0.1072845458984375,0.072509765625
1782846865604938800,5.888938720703125,-0.7233123779296875,-0.022003173828125,0.0336761474609375
1782846865614942700,5.898942626953125,-0.71624755859375,0.035369873046875,0.0059051513671875
1782846865624947700,5.90894775390625,-0.667449951171875,0.066009521484375,-0.00653076171875
1782846865634952700,5.91895263671875,-0.605194091796875,0.080963134765625,-0.0102996826171875
1782846865644957700,5.928957763671875,-0.5322418212890625,0.079833984375,-0.018463134765625
1782846865654962700,5.938962646484375,-0.4800262451171875,0.077178955078125,-0.020751953125
1782846865664967000,5.948966796875,-0.4437255859375,0.07037353515625,-0.0254974365234375
1782846865674972000,5.958971923828125,-0.4240875244140625,0.0520782470703125,-0.03997802734375
1782846865684977000,5.968976806640625,-0.4177093505859375,0.0332489013671875,-0.046875
1782846865694982000,5.97898193359375,-0.4058990478515625,0.00738525390625,-0.041229248046875
1782846865704987000,5.98898681640625,-0.39404296875,-0.0343475341796875,-0.0145416259765625
1782846865714990600,5.998990478515625,-0.373382568359375,-0.0916900634765625,0.0257720947265625
1782846865724995600,6.00899560546875,-0.3448944091796875,-0.13519287109375,0.0922088623046875
1782846865735000600,6.01900048828125,-0.3165130615234375,-0.1625518798828125,0.1671905517578125
1782846865745005600,6.029005615234375,-0.3134765625,-0.162384033203125,0.2233428955078125
1782846865755009500,6.039009521484375,-0.3348846435546875,-0.147003173828125,0.2639312744140625
1782846865765014500,6.0490146484375,-0.39385986328125,-0.123382568359375,0.2714691162109375
1782846865775019500,6.05901953125,-0.4825897216796875,-0.0826263427734375,0.2454071044921875
1782846865785024800,6.069024658203125,-0.5579681396484375,-0.035614013671875,0.2077789306640625
1782846865795029800,6.07902978515625,-0.6423187255859375,-0.0010833740234375,0.17572021484375
1782846865805033700,6.08903369140625,-0.7262725830078125,0.027435302734375,0.149078369140625
1782846865815038700,6.099038818359375,-0.811798095703125,0.036163330078125,0.1174163818359375
1782846865825043700,6.109043701171875,-0.918609619140625,0.0149993896484375,0.078857421875
1782846865835048700,6.119048583984375,-1.0524139404296875,-0.033111572265625,0.039093017578125
1782846865845052700,6.129052734375,-1.21875,-0.0911407470703125,0.049072265625
1782846865855057700,6.1390576171875,-1.4084625244140625,-0.1328277587890625,0.131103515625
1782846865865062700,6.149062744140625,-1.629974365234375,-0.140899658203125,0.2474365234375
1782846865875067600,6.159067626953125,-1.8782501220703125,-0.167205810546875,0.36810302734375
1782846865885072000,6.16907177734375,-2.057159423828125,-0.3118438720703125,0.449676513671875
1782846865895075800,6.179075927734375,-2.114837646484375,-0.550872802734375,0.4632110595703125
1782846865905080800,6.189080810546875,-2.0792083740234375,-0.76800537109375,0.456634521484375
1782846865915085800,6.1990859375,-1.9823150634765625,-0.93023681640625,0.4417266845703125
1782846865925090800,6.2090908203125,-1.9751434326171875,-1.0360565185546875,0.4333038330078125
1782846865935095800,6.219095703125,-2.2089080810546875,-1.0367279052734375,0.3964385986328125
1782846865945099800,6.229099853515625,-2.4447479248046875,-0.937225341796875,0.3325958251953125
1782846865955104800,6.239104736328125,-2.599395751953125,-0.8130035400390625,0.27490234375
1782846865965109800,6.24910986328125,-2.6874847412109375,-0.65704345703125,0.2863006591796875
1782846865975114800,6.25911474609375,-2.6402435302734375,-0.5085601806640625,0.32196044921875
1782846865985119700,6.26911962890625,-2.4881591796875,-0.381256103515625,0.3314208984375
1782846865995124000,6.2791240234375,-2.2894287109375,-0.2921600341796875,0.2742767333984375
1782846866005129000,6.28912890625,-2.0740814208984375,-0.2082061767578125,0.20184326171875
1782846866015134000,6.299134033203125,-1.8157196044921875,-0.1175994873046875,0.16302490234375
1782846866025139000,6.309138916015625,-1.5577850341796875,-0.0523681640625,0.1259002685546875
1782846866035143000,6.319142822265625,-1.29083251953125,-0.010162353515625,0.11077880859375
1782846866045148000,6.32914794921875,-1.0227508544921875,0.017974853515625,0.1071929931640625
1782846866055153000,6.33915283203125,-0.7567596435546875,0.022918701171875,0.113433837890625
1782846866065158000,6.349157958984375,-0.5099334716796875,-0.0112152099609375,0.1187744140625
1782846866075163000,6.359162841796875,-0.304656982421875,-0.071044921875,0.105377197265625
1782846866085166800,6.369166748046875,-0.118988037109375,-0.1402435302734375,0.089874267578125
1782846866095171800,6.379171875,0.0305023193359375,-0.18450927734375,0.07672119140625
1782846866105176800,6.3891767578125,0.1323394775390625,-0.1739349365234375,0.073089599609375
1782846866115181800,6.399181884765625,0.172760009765625,-0.1144256591796875,0.0649261474609375
1782846866125186000,6.40918603515625,0.1632537841796875,-0.048553466796875,0.0438995361328125
1782846866135191000,6.41919091796875,0.1162872314453125,-0.0058441162109375,0.0151519775390625
1782846866145196000,6.429196044921875,0.0926971435546875,0.0351715087890625,0.0001220703125
1782846866155201000,6.439200927734375,0.0915679931640625,0.08624267578125,-0.00360107421875
1782846866165206000,6.4492060546875,0.0709381103515625,0.128692626953125,-0.0289154052734375
1782846866175210000,6.4592099609375,0.052459716796875,0.1382293701171875,-0.06329345703125
1782846866185215000,6.469215087890625,0.085113525390625,0.1059112548828125,-0.091064453125
1782846866195220000,6.479219970703125,0.143524169921875,0.0699615478515625,-0.1048126220703125
1782846866205225000,6.489224853515625,0.2012176513671875,0.0360260009765625,-0.1213531494140625
1782846866215230000,6.49922998046875,0.2578887939453125,0.0014801025390625,-0.1384735107421875
1782846866225234000,6.50923388671875,0.281036376953125,-0.0259857177734375,-0.1465606689453125
1782846866235239000,6.519239013671875,0.26708984375,-0.0436859130859375,-0.14349365234375
1782846866245244000,6.529243896484375,0.2213592529296875,-0.0505218505859375,-0.1234588623046875
1782846866255249000,6.539248779296875,0.159149169921875,-0.0401153564453125,-0.0801544189453125
1782846866265252900,6.5492529296875,0.0939788818359375,-0.0260009765625,-0.0349884033203125
1782846866275257900,6.5592578125,0.059173583984375,-0.00543212890625,-0.003936767578125
1782846866285262800,6.569262939453125,0.03167724609375,0.024688720703125,0.02679443359375
1782846866295267800,6.579267822265625,-0.03106689453125,0.03289794921875,0.04547119140625
1782846866305272800,6.58927294921875,-0.113494873046875,0.0212860107421875,0.039886474609375
1782846866315276800,6.59927685546875,-0.212371826171875,-0.0093536376953125,0.014434814453125
1782846866325281800,6.60928173828125,-0.341217041015625,-0.0882568359375,-0.02044677734375
1782846866335286800,6.619286865234375,-0.503509521484375,-0.19696044921875,-0.039215087890625
1782846866345291800,6.629291748046875,-0.6853485107421875,-0.31365966796875,-0.02496337890625
1782846866355296800,6.639296875,-0.9139251708984375,-0.4026336669921875,0.0318145751953125
1782846866365301000,6.649301025390625,-1.2071075439453125,-0.46044921875,0.1072235107421875
1782846866375306000,6.659305908203125,-1.47491455078125,-0.553619384765625,0.1753082275390625
1782846866385311000,6.66931103515625,-1.629547119140625,-0.643585205078125,0.266387939453125
1782846866395316000,6.67931591796875,-1.7326202392578125,-0.733306884765625,0.35113525390625
1782846866405320000,6.68931982421875,-1.827423095703125,-0.873260498046875,0.39288330078125
1782846866415325000,6.699324951171875,-1.87506103515625,-0.9476165771484375,0.417572021484375
1782846866425330000,6.709329833984375,-2.0277557373046875,-1.0076141357421875,0.4425048828125
1782846866435335000,6.7193349609375,-2.3851165771484375,-0.939971923828125,0.513275146484375
1782846866445340000,6.72933984375,-2.6812286376953125,-0.665008544921875,0.6325531005859375
1782846866455343900,6.73934375,-2.800994873046875,-0.3532562255859375,0.68707275390625
1782846866465348900,6.749348876953125,-2.82623291015625,-0.153045654296875,0.6170501708984375
1782846866475353900,6.759353759765625,-2.75872802734375,-0.1016845703125,0.463836669921875
1782846866485358800,6.76935888671875,-2.5519866943359375,-0.156341552734375,0.30035400390625
1782846866495363800,6.77936376953125,-2.2452239990234375,-0.302581787109375,0.175140380859375
1782846866505368000,6.7893681640625,-1.84271240234375,-0.518341064453125,0.1246337890625
1782846866515373000,6.799373046875,-1.4438934326171875,-0.732635498046875,0.147003173828125
1782846866525378000,6.8093779296875,-1.133819580078125,-0.769989013671875,0.2050628662109375
1782846866535383000,6.819383056640625,-0.938262939453125,-0.6543731689453125,0.24847412109375
1782846866545386800,6.82938671875,-0.85198974609375,-0.4806365966796875,0.23681640625
1782846866555391700,6.839391845703125,-0.8068695068359375,-0.3592529296875,0.181365966796875
1782846866565396700,6.849396728515625,-0.768829345703125,-0.251312255859375,0.139404296875
1782846866575401700,6.859401611328125,-0.7339019775390625,-0.16357421875,0.1229095458984375
1782846866585406700,6.86940673828125,-0.6930084228515625,-0.0925140380859375,0.1080474853515625
1782846866595411000,6.879410888671875,-0.6466522216796875,-0.031005859375,0.075347900390625
1782846866605416000,6.889416015625,-0.5856170654296875,0.0011444091796875,0.029266357421875
1782846866615421000,6.8994208984375,-0.5105438232421875,0.00665283203125,-0.0188446044921875
1782846866625426000,6.909426025390625,-0.4421844482421875,-0.0017547607421875,-0.0590362548828125
1782846866635431000,6.919430908203125,-0.3806915283203125,-0.0158538818359375,-0.094268798828125
1782846866645435000,6.929434814453125,-0.3272247314453125,-0.0146484375,-0.1273193359375
1782846866655440000,6.93943994140625,-0.2957611083984375,-0.0282135009765625,-0.158203125
1782846866665444900,6.94944482421875,-0.2774658203125,-0.057220458984375,-0.17010498046875
1782846866675449900,6.959449951171875,-0.2620086669921875,-0.1008758544921875,-0.1631927490234375
1782846866685453800,6.969453857421875,-0.2397613525390625,-0.144256591796875,-0.131683349609375
1782846866695458800,6.979458740234375,-0.210296630859375,-0.1846160888671875,-0.086578369140625
1782846866705463800,6.9894638671875,-0.17626953125,-0.2221832275390625,-0.0357513427734375
1782846866715468800,6.99946875,-0.158172607421875,-0.25311279296875,0.0145111083984375
1782846866725473800,7.009473876953125,-0.1915435791015625,-0.2524261474609375,0.064239501953125
1782846866735478000,7.01947802734375,-0.263336181640625,-0.243682861328125,0.0891571044921875
1782846866745483000,7.02948291015625,-0.353485107421875,-0.2124786376953125,0.1062164306640625
1782846866755488000,7.039488037109375,-0.446380615234375,-0.1578216552734375,0.117950439453125
1782846866765493000,7.049492919921875,-0.5600738525390625,-0.0891571044921875,0.1153411865234375
1782846866775497000,7.0594970703125,-0.6803436279296875,-0.0140533447265625,0.1029815673828125
1782846866785502000,7.069501953125,-0.7434234619140625,0.054229736328125,0.090911865234375
1782846866795507000,7.0795068359375,-0.7827911376953125,0.1075592041015625,0.102691650390625
1782846866805512000,7.089511962890625,-0.8102874755859375,0.1241302490234375,0.1136932373046875
1782846866815517000,7.099516845703125,-0.841888427734375,0.1084136962890625,0.12115478515625
1782846866825521000,7.10952099609375,-0.892913818359375,0.0682830810546875,0.1303863525390625
1782846866835526000,7.11952587890625,-0.9625396728515625,0.0105438232421875,0.1357574462890625
1782846866845531000,7.12953076171875,-1.0576324462890625,-0.07427978515625,0.1409912109375
1782846866855535900,7.139535888671875,-1.1725006103515625,-0.1798858642578125,0.165557861328125
1782846866865540900,7.149540771484375,-1.3036651611328125,-0.284881591796875,0.21905517578125
1782846866875544800,7.159544921875,-1.4623870849609375,-0.378326416015625,0.29925537109375
1782846866885549800,7.1695498046875,-1.6615753173828125,-0.43670654296875,0.42108154296875
1782846866895554800,7.179554931640625,-1.87200927734375,-0.4817047119140625,0.5552215576171875
1782846866905559800,7.189559814453125,-2.0899200439453125,-0.5267486572265625,0.621124267578125
1782846866915563800,7.199563720703125,-2.3101348876953125,-0.570892333984375,0.6362152099609375
1782846866925568800,7.20956884765625,-2.5101470947265625,-0.5984649658203125,0.6502532958984375
1782846866935573800,7.21957373046875,-2.71343994140625,-0.612030029296875,0.667938232421875
1782846866945578800,7.229578857421875,-2.8271942138671875,-0.6358184814453125,0.635711669921875
1782846866955583700,7.239583740234375,-2.8044586181640625,-0.6937713623046875,0.5143280029296875
1782846866965588000,7.249587890625,-2.664520263671875,-0.7940673828125,0.3239288330078125
1782846866975593000,7.259593017578125,-2.40460205078125,-0.8700408935546875,0.1767578125
1782846866985598000,7.269597900390625,-2.1044158935546875,-0.9090576171875,0.0957794189453125
1782846866995603000,7.27960302734375,-1.944244384765625,-0.8883056640625,0.0734100341796875
1782846867005607000,7.28960693359375,-1.8672027587890625,-0.7633819580078125,0.087921142578125
1782846867015612000,7.29961181640625,-1.798736572265625,-0.5703887939453125,0.1162261962890625
1782846867025617000,7.309616943359375,-1.734344482421875,-0.376373291015625,0.167999267578125
1782846867035622000,7.319621826171875,-1.61920166015625,-0.214874267578125,0.234588623046875
1782846867045627000,7.329626953125,-1.3919677734375,-0.12860107421875,0.261962890625
1782846867055630800,7.339630859375,-1.1135406494140625,-0.12725830078125,0.2607574462890625
1782846867065635800,7.3496357421875,-0.8088531494140625,-0.1795806884765625,0.2354888916015625
1782846867075640800,7.359640869140625,-0.484375,-0.2190704345703125,0.217987060546875
1782846867085645800,7.369645751953125,-0.203125,-0.200347900390625,0.1990203857421875
1782846867095650800,7.37965087890625,-0.0246124267578125,-0.1424407958984375,0.151947021484375
1782846867105655000,7.389655029296875,0.061920166015625,-0.0914459228515625,0.0612030029296875
1782846867115660000,7.399659912109375,0.1091156005859375,-0.0600738525390625,-0.0406036376953125
1782846867125665000,7.4096650390625,0.14105224609375,-0.0015869140625,-0.091033935546875
1782846867135670000,7.419669921875,0.0476226806640625,0.0861663818359375,-0.1429595947265625
1782846867145673700,7.429673828125,-0.0712127685546875,0.177886962890625,-0.170135498046875
1782846867155678700,7.4396787109375,-0.0844573974609375,0.211883544921875,-0.172271728515625
1782846867165683700,7.44968359375,-0.0130767822265625,0.1860504150390625,-0.1532135009765625
1782846867175688700,7.459688720703125,0.1269989013671875,0.1039581298828125,-0.1265716552734375
1782846867185693700,7.469693603515625,0.2667388916015625,0.0265960693359375,-0.1033477783203125
1782846867195697700,7.47969775390625,0.35040283203125,-0.023468017578125,-0.058807373046875
1782846867205702700,7.48970263671875,0.4036102294921875,-0.05596923828125,-0.0335235595703125
1782846867215708000,7.4997080078125,0.4105377197265625,-0.0717315673828125,-0.0486907958984375
1782846867225713000,7.509712890625,0.361785888671875,-0.0741119384765625,-0.08544921875
1782846867235716900,7.519716796875,0.2946014404296875,-0.0589752197265625,-0.104522705078125
1782846867245721900,7.529721923828125,0.236358642578125,-0.040252685546875,-0.1076507568359375
1782846867255726800,7.539726806640625,0.1630096435546875,-0.01190185546875,-0.105865478515625
1782846867265731800,7.54973193359375,0.0895538330078125,0.0316925048828125,-0.0833282470703125
1782846867275736800,7.55973681640625,0.0305023193359375,0.07421875,-0.0462493896484375
1782846867285740800,7.56974072265625,-0.0330963134765625,0.0853271484375,-0.0178070068359375
1782846867295745800,7.579745849609375,-0.0831298828125,0.0830078125,0.01934814453125
1782846867305750800,7.589750732421875,-0.120574951171875,0.072113037109375,0.0761871337890625
1782846867315755800,7.599755859375,-0.1915283203125,0.0496978759765625,0.0936737060546875
1782846867325760800,7.6097607421875,-0.29144287109375,0.0111083984375,0.050262451171875
1782846867335765000,7.619764892578125,-0.4073638916015625,-0.059295654296875,0.006561279296875
1782846867345770000,7.62977001953125,-0.515899658203125,-0.1559600830078125,0.003570556640625
1782846867355775000,7.63977490234375,-0.6175537109375,-0.264190673828125,0.0621337890625
1782846867365780000,7.649780029296875,-0.7469940185546875,-0.362884521484375,0.1676025390625
1782846867375784000,7.659783935546875,-0.9652862548828125,-0.4168701171875,0.2449493408203125
1782846867385789000,7.669788818359375,-1.2911834716796875,-0.4319305419921875,0.374420166015625
1782846867395794000,7.6797939453125,-1.719696044921875,-0.40521240234375,0.7437286376953125
1782846867405799000,7.689798828125,-1.7872161865234375,-0.4172515869140625,1.0279541015625
1782846867415804000,7.699803955078125,-1.927764892578125,-0.54229736328125,1.1398162841796875
1782846867425808000,7.709807861328125,-2.0202789306640625,-0.77471923828125,1.0965728759765625
1782846867435812900,7.719812744140625,-2.0377349853515625,-1.0738372802734375,0.82403564453125
1782846867445817900,7.72981787109375,-1.951873779296875,-1.244964599609375,0.5117645263671875
1782846867455822800,7.73982275390625,-1.8916168212890625,-1.262664794921875,0.3782501220703125
1782846867465826800,7.749826904296875,-2.00616455078125,-1.0084075927734375,0.4337005615234375
1782846867475831800,7.759831787109375,-2.0283355712890625,-0.5985870361328125,0.5686187744140625
1782846867485836800,7.7698369140625,-1.9743194580078125,-0.1774749755859375,0.6845703125
1782846867495841800,7.779841796875,-2.021697998046875,0.0476837158203125,0.7064056396484375
1782846867505846800,7.7898466796875,-2.0738677978515625,0.0470428466796875,0.6028900146484375
1782846867515850800,7.799850830078125,-2.019805908203125,-0.1239471435546875,0.48297119140625
1782846867525855700,7.809855712890625,-1.77679443359375,-0.4449462890625,0.4178619384765625
1782846867535860700,7.81986083984375,-1.3573455810546875,-0.80279541015625,0.3953094482421875
1782846867545865700,7.82986572265625,-1.0370025634765625,-0.9719085693359375,0.330169677734375
1782846867555870700,7.83987060546875,-0.9175262451171875,-0.8112640380859375,0.22265625
1782846867565874700,7.849874755859375,-0.939910888671875,-0.527435302734375,0.12152099609375
1782846867575880000,7.8598798828125,-1.0222930908203125,-0.340301513671875,0.0940399169921875
1782846867585885000,7.869885009765625,-1.0879669189453125,-0.1967620849609375,0.130218505859375
1782846867595890000,7.879889892578125,-1.0494537353515625,-0.0703582763671875,0.1470947265625
1782846867605894000,7.889893798828125,-0.9405975341796875,0.017303466796875,0.2120208740234375
1782846867615899000,7.89989892578125,-0.8156890869140625,0.04534912109375,0.28607177734375
1782846867625903900,7.90990380859375,-0.6876068115234375,0.044891357421875,0.3200531005859375
1782846867635908900,7.919908935546875,-0.57574462890625,0.0382232666015625,0.3058013916015625
1782846867645913900,7.929913818359375,-0.49102783203125,0.0191802978515625,0.2557525634765625
1782846867655917800,7.939917724609375,-0.427886962890625,-0.0001983642578125,0.2018585205078125
1782846867665922800,7.9499228515625,-0.390350341796875,-0.0247955322265625,0.158905029296875
1782846867675927800,7.959927734375,-0.36199951171875,-0.043487548828125,0.117584228515625
1782846867685932800,7.969932861328125,-0.3389892578125,-0.0572662353515625,0.0877685546875
1782846867695937000,7.97993701171875,-0.335174560546875,-0.0602264404296875,0.0860595703125
1782846867705942000,7.98994189453125,-0.3516082763671875,-0.05810546875,0.088623046875
1782846867715947000,7.999947021484375,-0.372955322265625,-0.065277099609375,0.0818634033203125
1782846867725952000,8.009951904296875,-0.3674163818359375,-0.0781097412109375,0.07525634765625
1782846867735957000,8.01995703125,-0.3621673583984375,-0.0872802734375,0.070098876953125
1782846867745961000,8.0299609375,-0.3793487548828125,-0.084686279296875,0.0901031494140625
1782846867755966000,8.039966064453125,-0.409149169921875,-0.057830810546875,0.1238861083984375
1782846867765971000,8.049970947265624,-0.44659423828125,-0.0214385986328125,0.1533660888671875
1782846867775976000,8.059975830078125,-0.4840240478515625,0.0015869140625,0.1765289306640625
1782846867785979600,8.069979736328126,-0.5178985595703125,0.0115814208984375,0.19921875
1782846867795984600,8.079984619140625,-0.5783538818359375,0.009429931640625,0.214813232421875
1782846867805989600,8.08998974609375,-0.657684326171875,0.001983642578125,0.2280731201171875
1782846867815994600,8.09999462890625,-0.742584228515625,-0.0079345703125,0.2410736083984375
1782846867825999600,8.10999951171875,-0.8345489501953125,-0.0395050048828125,0.253814697265625
1782846867836003800,8.12000390625,-0.9274444580078125,-0.0902557373046875,0.2412109375
1782846867846008800,8.1300087890625,-1.023345947265625,-0.177886962890625,0.21942138671875
1782846867856013800,8.140013916015626,-1.11016845703125,-0.2879791259765625,0.2347564697265625
1782846867866018800,8.150018798828125,-1.2089080810546875,-0.395965576171875,0.2608184814453125
1782846867876022800,8.160022705078125,-1.339752197265625,-0.50225830078125,0.2653656005859375
1782846867886028500,8.170028564453125,-1.466766357421875,-0.5658416748046875,0.2458038330078125
1782846867896033500,8.180033447265625,-1.6248931884765625,-0.5601959228515625,0.243438720703125
1782846867906038500,8.19003857421875,-1.8210296630859375,-0.5300445556640625,0.2859344482421875
1782846867916043500,8.20004345703125,-1.999114990234375,-0.5165252685546875,0.3780059814453125
1782846867926047500,8.210047607421876,-2.19329833984375,-0.5118865966796875,0.483184814453125
1782846867936052500,8.220052490234375,-2.3227996826171875,-0.54193115234375,0.5381011962890625
1782846867946057500,8.230057373046876,-2.3748626708984375,-0.63031005859375,0.5267333984375
1782846867956062500,8.2400625,-2.3668060302734375,-0.7392425537109375,0.4881134033203125
1782846867966066700,8.250066650390625,-2.337554931640625,-0.8258209228515625,0.4519500732421875
1782846867976071700,8.26007177734375,-2.2864227294921875,-0.8907928466796875,0.4019927978515625
1782846867986076700,8.27007666015625,-2.21185302734375,-0.9269561767578125,0.363922119140625
1782846867996081700,8.28008154296875,-2.123809814453125,-0.93023681640625,0.3497467041015625
1782846868006086700,8.290086669921875,-2.0182952880859375,-0.89898681640625,0.34716796875
1782846868016090600,8.300090576171876,-1.92413330078125,-0.830169677734375,0.3463134765625
1782846868026095600,8.310095703125,-1.765594482421875,-0.7162933349609375,0.342132568359375
1782846868036100600,8.3201005859375,-1.5903778076171875,-0.5633697509765625,0.343536376953125
1782846868046105600,8.330105712890624,-1.41748046875,-0.37255859375,0.3506011962890625
1782846868056109600,8.340109619140625,-1.26812744140625,-0.23333740234375,0.3506317138671875
1782846868066114600,8.350114501953126,-1.1792449951171875,-0.097503662109375,0.4034423828125
1782846868076119600,8.36011962890625,-0.8779754638671875,0.0170135498046875,0.4135894775390625
1782846868086124500,8.37012451171875,-0.6826171875,-0.0624237060546875,0.3534088134765625
1782846868096129500,8.380129638671875,-0.6340789794921875,-0.106903076171875,0.2944488525390625
