time,seconds_elapsed,z,y,x
1782845807894760000,0.075760009765625,0.0987573113501072,0.01761602845042944,-0.005661679023504257
1782845807904765000,0.085764892578125,0.09620002808272839,0.01688537608832121,-0.018876403775066136
1782845807914770000,0.09577001953125,0.14308862050771712,-0.001975830117613077,-0.03330152722969651
1782845807924775000,0.10577490234375,0.1370066702455282,-0.02849967990592122,-0.053569531493633984
1782845807934780000,0.11577978515625,0.12174831083714961,-0.03811915664449334,-0.013256956458091735
1782845807944785000,0.125784912109375,0.0992974095761776,-0.03871726866811514,-0.023200258323550223
1782845807954790000,0.135789794921875,0.06278700330257415,-0.055891836961358785,-0.011948650338500738
1782845807964795000,0.145794921875,0.028799393504858016,-0.05020356219187379,-0.03003711860626936
1782845807974800000,0.1557998046875,0.0015887304961681365,-0.03596417056769132,-0.058121934100985526
1782845807984804900,0.165804931640625,-0.005041501298546791,-0.022553338722139597,-0.06658215780183672
1782845807994809900,0.175809814453125,-0.0004629413366317749,0.005800064580887556,-0.08758417542874812
1782845808004814800,0.18581494140625,0.05461714085042476,0.005492752197384834,-0.10726458906307816
1782845808014819800,0.19581982421875,0.09850538241565227,0.00824789612442255,-0.0730688894726336
1782845808024824800,0.205824951171875,0.12685644763112067,0.005657733500748873,-0.06378361312448978
1782845808034829800,0.215829833984375,0.09279226546585559,0.007778963438421487,-0.04675970534831285
1782845808044834800,0.225834716796875,0.07694412347078323,-0.0027495909690856933,-0.017969225802272556
1782845808054839800,0.23583984375,0.06134206519126892,-0.0052723874449729915,0.00139817636013031
1782845808064844800,0.2458447265625,0.06861293297708033,-0.0008823357924818992,-0.00673968351855874
1782845808074849800,0.255849853515625,0.11340133825242518,0.008862374760955572,-0.02026873491629958
1782845808084854800,0.265854736328125,0.1504097571760416,0.023509908794611692,-0.01436535609140992
1782845808094859800,0.27585986328125,0.1276531509667635,0.03222659147456288,-0.004176408901810646
1782845808104864800,0.28586474609375,0.10875906540453434,0.029174802688509225,-0.0020876199290156363
1782845808114870500,0.29587060546875,0.09669219551384449,0.0024452011950314044,0.061807198484987017
1782845808124875500,0.30587548828125,0.12120762808918953,-0.0013780103549361229,0.09118512253016232
1782845808134880500,0.315880615234375,0.14326046994328498,-0.012017477791011333,0.08003931300714612
1782845808144886500,0.325886474609375,0.12451251485347747,-0.00007978723794221877,0.07775558598414063
1782845808154891500,0.3358916015625,0.135160750117898,0.020812340273708103,0.05469459000080824
1782845808164896500,0.345896484375,0.14323942715525625,0.04007905854061246,0.022514321886003018
1782845808174901500,0.355901611328125,0.13558452848792074,0.04502659794539213,0.02270370697826147
1782845808184906500,0.365906494140625,0.08931026856899262,0.06463482312634587,0.026091011328995228
1782845808194911500,0.375911376953125,0.05012041395306587,0.0951544645525515,0.007229805123060941
1782845808204916500,0.38591650390625,0.048804655179381366,0.07426365221515298,0.032980478581786155
1782845808214921500,0.39592138671875,0.08133154477477073,0.004062427133321762,0.04177592558637261
1782845808224926500,0.405926513671875,0.13633388555049897,-0.018279022403806446,0.05092646963894367
1782845808234931500,0.415931396484375,0.13588205012977123,-0.008408931905031204,0.04634513319805264
1782845808244936400,0.4259365234375,0.1263718789845705,0.0015719254918396472,0.03232216080352664
1782845808254941400,0.43594140625,0.11467618049383163,-0.010642243915051221,0.07968845374286174
1782845808264946400,0.445946533203125,0.11450842271149157,-0.011376695669442414,0.07183131050169468
1782845808274951400,0.455951416015625,0.10026362425982951,0.008161971406638623,0.07234174424186349
1782845808284956400,0.465956298828125,0.09939677829742431,0.011342793399840593,0.037327860136330125
1782845808294961400,0.47596142578125,0.12135726569294929,-0.015887158831208944,0.02905819057151675
1782845808304966400,0.48596630859375,0.11112462549209594,-0.033291882618516684,0.015073942752182483
1782845808314971400,0.495971435546875,0.10464870747625828,-0.031112638883292673,-0.017678426162153482
1782845808324976400,0.505976318359375,0.07684007857441902,0.010624562127888202,-0.05847513145282864
1782845808334981400,0.5159814453125,0.08774608799219132,0.026520781048387287,-0.06406535267531871
1782845808344986400,0.525986328125,0.09847732536494731,0.01746346823722124,-0.06982596202865242
1782845808354991400,0.535991455078125,0.1272387249469757,0.020693243938684464,-0.06352613123208284
1782845808364996400,0.545996337890625,0.12054419574439525,-0.003899199395626783,-0.043230508308857676
1782845808375001300,0.55600146484375,0.10365969643890857,-0.0008653846576809883,-0.006166413675248623
1782845808385006300,0.56600634765625,0.08599252232313155,-0.008803776441514491,-0.012177782919257878
1782845808395011300,0.57601123046875,0.08396598493158816,-0.006049801558256149,0.012212708102166653
1782845808405016300,0.586016357421875,0.09014613487124443,0.005455342796444893,0.010159721095114945
1782845808415021300,0.596021240234375,0.11031447815299034,-0.00254953835234046,0.004045622128993272
1782845808425026300,0.6060263671875,0.11742226433157921,-0.011787468427419661,0.004319470634311437
1782845808435031300,0.61603125,0.16464637232124804,-0.007535217810422182,0.020099369698762894
1782845808445036300,0.626036376953125,0.169428345900774,-0.023725158980488777,0.0350134457141161
1782845808455041500,0.63604150390625,0.17364859394431112,-0.020076427214592695,0.036998482051491734
1782845808465046500,0.646046630859375,0.151938281917572,-0.0059619771443307394,0.03991115462779998
1782845808475051500,0.656051513671875,0.09311375250518321,-0.008189736196398735,0.030231472134590147
1782845808485056500,0.666056396484375,0.024055413848161695,-0.01307356271520257,-0.009132570004463195
1782845808495061500,0.6760615234375,-0.03326514074206352,0.007594692912697792,-0.03794701494798064
1782845808505066500,0.68606640625,-0.07028992627859115,0.024350889663398264,-0.036246494640409944
1782845808515071500,0.696071533203125,-0.06908990283906459,-0.0030145255155861377,-0.014948562806844711
1782845808525076500,0.706076416015625,-0.019150106149911878,-0.009094283820688723,-0.021891806073486803
1782845808535081500,0.71608154296875,0.039461657294631004,-0.0005278232663869858,-0.008705430633574724
1782845808545086500,0.72608642578125,0.09488193122148514,0.01347936703711748,-0.024385668715834617
1782845808555091500,0.736091552734375,0.13912965374886987,0.00453282112404704,-0.0084689915291965
1782845808565096400,0.746096435546875,0.14605390005409716,-0.002523088736832142,-0.0365796721175313
1782845808575101400,0.756101318359375,0.17806231873333453,0.028412293883413074,-0.03617240649089217
1782845808585106400,0.7661064453125,0.20484803432822227,0.0375403338432312,-0.03992372184842825
1782845808595111400,0.776111328125,0.16187164691090583,0.047645840533077716,-0.06220978793650865
1782845808605116400,0.786116455078125,0.09274024301767349,0.07078165531828999,-0.04836363341361284
1782845808615121400,0.796121337890625,0.10381459473967551,0.03651858958005905,-0.0151483231626451
1782845808625126400,0.80612646484375,0.09973755455911158,0.0027763328455388545,0.037606530947238204
1782845808635131400,0.81613134765625,0.08638415198922157,0.02638093418627977,0.06915449250787496
1782845808645136400,0.826136474609375,0.09074351624250411,0.019870529378950594,0.08355930382683872
1782845808655141400,0.836141357421875,0.09023089054524898,-0.00864025644287467,0.10126008795127273
1782845808665146400,0.846146484375,0.0981119991838932,0.017281243538111446,0.08072378813996911
1782845808675151400,0.8561513671875,0.06797697316110134,0.03427124904468656,0.06361527082026004
1782845808685156400,0.86615625,0.0460889664798975,0.017324352027475832,0.0526245057284832
1782845808695161300,0.876161376953125,0.05456628744602203,0.03157163469716907,0.03951353361234069
1782845808705166300,0.886166259765625,0.05987842237949371,0.0057720075301826,0.05425225306078791
1782845808715171300,0.89617138671875,0.07924363258481025,-0.02477379125058651,0.05155117740854621
1782845808725177600,0.906177490234375,0.1135100593239069,-0.02107742095068097,0.0494327239498496
1782845808735182600,0.9161826171875,0.09810498492121696,-0.029118980848044155,0.02977364536449313
1782845808745187600,0.9261875,0.07151859129071235,-0.014259703759849071,-0.01888853260427713
1782845808755192600,0.936192626953125,0.05994681144058704,-0.02141469008103013,-0.028586919797956942
1782845808765197600,0.946197509765625,0.03710135790407657,-0.010075549943000077,-0.008530512458086014
1782845808775202600,0.95620263671875,0.033897593426704405,-0.01134615440070629,-0.001573240666091442
1782845808785207600,0.96620751953125,0.0594213262617588,0.01760185379460454,0.010149638092517852
1782845808795212500,0.976212646484375,0.07575812855660916,0.025952333510667083,0.012267653159797191
1782845808805217500,0.986217529296875,0.06622340749204159,0.0340156668484211,-0.01780614419505
1782845808815222500,0.996222412109375,0.021568857729434964,0.050263914076983926,0.02272065811306238
1782845808825227500,1.0062275390625,-0.014717092138528823,0.07431392109766602,0.02410115268602967
1782845808835232500,1.016232421875,0.025415596285462378,0.06585194383114576,-0.024864830534905194
1782845808845237500,1.026237548828125,-0.058228317084908485,0.07194251579120754,0.051244595677405594
1782845808855242500,1.036242431640625,-0.041538463568687435,0.02913447067812085,0.10482333339080215
1782845808865247500,1.04624755859375,-0.005720131212472915,-0.004719721998274326,0.12844926978051663
1782845808875252500,1.05625244140625,0.05452537091374397,0.012695815443992614,0.10496741803660989
1782845808885257500,1.066257568359375,0.103584293115139,0.05936170502901077,0.08555383864492178
1782845808895262500,1.076262451171875,0.17651859642267226,0.06575958937257528,0.053308980861306185
1782845808905267500,1.086267333984375,0.23309388560354707,0.04403597947284579,0.02245528517514467
1782845808915272400,1.0962724609375,0.2672147663921118,0.02151756593361497,0.021337825452536343
1782845808925277400,1.10627734375,0.2377209608823061,0.026652152343094346,-0.032599078048765655
1782845808935282400,1.116282470703125,0.148465637370944,0.04179360737353563,-0.054932782670855516
1782845808945287400,1.126287353515625,0.1418605400174856,0.04072042518407106,-0.03284428498148918
1782845808955292400,1.13629248046875,0.131522101354599,0.006972761622071266,-0.04155746053010225
1782845808965297400,1.14629736328125,0.12439736404120921,-0.018712153124064206,-0.03751987557709217
1782845808975302400,1.156302490234375,0.1308060620397329,-0.01480813142284751,-0.03095233375504613
1782845808985307400,1.166307373046875,0.12754092276394366,-0.02477583707720041,0.005960661970078945
1782845808995312400,1.1763125,0.09925883113145828,-0.022958996913582084,-0.0010823884092271327
1782845809005317400,1.1863173828125,0.04427285696864128,0.005373071340471506,-0.02864814846590161
1782845809015322400,1.196322265625,0.03605214111208915,0.030186756210029125,-0.03910290698483586
1782845809025327400,1.206327392578125,0.030663433811068532,0.033909137734025714,-0.07562018139064311
1782845809035332400,1.216332275390625,-0.020073650735616684,0.05844795118495821,-0.10431874486953019
1782845809045337300,1.22633740234375,-0.017346856120228765,0.05461480276286602,-0.0658954907119274
1782845809055342300,1.23634228515625,-0.01939677438735962,0.04108765106126666,-0.030409605180472133
1782845809065347300,1.246347412109375,0.04006254579722881,-0.00124371645078063,0.0008449263915419578
1782845809075352300,1.256352294921875,0.1428238320916891,-0.013744886105507611,0.0007183774024248123
1782845809085357300,1.266357421875,0.1593675551354885,-0.023106150299310683,-0.027186989872157574
1782845809095362300,1.2763623046875,0.16916005035340784,-0.018140198455005883,-0.04007189814746379
1782845809105367300,1.2863671875,0.15468085862398145,-0.030398353134095668,-0.03071910952106118
1782845809115372300,1.296372314453125,0.11668109057545661,0.019019173246622084,-0.012990414476394653
1782845809125377300,1.306377197265625,0.11461129856407641,0.02099485723376274,0.008900807075202464
1782845809135382300,1.31638232421875,0.0844219120055437,0.0032478958800435066,0.0008482873924076557
1782845809145387300,1.32638720703125,0.05062544086575508,0.015635083766281605,-0.022729864332824944
1782845809155392300,1.336392333984375,0.06107552320957183,0.023624036693572995,-0.0038296412907540796
1782845809165397200,1.346397216796875,0.04354162008464336,0.0016973054371774196,0.033711715465784074
1782845809175402200,1.35640234375,0.09478490058779716,-0.019783289486914872,0.03673077102601528
1782845809185407200,1.3664072265625,0.07135258707404137,-0.043551118565350766,0.04464300545528531
1782845809195412200,1.376412109375,0.08409808687865733,-0.040833384039253,0.02887888848185539
1782845809205417200,1.386417236328125,0.056309331721067425,-0.02245966908931732,0.0046584933303296565
1782845809215422200,1.396422119140625,0.026695114701986312,-0.002146364378929138,0.012162439219653605
1782845809225427500,1.406427490234375,0.02139993090331554,-0.0001220189444720745,0.015810294202715156
1782845809235432400,1.416432373046875,0.02608604289293289,0.011566373022645711,-0.014311580077558755
1782845809245437400,1.4264375,0.03900689926445484,0.04118205134645104,-0.004492050722241401
1782845809255442400,1.4364423828125,0.10445289264321327,0.04673603221178055,-0.044970483843982216
1782845809265447400,1.446447509765625,0.13164192834198474,0.03852569161877036,0.0012103987030684948
1782845809275452400,1.456452392578125,0.18739362618029118,0.009489420618116855,0.03814136847630143
1782845809285458400,1.46645849609375,0.20062603271901605,0.00664732905998826,0.05732903015762567
1782845809295463400,1.47646337890625,0.16882102765738963,-0.019903262604773042,0.07340951960384845
1782845809305468400,1.486468505859375,0.17795301313996315,-0.054633799724280833,0.040769963414221996
1782845809315473400,1.496473388671875,0.12266484116017817,-0.020697920113801956,0.06187003458812833
1782845809325478400,1.506478515625,0.11429273413419723,0.004035831387341022,0.026075959890335797
1782845809335483400,1.5164833984375,0.10035597871839999,0.029187369909137485,-0.02401946575194597
1782845809345488400,1.52648828125,0.09511807806491851,0.03805091371387243,-0.03618453532010316
1782845809355493400,1.536493408203125,0.11749532956779002,0.018378244994580746,-0.042446372193843125
1782845809365498400,1.546498291015625,0.13439794905185698,0.00801715610846877,-0.04088613713979721
1782845809375503400,1.55650341796875,0.07939034757912158,0.010677461358904837,0.03653495619297027
1782845809385508400,1.56650830078125,0.057151627764105796,0.006189063898473977,0.04956541041880846
1782845809395513300,1.576513427734375,0.05181260482370853,0.024458295560628174,0.030519056904315948
1782845809405518300,1.586518310546875,0.0792588301539421,0.027768881413340565,0.005460018971562385
1782845809415523300,1.5965234375,0.07707914802730083,0.053311611209809776,-0.035979952658712865
1782845809425528300,1.6065283203125,0.07120762564539909,0.05965206627771258,-0.04000876978337765
1782845809435533300,1.616533203125,0.05329027616083622,0.059995472887903446,-0.057143152196705335
1782845809445538300,1.626538330078125,0.01767301933467388,0.039686844352632755,-0.0557373770520091
1782845809455543300,1.636543212890625,0.02619067231118679,0.0320046192869544,-0.06049933075681328
1782845809465548300,1.64654833984375,0.07207797873914241,0.020745997039228678,-0.026006255654990672
1782845809475553300,1.65655322265625,0.12114391520321369,-0.03329349005371332,-0.057495326635241505
1782845809485558300,1.666558349609375,0.16747896539866924,-0.018826719414442777,-0.05853183007612824
1782845809495563300,1.676563232421875,0.17694705096781252,-0.008345219019055366,-0.055051586744934315
1782845809505568300,1.686568359375,0.1735416264384985,-0.007265753219276666,-0.03570288928300142
1782845809515573200,1.6965732421875,0.1257049395084381,-0.02124868586435914,-0.023097528601437805
1782845809525578200,1.706578125,0.10767360825538634,0.004842763856053352,0.006138795015960931
1782845809535583200,1.716583251953125,0.08007190010249614,0.027870442091673612,0.013792524639517068
1782845809545588200,1.726588134765625,0.07946925803422927,0.03156768917441368,0.04265636168271303
1782845809555593200,1.73659326171875,0.04639057977497577,0.03535349132344127,0.05853285298943519
1782845809565598200,1.74659814453125,0.012006664136052132,0.012902005540579556,0.037030338494479655
1782845809575603200,1.756603271484375,0.04948854579031467,0.05033288765996694,0.09048764178529381
1782845809585608200,1.766608154296875,0.055503860557079315,0.023474691350758074,0.11018807529434561
1782845809595613200,1.77661328125,0.06218319219052791,-0.003400456093251705,0.07576148955747485
1782845809605618200,1.7866181640625,0.07350655023753642,-0.006427548829466104,0.07209799861386418
1782845809615623200,1.796623046875,0.08049743203818797,-0.0066124038770794865,0.08568520993962883
1782845809625628200,1.806628173828125,0.06741875475645065,0.010730360589921474,0.12521014172881842
1782845809635633200,1.816633056640625,0.060357730329036706,-0.02886485995650291,0.14107216611877083
1782845809645638100,1.82663818359375,0.03800736683309078,-0.03203954446986317,0.14468290396183728
1782845809655643100,1.83664306640625,0.012694061878323554,-0.02465586395934224,0.12015768064483999
1782845809665648000,1.846648193359375,0.0030471126109361648,-0.007768880435824394,0.08281389228701591
1782845809675653000,1.856653076171875,0.0009907646030187607,0.01226575346365571,0.06055515259727835
1782845809685658000,1.866658203125,0.005903086563944816,0.04153437191545963,0.06171966633200645
1782845809695663000,1.8766630859375,0.006384148079156876,0.04472045460566878,0.012321575304120778
1782845809705668000,1.886668212890625,0.08017126882374286,0.04268310355916619,-0.01564706646502018
1782845809715673000,1.896673095703125,0.14422960723638534,0.029048838221281764,-0.055776540018618107
1782845809725678000,1.906677978515625,0.21972879259586334,0.02378857960551977,-0.0420769543595612
1782845809735683300,1.916683349609375,0.2606166833013296,-0.0007739069819450377,-0.03471490115895867
1782845809745688300,1.926688232421875,0.26978666270673274,-0.045036096426099535,-0.02357566750720143
1782845809755693300,1.936693359375,0.2032645645290613,-0.0465649134285748,-0.013064941017329692
1782845809765698300,1.9466982421875,0.14355740706324577,-0.05106339389160275,0.02407251111343503
1782845809775703300,1.956703369140625,0.03377893548309803,-0.047251726648956535,0.018231530000269412
1782845809785708300,1.966708251953125,-0.021896189987659454,-0.033997108278423546,-0.012700491619110106
1782845809795713300,1.97671337890625,-0.05017243640124797,-0.013322569040209054,0.0006229542039334774
1782845809805718300,1.98671826171875,-0.035713702937960626,-0.01569952730461955,-0.020906156037002802
1782845809815723300,1.99672314453125,0.006089549046754837,-0.03811331142559647,-0.02696940159872174
1782845809825728300,2.006728271484375,0.05146481429934501,0.0011357260316610335,-0.042648178376257416
1782845809835733200,2.016733154296875,0.08081950359940529,0.012282996859401464,-0.08240399631187319
1782845809845738200,2.02673828125,0.09186112209558486,0.022120646393299102,-0.08346008123606442
1782845809855744300,2.036744140625,0.08584872993826866,0.05560454445257783,-0.0936523894265294
1782845809865749200,2.046749267578125,0.07701543514132499,0.06423077237010001,-0.08564458566829562
1782845809875754200,2.056754150390625,0.10547346786260604,0.06301569749191403,-0.07962415633499621
1782845809885759200,2.06675927734375,0.14243746312260627,0.015607465106993913,-0.029666531728208063
1782845809895764200,2.07676416015625,0.1498433554649353,-0.02976853079795837,0.01222936697602272
1782845809905769500,2.08676953125,0.13613222549855708,-0.016080781707167625,0.06368614409938454
1782845809915774500,2.0967744140625,0.10000234297513962,-0.030508973901718854,0.09065656861141323
1782845809925779500,2.106779541015625,0.04104571161568164,-0.04107318414449691,0.08931333730891347
1782845809935784400,2.116784423828125,0.005033317992091179,-0.013007365611195563,0.07319280811324715
1782845809945789400,2.12678955078125,-0.018325345763564108,0.025844489222019908,0.02843231375813484
1782845809955794400,2.13679443359375,0.026738953843712804,0.0686842446476221,0.005061959564685821
1782845809965799400,2.14679931640625,0.10257482381165027,0.08991422581151128,-0.0009828735575079918
1782845809975804400,2.156804443359375,0.1556418126106262,0.05541808196976781,-0.03173910021856427
1782845809985809400,2.166809326171875,0.2032213099092245,0.021956834133714437,-0.05713993732631206
1782845809995814400,2.176814453125,0.24384090506732461,0.01462634511515498,-0.07525134807825087
1782845810005819400,2.1868193359375,0.19628361960053442,0.003109802583605051,-0.08090878931805491
1782845810015824400,2.196824462890625,0.13455576996207236,0.01562149363234639,-0.03158303287401795
1782845810025829400,2.206829345703125,0.12260755801498889,0.019819237583130596,0.004994593416899442
1782845810035834400,2.21683447265625,0.09226561124324797,0.001534077699482441,0.02768573317453265
1782845810045839400,2.22683935546875,0.08392039222419262,0.009751870946586132,0.013859160134941338
1782845810055844400,2.23684423828125,0.09867430924177169,0.034143677142262456,0.021685323715955017
1782845810065849300,2.246849365234375,0.07875906393826007,0.04582476258575916,-0.01949541245624423
1782845810075854300,2.256854248046875,0.05956336508095264,0.029585137055069207,-0.03777209677249193
1782845810085859300,2.266859375,0.07362287009358405,0.01351750709041953,-0.030380525216460227
1782845810095864300,2.2768642578125,0.09358604619204998,0.023199966062605378,-0.007714958291500806
1782845810105869300,2.286869384765625,0.1204939268618822,0.007090688913315534,-0.011149608915299177
1782845810115875600,2.29687548828125,0.13986322872042656,0.005795242275297641,-0.010181202274560928
1782845810125880600,2.306880615234375,0.16110533871352672,-0.0018223931215703487,-0.006734276691079139
1782845810135885600,2.316885498046875,0.17926468026041983,-0.0037850714966654775,-0.0010455635301768779
1782845810145890600,2.326890625,0.14326514611840246,-0.007290303138643503,-0.00010156067833304404
1782845810155895600,2.3368955078125,0.1063379757374525,-0.015959493415057657,0.002648614812642336
1782845810165900500,2.346900634765625,0.06941255892217159,-0.011208645626157521,0.006451221965998411
1782845810175905500,2.356905517578125,0.015331424644589423,-0.001052139401435852,0.03215089588984847
1782845810185910500,2.36691064453125,-0.03116027741730213,0.014894056140631436,0.0309480959713459
1782845810195915500,2.37691552734375,-0.05357201571166515,0.03067190937846899,0.006947773311287164
1782845810205920500,2.38692041015625,-0.01175005902647972,0.037859336664527656,0.005683598594367504
1782845810215925500,2.396925537109375,0.05826806457340717,0.02562631642669439,0.031534225296229124
1782845810225930500,2.406930419921875,0.11407646103501319,0.024103490773588417,0.03185176681280136
1782845810235935500,2.416935546875,0.17921148876845835,0.01836450873017311,0.03450228132158518
1782845810245940500,2.4269404296875,0.18238719619512556,0.013120324466377497,-0.0011221358977258206
1782845810255945500,2.436945556640625,0.15890695188641546,-0.00015694412738084793,0.02414002339169383
1782845810265950500,2.446950439453125,0.12628829235434533,-0.012089812374860048,0.018658961632102726
1782845810275955500,2.45695556640625,0.07593582321107387,-0.0077903616152703754,0.010260843382030725
1782845810285960400,2.46696044921875,0.03872574423551559,0.007449439223110675,-0.017231559177488087
1782845810295965400,2.47696533203125,0.06034603989124298,0.007498392931371927,0.009933364993333816
1782845810305970400,2.486970458984375,0.09991524921357631,0.011885668104887007,0.005941665008664131
1782845810315975400,2.496975341796875,0.12978490229845047,0.008460223700851201,0.009934241776168347
1782845810325980400,2.50698046875,0.1789776800125837,-0.014893910010159014,-0.028842648124694822
1782845810335985400,2.5169853515625,0.1706090801179409,-0.015572101532667875,-0.015336246950179338
1782845810345990400,2.526990478515625,0.11002455529570579,0.003986000896245241,-0.01102305992618203
1782845810355995400,2.536995361328125,0.03509352521300316,-0.002444616673141718,0.021055501379817723
1782845810366000400,2.54700048828125,0.006943535527586937,-0.008763298300653696,0.04157382714301348
1782845810376005400,2.55700537109375,-0.004873158994317055,0.014336568388342857,0.017430442750453946
1782845810386010400,2.56701025390625,0.002661328163743019,0.028751170448958873,0.0010794657997786998
1782845810396015400,2.577015380859375,0.03734218092262745,0.015798603764921426,-0.011073913330584764
1782845810406021400,2.587021484375,0.06584522182941437,0.013514146089553833,-0.008053104204684495
1782845810416026400,2.5970263671875,0.056333881640434263,-0.004011865989863872,-0.014199498005211352
1782845810426030300,2.6070302734375,0.0619657500475645,0.0026003917567431925,-0.0013851707480847834
1782845810436035300,2.617035400390625,0.07365326523184776,-0.00773307847008109,0.013528613006323575
1782845810446041300,2.627041259765625,0.08739888198971747,-0.012263561506569385,0.02277370347455144
1782845810456046300,2.63704638671875,0.08942951103448868,-0.002491670685261488,0.008624182090908289
1782845810466051300,2.64705126953125,0.10866495738029479,0.0018185937292873858,-0.018892185866087673
1782845810476056300,2.657056396484375,0.14379472295045853,0.011470219171792268,0.0006209083773195743
1782845810486061300,2.667061279296875,0.14946166267096994,0.003224076613038778,-0.014689765740185975
1782845810496066300,2.67706640625,0.13586042281985283,0.05148644160926342,-0.04269230977892875
1782845810506071300,2.6870712890625,0.07677928829789162,0.05130377851873636,-0.04144011776074767
1782845810516076300,2.697076171875,0.06351181044578552,0.030677608466893432,-0.037606823208183045
1782845810526081300,2.707081298828125,0.06454349158108234,-0.014182254609465598,0.023203180932998654
1782845810536086300,2.717086181640625,0.12237258021533488,-0.014426292498409748,0.05274214075878262
1782845810546091300,2.72709130859375,0.13532675433456898,-0.00782441001534462,0.05056128958836197
1782845810556096500,2.737096435546875,0.1373205585002899,-0.003299626067280769,0.02863645802810788
1782845810566101500,2.7471015625,0.13597206650078295,0.008619213654845952,0.021453560786694286
1782845810576106500,2.7571064453125,0.096765845271945,0.022875994805246592,0.02789367683678865
1782845810586111500,2.767111572265625,0.012119476860761641,0.044861762772500514,0.027867373351752756
1782845810596116500,2.777116455078125,-0.02560848850905895,0.03623860359489917,0.04345993315055966
1782845810606121500,2.78712158203125,-0.03504325633049011,0.03771612880155444,0.08914499500468373
1782845810616126500,2.79712646484375,0.0036047464936971663,0.024423954899609086,0.12150325003489851
1782845810626131500,2.80713134765625,0.044887189474701876,-0.004637888933718204,0.13229746964126823
1782845810636136400,2.817136474609375,0.11455810707211493,-0.012994067738205193,0.12345043857991694
1782845810646141400,2.827141357421875,0.18339958810806273,-0.012764496766030788,0.09128171477243303
1782845810656146400,2.837146484375,0.2081020676881075,0.003985416374355555,0.05361790068000555
1782845810666151400,2.8471513671875,0.23245792578756808,-0.0024373101495206353,0.03649535483494401
1782845810676156400,2.857156494140625,0.21527415127456187,0.02638341840431094,-0.0026861703440546987
1782845810686161400,2.867161376953125,0.1712666672438383,0.07330152918472886,-0.025402152281999588
1782845810696166400,2.87716650390625,0.10425766233205795,0.08689312442466617,-0.07880334147140383
1782845810706171400,2.88717138671875,0.0917465558052063,0.07717822448760271,-0.0719981915012002
1782845810716176400,2.89717626953125,0.08032792069017887,0.026561551450192927,-0.044024727426469325
1782845810726181600,2.907181640625,0.0679874945551157,0.0006137479841709137,-0.009352496365457773
1782845810736186600,2.9171865234375,0.05537760382890701,-0.013584580977261066,0.009064473204314707
1782845810746191600,2.927191650390625,0.046558337557315824,-0.023415508509427307,0.023338790011405944
1782845810756196600,2.937196533203125,0.09196925864517688,-0.032594255743175746,0.039761224763095376
1782845810766201600,2.94720166015625,0.12002397126257419,-0.04675722113028168,0.021082097125798463
1782845810776206600,2.95720654296875,0.1453431214362383,-0.008156272318214178,-0.00040974984467029567
1782845810786211600,2.967211669921875,0.12995032199323175,0.030115882930904624,-0.03648395665809512
1782845810796216600,2.977216552734375,0.11044015035927295,0.07590133641958237,-0.014557371532171964
1782845810806221600,2.9872216796875,0.05880757827758789,0.04700257419347763,-0.016061054093390703
1782845810816226600,2.9972265625,-0.018342881420254708,0.031146541152894495,-0.026971447425335644
1782845810826231600,3.0072314453125,-0.06097206283509731,0.038954000033438206,-0.012853782484680413
1782845810836236500,3.017236572265625,-0.072261518612504,0.033079116650670766,-0.0022018939584493636
1782845810846241500,3.027241455078125,-0.07041676752865314,0.01159647589996457,0.01750599220469594
1782845810856246500,3.03724658203125,0.004292728757858276,0.022329612968862055,0.02041150438785553
1782845810866251500,3.04725146484375,0.07330664375126361,0.029616701237112283,0.024224194543808697
1782845810876256500,3.057256591796875,0.17362579759061336,0.03939765214771032,0.007933569478243589
1782845810886261500,3.067261474609375,0.21907471260130404,0.022929916949570178,0.028384675224125383
1782845810896266500,3.0772666015625,0.2357113746255636,0.020077596258372066,0.05042962603271007
1782845810906271500,3.087271484375,0.24145780932307243,0.0330382001183927,0.07104483629912138
1782845810916276500,3.0972763671875,0.19199381345212457,0.03889057940840721,0.04460764188095927
1782845810926281500,3.107281494140625,0.15038812986612318,0.05824614500254392,0.032924949002265926
1782845810936286500,3.117286376953125,0.1287806936919689,0.04344473558142781,0.06154971659258008
1782845810946291500,3.12729150390625,0.11118833837807178,0.014256488889455795,0.07124430439397693
1782845810956296400,3.13729638671875,0.11856558914780616,0.013525105874985456,0.11026757027134299
1782845810966301400,3.147301513671875,0.10508125367462634,0.005920914481580257,0.11190320864915847
1782845810976306400,3.157306396484375,0.1255564709484577,-0.025700112315267323,0.11899360530152917
1782845810986311400,3.1673115234375,0.12663082218170166,-0.03779503925666213,0.08335501342639326
1782845810996316400,3.17731640625,0.11613397808670997,-0.007490063494443893,0.035485593270510436
1782845811006321400,3.1873212890625,0.07055822182595729,0.005719838951528072,-0.0184521870136261
1782845811016326400,3.197326416015625,0.03283317906558513,0.02743526554480195,-0.015734306357055902
1782845811026331400,3.207331298828125,-0.006873392900824547,0.028731296704709527,-0.0575695609152317
1782845811036336400,3.21733642578125,-0.01111526825428009,0.0023790040910243986,-0.030293431454896925
1782845811046341400,3.22734130859375,0.039437107375264166,-0.04306143535226583,0.01489610196724534
1782845811056347400,3.237347412109375,0.09375731110572814,-0.08039616362079978,0.037558600152283905
1782845811066352400,3.247352294921875,0.10619184526503085,-0.06432678009048104,0.0459742540590465
1782845811076357400,3.257357421875,0.12190846983492373,-0.0691493779413402,0.026248247717320917
1782845811086362400,3.2673623046875,0.13788228403627872,-0.07413520352989435,-0.025280571728944778
1782845811096367400,3.277367431640625,0.1236310558438301,-0.035018268019706006,-0.07210325931087136
1782845811106372400,3.287372314453125,0.0925216318309307,-0.004438274708390235,-0.07289630938470364
1782845811116376300,3.297376220703125,0.06110241121649742,0.017221183913946152,-0.07970350518152117
1782845811126381300,3.30738134765625,0.0028945523977279663,-0.003513999470323324,-0.04865560209751129
1782845811136386300,3.31738623046875,-0.03283376358747482,-0.022180267626047134,-0.0411480029463768
1782845811146391300,3.327391357421875,-0.05909808565676212,-0.025391192496567964,-0.022700638238340613
1782845811156396300,3.337396240234375,-0.0648328299164772,-0.0061314884923398495,-0.011156769308447837
1782845811166401300,3.3474013671875,-0.006902034473419189,-0.01233852643892169,-0.010385784935951232
1782845811176406300,3.35740625,0.058819853237271305,-0.024930735377967358,-0.04576353391781449
1782845811186411300,3.367411376953125,0.11514204443991184,-0.032890023819357156,-0.0903923647172749
1782845811196416300,3.377416259765625,0.16113514932990072,-0.0014048983618617057,-0.10227613312602042
1782845811206421200,3.387421142578125,0.12360358331501484,0.033165479759871955,-0.08985781944915652
1782845811216426500,3.397426513671875,0.0750105250597,0.02718742826357484,-0.042896746309846634
1782845811226431500,3.407431396484375,0.00002104278802871704,-0.0028740941315889357,-0.019410656782239674
1782845811236436500,3.4174365234375,-0.053120764812827105,0.009326923532783984,0.0035579847425222396
1782845811246441500,3.42744140625,-0.06193652395308017,0.052629620295017956,0.021663696406036614
1782845811256446500,3.437446533203125,-0.0695429073035717,0.04268675682097673,0.03690744276717305
1782845811266451500,3.447451416015625,0.00913198548257351,0.017903613220155237,0.04137304387390613
1782845811276456400,3.45745654296875,0.09104805214703082,-0.00018397826477885244,0.04070756570249796
1782845811286461400,3.46746142578125,0.14808920527398586,0.009793664261698722,0.03535071484446525
1782845811296466400,3.477466552734375,0.20777707351744173,0.02366626840010285,0.03950023573935032
1782845811306471400,3.487471435546875,0.21524083352684972,0.04660042313337326,0.02167056453824043
1782845811316476400,3.497476318359375,0.1841068595945835,0.08038812644481659,-0.013368892399966716
1782845811326481400,3.5074814453125,0.1404623636573553,0.12120382869690656,-0.011999357612431049
1782845811336486400,3.517486328125,0.12876081994771957,0.135283791975677,-0.05174436189308762
1782845811346491400,3.527491455078125,0.10779635785222053,0.104205347622931,-0.04833806058093905
1782845811356496400,3.537496337890625,0.13618833959996698,0.10931757607012986,-0.004761076921969652
1782845811366501400,3.54750146484375,0.1257967094451189,0.08208104796782136,-0.004314502198249102
1782845811376506400,3.55750634765625,0.11607552589774131,0.07902472913712262,0.020095424176007508
1782845811386511400,3.567511474609375,0.13756722673773764,0.07929010207504034,0.03109378805235028
1782845811396516400,3.577516357421875,0.14994915392696856,0.05295899837985635,0.042627573979645964
1782845811406521300,3.587521240234375,0.15870236922502517,0.06669292469993233,0.009777589909732341
1782845811416526300,3.5975263671875,0.15551614040434358,0.06194003108441829,-0.017357231383770703
1782845811426531600,3.607531494140625,0.15982289768755434,0.06412438938617705,0.0017591186270117759
1782845811436536600,3.61753662109375,0.1546399420917034,0.058005906505882734,0.03865633226111531
1782845811446541600,3.62754150390625,0.09144611155390739,0.03593435995131731,0.03686404201686382
1782845811456546600,3.637546630859375,0.0013175123393535614,0.04177212619408965,-0.0017811843283474444
1782845811466551600,3.647551513671875,-0.023460370564460754,0.054255321800708765,-0.0005035656079649925
1782845811476556500,3.657556640625,-0.017462006932497023,0.014064911840111017,-0.022347294756025076
1782845811486561500,3.6675615234375,0.02201484793126583,-0.02685834243968129,-0.00035012861192226406
1782845811496566500,3.67756640625,0.09437982691824436,-0.03475508703887462,-0.018681904116272924
1782845811506571500,3.687571533203125,0.15649053839445112,-0.005924275482445955,-0.01673997626826167
1782845811516576500,3.697576416015625,0.15663082364797593,0.0031087796702980995,-0.07114055175855756
1782845811526581500,3.70758154296875,0.1486661283791065,0.013460223945230245,-0.07840586658641696
1782845811536586500,3.71758642578125,0.10515198082327842,-0.0017787001103162765,-0.08621507903262972
1782845811546591500,3.727591552734375,0.07041910561621188,-0.016324235074222086,-0.06833002438247203
1782845811556596500,3.737596435546875,0.09814882406294345,0.001050093574821949,-0.02309504438340664
1782845811566601500,3.7476015625,0.10460662190020084,-0.004503302768617868,-0.027766981717199084
1782845811576606500,3.7576064453125,0.165398067471385,-0.023969781391322612,-0.004312164110690355
1782845811586611500,3.767611572265625,0.21736966224908827,-0.023459347651153803,0.025489830565452575
1782845811596616400,3.777616455078125,0.26557693605720994,-0.06042319678068161,0.02165332114249468
1782845811606621400,3.787621337890625,0.265274738240242,-0.05629807967469096,0.010797142215818166
1782845811616626400,3.79762646484375,0.2620113525301218,-0.057027270732074975,0.036345717231184245
1782845811626631400,3.80763134765625,0.19229075057208536,-0.054002662213891744,0.040039018791168925
1782845811636636400,3.817636474609375,0.05068155496716499,-0.060483548665791746,0.02836480147987604
1782845811646641400,3.827641357421875,-0.09345277520120143,-0.03867971313670277,0.026057109059393405
1782845811656646400,3.837646484375,-0.19947277103066444,-0.03548237840011716,0.049297261001914734
1782845811666651400,3.8476513671875,-0.2233908222347498,-0.035885406243056056,0.07477642404288053
1782845811676656400,3.857656494140625,-0.15600947687923908,-0.030920331181585787,0.08466478085070848
1782845811686661400,3.867661376953125,-0.05739946504533291,-0.02994607932195067,0.047025370547175406
1782845811696666400,3.877666259765625,0.05219605118334293,-0.021501491581648588,-0.01983633484840393
1782845811706671400,3.88767138671875,0.09376140275895595,-0.006420826827734708,-0.048455403350293635
1782845811716676400,3.89767626953125,0.12259995923042297,-0.012756897981464862,-0.03441986373513937
1782845811726681300,3.907681396484375,0.13674480443894863,0.002658405554294586,-0.0409529187656939
1782845811736686600,3.9176865234375,0.08449088558852672,-0.0036240357160568235,-0.05522197487577796
1782845811746691600,3.927691650390625,0.04564180723428726,0.020549597684293985,-0.06028334991857409
1782845811756696600,3.937696533203125,-0.036026422148942944,0.020412819562107325,-0.045020314335078
1782845811766701600,3.94770166015625,-0.11387830811440944,0.03048822337463498,-0.021575871992111206
1782845811776706600,3.95770654296875,-0.10418810422718525,0.019973551362007857,0.019024433943629265
1782845811786711600,3.967711669921875,-0.031017654076218603,-0.008554477855563163,0.04754252628907561
1782845811796716500,3.977716552734375,0.0582709871828556,-0.004990063372254372,0.03639963937550783
1782845811806721500,3.987721435546875,0.13418869021534918,-0.00746317548751831,0.013325637780129908
1782845811816727300,3.997727294921875,0.1509720672339201,0.017443594492971896,-0.03197612384483218
1782845811826732300,4.007732177734375,0.16296353380084036,0.06655658496916293,-0.011289017385989426
1782845811836737300,4.0177373046875,0.15405834281146524,0.1046867013990879,0.0022296587482094764
1782845811846742300,4.0277421875,0.12697393653094768,0.11933145895376801,0.011462620387226343
1782845811856747300,4.037747314453125,0.11101648894250392,0.11285714837312698,0.04747603692412376
1782845811866752500,4.04775244140625,0.08474982878565787,0.10219663814902305,0.05871536994948983
1782845811876757500,4.057757568359375,0.10746551846265792,0.08126914706304669,0.08619842015877366
1782845811886762500,4.067762451171875,0.14505670571029186,0.05822407930120825,0.1081356728091836
1782845811896767500,4.077767578125,0.17418050886392591,0.023299042522907255,0.09041691463664174
1782845811906772500,4.0877724609375,0.21404723982810972,0.03630947687402367,0.08919994006231427
1782845811916777500,4.097777587890625,0.21648937228322027,0.06549772356599569,0.0732376701682806
1782845811926782500,4.107782470703125,0.20617314545214174,0.077651394957304,0.05194485290125012
1782845811936787500,4.117787353515625,0.19111644609570502,0.07159881692007183,0.04933101714104414
1782845811946792400,4.12779248046875,0.1495300517320633,0.059640960361808534,0.02114668679460883
1782845811956797400,4.13779736328125,0.14164718952775002,0.05627616010382771,0.02318754497244954
1782845811966802400,4.147802490234375,0.11521101802289485,0.05950374384820461,0.02689122179597616
1782845811976807400,4.157807373046875,0.07998539086282253,0.04592588487267494,0.026917525281012055
1782845811986812400,4.1678125,0.07505962489843368,0.052653293431550265,0.013603139547258615
1782845811996817400,4.1778173828125,0.07821779666841029,0.05228212203159928,0.014173340650647877
1782845812006822400,4.187822509765625,0.11518822166919708,0.04676496604532003,0.003919949922710657
1782845812016827400,4.197827392578125,0.12612170361578465,0.03835954127162695,-0.009602233342826366
1782845812026832400,4.207832275390625,0.12665595662295817,0.027360008351504803,-0.033964375052601095
1782845812036837400,4.21783740234375,0.12162030054330825,-0.01567366221100092,0.0032546178817749022
1782845812046842400,4.22784228515625,0.0811848297804594,-0.02519742349013686,0.010828852528333663
1782845812056847400,4.237847412109375,0.03141922061443329,-0.0032359131813049316,0.013833148910850286
1782845812066852400,4.247852294921875,-0.02562251703441143,0.029806524720788,0.0006583177782595157
1782845812076857300,4.257857421875,-0.008021393892168998,0.050059769807010886,0.013650047428905963
1782845812086862300,4.2678623046875,0.06316986514031887,0.003826572550833225,-0.0013614976115524768
1782845812096867300,4.277867431640625,0.09771569334268569,-0.012280220380425453,-0.026940613895654678
1782845812106872300,4.287872314453125,0.15503449436724184,-0.0316974530339241,-0.012171207047998905
1782845812116877300,4.297877197265625,0.18808803818523884,-0.05520896926373243,-0.03464943470731378
1782845812126882300,4.30788232421875,0.1847510027170181,-0.0795464149236679,-0.03802943253442645
1782845812136887300,4.31788720703125,0.17729659505784512,-0.058700172380357976,-0.03337853798866272
1782845812146892300,4.327892333984375,0.12045301032960413,-0.04039426196962595,-0.025777707596123217
1782845812156897300,4.337897216796875,0.030151392635703086,-0.01782324146032333,-0.045122897926717996
1782845812166902300,4.34790234375,-0.028510639691352844,-0.002794306893646717,-0.021527795066684483
1782845812176907300,4.3579072265625,-0.10975859783589839,-0.011295154865831136,-0.005692658683657646
1782845812186912300,4.367912353515625,-0.09447978016138077,-0.00557590043619275,-0.01729132654070854
1782845812196917200,4.377917236328125,-0.060382280248403544,-0.008922434385120867,-0.030321634636074304
1782845812206922200,4.387922119140625,0.012450316250324249,-0.013894815970212221,-0.04660977548360824
1782845812216927200,4.39792724609375,0.11416472384035586,-0.005668401025235653,-0.06305369141474367
1782845812226932200,4.40793212890625,0.2314063709080219,-0.01748670298233628,-0.07662175964862107
1782845812236937200,4.417937255859375,0.29759646065235135,-0.016512304992228746,-0.07367810741215944
1782845812246942200,4.427942138671875,0.28507424820959565,0.00635170711427927,-0.04994052734151482
1782845812256947200,4.437947265625,0.20350597206950186,0.008557838856428862,-0.021873393633961676
1782845812266952200,4.4479521484375,0.12549509615004062,-0.011870616666227579,0.02409837620705366
1782845812276957200,4.457957275390625,0.041399931880831714,-0.015574731881171464,0.056810120850056406
1782845812286962200,4.467962158203125,-0.010200491496920585,-0.0093283848375082,0.08392419161647557
1782845812296967200,4.47796728515625,-0.004662146592140198,0.005508680418878794,0.09095803577601909
1782845812306972200,4.48797216796875,0.03871463831961155,-0.004262772011011839,0.05648702637553215
1782845812316977200,4.49797705078125,0.11587795749902724,-0.0052775020115077495,0.04918152566775679
1782845812326982100,4.507982177734375,0.18552841683030127,-0.0015375848308205604,0.021402999643236397
1782845812336987100,4.517987060546875,0.218623461702466,0.01146057456061244,-0.010483107830584048
1782845812346992000,4.5279921875,0.2548158880680799,0.050995150960981846,-0.010395137286186218
1782845812356997400,4.537997314453125,0.23001930046379565,0.03606938450783491,-0.026966771250218152
1782845812367002400,4.54800244140625,0.18313187708258627,0.012438625812530517,-0.05167611896246671
1782845812377007400,4.55800732421875,0.13515315133333206,0.021520050151646136,-0.050557051804661746
1782845812387012400,4.568012451171875,0.1026478890478611,0.013958382725715637,-0.03200315798223018
1782845812397017300,4.578017333984375,0.027249241453409193,-0.005961392622441053,-0.027866496568918226
1782845812407022300,4.588022216796875,-0.00663841510117054,0.003950198930501938,-0.03585895662754774
1782845812417027300,4.59802734375,-0.029323125118017195,-0.003625058629363775,-0.03832812322005629
1782845812427032300,4.6080322265625,-0.03837444657981395,-0.005708002383261919,-0.003952537018060684
1782845812437037300,4.618037353515625,0.0027758944541215894,-0.016418927620351315,0.021551614333689212
1782845812447042300,4.628042236328125,0.047261517390608784,-0.03799421509057283,0.03113090519234538
1782845812457047300,4.63804736328125,0.0687672467559576,-0.025805033994466067,0.02111380743831396
1782845812467052300,4.64805224609375,0.06684709234833718,-0.007425619956105947,0.00043941433057188985
1782845812477057300,4.658057373046875,0.030246085181832312,0.002890899135917425,-0.03153583273142576
1782845812487062300,4.668062255859375,0.013240005323290824,0.017996698331087826,-0.0032445348791778086
1782845812497067300,4.6780673828125,0.057250996485352514,-0.015306582464277744,0.015016513476520776
1782845812507072300,4.688072265625,0.0862561416953802,-0.005609656575322151,0.009574322422593831
1782845812517077200,4.6980771484375,0.12612404170334338,-0.042821635247021914,-0.03400119993165135
1782845812527082200,4.708082275390625,0.162238726657629,-0.01938712977617979,-0.02526142863705754
1782845812537087200,4.718087158203125,0.1941115362584591,-0.007247779171168804,-0.0322800752274692
1782845812547092200,4.72809228515625,0.18797347189486024,-0.036127690566331146,-0.03490574755594134
1782845812557097200,4.73809716796875,0.1431120013833046,-0.014839987865835427,-0.017234043395519257
1782845812567102200,4.748102294921875,0.12348141824007033,-0.018418430874496697,0.02734568756520748
1782845812577107200,4.758107177734375,0.0980944635272026,-0.000904693754762411,0.04696647996678948
1782845812587112200,4.7681123046875,0.04701718724071979,0.01204926116876304,0.018779519271850585
1782845812597117200,4.7781171875,0.05215338108539581,0.018372984297573565,0.0025736498802900313
1782845812607122200,4.7881220703125,0.05286474422514438,0.016438216842710972,0.0014792787723243235
1782845812617127200,4.798127197265625,0.03623100481033325,0.00038490766435861584,-0.01554609030857682
1782845812627132200,4.808132080078125,-0.005796119058132172,-0.0037201895669102666,0.01406169696971774
1782845812637137200,4.81813720703125,0.022421675166487694,0.0311398191511631,0.036358138321340085
1782845812647142100,4.82814208984375,0.038544542449712754,0.015813436007872224,0.024153175134211776
1782845812657147100,4.838147216796875,0.03049976768195629,0.003468625958636403,0.013344927002489565
1782845812667152100,4.848152099609375,0.03583469896912574,0.0511157086007297,-0.007693038720637559
1782845812677157000,4.8581572265625,-0.00791851803958416,0.08081029737964272,-0.000009498480707406997
1782845812687162000,4.868162109375,-0.008673720321059227,0.07442666075713932,0.023897446807473896
1782845812697167000,4.8781669921875,0.046914311388134955,0.04926810797266662,0.043586336009204384
1782845812707172000,4.888172119140625,0.11706219884753226,0.006349295961484313,0.05562763306722045
1782845812717177000,4.898177001953125,0.1914747580140829,0.013321034670248626,0.06359978099018335
1782845812727182300,4.908182373046875,0.2715577640324831,0.0010672639053314924,0.031653613892197605
1782845812737187300,4.918187255859375,0.2925888616234064,0.023390958590060473,0.014207389050722122
1782845812747192300,4.9281923828125,0.2817442270040512,0.023492446203157304,-0.02486424601301551
1782845812757197300,4.938197265625,0.20216917050778865,0.013176511633023618,-0.03185892720595002
1782845812767202300,4.948202392578125,0.09686696755886078,0.04007613593116403,-0.012387334016710518
1782845812777207300,4.958207275390625,0.03888473418951034,0.05158244932964444,0.033696079505234955
1782845812787212300,4.96821240234375,-0.01808043109178543,0.03941884106621146,0.03538958555012941
1782845812797217300,4.97821728515625,-0.062494157835841176,0.027547566812857985,0.01197641512826085
1782845812807222300,4.98822216796875,-0.03944295259416103,0.03335354967787862,-0.03319835911616683
1782845812817227300,4.998227294921875,-0.022187866410613058,0.031054113629087804,-0.016333587424457074
1782845812827232300,5.008232177734375,0.019551088166236876,0.012179025028273463,-0.015696312434226273
1782845812837237200,5.0182373046875,0.04865852470695972,0.01332929104194045,0.004279284754395485
1782845812847242200,5.0282421875,0.04999941792190075,0.02773278718665242,0.021964579048752784
1782845812857247200,5.038247314453125,0.05947744036316871,0.016665961183980105,0.03744797938466072
1782845812867252200,5.048252197265625,0.07486673267483711,0.03290120280049741,0.021776509130746125
1782845812877257500,5.058257568359375,0.07735913401246071,0.050794294626638294,0.02712999898791313
1782845812887262500,5.068262451171875,0.06926759749352931,0.053970148183777926,0.03700505792275071
1782845812897268200,5.078268310546875,0.07736264114379883,0.05543284114748239,0.024216157367825508
1782845812907273200,5.088273193359375,0.08039864783883094,0.04503565803468227,0.04135273173823952
1782845812917278200,5.0982783203125,0.12830723096132277,0.07025931194461882,0.03038344782590866
1782845812927283200,5.108283203125,0.1779454143553972,0.028150574207305906,-0.020723492946475745
1782845812937288200,5.1182880859375,0.17792378704547882,0.030287732366472482,-0.01446034089848399
1782845812947293200,5.128293212890625,0.17975977030098436,0.02552424429170787,-0.006951864964514971
1782845812957298200,5.138298095703125,0.1834749914318323,0.0010107114125043153,0.001691314087808132
1782845812967303200,5.14830322265625,0.16366846719980238,-0.0033837241541594264,0.004312017980217933
1782845812977308200,5.15830810546875,0.13279168289899826,0.014040581116452813,0.015282470936328172
1782845812987313200,5.168313232421875,0.08004442757368087,0.01976904176585376,0.016596476144343612
1782845812997318100,5.178318115234375,0.021795067700743673,0.01722439878433943,0.0006507189936935901
1782845813007323400,5.188323486328125,0.023268647384643553,-0.011370777385309339,0.01897957188859582
1782845813017328400,5.198328369140625,0.04318213912248611,-0.01731156561113894,0.024616993253678082
1782845813027333400,5.20833349609375,0.0626408728301525,-0.010871961017698049,0.032584903392940755
1782845813037338400,5.21833837890625,0.10308861855268478,-0.000678045392036438,-0.029783874497562646
1782845813047343400,5.22834326171875,0.10170447071790695,0.020666648192703724,-0.05535539199709892
1782845813057348400,5.238348388671875,0.11229600735902785,0.02343450547084212,-0.07980448133796453
1782845813067353300,5.248353271484375,0.11641221050620078,0.0406336236834526,-0.09646583941206335
1782845813077358300,5.2583583984375,0.10434534061551093,0.021752616798505185,-0.09921630716398358
1782845813087363300,5.26836328125,0.09458207149207591,0.023407982790097592,-0.05343582211136818
1782845813097368300,5.278368408203125,0.05799976902604103,0.011912994503229855,-0.07396729961708187
1782845813107373300,5.288373291015625,-0.011574702459573745,-0.00566277500204742,-0.08017506821602582
1782845813117378600,5.298378662109375,-0.04387713564932346,-0.01454721546433866,0.041190380783379076
1782845813127383600,5.308383544921875,0.013794132074713706,-0.048347924387827514,0.05409501667246222
1782845813137388500,5.318388427734375,0.02175999638736248,-0.049212651458382606,0.05275368506610393
1782845813147393500,5.3283935546875,0.06547872660458087,-0.02466119772158563,0.07167991933226585
1782845813157398500,5.3383984375,0.0986041666150093,-0.0234397661678493,0.06438873941078782
1782845813167403500,5.348403564453125,0.09086217418611049,-0.016993439572677016,0.03884644800573587
1782845813177408500,5.358408447265625,0.06783727242946624,-0.012183555072918533,-0.000614040245115757
1782845813187413500,5.36841357421875,0.018035422906279564,0.019675883589684962,-0.028346389040350913
1782845813197418500,5.37841845703125,-0.03027005057930946,0.03037723728083074,-0.011974223171174525
1782845813207423500,5.388423583984375,-0.018697101685404775,0.01942351626381278,0.011859656880795955
1782845813217428500,5.398428466796875,0.020608488264679908,0.01119067157804966,-0.007924070997536182
1782845813227433500,5.40843359375,0.06592062515318393,0.028838191145285963,-0.006263444308936596
1782845813237438700,5.418438720703125,0.10816519116461276,0.04759199145399034,-0.0006942658744752407
1782845813247443700,5.428443603515625,0.14932371550500392,0.02176072703972459,0.011422142246365546
1782845813257448700,5.43844873046875,0.15990180814266203,0.007082286411151289,0.007629910356551408
1782845813267453700,5.44845361328125,0.16374445504546165,0.026209230881184337,0.004909691612422466
1782845813277458700,5.458458740234375,0.1760597467392683,0.042537996000051495,-0.02000935332775116
1782845813287463700,5.468463623046875,0.17443711397349834,0.047351606826856726,-0.011846359007805585
1782845813297468700,5.47846875,0.15348434231579303,0.025121362579241392,-0.010169657967239617
1782845813307473700,5.4884736328125,0.15838497383892536,0.02144070130512118,-0.03769567053541541
1782845813317478700,5.498478759765625,0.11288169829249381,0.03898549115024507,-0.03021583617404103
1782845813327483600,5.508483642578125,0.06112345400452614,0.049686552580446,-0.02989887917935848
1782845813337488600,5.518488525390625,0.027501754909753796,0.039504546588286754,0.009068418727070093
1782845813347493600,5.52849365234375,0.022118308305740356,0.04315415513701737,0.03887508957833052
1782845813357498600,5.53849853515625,0.010996025788784027,0.03933832317590713,0.038222763149440286
1782845813367503600,5.548503662109375,0.030651743373274802,0.059320715431496494,0.021084142952412364
1782845813377508600,5.558508544921875,0.06664192516505718,0.0762174896966666,0.0028287936851382253
1782845813387513600,5.568513671875,0.1024602575212717,0.053858504502847786,0.025444530119001864
1782845813397518600,5.5785185546875,0.13488660935163496,0.01114193706549704,0.018405717523396013
1782845813407523600,5.588523681640625,0.14612228911519048,0.015836816883459687,0.015243600230664013
1782845813417528600,5.598528564453125,0.12053075174093246,0.044219154020026324,0.046101533700525756
1782845813427533600,5.608533447265625,0.12751169666945933,0.04234393473267555,0.08355243569463491
1782845813437538600,5.61853857421875,0.12172609900534152,0.04142046321220696,0.10048004348948597
1782845813447543600,5.62854345703125,0.10485095205008983,0.05250424034968018,0.0906307035177946
1782845813457548500,5.638548583984375,0.12488017912209033,0.05768120459616184,0.053031771355122326
1782845813467553500,5.648553466796875,0.10511106429100037,0.09137151194773614,0.0016655951246619225
1782845813477558500,5.65855859375,0.06527823559641838,0.08978957651853561,0.010837474226206541
1782845813487563500,5.6685634765625,0.044054245781898496,0.0630546412628144,-0.006612111616134643
1782845813497568500,5.678568603515625,0.0665758741915226,0.019828736063838004,0.048519993019104
1782845813507573500,5.688573486328125,0.05624795692265033,0.03084865418486297,0.02518763274848461
1782845813517578500,5.69857861328125,0.02380173134803772,0.03626132688336074,0.0035182372540235518
1782845813527583500,5.70858349609375,0.010363573104143143,0.04198788783662021,0.02099018105864525
1782845813537588500,5.71858837890625,0.05322188709974288,-0.004613265949115157,0.043931642315536736
1782845813547593500,5.728593505859375,0.10061199930608272,-0.03289513838589191,0.035756665296852584
1782845813557598500,5.738598388671875,0.1373947927802801,-0.032197219249606134,0.029702333693951366
1782845813567603700,5.748603759765625,0.15426643260419368,-0.03300502850115299,0.018240005567669866
1782845813577608700,5.758608642578125,0.14093173473477363,-0.0028267478585243225,0.0008365969546139239
1782845813587613700,5.76861376953125,0.14247837965488433,-0.005559387692809104,0.014906623361259698
1782845813597618700,5.77861865234375,0.17172317883968352,0.0010770546469837427,-0.0025210429102182387
1782845813607623700,5.788623779296875,0.1758726997345686,0.0029297698415815827,-0.02571867088526487
1782845813617628700,5.798628662109375,0.17623568782806395,0.026579160172119736,-0.02034209241345525
1782845813627633700,5.808633544921875,0.12323767261207103,0.009492197097092866,-0.034501550669223065
1782845813637638700,5.818638671875,0.07519523397684097,-0.0035872839022427793,0.0006385901644825935
1782845813647643600,5.8286435546875,0.05779986253976822,-0.017916618832200765,0.01349792560711503
1782845813657648600,5.838648681640625,0.018571429479122162,-0.002204451241716742,0.0038031916752457617
1782845813667653600,5.848653564453125,-0.0029600188493728637,-0.0020540829855948683,0.0055607028670608995
1782845813677658600,5.85865869140625,0.006381225469708442,-0.020836524866893885,0.013237667235732078
1782845813687663600,5.86866357421875,-0.019137831190228462,-0.04276449823230505,0.02103591989651322
1782845813697668600,5.878668701171875,-0.03761456812322139,-0.024334669180959462,0.03502542841285467
1782845813707673600,5.888673583984375,-0.04930325235128402,-0.008218889225646854,0.009379092111438512
1782845813717678600,5.8986787109375,-0.02613864986300468,0.014980346184596418,0.01876782883405685
1782845813727683600,5.90868359375,0.031363691034913065,0.004580532723292708,0.029046792394667863
1782845813737688600,5.9186884765625,0.08025777806341648,0.004198474603146315,-0.0018728081345558165
1782845813747693600,5.928693603515625,0.12609949178397656,0.011071575243026018,-0.03377659739553928
1782845813757698600,5.938698486328125,0.11282149253785609,0.04525383083000779,-0.04916559744626283
1782845813767703600,5.94870361328125,0.06488192975521087,0.038013358182460065,-0.029008944602310655
1782845813777708500,5.95870849609375,0.08063830181360244,-0.005661971284449101,0.0005832067154347896
1782845813787713500,5.968713623046875,0.10818915656208991,-0.005740881739556789,0.03090104195922613
1782845813797718500,5.978718505859375,0.17826222521960736,-0.0014345628477632998,0.046971302272379396
1782845813807723500,5.9887236328125,0.24032968207597732,-0.016050386568903924,0.06181392048671841
1782845813817728500,5.998728515625,0.2753653396219015,-0.0478077530965209,0.0202243112526834
1782845813827733500,6.0087333984375,0.2635433844029903,-0.03902034326791763,-0.002973608983308077
1782845813837738500,6.018738525390625,0.2123673239171505,-0.0018707623079419135,-0.033790333659946915
1782845813847743500,6.028743408203125,0.1204763912051916,0.012902590062469244,-0.06089125268384814
1782845813857748500,6.03874853515625,0.049124973174929615,0.02944353662729263,-0.04175722088590264
1782845813867753500,6.04875341796875,-0.007646715360879897,0.04510623905286193,-0.04319076082035899
1782845813877758500,6.058758544921875,-0.003057634004950523,0.05840513495653867,-0.023184330102056262
1782845813887763500,6.068763427734375,0.03747252930402756,0.07604834367483854,-0.009313333398848772
1782845813897768400,6.0787685546875,0.044971360626816746,0.06530351616814732,0.00452390716522932
1782845813907773400,6.0887734375,0.057528059861063956,0.08337766364961863,0.04857771455571055
1782845813917778400,6.0987783203125,0.04203530717492103,0.07379837279096245,0.05148571095690131
1782845813927783400,6.108783447265625,0.043940848535299296,0.013612638027966022,0.01920432055518031
1782845813937788400,6.118788330078125,0.06548749443292617,-0.005037994167208671,-0.0008748831383883953
1782845813947793400,6.12879345703125,0.04912263508737087,0.01985766989737749,0.01680456593707204
1782845813957798400,6.13879833984375,0.0602840805709362,0.05969838963747024,0.016449322758615017
1782845813967803400,6.148803466796875,0.09431962116360663,0.027829379428923127,0.015602642801403999
1782845813977808400,6.158808349609375,0.12343348744511604,0.020059476079791784,0.04210997984632849
1782845813987813400,6.1688134765625,0.1559691448688507,0.02314838200584054,0.041381227180361746
1782845813997818400,6.178818359375,0.18206103298068047,0.010832213529199362,0.05534413995072245
1782845814007823400,6.1888232421875,0.1801373714417219,-0.010423048206418753,0.05615647924691438
1782845814017828400,6.198828369140625,0.20195874262750146,-0.019290829794853925,0.0420431982204318
1782845814027833300,6.208833251953125,0.18712474611103533,-0.0049330724880099295,0.03986629257276654
1782845814037838300,6.21883837890625,0.14320610940754414,0.034262188955396414,0.002456453241407871
1782845814047843600,6.228843505859375,0.10059855530261992,0.03703501466959715,-0.027199703223258254
1782845814057848600,6.2388486328125,0.08170446974039078,0.03409684232585132,-0.023629443521052597
1782845814067853600,6.248853515625,0.03953063087761402,0.030900603567808865,-0.07143865792229771
1782845814077858600,6.258858642578125,0.005610825619101524,0.023564999982714652,-0.0485017267100513
1782845814087863600,6.268863525390625,0.02171206559240818,0.016958952781185508,-0.0037967619344592093
1782845814097868800,6.278868896484375,0.06848959885835647,-0.02739201092496514,-0.015655834293365478
1782845814107873800,6.288873779296875,0.10427870512008666,-0.06137830554842948,-0.008049450942873954
1782845814117878000,6.2988779296875,0.14847849685251713,-0.04994359608143568,-0.01903670890331268
1782845814127883000,6.308883056640625,0.13913023827075957,-0.03516585979685187,-0.02674216871410608
1782845814137888000,6.318887939453125,0.099436525785923,-0.04059555669538677,-0.031104017185419795
1782845814147893000,6.32889306640625,0.09573357961475848,-0.016861337625607847,-0.025358459270745513
1782845814157898000,6.33889794921875,0.051336219483613964,0.01533018253557384,-0.03752177527323365
1782845814167903000,6.348903076171875,0.01197276186645031,0.024988529979810117,-0.022879940328001974
1782845814177908000,6.358907958984375,-0.01890168434679508,0.03746230017095804,-0.011888882975280284
1782845814187913200,6.368913330078125,-0.030906010395288466,0.017274667666852473,0.007040420030802488
1782845814197918200,6.378918212890625,0.033570261168479915,-0.0296033302988857,0.020363135201483962
1782845814207923200,6.388923095703125,0.07195289105474949,-0.04375635881386697,0.028638796115666627
1782845814217928200,6.39892822265625,0.13061843051314354,-0.04778722176514566,0.019377777425944803
1782845814227933200,6.40893310546875,0.171101247549057,-0.05715915348343551,0.0020849895805120466
1782845814237938200,6.418938232421875,0.18655483726859093,-0.0452883176214993,-0.013335866913199424
1782845814247943200,6.428943115234375,0.17806114968955516,-0.02223506655320525,-0.04279810824096202
1782845814257948200,6.4389482421875,0.15612345864772795,0.012590528438612818,-0.04204582856893539
1782845814267953200,6.448953125,0.1250385845541954,0.05303403637744486,-0.037610330339521165
1782845814277958100,6.458958251953125,0.09631576341688633,0.05489427729137242,-0.02144844622015953
1782845814287963100,6.468963134765625,0.0664104544967413,0.06022255964204669,-0.02770166139602661
1782845814297968000,6.478968017578125,0.011752981635928153,0.06451346176899969,-0.007861965546756982
1782845814307973000,6.48897314453125,0.014785481199622154,0.01269011635556817,0.03478884317800402
1782845814317978000,6.49897802734375,0.04837912324368954,-0.022941461256891487,0.05034413970634341
1782845814327983000,6.508983154296875,0.10073767151236533,-0.04304046562947333,0.05099222835153341
1782845814337988000,6.518988037109375,0.1509410875737667,-0.027416341648623346,0.026777386157959698
1782845814347993000,6.5289931640625,0.17454057434797285,-0.012289938056841492,0.012611059769988059
1782845814357998000,6.538998046875,0.16232289780974388,0.006639876405894756,-0.017492255940288304
1782845814368003000,6.549003173828125,0.048690673410892484,0.02469575757831335,-0.047224838642030954
1782845814378008000,6.559008056640625,-0.07268178985118866,0.06012267946414649,-0.02367649753317237
1782845814388013000,6.569012939453125,-0.13544482775628566,0.06371537019386887,0.027565467795729635
1782845814398018000,6.57901806640625,-0.15791326467394828,0.03256692934483289,0.06356076415404677
1782845814408023000,6.58902294921875,-0.10512859994769096,0.0017835954811424015,0.07498948227167129
1782845814418028000,6.599028076171875,-0.016405775877833366,0.016710311782360075,0.08666296893060207
1782845814428033000,6.609032958984375,0.09955693729519843,-0.007698957004770636,0.07028466558158397
1782845814438038000,6.6190380859375,0.16337795982062817,-0.03533244853541255,0.021003040540218353
1782845814448043000,6.62904296875,0.17274609214663506,-0.013810864013805985,-0.033506694412976504
1782845814458048000,6.639048095703125,0.18055121293962,0.035416546622291205,-0.08584493054598569
1782845814468053000,6.649052978515625,0.16171674861013888,0.040656493102386594,-0.10121990207135677
1782845814478058000,6.65905810546875,0.1916711573690176,0.06925561479479074,-0.11319178715497255
1782845814488063000,6.66906298828125,0.20585867267549038,0.07547463544011115,-0.1037085040166974
1782845814498068000,6.67906787109375,0.217547356903553,0.0701511753950268,-0.08964110795855522
1782845814508073200,6.6890732421875,0.1924550012230873,0.03488331652842462,-0.011725509107112883
1782845814518078200,6.699078125,0.12224164731204509,-0.0009041822981089353,0.06273761120289564
1782845814528083200,6.709083251953125,0.05747603741288185,-0.031255627550557254,0.11545564043372869
1782845814538088200,6.719088134765625,0.03839315128028393,-0.07574388083554803,0.14935498742610215
1782845814548093200,6.72909326171875,0.03257189778089523,-0.0512689264010638,0.1582981723383069
1782845814558098200,6.73909814453125,0.040460605204105375,0.011559577955678104,0.09791633048132062
1782845814568103200,6.749103271484375,0.07355448103249072,0.038366701664775606,0.0700567020446062
1782845814578108200,6.759108154296875,0.09208674754500389,0.08483020054548979,0.034871699155867096
1782845814588113200,6.769113037109375,0.0982294880837202,0.10361929136328399,0.02219604971706867
1782845814598118100,6.7791181640625,0.13165887947678565,0.09011639732010662,0.027878625398129225
1782845814608123100,6.789123046875,0.13985446089208126,0.0663815206632018,0.037946576556563374
1782845814618128100,6.799128173828125,0.12809212690591812,0.02209814230054617,0.023959259997308253
1782845814628133000,6.809133056640625,0.1453027894258499,0.010896291741356253,0.026711481314897537
1782845814638138000,6.81913818359375,0.15986732135117054,0.004146379089727997,0.006352437766641378
1782845814648143000,6.82914306640625,0.1703735177963972,-0.010015636449307202,-0.0180316235139966
1782845814658148000,6.839148193359375,0.14437690675258635,0.001996361448988318,-0.056257017011940476
1782845814668153000,6.849153076171875,0.09023615124225616,0.014164134430885314,-0.07884148152470588
1782845814678158000,6.859157958984375,0.041076106753945345,0.01542436362504959,-0.1045908398091793
1782845814688163000,6.8691630859375,-0.045022798553109165,0.028563319726660846,-0.15347425931319594
1782845814698168000,6.87916796875,-0.1203325988203287,0.04017879258804023,-0.15355828433483837
1782845814708173000,6.889173095703125,-0.1293137776553631,0.0529310143943876,-0.14896803393512964
1782845814718178000,6.899177978515625,-0.09212591051161288,0.0625179771028459,-0.13318579678311943
1782845814728183000,6.90918310546875,-0.025506197178363797,0.02467551850788295,-0.10082491140440106
1782845814738188000,6.91918798828125,0.08333937746584415,0.026019115136563777,-0.050533670929074286
1782845814748193000,6.929193115234375,0.17689093686640261,0.01865041299946606,-0.04345262662693858
1782845814758198000,6.939197998046875,0.1735147384315729,-0.013815978580340742,-0.01870718468800187
1782845814768203000,6.949203125,0.16842472181618212,-0.013627908662334084,0.02197583109512925
1782845814778208000,6.9592080078125,0.13302315356731415,0.015170900320634244,0.04247019146084785
1782845814788213000,6.969212890625,0.060980830663442606,0.036649814744293685,0.03505860003009438
1782845814798218000,6.979218017578125,0.036489948007464405,0.06522614008300005,0.02034706084951758
1782845814808223000,6.989222900390625,0.027718028008937835,0.0981754928741604,0.0011205284625291825
1782845814818228000,6.99922802734375,0.03663549395799637,0.11746595734283327,-0.004532236602157354
1782845814828233000,7.00923291015625,0.06053016428649425,0.10268968236297368,0.008507862234860658
1782845814838238000,7.019238037109375,0.12058394323289394,0.06659969345852733,0.043937049143016334
1782845814848243000,7.029242919921875,0.18840543357133865,0.03787964880019426,0.06421119088679551
1782845814858248000,7.039248046875,0.24099603703022002,0.022502485317736864,0.031911534176021814
1782845814868253000,7.0492529296875,0.2580781047344208,0.03712437345348298,0.04925722125247121
1782845814878258000,7.0592578125,0.26545827811360356,0.020185075220838188,0.06530746169090271
1782845814888263000,7.069262939453125,0.21425182248950003,0.029558249048143623,0.05156944371759891
1782845814898268000,7.079267822265625,0.14399404491484163,0.0446139254912734,0.0584019200861454
1782845814908273000,7.08927294921875,0.04341185622513294,0.04277735771387815,0.05500307142809033
1782845814918278000,7.09927783203125,-0.021685762107372282,0.04273877926915884,0.07415683083981275
1782845814928283000,7.109282958984375,-0.055963879284262656,0.045251492742449044,0.08890680233463645
1782845814938287900,7.119287841796875,-0.0784177031546831,0.023783099712803957,0.0897092047587037
1782845814948292900,7.12929296875,-0.05881517706215381,0.008348360824212432,0.07524111894518136
1782845814958297900,7.1392978515625,-0.018817513194680214,0.011687953575700521,0.06007292203828692
1782845814968302800,7.149302734375,0.0033189152896404266,0.01608406964279711,0.05128726577535271
1782845814978307800,7.159307861328125,0.05286766683459282,0.00934065979719162,0.03041720396503806
1782845814988312800,7.169312744140625,0.10617781673967838,0.007920271605253219,0.039015228701382874
1782845814998318000,7.179318115234375,0.1164163021594286,0.0056721273522824045,0.0625713147252798
1782845815008323000,7.189322998046875,0.12324877852797507,0.035555955092981456,0.043088177228718993
1782845815018328000,7.199328125,0.13354863874614237,0.04716076042987406,0.04887275197952985
1782845815028333000,7.2093330078125,0.1341103642821312,0.040919454887509345,0.03282221928015351
1782845815038338000,7.219338134765625,0.13108546350300312,0.052340062763914466,-0.003938216231763362
1782845815048343000,7.229343017578125,0.14617898773849008,0.03661941960602998,-0.010987696351855992
1782845815058348300,7.239348388671875,0.13868307902514934,0.036160789118334646,-0.005380085603147745
1782845815068353300,7.249353271484375,0.11190788482427597,0.026525238027796147,-0.00371960504502058
1782845815078358300,7.259358154296875,0.07978489985466003,0.005519567139074206,0.023075170639157296
1782845815088363300,7.26936328125,0.0834247176617384,-0.019173925416916607,0.038856238747388125
1782845815098368300,7.2793681640625,0.04930734400451183,-0.0013479805428534746,0.009992840095609426
1782845815108373200,7.289373291015625,0.03590834872722626,0.010910174136236309,0.0026331249825656414
1782845815118378200,7.299378173828125,0.0396925434410572,0.004555252151563763,0.009375146588683127
1782845815128383700,7.3093837890625,0.046076691520214076,0.005313669303432107,0.017651245894283057
1782845815138388700,7.319388671875,0.06912322058677672,0.027704657070711253,-0.01387786483541131
1782845815148393700,7.329393798828125,0.08533493519723415,0.039917584368586535,-0.021612404610216615
1782845815158398700,7.339398681640625,0.09263970525264739,0.028610446804016827,-0.02854761070087552
1782845815168402700,7.349402587890625,0.08287175995409488,0.022173472559079525,-0.023084230728447435
1782845815178408700,7.35940869140625,0.06676642832756043,0.019418620892986654,-0.024226094239950178
1782845815188412700,7.36941259765625,0.040546529921889306,0.02153108300231397,0.0024221125803887845
1782845815198418700,7.379418701171875,0.028363340175151824,0.015782164086773992,0.04893865682259202
1782845815208422700,7.389422607421875,0.027374329137802123,-0.02062098242007196,0.07801584435552358
1782845815218427600,7.399427734375,0.03431844918727875,0.013349018655717372,0.06235869488790631
1782845815228433700,7.40943359375,0.05373275923132896,0.02846957702860236,0.0415139136493206
1782845815238437600,7.419437744140625,0.10331249043643474,0.01875423870012164,0.02512172790542245
1782845815248442600,7.429442626953125,0.14136135832369326,-0.022248948948085306,-0.0041119653634727
1782845815258447600,7.439447509765625,0.1437777718156576,-0.009695172323286533,-0.03495090187191963
1782845815268452600,7.44945263671875,0.13409516671299934,0.028738164836913344,-0.03283449423983693
1782845815278457600,7.45945751953125,0.13795418022871017,0.03749079561308026,-0.020369564942270515
1782845815288462600,7.469462646484375,0.16255787560939788,0.009481237311661244,-0.03318506124317646
1782845815298467600,7.479467529296875,0.17201485526263713,0.017980623979121445,-0.029554888047277926
1782845815308472600,7.48947265625,0.1790577595114708,0.020460896487534044,-0.02813216176778078
1782845815318477600,7.4994775390625,0.19293898534774778,0.032112609706074,-0.016436901668459177
1782845815328482600,7.509482666015625,0.17512684980332852,0.010957739605009556,-0.004805646716058254
1782845815338487600,7.519487548828125,0.11582651957273482,-0.012890168972313404,-0.0027279636591672897
1782845815348492500,7.529492431640625,0.07264730305969715,0.0060071314603090285,0.0078057053148746485
1782845815358497500,7.53949755859375,0.023402502897381782,0.03559080721065402,0.02405497545674443
1782845815368502500,7.54950244140625,-0.004248305094242096,0.005764847137033939,0.021269144130498168
1782845815378507500,7.559507568359375,-0.013738017973303793,0.018877134427428246,0.009314794703572988
1782845815388512500,7.569512451171875,0.00011982698738574981,0.01304345983788371,0.006966478011757135
1782845815398517500,7.579517578125,0.052662499651312825,-0.0005561725780367851,0.033640842186659574
1782845815408522500,7.5895224609375,0.07122574582397938,-0.012314561041444539,-0.00723331225439906
1782845815418527500,7.599527587890625,0.0879080005556345,0.002237257532775402,-0.0029356150604784486
1782845815428532500,7.609532470703125,0.136227502566576,-0.004180792815983295,0.0003127192109823227
1782845815438537500,7.619537353515625,0.1560784504622221,0.004748217440396547,-0.00973389689847827
1782845815448542700,7.629542724609375,0.1472936709821224,0.02899783868640661,-0.024550211627781388
1782845815458547700,7.639547607421875,0.16269114660024642,0.029952216801792383,-0.038016865313798186
1782845815468552700,7.649552734375,0.15222586668729782,0.03389379403442144,-0.049063452246040105
1782845815478557700,7.6595576171875,0.14026421073675155,0.03923705475851893,-0.07782309826239943
1782845815488562700,7.669562744140625,0.10998363876342773,0.042731180484592915,-0.06954407634735107
1782845815498567700,7.679567626953125,0.10467325739562511,0.024861615664511918,-0.029637159503251312
1782845815508572700,7.68957275390625,0.09544891745448111,0.021747136905789374,-0.00924231398925185
1782845815518577700,7.69957763671875,0.07046995902061462,0.0148553315654397,-0.010169365706294774
1782845815528582700,7.709582763671875,0.0544850389033556,0.009083031774312257,0.0007340133629739284
1782845815538587600,7.719587646484375,0.05197977808415889,0.00010068389549851417,0.032764205482602116
1782845815548593000,7.729593017578125,0.09993687652349471,-0.010797872868180274,0.06282222074642776
1782845815558598000,7.739597900390625,0.11257657786607742,-0.03231105488762259,0.06474222902357578
1782845815568603000,7.749602783203125,0.10137012419700622,-0.03641454468369484,0.057071986656635994
1782845815578607900,7.75960791015625,0.10654665005207062,0.01931801006272435,0.015084464146196842
1782845815588612900,7.76961279296875,0.08119535117447375,0.03316284941136837,0.026674948696792124
1782845815598617900,7.779617919921875,0.04112871372401714,0.04655000812038779,0.004530336906015873
1782845815608622800,7.789622802734375,0.029767361754179,0.05748670493736863,-0.0019074410565197467
1782845815618627800,7.7996279296875,-0.002398293313384056,0.07823314036801457,0.00908069368675351
1782845815628632800,7.8096328125,-0.0385381127089262,0.06252601427882909,0.03435366663113236
1782845815638637800,7.819637939453125,-0.02225976260304451,0.040804304075241084,0.036216391763091084
1782845815648642800,7.829642822265625,0.05225216528475284,-0.012156301739811897,0.04969239779934287
1782845815658647800,7.839647705078125,0.1232084465175867,-0.039808278775215145,0.04794774608910084
1782845815668652800,7.84965283203125,0.18833587546646594,-0.03301496537327766,0.03561696456521749
1782845815678657800,7.85965771484375,0.21012100629508493,-0.03122340578138828,0.01593318993002176
1782845815688662800,7.869662841796875,0.19467559988200664,-0.031894144649803634,0.021292086614668367
1782845815698667800,7.879667724609375,0.1698328350484371,0.00040258945152163504,-0.011246201157569885
1782845815708672800,7.8896728515625,0.1394914727985859,0.039081425805389876,-0.026264175938814877
1782845815718677800,7.899677734375,0.09149871852397919,0.04438917682468891,-0.07198577041104436
1782845815728682800,7.909682861328125,0.06937047334611415,0.0577666909225285,-0.06718801474049688
1782845815738687700,7.919687744140625,0.019231354692578313,0.043712446606904265,-0.05625292535871267
1782845815748692700,7.929692626953125,0.009771452429890632,0.0258363059155643,-0.03065875763595104
1782845815758697700,7.93969775390625,0.02271685872077942,0.026391601710766554,-0.007429273217916488
1782845815768702700,7.94970263671875,0.027772388544678686,0.012879793708771466,0.018204203601926563
1782845815778707700,7.959707763671875,0.027141689425706862,0.0013378244750201702,0.04565846610814333
1782845815788712700,7.969712646484375,-0.00041150341033935545,0.01436623287424445,0.03982055373489857
1782845815798717700,7.9797177734375,0.008427052083611488,0.021849574366956948,0.043227877960354086
1782845815808722700,7.98972265625,-0.006878069075942039,0.01638137208893895,0.057958852493762966
1782845815818727700,7.999727783203125,0.030340193206071852,0.027533465222269297,0.061748746296018356
1782845815828732700,8.009732666015625,0.07840484367311,0.051112201469391584,0.0546821689106524
1782845815838737700,8.019737548828125,0.12765724261999128,0.07476239551752806,0.08029153420254588
1782845815848742700,8.02974267578125,0.18526772006750106,0.06931392085328698,0.06239259715750813
1782845815858747600,8.03974755859375,0.23608780672252178,0.04548939315155148,0.06385419414266943
1782845815868752600,8.049752685546874,0.24872107832431792,0.02165083692446351,0.04069748269990087
1782845815878757600,8.059757568359375,0.2189157226473093,0.03404197033345699,0.0183387897670269
1782845815888762600,8.0697626953125,0.1790969224780798,0.0449919650234282,-0.016883184131234883
1782845815898767600,8.079767578125,0.11278583670258521,0.04292991792708635,0.011089110899716615
1782845815908772600,8.089772705078126,0.06429799238741397,0.055212330264598125,0.03118716542422771
1782845815918777600,8.099777587890625,0.07695289129912852,0.0550588932685554,-0.0031827216893434524
1782845815928782600,8.109782470703125,0.0735860452145338,0.05692585618421435,-0.03783566352799535
1782845815938787600,8.11978759765625,0.06541501371860504,0.017554361391067502,-0.025235271282494066
1782845815948792600,8.12979248046875,0.06293897899389267,-0.00020677461847662924,-0.0016031974129378794
1782845815958797600,8.139797607421874,0.04559036930799484,-0.008306786704808474,0.006278788008540868
1782845815968802800,8.149802734375,0.022647300615906713,-0.024569354719668625,0.028737288054078814
1782845815978807800,8.159807861328124,-0.005265957704186439,-0.020019874721765515,0.006209960556030273
1782845815988812800,8.169812744140625,-0.018729250389337537,0.01984597945958376,-0.013365969790518283
1782845815998817800,8.17981787109375,-0.023698270973563192,0.032874972380697726,-0.035695436628907916
1782845816008822800,8.18982275390625,-0.01920095955431461,0.06554828470945358,-0.04983896666318178
1782845816018827800,8.199827880859376,0.009184592452645302,0.0896321939997375,-0.05635112503618002
1782845816028832800,8.209832763671875,0.004391512957215309,0.0775846133314073,-0.04587897699102759
1782845816038837800,8.219837646484375,0.013833295041322708,0.072119772054255,-0.051649669346958395
1782845816048842800,8.2298427734375,0.06345277373492718,0.061897945508360856,-0.02576119485273957
1782845816058847700,8.23984765625,0.12807576029300688,0.017796791844815016,0.027352263436466455
1782845816068852700,8.249852783203124,0.16851649175286293,0.0013771335721015929,0.03416208958178758
1782845816078857700,8.259857666015625,0.20860534103512762,0.011270458815991877,0.040935675369948146
1782845816088862700,8.26986279296875,0.21394553301930427,-0.0108675771035254,0.06398717287257313
1782845816098867700,8.27986767578125,0.19059329900443553,-0.0008256371691823005,0.05829845971167087
1782845816108872700,8.289872802734376,0.14246902730464933,0.01441241010352969,0.04193067775666713
1782845816118877700,8.299877685546875,0.08032032190561295,0.017433949881792067,0.0423449576459825
1782845816128882400,8.30988232421875,0.08430266954004764,0.014454349549114703,0.017808190021663905
1782845816138887400,8.319887451171875,0.08551905959248542,0.02592442259043455,-0.01715820168033242
1782845816148892400,8.329892333984375,0.07709317655265331,0.026913433627784252,-0.03028130262568593
1782845816158897700,8.339897705078124,0.08193594040870666,0.019965368055552244,-0.03355740168690681
1782845816168902700,8.349902587890625,0.09698504098057746,0.006467880839854478,-0.00891819660142064
1782845816178907600,8.35990771484375,0.10392974555194377,-0.012909458194673061,0.025249445938318966
1782845816188912600,8.36991259765625,0.12925766355395316,0.013159779693931341,0.018986440020799637
1782845816198917600,8.379917724609374,0.1680161410152912,0.040649405774474144,0.005656856717914343
1782845816208922600,8.389922607421875,0.16237082860469818,0.04392082866057753,-0.010203121845424174
1782845816218927600,8.399927734375,0.1467015503078699,0.011540215668082237,-0.019295505969971417
1782845816228932600,8.4099326171875,0.10699556286334991,0.010666647703945636,-0.031478403455764054
1782845816238937600,8.4199375,0.05359773467481136,-0.013054565753787755,-0.034420594387501474
1782845816248942600,8.429942626953125,0.03318213863372803,-0.013391834884136915,0.00017535656690597534
1782845816258947600,8.439947509765625,0.019590251132845876,0.000386076708137989,0.011280687949061393
1782845816268952600,8.44995263671875,0.0189531222730875,-0.007048311076313257,0.010551058500260115
1782845816278957600,8.45995751953125,0.04805763620436191,-0.014510025259107351,0.01473638136088848
1782845816288962600,8.469962646484374,0.08456511986851692,-0.004157850331813096,-0.0007671849802136421
1782845816298967600,8.479967529296875,0.1314694943845272,-0.020846096412837505,-0.011963847907632589
1782845816308972500,8.48997265625,0.15960487102270127,-0.012857143485546112,-0.039741789410263295
1782845816318977500,8.4999775390625,0.15536942541003226,-0.0045629240013659,-0.05121317762583494
1782845816328982500,8.509982421875,0.12355974417328834,0.025493337696790692,-0.05779314053803682
1782845816338987500,8.519987548828125,0.0881038153886795,0.023878595976531504,-0.05273614940941333
1782845816348992500,8.529992431640625,0.04090542636215687,0.043389790523797274,-0.04623422016948461
1782845816358997500,8.53999755859375,0.02625029354393482,0.04810162147656083,-0.03010579992830753
1782845816369002500,8.55000244140625,0.009713000240921973,0.00019347674548625944,-0.0059000178240239615
1782845816379007500,8.560007568359374,0.018933248528838157,-0.0003350771732628345,0.030325580158829687
1782845816389012500,8.570012451171875,0.04004501014053821,0.013274053723365068,0.052542234272509813
1782845816399017500,8.580017578125,0.05926350535154342,-0.003568067745119333,0.0464494703553617
1782845816409022500,8.5900224609375,0.09822831903994082,0.019478169060498474,0.06245265678167343
1782845816419027500,8.60002734375,0.11634148335754871,0.05761383844837546,0.02409399229288101
1782845816429032400,8.610032470703125,0.09849310745596886,0.06190437524914741,-0.0034231063164770602
1782845816439037400,8.620037353515626,0.06899462577104568,0.05588219235017895,0.020209844335913656
1782845816449042400,8.63004248046875,0.056259647360444066,0.04769830137267708,0.024487667785584925
1782845816459047700,8.640047607421875,0.0858557442009449,0.03807824011221528,0.01524944544956088
1782845816469052700,8.650052734375,0.09209668441712855,0.059833268063515424,-0.00699175858348608
1782845816479057700,8.6600576171875,0.113396077555418,0.050095864033699034,0.0008710837461054325
1782845816489062700,8.670062744140624,0.10407879863381385,0.046958004399389026,0.013827303691953419
1782845816499067600,8.680067626953125,0.05424655397236347,0.045555151864141226,-0.0302270882204175
1782845816509071600,8.690071533203126,0.06297697291672229,0.10470876710042357,-0.050642976522445676
1782845816519076600,8.70007666015625,0.3027665567666292,0.10714330077096819,-0.011167729093879461
1782845816529081600,8.71008154296875,0.3597434124857187,-0.08670476224571466,0.013843524174392222
1782845816539086600,8.720086669921875,0.3884872764110565,-0.12433072854578495,0.19792641837149857
1782845816549091600,8.730091552734375,0.21825521291196345,-0.0018808453105390072,0.21450682016387582
1782845816559096600,8.7400966796875,0.09938274977207183,-0.01779386923536658,0.08252309264689683
1782845816569101600,8.7501015625,0.07453998493850231,0.03744505677521229,0.045731823605298996
1782845816579106600,8.7601064453125,-0.029636428850889206,0.1340733932726085,0.015258797799795866
1782845816589111600,8.770111572265625,-0.12005728901028632,0.08080912833586334,-0.08068447904288768
