time,seconds_elapsed,z,y,x
1782845807877252900,0.0582529296875,-0.9659423828125,-0.14300537109375,0.1491851806640625
1782845807887257900,0.0682578125,-0.9689483642578125,-0.1396026611328125,0.146148681640625
1782845807897262800,0.078262939453125,-0.9692535400390625,-0.139617919921875,0.144561767578125
1782845807907267800,0.088267822265625,-0.9645233154296875,-0.1414337158203125,0.142852783203125
1782845807917272800,0.09827294921875,-0.9651947021484375,-0.1439971923828125,0.1405792236328125
1782845807927277800,0.10827783203125,-0.966796875,-0.144805908203125,0.1445465087890625
1782845807937282800,0.11828271484375,-0.9691162109375,-0.14471435546875,0.1434783935546875
1782845807947287800,0.128287841796875,-0.9728546142578125,-0.1463775634765625,0.1446075439453125
1782845807957292800,0.138292724609375,-0.976318359375,-0.1457977294921875,0.1427764892578125
1782845807967297800,0.1482978515625,-0.9790802001953125,-0.1444244384765625,0.139923095703125
1782845807977302800,0.158302734375,-0.979736328125,-0.143218994140625,0.1390380859375
1782845807987307800,0.168307861328125,-0.979248046875,-0.140533447265625,0.1368408203125
1782845807997312800,0.178312744140625,-0.9736175537109375,-0.1407318115234375,0.134765625
1782845808007317800,0.18831787109375,-0.9691314697265625,-0.140533447265625,0.13824462890625
1782845808017322800,0.19832275390625,-0.9662322998046875,-0.1408233642578125,0.13922119140625
1782845808027328000,0.208327880859375,-0.969696044921875,-0.1406402587890625,0.1409912109375
1782845808037333000,0.2183330078125,-0.9712982177734375,-0.14178466796875,0.143951416015625
1782845808047338000,0.228337890625,-0.972869873046875,-0.14215087890625,0.1459503173828125
1782845808057343000,0.238343017578125,-0.97210693359375,-0.1418304443359375,0.1451416015625
1782845808067348000,0.248347900390625,-0.9675140380859375,-0.140960693359375,0.1438140869140625
1782845808077353000,0.25835302734375,-0.963714599609375,-0.139556884765625,0.144500732421875
1782845808087358000,0.26835791015625,-0.96600341796875,-0.1387939453125,0.1456298828125
1782845808097363000,0.278363037109375,-0.9679107666015625,-0.139190673828125,0.1458892822265625
1782845808107368000,0.288367919921875,-0.9691314697265625,-0.1419677734375,0.1524200439453125
1782845808117373400,0.29837353515625,-0.9666290283203125,-0.142364501953125,0.155426025390625
1782845808127378400,0.30837841796875,-0.964385986328125,-0.1433868408203125,0.1543121337890625
1782845808137383400,0.318383544921875,-0.96630859375,-0.142059326171875,0.15411376953125
1782845808147388400,0.328388427734375,-0.9652252197265625,-0.1398162841796875,0.15185546875
1782845808157393400,0.338393310546875,-0.9644012451171875,-0.137725830078125,0.1486968994140625
1782845808167398400,0.3483984375,-0.965179443359375,-0.1371002197265625,0.1488494873046875
1782845808177403400,0.3584033203125,-0.9698944091796875,-0.135009765625,0.1493072509765625
1782845808187408400,0.368408447265625,-0.973876953125,-0.13189697265625,0.1474761962890625
1782845808197413400,0.378413330078125,-0.9739990234375,-0.134033203125,0.150177001953125
1782845808207418400,0.38841845703125,-0.970672607421875,-0.141143798828125,0.15118408203125
1782845808217423400,0.39842333984375,-0.965057373046875,-0.1432952880859375,0.15228271484375
1782845808227428400,0.408428466796875,-0.9651031494140625,-0.1420745849609375,0.1520233154296875
1782845808237433300,0.418433349609375,-0.9660797119140625,-0.140838623046875,0.1507568359375
1782845808247438300,0.428438232421875,-0.96728515625,-0.141876220703125,0.15570068359375
1782845808257443300,0.438443359375,-0.967315673828125,-0.1417694091796875,0.1549835205078125
1782845808267448300,0.4484482421875,-0.968780517578125,-0.139617919921875,0.1551055908203125
1782845808277453300,0.458453369140625,-0.9688720703125,-0.1391754150390625,0.1516265869140625
1782845808287458300,0.468458251953125,-0.9666290283203125,-0.1418609619140625,0.1508941650390625
1782845808297463300,0.47846337890625,-0.9676666259765625,-0.143524169921875,0.1496124267578125
1782845808307468300,0.48846826171875,-0.96832275390625,-0.1431884765625,0.1464080810546875
1782845808317473500,0.4984736328125,-0.971160888671875,-0.138824462890625,0.142333984375
1782845808327478500,0.508478515625,-0.970062255859375,-0.137054443359375,0.141815185546875
1782845808337483500,0.5184833984375,-0.968994140625,-0.137786865234375,0.1412353515625
1782845808347488500,0.528488525390625,-0.966094970703125,-0.1372222900390625,0.141876220703125
1782845808357493500,0.538493408203125,-0.9668121337890625,-0.13946533203125,0.1439666748046875
1782845808367498500,0.54849853515625,-0.96856689453125,-0.138885498046875,0.1477813720703125
1782845808377503500,0.55850341796875,-0.97039794921875,-0.139434814453125,0.147216796875
1782845808387508500,0.568508544921875,-0.9706268310546875,-0.1389312744140625,0.1497650146484375
1782845808397513500,0.578513427734375,-0.9700164794921875,-0.1375732421875,0.14959716796875
1782845808407518500,0.5885185546875,-0.967987060546875,-0.1381988525390625,0.1489715576171875
1782845808417524200,0.598524169921875,-0.9673004150390625,-0.138916015625,0.148956298828125
1782845808427529200,0.608529296875,-0.9625396728515625,-0.1381988525390625,0.1504669189453125
1782845808437534200,0.6185341796875,-0.9621124267578125,-0.139495849609375,0.15191650390625
1782845808447539500,0.62853955078125,-0.9617462158203125,-0.138702392578125,0.1520843505859375
1782845808457544400,0.63854443359375,-0.964019775390625,-0.1368255615234375,0.1523895263671875
1782845808467549400,0.648549560546875,-0.970062255859375,-0.13665771484375,0.1514739990234375
1782845808477554400,0.658554443359375,-0.9771270751953125,-0.1368560791015625,0.1475830078125
1782845808487559400,0.668559326171875,-0.9829864501953125,-0.134552001953125,0.1447296142578125
1782845808497564700,0.678564697265625,-0.9867706298828125,-0.1327362060546875,0.1449432373046875
1782845808507569700,0.688569580078125,-0.9866485595703125,-0.1355133056640625,0.147125244140625
1782845808517574700,0.69857470703125,-0.9815521240234375,-0.136138916015625,0.1464385986328125
1782845808527579600,0.70857958984375,-0.9755706787109375,-0.135284423828125,0.147796630859375
1782845808537584600,0.718584716796875,-0.9699249267578125,-0.133819580078125,0.1461944580078125
1782845808547589600,0.728589599609375,-0.965423583984375,-0.1346435546875,0.1478271484375
1782845808557594600,0.7385947265625,-0.9647369384765625,-0.1352081298828125,0.1449737548828125
1782845808567599600,0.748599609375,-0.9615020751953125,-0.1318206787109375,0.1450347900390625
1782845808577604600,0.7586044921875,-0.95880126953125,-0.130615234375,0.1446990966796875
1782845808587609600,0.768609619140625,-0.9632110595703125,-0.1293182373046875,0.142486572265625
1782845808597614600,0.778614501953125,-0.9702911376953125,-0.1266937255859375,0.1439361572265625
1782845808607619600,0.78861962890625,-0.9691925048828125,-0.1299285888671875,0.1473541259765625
1782845808617624600,0.79862451171875,-0.969635009765625,-0.133148193359375,0.1527557373046875
1782845808627629600,0.808629638671875,-0.9710235595703125,-0.130523681640625,0.1559906005859375
1782845808637634600,0.818634521484375,-0.970611572265625,-0.1309356689453125,0.157470703125
1782845808647639600,0.8286396484375,-0.970703125,-0.133575439453125,0.1592559814453125
1782845808657644500,0.83864453125,-0.969940185546875,-0.1306610107421875,0.157135009765625
1782845808667649500,0.8486494140625,-0.973052978515625,-0.128662109375,0.155364990234375
1782845808677654500,0.858654541015625,-0.9753265380859375,-0.1301422119140625,0.1541900634765625
1782845808687659500,0.868659423828125,-0.9745025634765625,-0.1284637451171875,0.1527862548828125
1782845808697664500,0.87866455078125,-0.9739990234375,-0.1309051513671875,0.154205322265625
1782845808707669500,0.88866943359375,-0.9720611572265625,-0.1338653564453125,0.1538238525390625
1782845808717674500,0.898674560546875,-0.968597412109375,-0.13336181640625,0.1535186767578125
1782845808727679500,0.908679443359375,-0.970184326171875,-0.134124755859375,0.151458740234375
1782845808737684500,0.9186845703125,-0.972900390625,-0.132568359375,0.1464996337890625
1782845808747689500,0.928689453125,-0.9740753173828125,-0.133270263671875,0.14556884765625
1782845808757694500,0.938694580078125,-0.9763946533203125,-0.1321563720703125,0.14764404296875
1782845808767699500,0.948699462890625,-0.976715087890625,-0.13232421875,0.1483612060546875
1782845808777704400,0.958704345703125,-0.9741058349609375,-0.1294097900390625,0.149566650390625
1782845808787709400,0.96870947265625,-0.9724273681640625,-0.1285858154296875,0.14984130859375
1782845808797714400,0.97871435546875,-0.973388671875,-0.127777099609375,0.1468353271484375
1782845808807719400,0.988719482421875,-0.9779205322265625,-0.1261749267578125,0.15106201171875
1782845808817724400,0.998724365234375,-0.981597900390625,-0.123809814453125,0.151275634765625
1782845808827729400,1.0087294921875,-0.9774627685546875,-0.1248321533203125,0.14642333984375
1782845808837734400,1.018734375,-0.985931396484375,-0.1244659423828125,0.15435791015625
1782845808847739400,1.028739501953125,-0.984161376953125,-0.1291656494140625,0.15997314453125
1782845808857744400,1.038744384765625,-0.980438232421875,-0.1329498291015625,0.1625518798828125
1782845808867749400,1.048749267578125,-0.9742279052734375,-0.1315155029296875,0.1602935791015625
1782845808877754400,1.05875439453125,-0.9691619873046875,-0.1270904541015625,0.1584320068359375
1782845808887759400,1.06875927734375,-0.961669921875,-0.126678466796875,0.1552886962890625
1782845808897764400,1.078764404296875,-0.9558563232421875,-0.1290283203125,0.152313232421875
1782845808907769300,1.088769287109375,-0.9523468017578125,-0.1313323974609375,0.1523895263671875
1782845808917774300,1.0987744140625,-0.9553375244140625,-0.1307525634765625,0.1470489501953125
1782845808927779300,1.108779296875,-0.9644317626953125,-0.129119873046875,0.1448974609375
1782845808937784300,1.118784423828125,-0.9651031494140625,-0.1291351318359375,0.147247314453125
1782845808947789300,1.128789306640625,-0.966156005859375,-0.1324615478515625,0.1464691162109375
1782845808957794300,1.138794189453125,-0.966888427734375,-0.1349334716796875,0.14697265625
1782845808967799600,1.148799560546875,-0.96624755859375,-0.1343536376953125,0.1477203369140625
1782845808977804500,1.158804443359375,-0.9665985107421875,-0.135162353515625,0.15155029296875
1782845808987809500,1.1688095703125,-0.9694976806640625,-0.1348114013671875,0.15087890625
1782845808997814500,1.178814453125,-0.9751129150390625,-0.131805419921875,0.1481170654296875
1782845809007819500,1.188819580078125,-0.9759521484375,-0.1291656494140625,0.1471405029296875
1782845809017825300,1.1988251953125,-0.9764862060546875,-0.1287078857421875,0.143585205078125
1782845809027830300,1.208830322265625,-0.9816436767578125,-0.126190185546875,0.140777587890625
1782845809037835300,1.218835205078125,-0.981353759765625,-0.12664794921875,0.14471435546875
1782845809047840300,1.22884033203125,-0.9815521240234375,-0.128143310546875,0.1483001708984375
1782845809057845200,1.23884521484375,-0.975494384765625,-0.1325225830078125,0.151397705078125
1782845809067850200,1.248850341796875,-0.96502685546875,-0.1338043212890625,0.15130615234375
1782845809077855200,1.258855224609375,-0.963348388671875,-0.13470458984375,0.1484527587890625
1782845809087860200,1.268860107421875,-0.9623565673828125,-0.13409423828125,0.147186279296875
1782845809097865200,1.278865234375,-0.963836669921875,-0.1352386474609375,0.1482086181640625
1782845809107870500,1.288870361328125,-0.96771240234375,-0.130096435546875,0.1501007080078125
1782845809117875500,1.29887548828125,-0.9679107666015625,-0.1298370361328125,0.1524658203125
1782845809127880400,1.30888037109375,-0.9709625244140625,-0.1316375732421875,0.151824951171875
1782845809137885400,1.318885498046875,-0.9743804931640625,-0.1304168701171875,0.149566650390625
1782845809147890400,1.328890380859375,-0.973297119140625,-0.129669189453125,0.15155029296875
1782845809157895400,1.3388955078125,-0.9750823974609375,-0.1319580078125,0.1553497314453125
1782845809167900400,1.348900390625,-0.9698638916015625,-0.1341705322265625,0.1555938720703125
1782845809177905400,1.358905517578125,-0.972259521484375,-0.1365814208984375,0.1563720703125
1782845809187910400,1.368910400390625,-0.9709625244140625,-0.136260986328125,0.15478515625
1782845809197915400,1.378915283203125,-0.973785400390625,-0.1343994140625,0.152374267578125
1782845809207920400,1.38892041015625,-0.9767913818359375,-0.132415771484375,0.1531524658203125
1782845809217925400,1.39892529296875,-0.9773101806640625,-0.132354736328125,0.153533935546875
1782845809227930400,1.408930419921875,-0.976806640625,-0.13134765625,0.1504669189453125
1782845809237935400,1.418935302734375,-0.9754638671875,-0.1285247802734375,0.151458740234375
1782845809247940400,1.4289404296875,-0.968780517578125,-0.128143310546875,0.1472320556640625
1782845809257945300,1.4389453125,-0.9660186767578125,-0.1291046142578125,0.151763916015625
1782845809267950300,1.448950439453125,-0.960357666015625,-0.132110595703125,0.15533447265625
1782845809277955300,1.458955322265625,-0.95904541015625,-0.1323394775390625,0.1571044921875
1782845809287960300,1.468960205078125,-0.9623260498046875,-0.134918212890625,0.1586151123046875
1782845809297965300,1.47896533203125,-0.9614410400390625,-0.1382904052734375,0.1551361083984375
1782845809307970300,1.48897021484375,-0.967132568359375,-0.1346588134765625,0.1570892333984375
1782845809317975300,1.498975341796875,-0.968048095703125,-0.131988525390625,0.153167724609375
1782845809327980300,1.508980224609375,-0.9695281982421875,-0.129302978515625,0.1477813720703125
1782845809337985300,1.5189853515625,-0.9701080322265625,-0.1282806396484375,0.1463470458984375
1782845809347990300,1.528990234375,-0.967864990234375,-0.130157470703125,0.14556884765625
1782845809357995300,1.538995361328125,-0.9661712646484375,-0.131103515625,0.1456298828125
1782845809368000300,1.549000244140625,-0.9718017578125,-0.130767822265625,0.1534423828125
1782845809378005200,1.559005126953125,-0.974090576171875,-0.1312255859375,0.154632568359375
1782845809388010200,1.56901025390625,-0.9746551513671875,-0.129364013671875,0.152557373046875
1782845809398015200,1.57901513671875,-0.9718780517578125,-0.1290130615234375,0.149871826171875
1782845809408020200,1.589020263671875,-0.972137451171875,-0.1263580322265625,0.14544677734375
1782845809418025200,1.599025146484375,-0.9727783203125,-0.125640869140625,0.1448211669921875
1782845809428030200,1.6090302734375,-0.974639892578125,-0.1255645751953125,0.14288330078125
1782845809438035200,1.61903515625,-0.978302001953125,-0.12762451171875,0.1428375244140625
1782845809448040200,1.629040283203125,-0.9774627685546875,-0.1284332275390625,0.1421356201171875
1782845809458045200,1.639045166015625,-0.972808837890625,-0.129608154296875,0.1454620361328125
1782845809468050200,1.64905029296875,-0.96783447265625,-0.135101318359375,0.1420745849609375
1782845809478055200,1.65905517578125,-0.963134765625,-0.1335601806640625,0.1418609619140625
1782845809488060200,1.66906005859375,-0.962188720703125,-0.13238525390625,0.142181396484375
1782845809498065200,1.679065185546875,-0.962554931640625,-0.1321563720703125,0.144134521484375
1782845809508070100,1.689070068359375,-0.9674530029296875,-0.133453369140625,0.1454010009765625
1782845809518075100,1.6990751953125,-0.9693145751953125,-0.130645751953125,0.1483612060546875
1782845809528080100,1.709080078125,-0.9721527099609375,-0.1281585693359375,0.14910888671875
1782845809538085000,1.719085205078125,-0.97222900390625,-0.127685546875,0.15203857421875
1782845809548090000,1.729090087890625,-0.9756011962890625,-0.1272735595703125,0.1536865234375
1782845809558095000,1.73909521484375,-0.9791107177734375,-0.12957763671875,0.151458740234375
1782845809568101000,1.74910107421875,-0.9752960205078125,-0.1257781982421875,0.1568450927734375
1782845809578106000,1.759106201171875,-0.9746856689453125,-0.1285400390625,0.1588134765625
1782845809588111000,1.769111083984375,-0.9739990234375,-0.13128662109375,0.15533447265625
1782845809598116000,1.7791162109375,-0.97283935546875,-0.1316070556640625,0.1549835205078125
1782845809608121000,1.78912109375,-0.9721221923828125,-0.1316375732421875,0.1563873291015625
1782845809618126000,1.7991259765625,-0.97344970703125,-0.1298828125,0.1604461669921875
1782845809628131000,1.809131103515625,-0.974151611328125,-0.1339874267578125,0.1621246337890625
1782845809638136300,1.81913623046875,-0.9763946533203125,-0.1344451904296875,0.1626129150390625
1782845809648141300,1.829141357421875,-0.9789276123046875,-0.1338653564453125,0.1602783203125
1782845809658146300,1.839146240234375,-0.9798583984375,-0.1323394775390625,0.156646728515625
1782845809668151300,1.8491513671875,-0.980010986328125,-0.13055419921875,0.1545257568359375
1782845809678156300,1.85915625,-0.9794464111328125,-0.1278839111328125,0.15478515625
1782845809688161300,1.869161376953125,-0.979339599609375,-0.127899169921875,0.1498260498046875
1782845809698166300,1.879166259765625,-0.971771240234375,-0.12841796875,0.1469879150390625
1782845809708171300,1.889171142578125,-0.9652099609375,-0.1300201416015625,0.1428985595703125
1782845809718176300,1.89917626953125,-0.957489013671875,-0.1306610107421875,0.14434814453125
1782845809728181200,1.90918115234375,-0.95330810546875,-0.13311767578125,0.1452178955078125
1782845809738186200,1.919186279296875,-0.952362060546875,-0.1374969482421875,0.14654541015625
1782845809748191200,1.929191162109375,-0.959136962890625,-0.1374969482421875,0.1478118896484375
1782845809758196500,1.939196533203125,-0.9652099609375,-0.1378326416015625,0.1518096923828125
1782845809768201500,1.949201416015625,-0.97637939453125,-0.137420654296875,0.151397705078125
1782845809778206500,1.95920654296875,-0.982025146484375,-0.13616943359375,0.1483612060546875
1782845809788211500,1.96921142578125,-0.9848785400390625,-0.1342315673828125,0.1497650146484375
1782845809798216400,1.979216552734375,-0.983367919921875,-0.134674072265625,0.1476287841796875
1782845809808221400,1.989221435546875,-0.97906494140625,-0.1371612548828125,0.1470947265625
1782845809818226400,1.999226318359375,-0.974395751953125,-0.13330078125,0.1456451416015625
1782845809828231400,2.0092314453125,-0.9713592529296875,-0.13226318359375,0.14178466796875
1782845809838236400,2.019236328125,-0.970184326171875,-0.131378173828125,0.1418914794921875
1782845809848241400,2.029241455078125,-0.9707489013671875,-0.1281280517578125,0.141021728515625
1782845809858246400,2.039246337890625,-0.9716033935546875,-0.12744140625,0.1419677734375
1782845809868251400,2.04925146484375,-0.968658447265625,-0.12774658203125,0.1427001953125
1782845809878256400,2.05925634765625,-0.96484375,-0.132720947265625,0.1479644775390625
1782845809888261400,2.069261474609375,-0.96405029296875,-0.137420654296875,0.1524200439453125
1782845809898266400,2.079266357421875,-0.965423583984375,-0.1360321044921875,0.1578216552734375
1782845809908271400,2.089271240234375,-0.969085693359375,-0.1374969482421875,0.1607208251953125
1782845809918276400,2.0992763671875,-0.975067138671875,-0.138641357421875,0.1607208251953125
1782845809928281300,2.10928125,-0.97869873046875,-0.13592529296875,0.159210205078125
1782845809938286300,2.119286376953125,-0.9810333251953125,-0.1322021484375,0.1547393798828125
1782845809948291300,2.129291259765625,-0.9763946533203125,-0.1281280517578125,0.152374267578125
1782845809958296300,2.13929638671875,-0.9686279296875,-0.126251220703125,0.1517181396484375
1782845809968301300,2.14930126953125,-0.9631805419921875,-0.1300201416015625,0.148590087890625
1782845809978306300,2.159306396484375,-0.9582977294921875,-0.133575439453125,0.1460723876953125
1782845809988311300,2.169311279296875,-0.954132080078125,-0.13433837890625,0.1443634033203125
1782845809998316300,2.17931640625,-0.9589691162109375,-0.1354522705078125,0.1439208984375
1782845810008321300,2.1893212890625,-0.96527099609375,-0.1340484619140625,0.149017333984375
1782845810018326300,2.199326171875,-0.9665069580078125,-0.13348388671875,0.1527557373046875
1782845810028331300,2.209331298828125,-0.9696197509765625,-0.135223388671875,0.155059814453125
1782845810038336300,2.219336181640625,-0.970489501953125,-0.13427734375,0.15362548828125
1782845810048341200,2.22934130859375,-0.968994140625,-0.1317291259765625,0.1544189453125
1782845810058346200,2.23934619140625,-0.9710235595703125,-0.1304931640625,0.1502685546875
1782845810068351200,2.249351318359375,-0.9729766845703125,-0.1321258544921875,0.1484527587890625
1782845810078356200,2.259356201171875,-0.9715423583984375,-0.133758544921875,0.1492156982421875
1782845810088361200,2.269361328125,-0.969512939453125,-0.13275146484375,0.1515045166015625
1782845810098366200,2.2793662109375,-0.9667816162109375,-0.13433837890625,0.151123046875
1782845810108371200,2.28937109375,-0.9648284912109375,-0.1343536376953125,0.15118408203125
1782845810118378500,2.29937841796875,-0.9626922607421875,-0.13494873046875,0.1515045166015625
1782845810128383500,2.309383544921875,-0.96087646484375,-0.1348876953125,0.1520843505859375
1782845810138388500,2.319388427734375,-0.9645843505859375,-0.1349639892578125,0.152191162109375
1782845810148393500,2.3293935546875,-0.9683837890625,-0.135589599609375,0.1524810791015625
1782845810158398500,2.3393984375,-0.97216796875,-0.1348876953125,0.1529388427734375
1782845810168403500,2.349403564453125,-0.977691650390625,-0.1337127685546875,0.1556243896484375
1782845810178408400,2.359408447265625,-0.9824371337890625,-0.1320343017578125,0.155517578125
1782845810188413400,2.369413330078125,-0.9847259521484375,-0.130462646484375,0.15301513671875
1782845810198418400,2.37941845703125,-0.98046875,-0.1298065185546875,0.15277099609375
1782845810208423400,2.38942333984375,-0.9733428955078125,-0.131103515625,0.1552734375
1782845810218428400,2.399428466796875,-0.9676666259765625,-0.1312408447265625,0.1552276611328125
1782845810228433400,2.409433349609375,-0.9610443115234375,-0.1317291259765625,0.15545654296875
1782845810238438400,2.4194384765625,-0.9607391357421875,-0.1321258544921875,0.151824951171875
1782845810248443400,2.429443359375,-0.9631500244140625,-0.1332855224609375,0.1544647216796875
1782845810258448400,2.439448486328125,-0.96649169921875,-0.134307861328125,0.1539764404296875
1782845810268453400,2.449453369140625,-0.9716339111328125,-0.133758544921875,0.153167724609375
1782845810278458400,2.459458251953125,-0.975433349609375,-0.132171630859375,0.150360107421875
1782845810288463400,2.46946337890625,-0.973236083984375,-0.1321563720703125,0.1530914306640625
1782845810298468400,2.47946826171875,-0.969207763671875,-0.131683349609375,0.1526641845703125
1782845810308473300,2.489473388671875,-0.9661712646484375,-0.1319580078125,0.153076171875
1782845810318478300,2.499478271484375,-0.9611663818359375,-0.1342010498046875,0.149169921875
1782845810328483300,2.5094833984375,-0.9620361328125,-0.1340484619140625,0.150634765625
1782845810338488300,2.51948828125,-0.968231201171875,-0.1318359375,0.151153564453125
1782845810348493300,2.529493408203125,-0.97589111328125,-0.1323394775390625,0.1544342041015625
1782845810358498300,2.539498291015625,-0.9787750244140625,-0.132904052734375,0.1565093994140625
1782845810368503300,2.54950341796875,-0.97998046875,-0.1305389404296875,0.154052734375
1782845810378508300,2.55950830078125,-0.9792022705078125,-0.129119873046875,0.15240478515625
1782845810388513300,2.56951318359375,-0.97564697265625,-0.130523681640625,0.151214599609375
1782845810398518300,2.579518310546875,-0.97271728515625,-0.1308441162109375,0.1515960693359375
1782845810408523300,2.589523193359375,-0.973663330078125,-0.1327362060546875,0.151031494140625
1782845810418528300,2.5995283203125,-0.9730682373046875,-0.1321563720703125,0.1523895263671875
1782845810428533500,2.609533447265625,-0.97186279296875,-0.133270263671875,0.1539459228515625
1782845810438538500,2.61953857421875,-0.9704437255859375,-0.1338043212890625,0.154937744140625
1782845810448543500,2.62954345703125,-0.97021484375,-0.1328887939453125,0.153564453125
1782845810458548500,2.639548583984375,-0.968231201171875,-0.1324920654296875,0.1508636474609375
1782845810468553500,2.649553466796875,-0.964630126953125,-0.13153076171875,0.1529541015625
1782845810478558500,2.659558349609375,-0.9640350341796875,-0.1323699951171875,0.1515045166015625
1782845810488563500,2.6695634765625,-0.9654083251953125,-0.12744140625,0.14874267578125
1782845810498568400,2.679568359375,-0.9714202880859375,-0.127471923828125,0.1489410400390625
1782845810508573400,2.689573486328125,-0.9727630615234375,-0.129608154296875,0.1493682861328125
1782845810518578400,2.699578369140625,-0.97265625,-0.1342010498046875,0.1555633544921875
1782845810528583400,2.70958349609375,-0.966766357421875,-0.13421630859375,0.158538818359375
1782845810538588400,2.71958837890625,-0.9654541015625,-0.1334686279296875,0.1583251953125
1782845810548593400,2.729593505859375,-0.9652557373046875,-0.13287353515625,0.1561737060546875
1782845810558598400,2.739598388671875,-0.96539306640625,-0.131500244140625,0.15557861328125
1782845810568603400,2.749603271484375,-0.9693756103515625,-0.129913330078125,0.1564483642578125
1782845810578608600,2.759608642578125,-0.9779815673828125,-0.1276092529296875,0.1566619873046875
1782845810588613600,2.769613525390625,-0.9817962646484375,-0.1285552978515625,0.1584014892578125
1782845810598618600,2.77961865234375,-0.98272705078125,-0.128570556640625,0.163116455078125
1782845810608623600,2.78962353515625,-0.978759765625,-0.1301422119140625,0.1663970947265625
1782845810618628600,2.799628662109375,-0.974517822265625,-0.1333465576171875,0.1674957275390625
1782845810628633600,2.809633544921875,-0.9673919677734375,-0.1343536376953125,0.166595458984375
1782845810638638600,2.819638671875,-0.960357666015625,-0.1343841552734375,0.163360595703125
1782845810648643600,2.8296435546875,-0.9578399658203125,-0.1325836181640625,0.1595916748046875
1782845810658648600,2.839648681640625,-0.9553680419921875,-0.133056640625,0.157928466796875
1782845810668653600,2.849653564453125,-0.9571380615234375,-0.1298828125,0.154022216796875
1782845810678658600,2.859658447265625,-0.961639404296875,-0.1248931884765625,0.15179443359375
1782845810688663600,2.86966357421875,-0.9684906005859375,-0.123321533203125,0.146392822265625
1782845810698668500,2.87966845703125,-0.96978759765625,-0.1241455078125,0.1470947265625
1782845810708673500,2.889673583984375,-0.970977783203125,-0.129150390625,0.1499176025390625
1782845810718678500,2.899678466796875,-0.972259521484375,-0.13165283203125,0.1534271240234375
1782845810728684500,2.9096845703125,-0.97357177734375,-0.13299560546875,0.1552276611328125
1782845810738689500,2.919689453125,-0.9745025634765625,-0.1338958740234375,0.1565704345703125
1782845810748694500,2.929694580078125,-0.96990966796875,-0.1346893310546875,0.1581268310546875
1782845810758699500,2.939699462890625,-0.9670867919921875,-0.13592529296875,0.156158447265625
1782845810768704500,2.94970458984375,-0.96453857421875,-0.131744384765625,0.153961181640625
1782845810778709500,2.95970947265625,-0.9661407470703125,-0.1275787353515625,0.150299072265625
1782845810788714500,2.969714599609375,-0.9681549072265625,-0.1226806640625,0.1525726318359375
1782845810798719500,2.979719482421875,-0.9734344482421875,-0.12542724609375,0.152496337890625
1782845810808724500,2.989724365234375,-0.9813079833984375,-0.1269073486328125,0.151458740234375
1782845810818729500,2.9997294921875,-0.98565673828125,-0.126068115234375,0.152923583984375
1782845810828734500,3.009734375,-0.9868011474609375,-0.126739501953125,0.15399169921875
1782845810838739500,3.019739501953125,-0.986602783203125,-0.1290740966796875,0.15594482421875
1782845810848744400,3.029744384765625,-0.978973388671875,-0.128143310546875,0.1561737060546875
1782845810858749400,3.03974951171875,-0.971923828125,-0.1275177001953125,0.1565399169921875
1782845810868754400,3.04975439453125,-0.9616851806640625,-0.1265716552734375,0.1548919677734375
1782845810878759400,3.059759521484375,-0.9570465087890625,-0.128204345703125,0.15704345703125
1782845810888764400,3.069764404296875,-0.955352783203125,-0.1283721923828125,0.1593780517578125
1782845810898769400,3.079769287109375,-0.95477294921875,-0.12689208984375,0.1615753173828125
1782845810908774400,3.0897744140625,-0.9598236083984375,-0.12615966796875,0.1589508056640625
1782845810918779400,3.099779296875,-0.964080810546875,-0.1240386962890625,0.1577911376953125
1782845810928784400,3.109784423828125,-0.96630859375,-0.1253509521484375,0.1607208251953125
1782845810938789400,3.119789306640625,-0.9681396484375,-0.1280975341796875,0.1616668701171875
1782845810948794400,3.12979443359375,-0.967437744140625,-0.1279144287109375,0.1655426025390625
1782845810958799400,3.13979931640625,-0.9688720703125,-0.1284027099609375,0.1655731201171875
1782845810968804400,3.149804443359375,-0.9668426513671875,-0.131317138671875,0.1661834716796875
1782845810978809300,3.159809326171875,-0.9667816162109375,-0.132232666015625,0.162506103515625
1782845810988814300,3.169814453125,-0.9678955078125,-0.1288299560546875,0.1576080322265625
1782845810998819300,3.1798193359375,-0.9725799560546875,-0.127227783203125,0.1520843505859375
1782845811008824300,3.18982421875,-0.9764556884765625,-0.1248321533203125,0.1523284912109375
1782845811018829300,3.199829345703125,-0.98052978515625,-0.1245880126953125,0.1479949951171875
1782845811028834300,3.209834228515625,-0.980987548828125,-0.127197265625,0.1506805419921875
1782845811038839300,3.21983935546875,-0.975860595703125,-0.131744384765625,0.155181884765625
1782845811048844300,3.22984423828125,-0.9703521728515625,-0.1354522705078125,0.157379150390625
1782845811058849300,3.239849365234375,-0.9691162109375,-0.1336822509765625,0.15814208984375
1782845811068854300,3.249854248046875,-0.9675445556640625,-0.1340484619140625,0.156036376953125
1782845811078859300,3.259859375,-0.9659423828125,-0.1343994140625,0.1507415771484375
1782845811088864300,3.2698642578125,-0.9674072265625,-0.1302490234375,0.146026611328125
1782845811098869200,3.279869140625,-0.9705810546875,-0.126983642578125,0.14605712890625
1782845811108874200,3.289874267578125,-0.9737701416015625,-0.12469482421875,0.1455230712890625
1782845811118878500,3.29987841796875,-0.97967529296875,-0.1268310546875,0.14886474609375
1782845811128883500,3.309883544921875,-0.9832763671875,-0.1288604736328125,0.1497955322265625
1782845811138888400,3.319888427734375,-0.9859161376953125,-0.1293792724609375,0.151763916015625
1782845811148893400,3.3298935546875,-0.9864654541015625,-0.127655029296875,0.1529693603515625
1782845811158898400,3.3398984375,-0.98052978515625,-0.128509521484375,0.153045654296875
1782845811168903400,3.3499033203125,-0.9738006591796875,-0.1299591064453125,0.14947509765625
1782845811178908400,3.359908447265625,-0.9680328369140625,-0.1308441162109375,0.14501953125
1782845811188913400,3.369913330078125,-0.96331787109375,-0.1276702880859375,0.1439361572265625
1782845811198918400,3.37991845703125,-0.9671173095703125,-0.1241912841796875,0.1453399658203125
1782845811208923400,3.38992333984375,-0.9720306396484375,-0.1248779296875,0.15032958984375
1782845811218928400,3.399928466796875,-0.9796142578125,-0.12811279296875,0.152984619140625
1782845811228933400,3.409933349609375,-0.984954833984375,-0.1271820068359375,0.1555633544921875
1782845811238938400,3.4199384765625,-0.9857635498046875,-0.1232147216796875,0.1576080322265625
1782845811248943400,3.429943359375,-0.9864501953125,-0.124755859375,0.1592864990234375
1782845811258948400,3.4399482421875,-0.9783477783203125,-0.1277923583984375,0.159820556640625
1782845811268953300,3.449953369140625,-0.9699249267578125,-0.1300811767578125,0.159820556640625
1782845811278958300,3.459958251953125,-0.96405029296875,-0.12939453125,0.15936279296875
1782845811288963300,3.46996337890625,-0.957916259765625,-0.128204345703125,0.1598968505859375
1782845811298968600,3.479968505859375,-0.9571075439453125,-0.12603759765625,0.158233642578125
1782845811308973600,3.4899736328125,-0.960235595703125,-0.1227569580078125,0.154815673828125
1782845811318978600,3.499978515625,-0.9646453857421875,-0.1187744140625,0.155059814453125
1782845811328983600,3.509983642578125,-0.9658050537109375,-0.117523193359375,0.15106201171875
1782845811338988500,3.519988525390625,-0.967926025390625,-0.120849609375,0.1513824462890625
1782845811348993500,3.52999365234375,-0.96502685546875,-0.120452880859375,0.1557464599609375
1782845811358998500,3.53999853515625,-0.966094970703125,-0.1232757568359375,0.15570068359375
1782845811369003500,3.55000341796875,-0.96710205078125,-0.1235809326171875,0.1580963134765625
1782845811379008500,3.560008544921875,-0.964935302734375,-0.123504638671875,0.1591033935546875
1782845811389013500,3.570013427734375,-0.9636993408203125,-0.1260833740234375,0.1602020263671875
1782845811399018500,3.5800185546875,-0.96282958984375,-0.1245574951171875,0.1568145751953125
1782845811409024500,3.5900244140625,-0.9631805419921875,-0.1248779296875,0.154022216796875
1782845811419029500,3.600029541015625,-0.9627685546875,-0.1244659423828125,0.1559600830078125
1782845811429034500,3.610034423828125,-0.96331787109375,-0.124908447265625,0.1597442626953125
1782845811439039500,3.62003955078125,-0.9697723388671875,-0.127044677734375,0.1595916748046875
1782845811449044500,3.63004443359375,-0.9789581298828125,-0.1264801025390625,0.1556549072265625
1782845811459049500,3.640049560546875,-0.981475830078125,-0.1253204345703125,0.1557464599609375
1782845811469054500,3.650054443359375,-0.9808502197265625,-0.12957763671875,0.153472900390625
1782845811479059500,3.6600595703125,-0.9768218994140625,-0.133880615234375,0.1556243896484375
1782845811489064400,3.670064453125,-0.969451904296875,-0.134735107421875,0.153656005859375
1782845811499069400,3.6800693359375,-0.963134765625,-0.131744384765625,0.1537933349609375
1782845811509074400,3.690074462890625,-0.963134765625,-0.130706787109375,0.14825439453125
1782845811519079400,3.700079345703125,-0.963958740234375,-0.1295166015625,0.147552490234375
1782845811529084400,3.71008447265625,-0.968414306640625,-0.1309661865234375,0.146728515625
1782845811539089400,3.72008935546875,-0.97198486328125,-0.1323699951171875,0.1484375
1782845811549094400,3.730094482421875,-0.9691925048828125,-0.1305389404296875,0.1528778076171875
1782845811559099400,3.740099365234375,-0.9685821533203125,-0.131011962890625,0.1521759033203125
1782845811569104400,3.7501044921875,-0.9624481201171875,-0.1328125,0.1543121337890625
1782845811579109400,3.760109375,-0.9572296142578125,-0.1324615478515625,0.1570892333984375
1782845811589114400,3.7701142578125,-0.9524078369140625,-0.1358184814453125,0.1564483642578125
1782845811599119400,3.780119384765625,-0.952545166015625,-0.1348724365234375,0.1551055908203125
1782845811609124400,3.790124267578125,-0.9529876708984375,-0.134307861328125,0.1575469970703125
1782845811619129300,3.80012939453125,-0.9601898193359375,-0.1333770751953125,0.1578521728515625
1782845811629134300,3.81013427734375,-0.974700927734375,-0.1335296630859375,0.1566314697265625
1782845811639139300,3.820139404296875,-0.98944091796875,-0.1310272216796875,0.1563568115234375
1782845811649144300,3.830144287109375,-1.000274658203125,-0.1306610107421875,0.1586151123046875
1782845811659149300,3.8401494140625,-1.0027313232421875,-0.130828857421875,0.1609954833984375
1782845811669154300,3.850154296875,-0.995880126953125,-0.1305389404296875,0.1616973876953125
1782845811679159300,3.8601591796875,-0.98583984375,-0.1306610107421875,0.1575775146484375
1782845811689164300,3.870164306640625,-0.97467041015625,-0.129974365234375,0.15057373046875
1782845811699169300,3.880169189453125,-0.970428466796875,-0.1285858154296875,0.147552490234375
1782845811709174300,3.89017431640625,-0.9674835205078125,-0.12933349609375,0.14892578125
1782845811719179300,3.90017919921875,-0.966033935546875,-0.1278228759765625,0.14825439453125
1782845811729184500,3.9101845703125,-0.971343994140625,-0.1285247802734375,0.1468658447265625
1782845811739189500,3.920189453125,-0.9752655029296875,-0.1262054443359375,0.146484375
1782845811749194500,3.930194580078125,-0.9835357666015625,-0.126495361328125,0.1481781005859375
1782845811759199500,3.940199462890625,-0.9914093017578125,-0.125885009765625,0.150634765625
1782845811769204500,3.95020458984375,-0.9903564453125,-0.127471923828125,0.154754638671875
1782845811779209500,3.96020947265625,-0.9828338623046875,-0.130889892578125,0.157623291015625
1782845811789214500,3.97021435546875,-0.973663330078125,-0.131011962890625,0.156494140625
1782845811799219500,3.980219482421875,-0.965850830078125,-0.1316680908203125,0.1542510986328125
1782845811809224400,3.990224365234375,-0.9640655517578125,-0.1294708251953125,0.149810791015625
1782845811819229400,4.0002294921875,-0.9627685546875,-0.1247711181640625,0.152130126953125
1782845811829234400,4.010234375,-0.9636077880859375,-0.1211700439453125,0.1537017822265625
1782845811839239400,4.020239501953125,-0.96630859375,-0.119964599609375,0.15478515625
1782845811849244400,4.030244384765625,-0.9678802490234375,-0.120941162109375,0.158538818359375
1782845811859249400,4.04024951171875,-0.9705047607421875,-0.12237548828125,0.15972900390625
1782845811869254400,4.05025439453125,-0.9681396484375,-0.1248626708984375,0.16253662109375
1782845811879259400,4.06025927734375,-0.964263916015625,-0.1275177001953125,0.1647796630859375
1782845811889264400,4.070264404296875,-0.9612579345703125,-0.1313018798828125,0.1630096435546875
1782845811899269400,4.080269287109375,-0.9571685791015625,-0.130096435546875,0.162933349609375
1782845811909274400,4.0902744140625,-0.9569091796875,-0.127166748046875,0.1613311767578125
1782845811919279400,4.100279296875,-0.9579620361328125,-0.12591552734375,0.1591644287109375
1782845811929284400,4.110284423828125,-0.959503173828125,-0.12646484375,0.1589202880859375
1782845811939289300,4.120289306640625,-0.9637603759765625,-0.1276092529296875,0.156005859375
1782845811949294300,4.13029443359375,-0.9645843505859375,-0.12786865234375,0.156158447265625
1782845811959299300,4.14029931640625,-0.9673004150390625,-0.1274566650390625,0.1564788818359375
1782845811969304300,4.15030419921875,-0.970916748046875,-0.128753662109375,0.156402587890625
1782845811979309300,4.160309326171875,-0.9714508056640625,-0.1279754638671875,0.1549224853515625
1782845811989314600,4.170314453125,-0.971160888671875,-0.1279144287109375,0.1548614501953125
1782845811999319600,4.180319580078125,-0.9674224853515625,-0.1283416748046875,0.1537322998046875
1782845812009324500,4.190324462890625,-0.966339111328125,-0.1290130615234375,0.152313232421875
1782845812019329500,4.20032958984375,-0.96630859375,-0.12994384765625,0.14984130859375
1782845812029334500,4.21033447265625,-0.9668426513671875,-0.1341400146484375,0.1536712646484375
1782845812039339500,4.220339599609375,-0.970977783203125,-0.1349639892578125,0.1544952392578125
1782845812049344500,4.230344482421875,-0.9760589599609375,-0.132659912109375,0.154815673828125
1782845812059349500,4.240349609375,-0.9818878173828125,-0.1292877197265625,0.1533966064453125
1782845812069354500,4.2503544921875,-0.9801177978515625,-0.1272125244140625,0.154571533203125
1782845812079359500,4.260359375,-0.9728851318359375,-0.1318817138671875,0.1529083251953125
1782845812089364500,4.270364501953125,-0.969390869140625,-0.1334381103515625,0.1501922607421875
1782845812099369500,4.280369384765625,-0.9635772705078125,-0.1352691650390625,0.1516265869140625
1782845812109374500,4.29037451171875,-0.960235595703125,-0.1374664306640625,0.149322509765625
1782845812119379200,4.300379150390625,-0.960601806640625,-0.13970947265625,0.149017333984375
1782845812129384200,4.31038427734375,-0.9613800048828125,-0.1373443603515625,0.1495819091796875
1782845812139389200,4.32038916015625,-0.9671783447265625,-0.1352996826171875,0.1504974365234375
1782845812149394200,4.330394287109375,-0.97637939453125,-0.132904052734375,0.148651123046875
1782845812159399200,4.340399169921875,-0.9823455810546875,-0.1313934326171875,0.1511383056640625
1782845812169404200,4.350404052734375,-0.9906158447265625,-0.13238525390625,0.152740478515625
1782845812179409200,4.3604091796875,-0.989044189453125,-0.13201904296875,0.151458740234375
1782845812189414100,4.3704140625,-0.9855499267578125,-0.13262939453125,0.1500091552734375
1782845812199419100,4.380419189453125,-0.9781036376953125,-0.1334075927734375,0.1482391357421875
1782845812209424400,4.39042431640625,-0.96771240234375,-0.1327667236328125,0.146514892578125
1782845812219429400,4.400429443359375,-0.95574951171875,-0.134033203125,0.1451263427734375
1782845812229434400,4.410434326171875,-0.949005126953125,-0.133819580078125,0.1454925537109375
1782845812239439400,4.420439453125,-0.950286865234375,-0.13128662109375,0.1480560302734375
1782845812249445000,4.430445068359375,-0.9586181640625,-0.130828857421875,0.151031494140625
1782845812259450000,4.4404501953125,-0.9665985107421875,-0.1326904296875,0.1557464599609375
1782845812269454300,4.450454345703125,-0.9752044677734375,-0.132904052734375,0.159027099609375
1782845812279460000,4.460460205078125,-0.980499267578125,-0.1322021484375,0.1616363525390625
1782845812289465000,4.470465087890625,-0.9799652099609375,-0.1306915283203125,0.1621551513671875
1782845812299470000,4.480469970703125,-0.9755706787109375,-0.1316986083984375,0.158447265625
1782845812309475000,4.49047509765625,-0.9677276611328125,-0.13177490234375,0.157562255859375
1782845812319480000,4.50047998046875,-0.9606475830078125,-0.13128662109375,0.1546783447265625
1782845812329485000,4.510485107421875,-0.957305908203125,-0.129730224609375,0.1514129638671875
1782845812339490000,4.520489990234375,-0.9536590576171875,-0.1253814697265625,0.1514129638671875
1782845812349495300,4.530495361328125,-0.95623779296875,-0.126495361328125,0.149749755859375
1782845812359500300,4.540500244140625,-0.9610748291015625,-0.1284637451171875,0.147247314453125
1782845812369505300,4.55050537109375,-0.966033935546875,-0.1270599365234375,0.1473388671875
1782845812379510300,4.56051025390625,-0.96942138671875,-0.127349853515625,0.149169921875
1782845812389515300,4.570515380859375,-0.9771728515625,-0.12896728515625,0.1495361328125
1782845812399520300,4.580520263671875,-0.980682373046875,-0.1276092529296875,0.1486663818359375
1782845812409525200,4.590525146484375,-0.9830322265625,-0.1281280517578125,0.1483917236328125
1782845812419530200,4.6005302734375,-0.983978271484375,-0.1281585693359375,0.1519012451171875
1782845812429535500,4.610535400390625,-0.97979736328125,-0.1291046142578125,0.1545257568359375
1782845812439540500,4.62054052734375,-0.9752655029296875,-0.1311798095703125,0.15557861328125
1782845812449545500,4.63054541015625,-0.9730682373046875,-0.1298065185546875,0.154693603515625
1782845812459550500,4.640550537109375,-0.9732513427734375,-0.1278076171875,0.15277099609375
1782845812469555500,4.650555419921875,-0.9769744873046875,-0.12664794921875,0.149658203125
1782845812479560400,4.660560546875,-0.9787139892578125,-0.125030517578125,0.1525726318359375
1782845812489565400,4.6705654296875,-0.9742431640625,-0.128387451171875,0.15435791015625
1782845812499570400,4.6805703125,-0.9713134765625,-0.1273040771484375,0.1537017822265625
1782845812509575400,4.690575439453125,-0.9672698974609375,-0.1309814453125,0.1492156982421875
1782845812519580400,4.700580322265625,-0.9636077880859375,-0.1284027099609375,0.1501312255859375
1782845812529585400,4.71058544921875,-0.9603729248046875,-0.1269378662109375,0.149505615234375
1782845812539590400,4.72059033203125,-0.9610137939453125,-0.129608154296875,0.1493682861328125
1782845812549595400,4.730595458984375,-0.965606689453125,-0.127166748046875,0.151275634765625
1782845812559600400,4.740600341796875,-0.9676361083984375,-0.12725830078125,0.1558685302734375
1782845812569605400,4.75060546875,-0.9702606201171875,-0.125213623046875,0.1578521728515625
1782845812579610400,4.7606103515625,-0.9755096435546875,-0.1236419677734375,0.1549224853515625
1782845812589615400,4.770615478515625,-0.9750213623046875,-0.1227874755859375,0.1532135009765625
1782845812599620400,4.780620361328125,-0.9749755859375,-0.1227874755859375,0.1530914306640625
1782845812609625300,4.790625244140625,-0.9766845703125,-0.1242523193359375,0.1514129638671875
1782845812619630300,4.80063037109375,-0.9809722900390625,-0.1245574951171875,0.154510498046875
1782845812629635300,4.81063525390625,-0.97808837890625,-0.120941162109375,0.1568756103515625
1782845812639640300,4.820640380859375,-0.9764251708984375,-0.1225128173828125,0.1557464599609375
1782845812649645300,4.830645263671875,-0.9772186279296875,-0.123809814453125,0.15478515625
1782845812659650300,4.840650390625,-0.9766387939453125,-0.1190338134765625,0.152801513671875
1782845812669655300,4.8506552734375,-0.9810638427734375,-0.11614990234375,0.1537017822265625
1782845812679660300,4.860660400390625,-0.981109619140625,-0.11700439453125,0.1561737060546875
1782845812689665300,4.870665283203125,-0.9754180908203125,-0.119781494140625,0.1581573486328125
1782845812699670300,4.880670166015625,-0.96826171875,-0.124267578125,0.1593170166015625
1782845812709675300,4.89067529296875,-0.9606781005859375,-0.123565673828125,0.16009521484375
1782845812719680300,4.90068017578125,-0.9525299072265625,-0.124664306640625,0.1568450927734375
1782845812729685200,4.910685302734375,-0.950408935546875,-0.1221160888671875,0.1551361083984375
1782845812739690200,4.920690185546875,-0.9515380859375,-0.1217498779296875,0.1512908935546875
1782845812749695200,4.9306953125,-0.9596710205078125,-0.1224517822265625,0.1507415771484375
1782845812759700200,4.9407001953125,-0.970428466796875,-0.119384765625,0.152862548828125
1782845812769705200,4.950705322265625,-0.9763641357421875,-0.117950439453125,0.157623291015625
1782845812779710200,4.960710205078125,-0.9821929931640625,-0.1190185546875,0.157806396484375
1782845812789715200,4.970715087890625,-0.9867401123046875,-0.1201324462890625,0.1553802490234375
1782845812799720200,4.98072021484375,-0.984405517578125,-0.1194915771484375,0.1507110595703125
1782845812809725200,4.99072509765625,-0.9826507568359375,-0.119720458984375,0.15240478515625
1782845812819730200,5.000730224609375,-0.9783935546875,-0.1216583251953125,0.1524658203125
1782845812829735200,5.010735107421875,-0.9754180908203125,-0.121551513671875,0.154541015625
1782845812839740200,5.020740234375,-0.9752655029296875,-0.1201171875,0.1564178466796875
1782845812849745200,5.0307451171875,-0.974273681640625,-0.1213226318359375,0.1580963134765625
1782845812859750100,5.040750244140625,-0.9726715087890625,-0.119781494140625,0.1566162109375
1782845812869755400,5.05075537109375,-0.972381591796875,-0.11810302734375,0.1572723388671875
1782845812879760400,5.060760498046875,-0.973175048828125,-0.1179351806640625,0.158355712890625
1782845812889765400,5.070765380859375,-0.972320556640625,-0.117950439453125,0.1571044921875
1782845812899770400,5.080770263671875,-0.9720001220703125,-0.1191253662109375,0.1588287353515625
1782845812909775400,5.090775390625,-0.9671173095703125,-0.1166229248046875,0.1576385498046875
1782845812919780400,5.1007802734375,-0.962066650390625,-0.1208953857421875,0.152374267578125
1782845812929785300,5.110785400390625,-0.9620819091796875,-0.1205902099609375,0.1529998779296875
1782845812939790300,5.120790283203125,-0.9619140625,-0.1209259033203125,0.1537628173828125
1782845812949795300,5.13079541015625,-0.9615631103515625,-0.123199462890625,0.1546478271484375
1782845812959800300,5.14080029296875,-0.9636077880859375,-0.1234588623046875,0.1549072265625
1782845812969805300,5.150805419921875,-0.9667816162109375,-0.1215057373046875,0.156005859375
1782845812979810300,5.160810302734375,-0.9721832275390625,-0.1207733154296875,0.1561126708984375
1782845812989815300,5.170815185546875,-0.9781494140625,-0.1209259033203125,0.1544036865234375
1782845812999820300,5.1808203125,-0.97802734375,-0.123779296875,0.1561431884765625
1782845813009825300,5.1908251953125,-0.9760284423828125,-0.124298095703125,0.156585693359375
1782845813019830300,5.200830322265625,-0.9740753173828125,-0.1235504150390625,0.1572723388671875
1782845813029835300,5.210835205078125,-0.9699859619140625,-0.122406005859375,0.1507720947265625
1782845813039840300,5.22084033203125,-0.9701690673828125,-0.120086669921875,0.14801025390625
1782845813049845200,5.23084521484375,-0.9691314697265625,-0.11962890625,0.1453857421875
1782845813059850200,5.240850341796875,-0.96875,-0.11767578125,0.1436004638671875
1782845813069855200,5.250855224609375,-0.9700164794921875,-0.1194000244140625,0.14324951171875
1782845813079860200,5.260860107421875,-0.971038818359375,-0.1190338134765625,0.1479034423828125
1782845813089865200,5.270865234375,-0.9747772216796875,-0.1201171875,0.1458282470703125
1782845813099870200,5.2808701171875,-0.98187255859375,-0.1219329833984375,0.145172119140625
1782845813109875200,5.290875244140625,-0.98516845703125,-0.1229400634765625,0.1574554443359375
1782845813119880700,5.300880615234375,-0.9792938232421875,-0.126495361328125,0.1586456298828125
1782845813129885700,5.3108857421875,-0.978485107421875,-0.126708984375,0.15838623046875
1782845813139890700,5.320890625,-0.974029541015625,-0.12432861328125,0.1602020263671875
1782845813149895700,5.330895751953125,-0.97064208984375,-0.1243438720703125,0.1594085693359375
1782845813159900700,5.340900634765625,-0.971405029296875,-0.123809814453125,0.1568756103515625
1782845813169905700,5.35090576171875,-0.9737091064453125,-0.123504638671875,0.152984619140625
1782845813179910700,5.36091064453125,-0.9787445068359375,-0.1204986572265625,0.150238037109375
1782845813189915600,5.37091552734375,-0.9836273193359375,-0.119720458984375,0.1519317626953125
1782845813199920600,5.380920654296875,-0.9824066162109375,-0.121185302734375,0.1543426513671875
1782845813209925600,5.390925537109375,-0.978363037109375,-0.1223602294921875,0.15228271484375
1782845813219930600,5.4009306640625,-0.9737091064453125,-0.1208648681640625,0.1524200439453125
1782845813229935600,5.410935546875,-0.9693756103515625,-0.1192169189453125,0.1529388427734375
1782845813239940600,5.420940673828125,-0.9651641845703125,-0.122039794921875,0.15411376953125
1782845813249945600,5.430945556640625,-0.964080810546875,-0.1236419677734375,0.1536712646484375
1782845813259950600,5.44095068359375,-0.9636993408203125,-0.1217193603515625,0.1533050537109375
1782845813269955600,5.45095556640625,-0.96246337890625,-0.12005615234375,0.150634765625
1782845813279960600,5.460960693359375,-0.962646484375,-0.11956787109375,0.1513519287109375
1782845813289965600,5.470965576171875,-0.9647979736328125,-0.121795654296875,0.151458740234375
1782845813299970600,5.480970458984375,-0.9643096923828125,-0.122100830078125,0.1486358642578125
1782845813309975600,5.4909755859375,-0.968963623046875,-0.1202392578125,0.1493682861328125
1782845813319980500,5.50098046875,-0.9742584228515625,-0.119110107421875,0.149322509765625
1782845813329985500,5.510985595703125,-0.9777069091796875,-0.120147705078125,0.153167724609375
1782845813339990500,5.520990478515625,-0.978271484375,-0.119842529296875,0.1560516357421875
1782845813349995500,5.53099560546875,-0.9794158935546875,-0.120330810546875,0.1558380126953125
1782845813360000500,5.54100048828125,-0.9774169921875,-0.118408203125,0.153961181640625
1782845813370005500,5.551005615234375,-0.9737548828125,-0.116790771484375,0.1519622802734375
1782845813380010500,5.561010498046875,-0.9701080322265625,-0.119140625,0.1541748046875
1782845813390015500,5.571015380859375,-0.966796875,-0.1235504150390625,0.1534423828125
1782845813400020500,5.5810205078125,-0.96563720703125,-0.1231231689453125,0.153167724609375
1782845813410025500,5.591025390625,-0.968231201171875,-0.12030029296875,0.1563568115234375
1782845813420030700,5.60103076171875,-0.9675140380859375,-0.120574951171875,0.1601409912109375
1782845813430035700,5.61103564453125,-0.968109130859375,-0.1207427978515625,0.161773681640625
1782845813440040700,5.621040771484375,-0.9698486328125,-0.119598388671875,0.1606597900390625
1782845813450045700,5.631045654296875,-0.96783447265625,-0.1189727783203125,0.1567230224609375
1782845813460050700,5.64105078125,-0.969879150390625,-0.11541748046875,0.151397705078125
1782845813470055700,5.6510556640625,-0.973968505859375,-0.115478515625,0.1522369384765625
1782845813480060700,5.661060791015625,-0.976165771484375,-0.1181182861328125,0.1503143310546875
1782845813490065700,5.671065673828125,-0.9738922119140625,-0.1224822998046875,0.15582275390625
1782845813500070700,5.681070556640625,-0.9749603271484375,-0.1213531494140625,0.153350830078125
1782845813510075600,5.69107568359375,-0.978271484375,-0.1208953857421875,0.1510467529296875
1782845813520080600,5.70108056640625,-0.979644775390625,-0.1204681396484375,0.152679443359375
1782845813530085600,5.711085693359375,-0.97528076171875,-0.125396728515625,0.1548309326171875
1782845813540090600,5.721090576171875,-0.970458984375,-0.128387451171875,0.153839111328125
1782845813550095600,5.731095703125,-0.9667205810546875,-0.12835693359375,0.153106689453125
1782845813560100600,5.7411005859375,-0.9650115966796875,-0.128448486328125,0.15185546875
1782845813570105600,5.751105712890625,-0.9663848876953125,-0.1253509521484375,0.1500091552734375
1782845813580110600,5.761110595703125,-0.96624755859375,-0.125579833984375,0.1513519287109375
1782845813590115600,5.771115478515625,-0.963287353515625,-0.1248321533203125,0.1494903564453125
1782845813600120600,5.78112060546875,-0.962890625,-0.1245269775390625,0.1470489501953125
1782845813610125600,5.79112548828125,-0.962890625,-0.1219329833984375,0.1475067138671875
1782845813620130600,5.801130615234375,-0.9683380126953125,-0.1234893798828125,0.14593505859375
1782845813630135600,5.811135498046875,-0.9732818603515625,-0.1246490478515625,0.1493682861328125
1782845813640140500,5.821140625,-0.97509765625,-0.1259613037109375,0.1505279541015625
1782845813650145500,5.8311455078125,-0.9791412353515625,-0.1242218017578125,0.1493682861328125
1782845813660150500,5.841150634765625,-0.9813690185546875,-0.1241302490234375,0.1493988037109375
1782845813670155500,5.851155517578125,-0.980438232421875,-0.126007080078125,0.1500701904296875
1782845813680160500,5.861160400390625,-0.9830474853515625,-0.1282806396484375,0.150787353515625
1782845813690165500,5.87116552734375,-0.98492431640625,-0.1265411376953125,0.1521453857421875
1782845813700170500,5.88117041015625,-0.9860992431640625,-0.125152587890625,0.1494293212890625
1782845813710175500,5.891175537109375,-0.9837188720703125,-0.12310791015625,0.150238037109375
1782845813720180500,5.901180419921875,-0.9778289794921875,-0.1244964599609375,0.15118408203125
1782845813730185500,5.911185546875,-0.972808837890625,-0.124847412109375,0.1479949951171875
1782845813740190500,5.9211904296875,-0.9680938720703125,-0.1244049072265625,0.1447906494140625
1782845813750195500,5.931195556640625,-0.9694061279296875,-0.1211395263671875,0.143310546875
1782845813760200400,5.941200439453125,-0.9742584228515625,-0.122100830078125,0.145416259765625
1782845813770205400,5.951205322265625,-0.972625732421875,-0.12677001953125,0.1484222412109375
1782845813780210400,5.96121044921875,-0.9698028564453125,-0.126983642578125,0.15142822265625
1782845813790215400,5.97121533203125,-0.9626617431640625,-0.126678466796875,0.152923583984375
1782845813800220400,5.981220458984375,-0.9563446044921875,-0.128204345703125,0.154327392578125
1782845813810225400,5.991225341796875,-0.952789306640625,-0.1313629150390625,0.1500396728515625
1782845813820230400,6.00123046875,-0.954010009765625,-0.1302947998046875,0.1477203369140625
1782845813830235400,6.0112353515625,-0.9592437744140625,-0.12628173828125,0.1446685791015625
1782845813840240400,6.021240478515625,-0.9686279296875,-0.1245574951171875,0.141998291015625
1782845813850245400,6.031245361328125,-0.975921630859375,-0.122711181640625,0.1439666748046875
1782845813860250400,6.04125048828125,-0.9817352294921875,-0.121002197265625,0.1437530517578125
1782845813870255400,6.05125537109375,-0.981292724609375,-0.11956787109375,0.14569091796875
1782845813880260400,6.06126025390625,-0.9771881103515625,-0.1177215576171875,0.1469573974609375
1782845813890265300,6.071265380859375,-0.9764556884765625,-0.1187896728515625,0.1481781005859375
1782845813900270300,6.081270263671875,-0.9752044677734375,-0.1169586181640625,0.1524658203125
1782845813910275600,6.091275634765625,-0.976806640625,-0.1179656982421875,0.152587890625
1782845813920280600,6.101280517578125,-0.97662353515625,-0.1241455078125,0.1491851806640625
1782845813930285600,6.11128564453125,-0.97442626953125,-0.1260986328125,0.1470947265625
1782845813940290600,6.12129052734375,-0.9760894775390625,-0.1236419677734375,0.14886474609375
1782845813950295600,6.131295654296875,-0.974945068359375,-0.1196746826171875,0.1487884521484375
1782845813960300500,6.141300537109375,-0.971466064453125,-0.1230316162109375,0.1486663818359375
1782845813970305500,6.151305419921875,-0.9684906005859375,-0.123931884765625,0.1513214111328125
1782845813980310800,6.161310791015625,-0.965179443359375,-0.1236572265625,0.1511688232421875
1782845813990315800,6.171315673828125,-0.9625396728515625,-0.1248626708984375,0.152496337890625
1782845814000320800,6.18132080078125,-0.9627685546875,-0.1269073486328125,0.1524658203125
1782845814010325800,6.19132568359375,-0.9605865478515625,-0.127593994140625,0.1509246826171875
1782845814020330800,6.201330810546875,-0.9621429443359375,-0.125885009765625,0.1506195068359375
1782845814030335700,6.211335693359375,-0.9666595458984375,-0.12164306640625,0.146759033203125
1782845814040340700,6.2213408203125,-0.971038818359375,-0.1211395263671875,0.1436920166015625
1782845814050345700,6.231345703125,-0.972991943359375,-0.121246337890625,0.14404296875
1782845814060350700,6.241350830078125,-0.9773101806640625,-0.1214599609375,0.1391448974609375
1782845814070355700,6.251355712890625,-0.9807891845703125,-0.122161865234375,0.141387939453125
1782845814080360700,6.261360595703125,-0.9791717529296875,-0.1228179931640625,0.1457977294921875
1782845814090365700,6.27136572265625,-0.97442626953125,-0.1273040771484375,0.1444549560546875
1782845814100370700,6.28137060546875,-0.9708099365234375,-0.1306304931640625,0.1451263427734375
1782845814110375700,6.291375732421875,-0.966339111328125,-0.129241943359375,0.143951416015625
1782845814120380200,6.301380126953125,-0.9673309326171875,-0.1274566650390625,0.1431427001953125
1782845814130385200,6.31138525390625,-0.971405029296875,-0.1277618408203125,0.142730712890625
1782845814140390100,6.32139013671875,-0.9718017578125,-0.1251068115234375,0.1433868408203125
1782845814150395100,6.33139501953125,-0.9763336181640625,-0.121673583984375,0.142242431640625
1782845814160400100,6.341400146484375,-0.9803466796875,-0.1206207275390625,0.143798828125
1782845814170405000,6.351405029296875,-0.983489990234375,-0.119415283203125,0.1448974609375
1782845814180410000,6.36141015625,-0.984710693359375,-0.12158203125,0.146759033203125
1782845814190415000,6.3714150390625,-0.9781341552734375,-0.1264495849609375,0.1480560302734375
1782845814200420000,6.381420166015625,-0.9742279052734375,-0.1279449462890625,0.1488037109375
1782845814210425000,6.391425048828125,-0.96826171875,-0.12835693359375,0.1477508544921875
1782845814220430000,6.40143017578125,-0.9641571044921875,-0.129241943359375,0.1458892822265625
1782845814230435000,6.41143505859375,-0.9626007080078125,-0.1279296875,0.1442718505859375
1782845814240440000,6.421440185546875,-0.9634857177734375,-0.1254119873046875,0.1412811279296875
1782845814250445000,6.431445068359375,-0.9657440185546875,-0.121673583984375,0.1413726806640625
1782845814260450000,6.441449951171875,-0.96893310546875,-0.11737060546875,0.141845703125
1782845814270455000,6.451455078125,-0.9718780517578125,-0.117034912109375,0.1435089111328125
1782845814280460000,6.4614599609375,-0.974945068359375,-0.1164093017578125,0.142822265625
1782845814290465000,6.471465087890625,-0.9805450439453125,-0.1159515380859375,0.144683837890625
1782845814300470000,6.481469970703125,-0.9802703857421875,-0.1212310791015625,0.1488037109375
1782845814310475000,6.49147509765625,-0.9768829345703125,-0.124847412109375,0.150146484375
1782845814320480000,6.50147998046875,-0.971588134765625,-0.126800537109375,0.149993896484375
1782845814330485000,6.511485107421875,-0.9665069580078125,-0.125030517578125,0.1474151611328125
1782845814340490000,6.521489990234375,-0.9641265869140625,-0.12322998046875,0.1460113525390625
1782845814350495000,6.531494873046875,-0.9653778076171875,-0.1210174560546875,0.1431427001953125
1782845814360500200,6.541500244140625,-0.9769439697265625,-0.118988037109375,0.140411376953125
1782845814370505200,6.551505126953125,-0.989288330078125,-0.115386962890625,0.1430206298828125
1782845814380510200,6.56151025390625,-0.9956512451171875,-0.1152191162109375,0.1483306884765625
1782845814390515200,6.57151513671875,-0.997894287109375,-0.1187744140625,0.152008056640625
1782845814400520200,6.581520263671875,-0.992462158203125,-0.1223907470703125,0.153106689453125
1782845814410525200,6.591525146484375,-0.983367919921875,-0.1213531494140625,0.154205322265625
1782845814420530200,6.6015302734375,-0.97149658203125,-0.1242218017578125,0.15252685546875
1782845814430535200,6.61153515625,-0.964935302734375,-0.127349853515625,0.1475982666015625
1782845814440540200,6.6215400390625,-0.96392822265625,-0.1253814697265625,0.1421966552734375
1782845814450545200,6.631545166015625,-0.9630889892578125,-0.1205291748046875,0.1370086669921875
1782845814460550100,6.641550048828125,-0.9649810791015625,-0.1201171875,0.135528564453125
1782845814470555100,6.65155517578125,-0.9619140625,-0.1172637939453125,0.13433837890625
1782845814480560000,6.66156005859375,-0.9604644775390625,-0.1166229248046875,0.1353302001953125
1782845814490565000,6.671565185546875,-0.9592742919921875,-0.1170806884765625,0.1368255615234375
1782845814500570000,6.681570068359375,-0.9618377685546875,-0.12054443359375,0.1448516845703125
1782845814510575000,6.6915751953125,-0.9690093994140625,-0.1240386962890625,0.152496337890625
1782845814520580000,6.701580078125,-0.9756317138671875,-0.12701416015625,0.1578521728515625
1782845814530585000,6.711585205078125,-0.97760009765625,-0.1314544677734375,0.1612396240234375
1782845814540590000,6.721590087890625,-0.97821044921875,-0.128875732421875,0.162109375
1782845814550595000,6.731594970703125,-0.9774169921875,-0.1223907470703125,0.15594482421875
1782845814560600000,6.74160009765625,-0.9740447998046875,-0.119598388671875,0.15313720703125
1782845814570605000,6.75160498046875,-0.9721527099609375,-0.1148223876953125,0.14959716796875
1782845814580610000,6.761610107421875,-0.971527099609375,-0.1128692626953125,0.1483306884765625
1782845814590615000,6.771614990234375,-0.9681243896484375,-0.11419677734375,0.1489105224609375
1782845814600620000,6.7816201171875,-0.9673004150390625,-0.116546630859375,0.1499176025390625
1782845814610625000,6.791625,-0.9685211181640625,-0.1209564208984375,0.1484375
1782845814620630000,6.801630126953125,-0.966796875,-0.1219329833984375,0.148651123046875
1782845814630635000,6.811635009765625,-0.9653472900390625,-0.1223907470703125,0.1465301513671875
1782845814640640000,6.821639892578125,-0.9643096923828125,-0.123565673828125,0.14404296875
1782845814650645000,6.83164501953125,-0.9669952392578125,-0.1220550537109375,0.1401519775390625
1782845814660650000,6.84164990234375,-0.9725494384765625,-0.1205291748046875,0.1378631591796875
1782845814670655000,6.851655029296875,-0.9775848388671875,-0.1201629638671875,0.135284423828125
1782845814680660000,6.861659912109375,-0.9863739013671875,-0.1186981201171875,0.130340576171875
1782845814690665000,6.8716650390625,-0.994049072265625,-0.1175384521484375,0.130340576171875
1782845814700670000,6.881669921875,-0.9949493408203125,-0.11639404296875,0.1307830810546875
1782845814710675000,6.891675048828125,-0.9911346435546875,-0.11566162109375,0.1323394775390625
1782845814720680000,6.901679931640625,-0.98431396484375,-0.119781494140625,0.1356048583984375
1782845814730685000,6.911684814453125,-0.9731903076171875,-0.119842529296875,0.1407318115234375
1782845814740690000,6.92168994140625,-0.963623046875,-0.1207122802734375,0.14154052734375
1782845814750695000,6.93169482421875,-0.9639434814453125,-0.1240386962890625,0.1442108154296875
1782845814760700000,6.941699951171875,-0.964447021484375,-0.1239776611328125,0.14849853515625
1782845814770705000,6.951704833984375,-0.968048095703125,-0.121002197265625,0.1506805419921875
1782845814780710000,6.9617099609375,-0.9753875732421875,-0.1188201904296875,0.14996337890625
1782845814790715000,6.97171484375,-0.977874755859375,-0.1159820556640625,0.148468017578125
1782845814800720000,6.981719970703125,-0.9787445068359375,-0.11279296875,0.1465301513671875
1782845814810724900,6.991724853515625,-0.9777984619140625,-0.1110687255859375,0.14599609375
1782845814820729900,7.001729736328125,-0.9753265380859375,-0.112823486328125,0.1473541259765625
1782845814830734800,7.01173486328125,-0.96917724609375,-0.1166839599609375,0.1509857177734375
1782845814840739800,7.02173974609375,-0.962249755859375,-0.119659423828125,0.1530914306640625
1782845814850745000,7.0317451171875,-0.9568939208984375,-0.1211395263671875,0.1498260498046875
1782845814860750000,7.04175,-0.9551849365234375,-0.119384765625,0.1515960693359375
1782845814870755000,7.051755126953125,-0.9544830322265625,-0.1207122802734375,0.153228759765625
1782845814880760000,7.061760009765625,-0.9597625732421875,-0.1192779541015625,0.1518402099609375
1782845814890765000,7.07176513671875,-0.96697998046875,-0.1173095703125,0.1525421142578125
1782845814900770000,7.08177001953125,-0.9772796630859375,-0.1171722412109375,0.1521759033203125
1782845814910775000,7.091775146484375,-0.98394775390625,-0.1169891357421875,0.154083251953125
1782845814920780000,7.101780029296875,-0.987457275390625,-0.1166839599609375,0.1555328369140625
1782845814930785300,7.111785400390625,-0.98974609375,-0.1189422607421875,0.1555633544921875
1782845814940790300,7.121790283203125,-0.98773193359375,-0.1206817626953125,0.154052734375
1782845814950795300,7.131795166015625,-0.9836273193359375,-0.12054443359375,0.1525115966796875
1782845814960800300,7.14180029296875,-0.9813385009765625,-0.12030029296875,0.1516571044921875
1782845814970805200,7.15180517578125,-0.97625732421875,-0.12115478515625,0.1495819091796875
1782845814980810200,7.161810302734375,-0.970794677734375,-0.121429443359375,0.1505279541015625
1782845814990815200,7.171815185546875,-0.9697265625,-0.1217498779296875,0.15301513671875
1782845815000820200,7.1818203125,-0.9690093994140625,-0.1187896728515625,0.151092529296875
1782845815010825200,7.1918251953125,-0.9679412841796875,-0.117706298828125,0.1517181396484375
1782845815020830200,7.201830322265625,-0.967864990234375,-0.1184539794921875,0.150115966796875
1782845815030835200,7.211835205078125,-0.9681549072265625,-0.11737060546875,0.14642333984375
1782845815040840200,7.221840087890625,-0.9665985107421875,-0.1190185546875,0.145782470703125
1782845815050845200,7.23184521484375,-0.96734619140625,-0.11907958984375,0.146453857421875
1782845815060850200,7.24185009765625,-0.970062255859375,-0.120086669921875,0.146697998046875
1782845815070855200,7.251855224609375,-0.97332763671875,-0.1222381591796875,0.1494903564453125
1782845815080860200,7.261860107421875,-0.9729461669921875,-0.124755859375,0.1511688232421875
1782845815090865200,7.271865234375,-0.976409912109375,-0.1229705810546875,0.1483001708984375
1782845815100870100,7.2818701171875,-0.9777679443359375,-0.12176513671875,0.1475677490234375
1782845815110875100,7.291875244140625,-0.9773712158203125,-0.1224822998046875,0.1482696533203125
1782845815120880600,7.301880615234375,-0.976715087890625,-0.1224517822265625,0.14910888671875
1782845815130885600,7.3118857421875,-0.974365234375,-0.120208740234375,0.1458587646484375
1782845815140890600,7.321890625,-0.9727020263671875,-0.119049072265625,0.1450653076171875
1782845815150895600,7.3318955078125,-0.9719390869140625,-0.1202850341796875,0.1444091796875
1782845815160900600,7.341900634765625,-0.972900390625,-0.121063232421875,0.1450958251953125
1782845815170905600,7.351905517578125,-0.9745025634765625,-0.1215057373046875,0.145111083984375
1782845815180910600,7.36191064453125,-0.9771270751953125,-0.1215362548828125,0.14794921875
1782845815190915600,7.37191552734375,-0.9783172607421875,-0.122406005859375,0.152801513671875
1782845815200920600,7.381920654296875,-0.978363037109375,-0.1264495849609375,0.155853271484375
1782845815210925600,7.391925537109375,-0.97760009765625,-0.12335205078125,0.1543121337890625
1782845815220930600,7.4019306640625,-0.9755706787109375,-0.1221771240234375,0.1522064208984375
1782845815230935600,7.411935546875,-0.9704742431640625,-0.1234588623046875,0.1505584716796875
1782845815240940500,7.4219404296875,-0.966552734375,-0.12786865234375,0.1476593017578125
1782845815250945500,7.431945556640625,-0.9662628173828125,-0.126800537109375,0.144622802734375
1782845815260950800,7.44195068359375,-0.9672088623046875,-0.1230621337890625,0.14495849609375
1782845815270955800,7.451955810546875,-0.9667816162109375,-0.1223297119140625,0.1463165283203125
1782845815280960800,7.461960693359375,-0.9642486572265625,-0.1252899169921875,0.14508056640625
1782845815290965800,7.4719658203125,-0.9632720947265625,-0.12445068359375,0.1455078125
1782845815300970800,7.481970703125,-0.962554931640625,-0.1241455078125,0.14569091796875
1782845815310975700,7.491975830078125,-0.961151123046875,-0.122833251953125,0.14691162109375
1782845815320980700,7.501980712890625,-0.962982177734375,-0.12481689453125,0.1481475830078125
1782845815330985700,7.51198583984375,-0.9690399169921875,-0.1270904541015625,0.1484222412109375
1782845815340990700,7.52199072265625,-0.97344970703125,-0.1250457763671875,0.1495513916015625
1782845815350995700,7.53199560546875,-0.9784698486328125,-0.121978759765625,0.1512603759765625
1782845815361000700,7.542000732421875,-0.9812774658203125,-0.125030517578125,0.1510467529296875
1782845815371005700,7.552005615234375,-0.9822235107421875,-0.123809814453125,0.149871826171875
1782845815381010700,7.5620107421875,-0.9807891845703125,-0.1245574951171875,0.1496429443359375
1782845815391015700,7.572015625,-0.97540283203125,-0.1260986328125,0.1524200439453125
1782845815401020700,7.582020751953125,-0.973480224609375,-0.127471923828125,0.1483001708984375
1782845815411025700,7.592025634765625,-0.9717559814453125,-0.1261444091796875,0.1487579345703125
1782845815421030700,7.60203076171875,-0.9668121337890625,-0.126922607421875,0.1490936279296875
1782845815431035600,7.61203564453125,-0.96478271484375,-0.126068115234375,0.1480560302734375
1782845815441040600,7.62204052734375,-0.9656829833984375,-0.12359619140625,0.146514892578125
1782845815451045600,7.632045654296875,-0.9641265869140625,-0.1234283447265625,0.145111083984375
1782845815461050600,7.642050537109375,-0.9652099609375,-0.1229400634765625,0.143951416015625
1782845815471056000,7.652055908203125,-0.9664459228515625,-0.122283935546875,0.1410064697265625
1782845815481060900,7.662060791015625,-0.9695587158203125,-0.1218109130859375,0.14178466796875
1782845815491065900,7.67206591796875,-0.970123291015625,-0.1235198974609375,0.1457977294921875
1782845815501070800,7.68207080078125,-0.9710845947265625,-0.12371826171875,0.1478424072265625
1782845815511075800,7.692075927734375,-0.9736480712890625,-0.1243438720703125,0.147705078125
1782845815521080800,7.702080810546875,-0.9752960205078125,-0.1248626708984375,0.1487579345703125
1782845815531085800,7.7120859375,-0.9755706787109375,-0.125701904296875,0.1519622802734375
1782845815541090800,7.7220908203125,-0.970703125,-0.1267242431640625,0.1549530029296875
1782845815551095800,7.732095703125,-0.9694366455078125,-0.1288299560546875,0.1550750732421875
1782845815561100800,7.742100830078125,-0.9705963134765625,-0.1291656494140625,0.1542510986328125
1782845815571105800,7.752105712890625,-0.9700775146484375,-0.123382568359375,0.149993896484375
1782845815581110800,7.76211083984375,-0.97265625,-0.1219024658203125,0.151275634765625
1782845815591115800,7.77211572265625,-0.9767303466796875,-0.1204833984375,0.149139404296875
1782845815601120800,7.782120849609375,-0.977874755859375,-0.1193695068359375,0.1485748291015625
1782845815611125800,7.792125732421875,-0.98114013671875,-0.117340087890625,0.14971923828125
1782845815621130800,7.802130859375,-0.9848175048828125,-0.119110107421875,0.1522064208984375
1782845815631135700,7.8121357421875,-0.983154296875,-0.12152099609375,0.152252197265625
1782845815641140700,7.822140625,-0.975555419921875,-0.1270904541015625,0.1534881591796875
1782845815651145700,7.832145751953125,-0.96832275390625,-0.1300201416015625,0.1531982421875
1782845815661150700,7.842150634765625,-0.9616851806640625,-0.129364013671875,0.151885986328125
1782845815671155700,7.85215576171875,-0.95947265625,-0.129119873046875,0.149871826171875
1782845815681160700,7.86216064453125,-0.9610595703125,-0.1290740966796875,0.1504364013671875
1782845815691165700,7.872165771484375,-0.9636077880859375,-0.1256561279296875,0.147125244140625
1782845815701170700,7.882170654296875,-0.9667205810546875,-0.121612548828125,0.1455535888671875
1782845815711175700,7.89217578125,-0.9716339111328125,-0.1210174560546875,0.14080810546875
1782845815721180700,7.9021806640625,-0.973907470703125,-0.11962890625,0.141204833984375
1782845815731185700,7.912185546875,-0.979034423828125,-0.1210784912109375,0.1422119140625
1782845815741190700,7.922190673828125,-0.980010986328125,-0.1229705810546875,0.144683837890625
1782845815751195600,7.932195556640625,-0.97869873046875,-0.1230010986328125,0.1469268798828125
1782845815761200600,7.94220068359375,-0.978179931640625,-0.124481201171875,0.14947509765625
1782845815771205600,7.95220556640625,-0.9782257080078125,-0.12579345703125,0.15228271484375
1782845815781210600,7.962210693359375,-0.9810028076171875,-0.124664306640625,0.1517333984375
1782845815791215600,7.972215576171875,-0.9800567626953125,-0.1241912841796875,0.152130126953125
1782845815801220600,7.982220703125,-0.9815673828125,-0.125091552734375,0.1536712646484375
1782845815811225600,7.9922255859375,-0.97772216796875,-0.12432861328125,0.1540679931640625
1782845815821230600,8.002230712890626,-0.9727783203125,-0.122283935546875,0.1533203125
1782845815831235600,8.012235595703125,-0.9677276611328125,-0.1201629638671875,0.1558685302734375
1782845815841240600,8.022240478515625,-0.9618377685546875,-0.1208953857421875,0.15399169921875
1782845815851245600,8.03224560546875,-0.9566497802734375,-0.123382568359375,0.1541290283203125
1782845815861250600,8.04225048828125,-0.9553680419921875,-0.125732421875,0.15179443359375
1782845815871255600,8.052255615234374,-0.9584197998046875,-0.1243133544921875,0.149566650390625
1782845815881260500,8.062260498046875,-0.962493896484375,-0.1230316162109375,0.146026611328125
1782845815891265500,8.072265625,-0.969268798828125,-0.1231231689453125,0.148895263671875
1782845815901270500,8.0822705078125,-0.9742279052734375,-0.1217803955078125,0.1509246826171875
1782845815911275500,8.092275634765626,-0.9729461669921875,-0.121734619140625,0.1474151611328125
1782845815921280500,8.102280517578125,-0.973297119140625,-0.1214752197265625,0.143890380859375
1782845815931285500,8.112285400390626,-0.9741363525390625,-0.1254119873046875,0.14520263671875
1782845815941289700,8.122289794921874,-0.9743804931640625,-0.127197265625,0.1476898193359375
1782845815951295500,8.13229541015625,-0.97613525390625,-0.128021240234375,0.148590087890625
1782845815961299700,8.1422998046875,-0.97845458984375,-0.129730224609375,0.150970458984375
1782845815971305700,8.1523056640625,-0.9812774658203125,-0.1293487548828125,0.1487579345703125
1782845815981309700,8.162309814453126,-0.9826202392578125,-0.1254119873046875,0.1468505859375
1782845815991314700,8.172314697265625,-0.98309326171875,-0.124267578125,0.1446380615234375
1782845816001319700,8.182319580078126,-0.9825897216796875,-0.1212005615234375,0.1432647705078125
1782845816011324700,8.19232470703125,-0.979644775390625,-0.1190338134765625,0.1426849365234375
1782845816021329700,8.20232958984375,-0.980072021484375,-0.1205902099609375,0.1438751220703125
1782845816031334700,8.212334716796875,-0.9790496826171875,-0.12152099609375,0.1433563232421875
1782845816041339600,8.222339599609375,-0.97393798828125,-0.1229400634765625,0.1460113525390625
1782845816051344600,8.2323447265625,-0.9673004150390625,-0.12774658203125,0.1514739990234375
1782845816061349600,8.242349609375,-0.963134765625,-0.1296234130859375,0.1522674560546875
1782845816071354600,8.252354736328124,-0.959014892578125,-0.1287384033203125,0.1530609130859375
1782845816081359600,8.262359619140625,-0.9584503173828125,-0.13104248046875,0.1555023193359375
1782845816091364600,8.272364501953126,-0.9608154296875,-0.130035400390625,0.1550140380859375
1782845816101369600,8.28236962890625,-0.9657135009765625,-0.128509521484375,0.15338134765625
1782845816111374600,8.29237451171875,-0.9720458984375,-0.12823486328125,0.1534271240234375
1782845816121379600,8.302379638671875,-0.9716339111328125,-0.12860107421875,0.150909423828125
1782845816131384600,8.312384521484375,-0.97149658203125,-0.12750244140625,0.147369384765625
1782845816141389600,8.3223896484375,-0.9723358154296875,-0.1274871826171875,0.146087646484375
1782845816151394600,8.33239453125,-0.9718170166015625,-0.1282806396484375,0.145843505859375
1782845816161399600,8.342399658203124,-0.9702606201171875,-0.1297454833984375,0.1484222412109375
1782845816171404500,8.352404541015625,-0.96954345703125,-0.1317596435546875,0.1519317626953125
1782845816181409500,8.362409423828124,-0.9669647216796875,-0.1290740966796875,0.1512908935546875
1782845816191414500,8.37241455078125,-0.9630279541015625,-0.1262054443359375,0.1498870849609375
1782845816201419500,8.38241943359375,-0.963623046875,-0.1257781982421875,0.148223876953125
1782845816211424500,8.392424560546875,-0.965240478515625,-0.128936767578125,0.1472930908203125
1782845816221429500,8.402429443359376,-0.96929931640625,-0.1288909912109375,0.1461029052734375
1782845816231434500,8.4124345703125,-0.9747467041015625,-0.1312103271484375,0.1458740234375
1782845816241439500,8.422439453125,-0.9768218994140625,-0.1312103271484375,0.14947509765625
1782845816251444500,8.432444580078124,-0.9781951904296875,-0.129852294921875,0.1506500244140625
1782845816261449500,8.442449462890625,-0.978240966796875,-0.1307220458984375,0.150604248046875
1782845816271454500,8.452454345703124,-0.975250244140625,-0.1316375732421875,0.1510467529296875
1782845816281459500,8.46245947265625,-0.9715118408203125,-0.130706787109375,0.1494598388671875
1782845816291464400,8.47246435546875,-0.9667205810546875,-0.1324920654296875,0.1483001708984375
1782845816301469400,8.482469482421875,-0.9638519287109375,-0.1316986083984375,0.14544677734375
1782845816311474700,8.492474609375,-0.96429443359375,-0.1308135986328125,0.1442413330078125
1782845816321479700,8.502479736328125,-0.9675445556640625,-0.1277008056640625,0.1435699462890625
1782845816331484700,8.512484619140626,-0.971160888671875,-0.127838134765625,0.14410400390625
1782845816341489700,8.52248974609375,-0.9759674072265625,-0.1258697509765625,0.1447906494140625
1782845816351494700,8.53249462890625,-0.977447509765625,-0.125457763671875,0.1464691162109375
1782845816361499600,8.542499755859374,-0.9791107177734375,-0.1304779052734375,0.1489715576171875
1782845816371504600,8.552504638671875,-0.9781494140625,-0.1306915283203125,0.1526641845703125
1782845816381509600,8.562509521484374,-0.975982666015625,-0.129486083984375,0.1548614501953125
1782845816391514600,8.5725146484375,-0.9740142822265625,-0.131378173828125,0.154144287109375
1782845816401519600,8.58251953125,-0.97003173828125,-0.1291656494140625,0.1557159423828125
1782845816411524600,8.592524658203125,-0.968170166015625,-0.125396728515625,0.15179443359375
1782845816421529600,8.602529541015626,-0.969970703125,-0.1251068115234375,0.14898681640625
1782845816431534600,8.61253466796875,-0.97296142578125,-0.1259002685546875,0.1513519287109375
1782845816441539600,8.62253955078125,-0.9742431640625,-0.126922607421875,0.1517333984375
1782845816451544600,8.632544677734375,-0.9712066650390625,-0.1280975341796875,0.1507415771484375
1782845816461549600,8.642549560546875,-0.970550537109375,-0.1260833740234375,0.1484222412109375
1782845816471554600,8.652554443359374,-0.968353271484375,-0.1272735595703125,0.1492156982421875
1782845816481559600,8.6625595703125,-0.9692535400390625,-0.12786865234375,0.1506195068359375
1782845816491564500,8.672564453125,-0.9741973876953125,-0.1288299560546875,0.14630126953125
1782845816501569500,8.682569580078125,-0.9731597900390625,-0.12359619140625,0.14447021484375
1782845816511574500,8.692574462890626,-0.9486083984375,-0.1236114501953125,0.1489105224609375
1782845816521579500,8.70257958984375,-0.94281005859375,-0.1431427001953125,0.1515960693359375
1782845816531584500,8.71258447265625,-0.9399871826171875,-0.1464996337890625,0.1700897216796875
1782845816541589500,8.722589599609375,-0.957489013671875,-0.1334228515625,0.1713714599609375
1782845816551594500,8.732594482421876,-0.969757080078125,-0.1344451904296875,0.1574859619140625
1782845816561599500,8.742599609375,-0.9724273681640625,-0.1282806396484375,0.1533050537109375
1782845816571604500,8.7526044921875,-0.9831390380859375,-0.1181182861328125,0.1498870849609375
1782845816581609500,8.762609375,-0.9923858642578125,-0.123504638671875,0.1399688720703125
