time,seconds_elapsed,z,y,x
1782845807882254800,0.0632548828125,0.019032014533877373,-0.010441722348332405,-0.004274373408406973
1782845807892259800,0.073259765625,0.01948634907603264,-0.02167200669646263,-0.004890362732112408
1782845807902264800,0.083264892578125,0.019122561439871788,-0.024695226922631264,-0.01224441546946764
1782845807912269800,0.093269775390625,0.017223462462425232,-0.02352583222091198,-0.013236443512141705
1782845807922274800,0.10327490234375,0.017123060300946236,-0.0215391144156456,-0.021687451750040054
1782845807932279800,0.11327978515625,0.015736885368824005,-0.014244449324905872,-0.020320717245340347
1782845807942284800,0.123284912109375,0.012583436444401741,-0.00752103328704834,-0.01774837076663971
1782845807952289800,0.133289794921875,0.009890980087220669,-0.003994475118815899,-0.00698041170835495
1782845807962294800,0.143294677734375,0.004487426485866308,-0.002557966159656644,0.0006988134700804949
1782845807972299800,0.1532998046875,-0.003032275242730975,-0.0036171053070575,0.013379987329244614
1782845807982304800,0.1633046875,-0.01218555960804224,-0.01025876309722662,0.020266655832529068
1782845807992309800,0.173309814453125,-0.018687667325139046,-0.009967146441340446,0.022228872403502464
1782845808002314800,0.183314697265625,-0.025716815143823624,-0.010618289932608604,0.016574716195464134
1782845808012319700,0.19331982421875,-0.03188469633460045,-0.007741809356957674,0.013406086713075638
1782845808022324700,0.20332470703125,-0.0319608636200428,-0.004323375876992941,0.005318066570907831
1782845808032329700,0.213329833984375,-0.03424185886979103,-0.005277586169540882,0.005346029531210661
1782845808042334700,0.223334716796875,-0.037530865520238876,-0.006101568229496479,0.010089118964970112
1782845808052339700,0.233339599609375,-0.03431376442313194,-0.006099704187363386,0.015790946781635284
1782845808062344700,0.2433447265625,-0.03582298010587692,-0.003911917097866535,0.017406154423952103
1782845808072349700,0.253349609375,-0.03740436211228371,-0.003932689782232046,0.015136342495679855
1782845808082354700,0.263354736328125,-0.039447274059057236,0.0022154836915433407,0.015221030451357365
1782845808092359700,0.273359619140625,-0.0376533679664135,-0.0027390611357986927,0.01786128804087639
1782845808102364700,0.28336474609375,-0.03624322637915611,-0.005697567015886307,0.015454057604074478
1782845808112370400,0.293370361328125,-0.03183835744857788,-0.008058459497988224,0.009301888756453991
1782845808122375400,0.30337548828125,-0.027886491268873215,-0.007215036079287529,0.001133441342972219
1782845808132380400,0.31338037109375,-0.024711737409234047,-0.0057010287418961525,-0.006654973141849041
1782845808142386400,0.323386474609375,-0.0190740916877985,-0.00027803401462733746,-0.009048888459801674
1782845808152391400,0.333391357421875,-0.018157964572310448,0.008042746223509312,-0.006844324059784412
1782845808162396400,0.343396484375,-0.020501013845205307,0.006854710169136524,-0.01130831427872181
1782845808172401400,0.3534013671875,-0.017853831872344017,0.008082161657512188,-0.009032909758388996
1782845808182406400,0.363406494140625,-0.016894560307264328,0.0036338833160698414,-0.0014884406700730324
1782845808192411400,0.373411376953125,-0.0192546546459198,0.001526257605291903,0.001627191435545683
1782845808202416400,0.38341650390625,-0.01884372904896736,-0.0000828243064461276,0.0025308020412921906
1782845808212421400,0.39342138671875,-0.012560000643134117,0.006219546310603619,-0.006862965878099203
1782845808222426400,0.40342626953125,-0.007374825421720743,0.012601811438798904,-0.017182981595396996
1782845808232431400,0.413431396484375,-0.005948170088231564,0.01519839372485876,-0.019663715735077858
1782845808242436400,0.423436279296875,-0.0003171824791934341,0.011593805626034737,-0.023374564945697784
1782845808252441300,0.43344140625,0.00708640506491065,0.006702377460896969,-0.020129237323999405
1782845808262446300,0.4434462890625,0.00894076470285654,0.006610764656215906,-0.0198043305426836
1782845808272451300,0.453451416015625,0.011351457796990871,0.005368932615965605,-0.01751507818698883
1782845808282456300,0.463456298828125,0.01392620149999857,0.008675247430801392,-0.011021225713193417
1782845808292461300,0.47346142578125,0.01599787548184395,0.010982343927025795,-0.01347532868385315
1782845808302466300,0.48346630859375,0.01618403010070324,0.012891030870378017,-0.01537442859262228
1782845808312471300,0.49347119140625,0.01715368591248989,0.010647584684193134,-0.01501223910599947
1782845808322476300,0.503476318359375,0.00905847642570734,0.0037092508282512426,-0.012948289513587952
1782845808332481300,0.513481201171875,0.008644354529678822,0.00041199102997779846,-0.015114237554371357
1782845808342486300,0.523486328125,0.0020785972010344267,-0.00307541829533875,-0.02093990333378315
1782845808352491300,0.5334912109375,0.0003483414766378701,-0.005026184022426605,-0.027153857052326202
1782845808362496300,0.543496337890625,-0.003838147735223174,-0.002787797013297677,-0.024159131571650505
1782845808372501200,0.553501220703125,-0.005691175349056721,-0.00003328951424919069,-0.025963956490159035
1782845808382506500,0.563506591796875,-0.00290391081944108,0.0008639294537715614,-0.023152457550168037
1782845808392511500,0.573511474609375,-0.0005339637864381075,0.0002878876985050738,-0.02165629342198372
1782845808402516500,0.5835166015625,-0.0003296993381809443,0.00041305628838017583,-0.017661551013588905
1782845808412521500,0.593521484375,0.003906590864062309,-0.0027118970174342394,-0.021080251783132553
1782845808422526500,0.6035263671875,0.005149754695594311,-0.0067993164993822575,-0.026385800912976265
1782845808432531500,0.613531494140625,0.0068118334747850895,-0.012242019176483154,-0.033408023416996
1782845808442536400,0.623536376953125,0.012118981219828129,-0.009831591509282589,-0.0401785783469677
1782845808452541400,0.63354150390625,0.0105943214148283,-0.0060083577409386635,-0.04608919844031334
1782845808462546400,0.64354638671875,0.010647051967680454,-0.001514539704658091,-0.04583513364195824
1782845808472551400,0.653551513671875,0.009825998917222023,0.00788242369890213,-0.038542598485946655
1782845808482556400,0.663556396484375,0.002660498023033142,0.008540757931768894,-0.026573020964860916
1782845808492561400,0.6735615234375,-0.0005579322460107505,0.0036477316170930862,-0.014516890980303288
1782845808502566400,0.68356640625,-0.001439971150830388,-0.0010279801208525896,-0.006106095854192972
1782845808512571400,0.6935712890625,0.0007251787465065718,-0.00014168016787152737,0.0014977618120610714
1782845808522576400,0.703576416015625,0.0004495415778364986,0.0003616572648752481,0.0000958738019107841
1782845808532581400,0.713581298828125,-0.0016285229939967394,-0.0006362291751429439,0.0006684534018859267
1782845808542586400,0.72358642578125,0.00014940333494450897,-0.002918558195233345,-0.0017243968322873116
1782845808552591400,0.73359130859375,-0.00344506511464715,-0.004914331249892712,-0.011856126599013805
1782845808562596400,0.743596435546875,-0.004706604406237602,-0.0057226005010306835,-0.017412278801202774
1782845808572601300,0.753601318359375,-0.009108010679483414,-0.0038605183362960815,-0.025046763941645622
1782845808582606600,0.763606689453125,-0.013173059560358524,-0.00011345066013745964,-0.024226775392889977
1782845808592611600,0.773611572265625,-0.018214955925941467,0.00018375810759607702,-0.025142904371023178
1782845808602616600,0.783616455078125,-0.020919928327202797,-0.003579554846510291,-0.023510651662945747
1782845808612621600,0.79362158203125,-0.020592359825968742,-0.0034549187403172255,-0.02257108874619007
1782845808622626600,0.80362646484375,-0.016036756336688995,-0.003061569994315505,-0.019182482734322548
1782845808632631600,0.813631591796875,-0.0075724320486187935,-0.0019196064677089453,-0.021196098998188972
1782845808642636500,0.823636474609375,0.003911917097866535,-0.0029907298739999533,-0.02719380334019661
1782845808652641500,0.8336416015625,0.008979912847280502,-0.004232561681419611,-0.028608474880456924
1782845808662646500,0.843646484375,0.016498282551765442,-0.0015821839915588498,-0.03317499905824661
1782845808672651500,0.853651611328125,0.017466342076659203,-0.0044133905321359634,-0.03099227137863636
1782845808682656500,0.863656494140625,0.024346085265278816,-0.0080898841843009,-0.0298409853130579
1782845808692661500,0.87366162109375,0.02370852418243885,-0.008666458539664745,-0.0257469080388546
1782845808702666500,0.88366650390625,0.025834526866674423,-0.00971654336899519,-0.023075491189956665
1782845808712671500,0.89367138671875,0.029104622080922127,-0.012041749432682991,-0.015781093388795853
1782845808722677500,0.903677490234375,0.027540015056729317,-0.009464342147111893,-0.013224459253251553
1782845808732682500,0.9136826171875,0.027168504893779755,-0.005603556986898184,-0.013145895674824715
1782845808742687500,0.9236875,0.023989755660295486,0.0020985708106309175,-0.00941853504627943
1782845808752692500,0.9336923828125,0.02612028457224369,0.00526640098541975,-0.005000085104256868
1782845808762697500,0.943697509765625,0.02201821655035019,0.0005685848882421851,0.002788063371554017
1782845808772702500,0.953702392578125,0.022584937512874603,-0.00009081379539566115,0.004276504274457693
1782845808782707500,0.96370751953125,0.018159562721848488,0.002089516259729862,0.0008173241512849927
1782845808792712400,0.97371240234375,0.01739896461367607,0.005380117800086737,-0.002180063631385565
1782845808802717400,0.983717529296875,0.014036190696060658,0.0017350494163110852,-0.0015776565996930003
1782845808812722400,0.993722412109375,0.011552792973816395,0.006942594423890114,0.004893558565527201
1782845808822727400,1.0037275390625,0.008009457029402256,0.007541006896644831,0.004941761493682861
1782845808832732400,1.013732421875,0.00866139866411686,0.013322463259100914,0.018642127513885498
1782845808842737400,1.0237373046875,0.0070307450369000435,0.015105183236300945,0.027246268466114998
1782845808852742400,1.033742431640625,0.014966699294745922,0.012901417911052704,0.03212038427591324
1782845808862747400,1.043747314453125,0.021093834191560745,0.015233281068503857,0.03196432441473007
1782845808872752400,1.05375244140625,0.022465094923973083,0.01398718822747469,0.03214195743203163
1782845808882757400,1.06375732421875,0.02600177377462387,0.011443336494266987,0.027819646522402763
1782845808892762400,1.073762451171875,0.02671976201236248,0.015399196185171604,0.01720615103840828
1782845808902767400,1.083767333984375,0.029653232544660568,0.017787786200642586,0.005231780000030994
1782845808912772400,1.0937724609375,0.0297259371727705,0.019527895376086235,-0.0051870387978851795
1782845808922777300,1.10377734375,0.026012159883975983,0.01618935540318489,-0.009585249237716198
1782845808932782300,1.1137822265625,0.02413622848689556,0.010457168333232403,-0.013597034849226475
1782845808942787300,1.123787353515625,0.020961474627256393,0.007497863844037056,-0.01188275869935751
1782845808952792300,1.133792236328125,0.020502345636487007,0.009206281043589115,-0.015172295272350311
1782845808962797300,1.14379736328125,0.019711120054125786,0.0057313889265060425,-0.020062923431396484
1782845808972802300,1.15380224609375,0.01661732606589794,0.0059782639145851135,-0.02317642606794834
1782845808982807300,1.163807373046875,0.01907435804605484,0.004072772338986397,-0.023306921124458313
1782845808992812300,1.173812255859375,0.015152054838836193,0.0018628811230883002,-0.01751694269478321
1782845809002817300,1.1838173828125,0.009886186569929123,0.0008929579053074121,-0.013234845362603664
1782845809012822300,1.193822265625,0.004341219086199999,0.0076185050420463085,-0.013098491355776787
1782845809022827300,1.2038271484375,-0.002332396572455764,0.01158634852617979,-0.004886634182184935
1782845809032832500,1.21383251953125,-0.009237973019480705,0.007647799793630838,0.0036605149507522583
1782845809042837500,1.22383740234375,-0.008069644682109356,-0.003465571440756321,0.010436661541461945
1782845809052842500,1.233842529296875,-0.00980362854897976,-0.009855293668806553,0.011440940201282501
1782845809062847500,1.243847412109375,-0.011782357469201088,-0.014183996245265007,0.005357747431844473
1782845809072852500,1.2538525390625,-0.011390605941414833,-0.011377557180821896,0.0024839304387569427
1782845809082857500,1.263857421875,-0.01576085388660431,-0.004189152270555496,-0.004521248396486044
1782845809092862500,1.273862548828125,-0.018275409936904907,0.002316950121894479,-0.005156146362423897
1782845809102867500,1.283867431640625,-0.021468007937073708,-0.00043835630640387535,-0.00863130483776331
1782845809112872400,1.29387255859375,-0.023180952295660973,0.0007291734800674021,-0.004267981741577387
1782845809122877400,1.30387744140625,-0.020555874332785606,0.00890614278614521,-0.002314553363248706
1782845809132882400,1.31388232421875,-0.020200343802571297,0.011609517969191074,0.003817641409114003
1782845809142887400,1.323887451171875,-0.015424230135977268,0.008924252353608608,0.004945223685353994
1782845809152892400,1.333892333984375,-0.013746704906225204,-0.0025036376900970936,0.008958341553807259
1782845809162897400,1.3438974609375,-0.007673099637031555,-0.009616674855351448,0.005578789860010147
1782845809172902400,1.35390234375,-0.0054853130131959915,-0.011717642657458782,0.002326271263882518
1782845809182907400,1.363907470703125,-0.003961718175560236,-0.006946589332073927,-0.0017931063193827868
1782845809192912400,1.373912353515625,-0.006600378546863794,-0.0004961469094268978,0.0007440872141160071
1782845809202917400,1.38391748046875,-0.006645385641604662,0.002406432293355465,0.005760150961577892
1782845809212922400,1.39392236328125,-0.006636597216129303,-0.0038040592335164547,0.012990100309252739
1782845809222927400,1.40392724609375,-0.00490287970751524,-0.005513009615242481,0.01396002434194088
1782845809232932400,1.413932373046875,-0.007813181728124619,-0.0023073628544807434,0.020911673083901405
1782845809242937300,1.423937255859375,-0.003468767274171114,-0.009613478556275368,0.02099716104567051
1782845809252942300,1.4339423828125,-0.0010964233661070466,-0.017732923850417137,0.018627479672431946
1782845809262947300,1.443947265625,0.004688761197030544,-0.02135881781578064,0.010364756919443607
1782845809272952300,1.453952392578125,0.00729386555030942,-0.024880049750208855,-0.0010524812387302518
1782845809282958300,1.463958251953125,0.011753595434129238,-0.018578210845589638,-0.009168997406959534
1782845809292963300,1.47396337890625,0.015438877046108246,-0.01471582893282175,-0.018564896658062935
1782845809302968300,1.48396826171875,0.01600613072514534,-0.01641892082989216,-0.020124442875385284
1782845809312973300,1.493973388671875,0.01583009585738182,-0.023150859400629997,-0.018197113648056984
1782845809322978300,1.503978271484375,0.015980564057826996,-0.03117736056447029,-0.015115302987396717
1782845809332983300,1.5139833984375,0.007844074629247189,-0.030133668333292007,-0.011553059332072735
1782845809342988300,1.52398828125,0.000886566296685487,-0.01864505745470524,-0.011713647283613682
1782845809352993300,1.5339931640625,0.001288171042688191,-0.01619121991097927,-0.012089685536921024
1782845809362998300,1.543998291015625,0.003683684393763542,-0.011296330019831657,-0.011800999753177166
1782845809373003300,1.554003173828125,0.008915730752050877,-0.010194581001996994,-0.00875274557620287
1782845809383008300,1.56400830078125,0.013055347837507725,-0.0184053722769022,-0.0022716764360666275
1782845809393013200,1.57401318359375,0.0203942209482193,-0.014869493432343006,-0.002043976215645671
1782845809403018200,1.584018310546875,0.01991245523095131,-0.013863883912563324,-0.005913815461099148
1782845809413023200,1.594023193359375,0.01776008866727352,-0.022251242771744728,-0.010085657238960266
1782845809423028200,1.6040283203125,0.010183394886553288,-0.02371571585536003,-0.010364490561187267
1782845809433033200,1.614033203125,-0.00034408041392453015,-0.019815782085061073,-0.005228850524872541
1782845809443038200,1.6240380859375,-0.008215319365262985,-0.024035295471549034,0.0005792375304736197
1782845809453043200,1.634043212890625,-0.012595154345035553,-0.0262443870306015,0.006275206338614225
1782845809463048200,1.644048095703125,-0.0166130643337965,-0.02798343077301979,0.005189169198274612
1782845809473053200,1.65405322265625,-0.0220272708684206,-0.02407923713326454,0.00043835630640387535
1782845809483058200,1.66405810546875,-0.02461905963718891,-0.01835983246564865,-0.006197974551469088
1782845809493063200,1.674063232421875,-0.028360800817608833,-0.008856874890625477,-0.00842810608446598
1782845809503068200,1.684068115234375,-0.02665025368332863,-0.00845313910394907,-0.008403072133660316
1782845809513073200,1.6940732421875,-0.030407173559069633,-0.009843575768172741,-0.009525594301521778
1782845809523078100,1.704078125,-0.03616466373205185,-0.01098447386175394,-0.011456119827926159
1782845809533083100,1.714083251953125,-0.03602670878171921,-0.011904329992830753,-0.008862467482686043
1782845809543088000,1.724088134765625,-0.037890125066041946,-0.008225971832871437,-0.0026818031910806894
1782845809553093000,1.734093017578125,-0.03836895897984505,-0.008548214100301266,-0.0010516822803765535
1782845809563098000,1.74409814453125,-0.0377495102584362,-0.014729677699506283,0.0090542146936059
1782845809573103000,1.75410302734375,-0.03557823225855827,-0.013439375907182693,0.007430485915392637
1782845809583108000,1.764108154296875,-0.031732361763715744,-0.012954148463904858,0.004345479886978865
1782845809593113000,1.774113037109375,-0.027524834498763084,-0.0006412891671061516,0.0025869945529848337
1782845809603118000,1.7841181640625,-0.02088237926363945,-0.005477323196828365,0.004257329273968935
1782845809613123000,1.794123046875,-0.01420237123966217,-0.004603806417435408,0.002695119008421898
1782845809623128000,1.804128173828125,-0.008403871208429337,0.0006388923502527177,0.0035981968976557255
1782845809633133000,1.814133056640625,0.0036887445021420717,0.006172141991555691,0.00956634059548378
1782845809643138000,1.824137939453125,0.009240103885531425,0.011208445765078068,0.013336312025785446
1782845809653143000,1.83414306640625,0.015295865945518017,0.016626646742224693,0.012810870073735714
1782845809663148300,1.844148193359375,0.014502775855362415,0.012838033959269524,0.01870604418218136
1782845809673153300,1.8541533203125,0.017075922340154648,0.014104633592069149,0.02347256988286972
1782845809683158300,1.864158203125,0.01613076590001583,0.006743390113115311,0.029149629175662994
1782845809693163300,1.874163330078125,0.01455870270729065,0.003978762775659561,0.033134784549474716
1782845809703168300,1.884168212890625,0.014126204885542393,-0.0057255299761891365,0.025644376873970032
1782845809713173500,1.894173583984375,0.01082761399447918,-0.003013632958754897,0.018269818276166916
1782845809723178500,1.904178466796875,0.012676380574703217,0.002886333968490362,0.003832555143162608
1782845809733183500,1.91418359375,0.015431420877575874,0.012201804667711258,-0.010953848250210285
1782845809743188500,1.9241884765625,0.013990383595228195,0.01866183429956436,-0.01696140691637993
1782845809753193500,1.934193359375,0.01028459519147873,0.01780136674642563,-0.015063105151057243
1782845809763198500,1.944198486328125,0.00857404712587595,0.018741995096206665,-0.011415373533964157
1782845809773203500,1.954203369140625,0.006155364215373993,0.014600248076021671,0.00010652644414221868
1782845809783208400,1.96420849609375,0.004065048880875111,0.007011836860328913,0.01073999609798193
1782845809793213400,1.97421337890625,0.0031188279390335083,-0.00037523938226513565,0.018747322261333466
1782845809803218400,1.984218505859375,-0.00022503710351884365,0.0034258903469890356,0.018858909606933594
1782845809813223400,1.994223388671875,-0.0023704797495156527,0.003180613275617361,0.020422717556357384
1782845809823228400,2.004228515625,-0.007418501656502485,0.01188195962458849,0.013433516956865788
1782845809833233400,2.0142333984375,-0.01733424887061119,0.016880713403224945,0.010853447020053864
1782845809843238400,2.02423828125,-0.020115921273827553,0.013350958935916424,0.016334231942892075
1782845809853244400,2.034244384765625,-0.024765001609921455,0.007906392216682434,0.0192559864372015
1782845809863249400,2.04424951171875,-0.023842481896281242,0.004406466148793697,0.023632891476154327
1782845809873254400,2.05425439453125,-0.021868281066417694,0.002635996788740158,0.019147595390677452
1782845809883259400,2.06425927734375,-0.01780323125422001,0.012653743848204613,0.015088405460119247
1782845809893264400,2.074264404296875,-0.011167699471116066,0.012546684592962265,0.006705306936055422
1782845809903269400,2.084269287109375,-0.002284459536895156,0.01182044018059969,0.001365668955259025
1782845809913274400,2.0942744140625,0.002232261700555682,0.014361361972987652,-0.0017291904659941792
1782845809923279400,2.104279296875,0.00818096473813057,0.011128817684948444,0.005530053749680519
1782845809933284400,2.114284423828125,0.011805526912212372,0.011353588663041592,0.014463361352682114
1782845809943289300,2.124289306640625,0.014244449324905872,0.008865929208695889,0.023145265877246857
1782845809953294300,2.13429443359375,0.015620770864188671,-0.0010628675809130073,0.028188494965434074
1782845809963299300,2.14429931640625,0.016573384404182434,-0.0049193911254405975,0.026338130235671997
1782845809973304300,2.15430419921875,0.011287542060017586,-0.0004921521758660674,0.018161693587899208
1782845809983309300,2.164309326171875,0.009516273625195026,0.005339371506124735,0.007835285738110542
1782845809993314300,2.174314208984375,0.00415319949388504,0.011750665493309498,-0.0025156219489872456
1782845810003319300,2.1843193359375,0.001574194524437189,0.00872131995856762,-0.011002050712704659
1782845810013324300,2.19432421875,-0.001047154888510704,0.0010269149206578732,-0.012439625337719917
1782845810023329300,2.204329345703125,0.0011270497925579548,-0.002662362065166235,-0.012019111774861813
1782845810033334300,2.214334228515625,-0.0008205199264921248,-0.004689560271799564,-0.015330753289163113
1782845810043339300,2.22433935546875,0.001540638622827828,-0.005805158521980047,-0.010852914303541183
1782845810053344300,2.23434423828125,-0.0046211169101297855,-0.003614974906668067,-0.006736465729773045
1782845810063349200,2.244349365234375,-0.0043710460886359215,-0.0004215783847030252,-0.0028628981672227383
1782845810073354200,2.254354248046875,-0.00518837058916688,-0.00247540813870728,0.0018895127577707171
1782845810083359200,2.264359130859375,-0.005373726598918438,-0.003251453395932913,0.002275937469676137
1782845810093364200,2.2743642578125,-0.0003989415417890996,-0.007239803206175566,-0.004052532371133566
1782845810103369200,2.284369140625,-0.002808836055919528,-0.007423827890306711,-0.00866326317191124
1782845810113375500,2.29437548828125,-0.00010839065362233669,-0.008836101740598679,-0.01302365679293871
1782845810123380500,2.30438037109375,-0.0009986853692680597,-0.005089034326374531,-0.021672537550330162
1782845810133385500,2.314385498046875,-0.0016817862633615732,-0.0055090151727199554,-0.028659608215093613
1782845810143390500,2.324390380859375,-0.00216514989733696,-0.0033933997619897127,-0.030581079423427582
1782845810153395500,2.3343955078125,-0.00195129809435457,0.0005230448441579938,-0.027102990075945854
1782845810163400400,2.344400390625,-0.0000015978966985130683,0.004009655211120844,-0.021447502076625824
1782845810173405400,2.354405517578125,0.0013643373968079686,0.0006791060441173613,-0.011244398541748524
1782845810183410400,2.364410400390625,0.002231728984043002,-0.0031579763162881136,-0.001876995898783207
1782845810193415400,2.37441552734375,0.004017644561827183,-0.008526110090315342,0.004145210143178701
1782845810203420400,2.38442041015625,0.006658168975263834,-0.014784272760152817,0.004840828012675047
1782845810213425400,2.39442529296875,0.007947937585413456,-0.0140183474868536,0.00412390474230051
1782845810223430400,2.404430419921875,0.006067479960620403,-0.011426026001572609,-0.006091714836657047
1782845810233435400,2.414435302734375,0.0052083441987633705,-0.008805476129055023,-0.012862801551818848
1782845810243440400,2.4244404296875,0.006768157705664635,-0.0025864620693027973,-0.017290839925408363
1782845810253445400,2.4344453125,0.0014769891276955605,0.0013544837711378932,-0.02401558682322502
1782845810263450400,2.444450439453125,-0.00041278995922766626,0.00373002327978611,-0.015874570235610008
1782845810273455400,2.454455322265625,-0.0034226945135742426,0.002037850907072425,-0.007803861051797867
1782845810283460400,2.46446044921875,-0.00307595101185143,-0.003978496417403221,-0.004135889001190662
1782845810293465300,2.47446533203125,-0.005508482456207275,-0.005907157436013222,-0.0034208304714411497
1782845810303470300,2.48447021484375,-0.0033593112602829933,-0.00788322277367115,-0.0032413334120064974
1782845810313475300,2.494475341796875,-0.00430207047611475,-0.00213665422052145,-0.010061422362923622
1782845810323480300,2.504480224609375,-0.004712463356554508,0.0028391960076987743,-0.015899071469902992
1782845810333485300,2.5144853515625,-0.0026522420812398195,0.0041342913173139095,-0.02106320671737194
1782845810343490300,2.524490234375,-0.0029108349699527025,0.003954527899622917,-0.020500481128692627
1782845810353495300,2.534495361328125,0.000027963191314483993,-0.003989947959780693,-0.01537469495087862
1782845810363500300,2.544500244140625,-0.002487392397597432,-0.0079173119738698,-0.006943127140402794
1782845810373505300,2.55450537109375,-0.001472728094086051,-0.005783586762845516,0.0007837683078832924
1782845810383510300,2.56451025390625,-0.0038120488170534372,-0.0020394488237798214,0.0059686764143407345
1782845810393515300,2.574515380859375,-0.00574816670268774,0.002549177734181285,0.009794839657843113
1782845810403521500,2.584521484375,-0.0034727619495242834,0.0025268071331083775,0.009427590295672417
1782845810413526500,2.594526611328125,-0.004230164922773838,0.0022892532870173454,0.007317834068089724
1782845810423530200,2.6045302734375,-0.0052296495996415615,0.000284159294096753,0.008923720568418503
1782845810433535200,2.61453515625,-0.005569468718022108,-0.0011171960504725575,0.008841162547469139
1782845810443541500,2.62454150390625,-0.010779144242405891,0.0035478631034493446,0.009616408497095108
1782845810453546500,2.63454638671875,-0.013348029926419258,0.0027411917690187693,0.009812949225306511
1782845810463551500,2.644551513671875,-0.011461179703474045,0.0037800907157361507,0.007795072626322508
1782845810473556500,2.654556396484375,-0.0160032007843256,0.0038152446504682302,0.0031609057914465666
1782845810483561500,2.6645615234375,-0.01775502786040306,0.0028756812680512667,0.002525741932913661
1782845810493566500,2.67456640625,-0.02165655978024006,0.0028871328104287386,0.003326820908114314
1782845810503571500,2.684571533203125,-0.0236430112272501,0.00017177389236167073,0.0059742690064013
1782845810513576400,2.694576416015625,-0.024329574778676033,-0.005037369206547737,0.00675271125510335
1782845810523581400,2.70458154296875,-0.020131099969148636,-0.007976433262228966,0.005614742636680603
1782845810533586400,2.71458642578125,-0.017176058143377304,-0.008081895299255848,-0.0004756405542138964
1782845810543591400,2.72459130859375,-0.017714815214276314,-0.0038892803713679314,-0.007527690846472979
1782845810553596400,2.734596435546875,-0.01799524575471878,0.0022327941842377186,-0.012630041688680649
1782845810563601400,2.744601318359375,-0.018577411770820618,0.01067954208701849,-0.012463327497243881
1782845810573606400,2.7546064453125,-0.015688948333263397,0.017068199813365936,-0.00884941779077053
1782845810583611400,2.764611328125,-0.012378372251987457,0.017541708424687386,-0.0009893643436953425
1782845810593616400,2.774616455078125,-0.010879811830818653,0.009437976405024529,0.012870525009930134
1782845810603621400,2.784621337890625,-0.003890878288075328,-0.004827245604246855,0.020116453990340233
1782845810613626400,2.79462646484375,0.003543602069839835,-0.004067978356033564,0.02317695878446102
1782845810623631400,2.80463134765625,0.007225155830383301,-0.005616873037070036,0.023000657558441162
1782845810633636400,2.81463623046875,0.015082812868058681,0.0014849785948172212,0.011560515500605106
1782845810643641300,2.824641357421875,0.014583736658096313,0.004251203965395689,-0.0035601137205958366
1782845810653646600,2.834646484375,0.018930016085505486,0.007442736066877842,-0.014316621236503124
1782845810663651600,2.844651611328125,0.018459169194102287,0.006940996740013361,-0.02237614616751671
1782845810673656600,2.854656494140625,0.014103834517300129,0.008192948997020721,-0.02503477968275547
1782845810683661600,2.86466162109375,0.009839847683906555,0.004761465825140476,-0.022306637838482857
1782845810693666600,2.87466650390625,0.0029350698459893465,-0.0003251719754189253,-0.019118301570415497
1782845810703671600,2.884671630859375,0.0010069411946460605,-0.004456799943000078,-0.018738267943263054
1782845810713676500,2.894676513671875,0.0009030779474414885,-0.005918608978390694,-0.01672678254544735
1782845810723681500,2.904681640625,-0.0019201391842216253,-0.006743922829627991,-0.013452425599098206
1782845810733686500,2.9146865234375,-0.0002258360618725419,-0.012828713282942772,-0.013264406472444534
1782845810743691500,2.92469140625,0.0035001926589757204,-0.01655340939760208,-0.014102769084274769
1782845810753696500,2.934696533203125,0.0043718451634049416,-0.01483354065567255,-0.019302058964967728
1782845810763701500,2.944701416015625,0.0029017801862210035,-0.007760184817016125,-0.024236897006630898
1782845810773706500,2.95470654296875,0.0020362529903650284,-0.001984321279451251,-0.026088591665029526
1782845810783711500,2.96471142578125,-0.000041278995922766626,-0.0013249226612970233,-0.024591097608208656
1782845810793716500,2.974716552734375,0.0000953411654336378,0.0011936287628486753,-0.027246534824371338
1782845810803721500,2.984721435546875,-0.003694869577884674,0.004769188817590475,-0.019871177151799202
1782845810813726500,2.9947265625,-0.004804076161235571,0.0023931164760142565,-0.010644921101629734
1782845810823731500,3.0047314453125,-0.006883206311613321,-0.004303668159991503,-0.00040852889651432633
1782845810833736400,3.014736328125,-0.0031736891251057386,-0.008217450231313705,0.010343184694647789
1782845810843741400,3.024741455078125,-0.0034053840208798647,-0.011404987424612045,0.014579474925994873
1782845810853746400,3.034746337890625,-0.006453105714172125,-0.012412727810442448,0.016918795183300972
1782845810863751400,3.04475146484375,-0.006134325172752142,-0.004887965973466635,0.011753329075872898
1782845810873756400,3.05475634765625,-0.006412891671061516,0.00013555490295402706,0.004338555503636599
1782845810883761400,3.064761474609375,-0.003687146585434675,0.0039292280562222,-0.005032575689256191
1782845810893766400,3.074766357421875,0.00469462014734745,0.006675213109701872,-0.01444072462618351
1782845810903771400,3.084771484375,0.008331432938575745,0.008740761317312717,-0.01835344173014164
1782845810913776400,3.0947763671875,0.006368683185428381,0.003805124433711171,-0.017941715195775032
1782845810923781400,3.104781494140625,0.01016635075211525,0.0025574336759746075,-0.015683887526392937
1782845810933786400,3.114786376953125,0.009770872071385384,-0.0025995115283876657,-0.019900737330317497
1782845810943791400,3.124791259765625,0.01398931909352541,-0.008378038182854652,-0.024939971044659615
1782845810953796400,3.13479638671875,0.01979660801589489,-0.012852681800723076,-0.029681462794542313
1782845810963801300,3.14480126953125,0.02491626888513565,-0.015274293720722198,-0.03203383460640907
1782845810973806300,3.154806396484375,0.02714347094297409,-0.010634268634021282,-0.03291960060596466
1782845810983811300,3.164811279296875,0.028422320261597633,-0.006162554491311312,-0.03819612041115761
1782845810993816300,3.17481640625,0.027651866897940636,-0.004022971261292696,-0.038654983043670654
1782845811003821300,3.1848212890625,0.027835359796881676,-0.0028815402183681726,-0.02985483407974243
1782845811013826300,3.194826416015625,0.02154976688325405,-0.0037353497464209795,-0.020717795938253403
1782845811023831300,3.204831298828125,0.021988123655319214,-0.008686698973178864,-0.013911021873354912
1782845811033836300,3.214836181640625,0.01992710307240486,-0.013495835475623608,-0.010098973289132118
1782845811043841300,3.22484130859375,0.020778780803084373,-0.012607404962182045,-0.01257997378706932
1782845811053847600,3.23484765625,0.023636886849999428,-0.011372496373951435,-0.01654542051255703
1782845811063852500,3.2448525390625,0.028007932007312775,-0.011972506530582905,-0.019935624673962593
1782845811073857500,3.254857421875,0.026019349694252014,-0.010101902298629284,-0.018457571044564247
1782845811083862500,3.264862548828125,0.026344256475567818,-0.0026999127585440874,-0.018382469192147255
1782845811093867500,3.274867431640625,0.022312762215733528,0.006599579472094774,-0.021674668416380882
1782845811103872500,3.28487255859375,0.014134194701910019,0.011575696058571339,-0.012683571316301823
1782845811113876200,3.294876220703125,0.011677960865199566,0.014654044061899185,-0.009000418707728386
1782845811123881200,3.304881103515625,0.0058656120672822,0.017710287123918533,-0.00019707392493728548
1782845811133886500,3.314886474609375,0.003979029133915901,0.010938934050500393,0.013214871287345886
1782845811143891500,3.324891357421875,0.0024429175537079573,0.003942809998989105,0.018074607476592064
1782845811153896400,3.334896484375,0.0011427623685449362,-0.002195776207372546,0.02003682404756546
1782845811163901400,3.3449013671875,-0.0033720945939421654,-0.005690376274287701,0.01986638270318508
1782845811173906400,3.354906494140625,-0.009678459726274014,0.0013395700370892882,0.011547999456524849
1782845811183911400,3.364911376953125,-0.019048258662223816,0.00430180411785841,0.008594021201133728
1782845811193916400,3.37491650390625,-0.023998543620109558,0.009583651088178158,0.006444850005209446
1782845811203921400,3.38492138671875,-0.026558373123407364,0.006985205225646496,0.008411328308284283
1782845811213926700,3.3949267578125,-0.027887290343642235,0.015572302043437958,0.01432008296251297
1782845811223931600,3.404931640625,-0.0278026033192873,0.01804797537624836,0.026328010484576225
1782845811233936600,3.4149365234375,-0.026914438232779503,0.014842329546809196,0.03989814594388008
1782845811243941600,3.424941650390625,-0.02473250962793827,0.012649215757846832,0.050284743309020996
1782845811253946600,3.434946533203125,-0.022002503275871277,0.0037470676470547915,0.059589825570583344
1782845811263951600,3.44495166015625,-0.014222078956663609,0.0020596887916326523,0.052196890115737915
1782845811273956600,3.45495654296875,-0.008502141572535038,0.004422178957611322,0.04418210685253143
1782845811283961600,3.464961669921875,-0.00782782956957817,0.0054142065346241,0.03193715959787369
1782845811293966600,3.474966552734375,-0.005376123357564211,0.007027016952633858,0.022063223645091057
1782845811303971600,3.4849716796875,-0.006654440425336361,0.012652145698666573,0.01555019710212946
1782845811313976600,3.4949765625,-0.006958573590964079,0.011005247011780739,0.019218169152736664
1782845811323981600,3.504981689453125,-0.0067572384141385555,0.0041302964091300964,0.018125474452972412
1782845811333986600,3.514986572265625,-0.006743123754858971,-0.0006386260502040386,0.018313227221369743
1782845811343991600,3.524991455078125,-0.006548446603119373,-0.005578789860010147,0.017895109951496124
1782845811353996500,3.53499658203125,-0.006994792725890875,-0.011985556222498417,0.01164307352155447
1782845811364001500,3.54500146484375,-0.008130896836519241,-0.014620221219956875,0.004126567859202623
1782845811374006500,3.555006591796875,-0.006558034103363752,-0.016172312200069427,-0.002433063928037882
1782845811384011500,3.565011474609375,-0.003832288784906268,-0.017545437440276146,-0.007441404741257429
1782845811394016500,3.5750166015625,-0.0035577169619500637,-0.010603908449411392,-0.011537612415850163
1782845811404021500,3.585021484375,-0.00421258807182312,-0.006060555577278137,-0.01173202320933342
1782845811414026500,3.595026611328125,-0.004362790379673243,-0.006126069463789463,-0.016800550743937492
1782845811424031500,3.605031494140625,0.0020754013676196337,-0.0031135017052292824,-0.018127605319023132
1782845811434036500,3.615036376953125,0.004662395920604467,-0.00061279337387532,-0.01398931909352541
1782845811444041500,3.62504150390625,0.006244580261409283,0.00003808320252574049,-0.01004863902926445
1782845811454046500,3.63504638671875,0.00552366254851222,-0.004801146686077118,0.005425125360488892
1782845811464051500,3.645051513671875,0.006957241799682379,-0.006262955721467733,0.014039119705557823
1782845811474056400,3.655056396484375,0.01170699018985033,-0.008304801769554615,0.014243916608393192
1782845811484061400,3.6650615234375,0.009735718369483948,-0.01398878637701273,0.009610016830265522
1782845811494066400,3.67506640625,0.009257680736482143,-0.008606803603470325,-0.002237055217847228
1782845811504071400,3.685071533203125,0.010281666181981564,-0.005927397403866053,-0.010517355985939503
1782845811514076400,3.695076416015625,0.0020743361674249172,-0.0010277138790115714,-0.015091334469616413
1782845811524081400,3.705081298828125,-0.00418435875326395,-0.0018487664638087153,-0.013002617284655571
1782845811534086400,3.71508642578125,-0.008539159782230854,-0.01007766742259264,-0.009845972992479801
1782845811544091400,3.72509130859375,-0.009251289069652557,-0.018876219168305397,-0.009319465607404709
1782845811554096400,3.735096435546875,-0.008519185706973076,-0.023264575749635696,-0.00512791657820344
1782845811564101400,3.745101318359375,-0.012411396019160748,-0.029921414330601692,-0.00974344089627266
1782845811574106400,3.7551064453125,-0.00993039458990097,-0.03208736330270767,-0.01991192251443863
1782845811584111400,3.765111328125,-0.012113122269511223,-0.032290294766426086,-0.03417208418250084
1782845811594116400,3.775116455078125,-0.010627610608935356,-0.030700653791427612,-0.04392777755856514
1782845811604121300,3.785121337890625,-0.009875001385807991,-0.028076641261577606,-0.055218782275915146
1782845811614126300,3.795126220703125,-0.006061088293790817,-0.017891382798552513,-0.06427965313196182
1782845811624131300,3.80513134765625,-0.004643754102289677,-0.007784952409565449,-0.06196962669491768
1782845811634136300,3.81513623046875,0.0013017531018704176,-0.005122323986142874,-0.047984037548303604
1782845811644141300,3.825141357421875,0.0016285229939967394,-0.011030546389520168,-0.02394554577767849
1782845811654146600,3.835146484375,0.007348460145294666,-0.014691327698528767,-0.00344506511464715
1782845811664151600,3.845151611328125,0.010063553228974342,-0.029166674241423607,0.015244732610881329
1782845811674156500,3.855156494140625,0.01630706712603569,-0.033483657985925674,0.020614730194211006
1782845811684161500,3.86516162109375,0.012998889200389385,-0.02936081774532795,0.020293554291129112
1782845811694166500,3.87516650390625,0.009533850476145744,-0.019339077174663544,0.01792493835091591
1782845811704171500,3.885171630859375,0.0057407100684940815,-0.013617541640996933,0.013002617284655571
1782845811714176500,3.895176513671875,0.0014942996203899384,-0.00726297264918685,0.009071525186300278
1782845811724181500,3.905181396484375,-0.0033635725267231464,-0.0029084382113069296,0.00666535971686244
1782845811734186500,3.9151865234375,-0.008050469681620598,0.005144428461790085,0.010105897672474384
1782845811744191500,3.92519140625,-0.010188987478613853,0.009815879166126251,0.021680261939764023
1782845811754196500,3.935196533203125,-0.015362710691988468,0.006935404147952795,0.0344112366437912
1782845811764201500,3.945201416015625,-0.01631585694849491,-0.0019390475936233997,0.050756387412548065
1782845811774206500,3.95520654296875,-0.012973056174814701,-0.00535348616540432,0.05152257904410362
1782845811784211500,3.96521142578125,-0.013456952758133411,-0.00893676932901144,0.053822219371795654
1782845811794216400,3.975216552734375,-0.014827148988842964,-0.0012271846644580364,0.04801812395453453
1782845811804221400,3.985221435546875,-0.018871160224080086,0.009430252946913242,0.04121747612953186
1782845811814227500,3.9952275390625,-0.02118438109755516,0.013308880850672722,0.03743179515004158
1782845811824232400,4.005232421875,-0.02442651242017746,0.012477442622184753,0.03321840614080429
1782845811834237400,4.015237548828125,-0.0214735995978117,0.011657455004751682,0.02913205325603485
1782845811844242400,4.025242431640625,-0.020662134513258934,0.004734301473945379,0.03395024314522743
1782845811854247400,4.035247314453125,-0.01757100410759449,0.0010029464028775692,0.03742566704750061
1782845811864252400,4.04525244140625,-0.009230515919625759,-0.002070873975753784,0.03786562383174896
1782845811874257400,4.05525732421875,-0.004348942078649998,-0.004095409065485001,0.03622378408908844
1782845811884262400,4.065262451171875,0.0026056368369609118,-0.0032988577149808407,0.027336282655596733
1782845811894267400,4.075267333984375,0.0062672169879078865,0.00036964676110073924,0.01841629110276699
1782845811904272400,4.0852724609375,0.01221698522567749,0.0029984530992805958,0.009334646165370941
1782845811914277600,4.095277587890625,0.014622085727751255,0.0019837887957692146,0.001654089312069118
1782845811924282600,4.10528271484375,0.014269483275711536,-0.00021358551748562604,-0.0057769292034208775
1782845811934287600,4.11528759765625,0.01811002753674984,0.0013571468880400062,-0.01173282228410244
1782845811944292600,4.125292724609375,0.0189577117562294,-0.00628985371440649,-0.0096286591142416
1782845811954297600,4.135297607421875,0.022522086277604103,-0.008374576456844807,-0.01245320774614811
1782845811964302600,4.145302490234375,0.025181252509355545,-0.007813714444637299,-0.01188142690807581
1782845811974307600,4.1553076171875,0.027042536064982414,-0.010864898562431335,-0.01326786819845438
1782845811984312600,4.1653125,0.027783693745732307,-0.012612731195986271,-0.014998923055827618
1782845811994317600,4.175317626953125,0.029138710349798203,-0.014218350872397423,-0.016442090272903442
1782845812004322600,4.185322509765625,0.02395380288362503,-0.009677927009761333,-0.02046159841120243
1782845812014327600,4.19532763671875,0.01744210720062256,-0.0039175101555883884,-0.024924790486693382
1782845812024332500,4.20533251953125,0.017967548221349716,-0.0013696637470275164,-0.024654479697346687
1782845812034337500,4.215337646484375,0.02051166631281376,0.002205097349360585,-0.023433154448866844
1782845812044342500,4.225342529296875,0.016035690903663635,0.006940197665244341,-0.019656525924801826
1782845812054347500,4.235347412109375,0.01506976317614317,-0.0018232000293210149,-0.005378520116209984
1782845812064352500,4.2453525390625,0.011485680937767029,-0.013583187013864517,-0.003163569141179323
1782845812074357500,4.255357421875,0.01366334781050682,-0.0160607248544693,-0.002270344877615571
1782845812084362500,4.265362548828125,0.011487012729048729,-0.012830311432480812,-0.005067463032901287
1782845812094367500,4.275367431640625,0.015442872419953346,-0.013319267891347408,-0.012357333675026894
1782845812104372500,4.28537255859375,0.015596270561218262,-0.007646201644092798,-0.018793394789099693
1782845812114377200,4.295377197265625,0.014160560443997383,-0.000550475378986448,-0.025651833042502403
1782845812124382200,4.30538232421875,0.0147485863417387,0.0019297265680506825,-0.026730148121714592
1782845812134387200,4.31538720703125,0.013160010799765587,0.009557286277413368,-0.025047296658158302
1782845812144392200,4.32539208984375,0.012232431210577488,0.011865448206663132,-0.019152922555804253
1782845812154397200,4.335397216796875,0.008837167173624039,0.010425742715597153,-0.008882175199687481
1782845812164402200,4.345402099609375,0.007153517100960016,0.004503138829022646,0.003846936160698533
1782845812174407200,4.3554072265625,0.005288239102810621,-0.005912217777222395,0.013687049970030785
1782845812184412200,4.365412109375,0.001148355077020824,-0.01731880195438862,0.023262444883584976
1782845812194417200,4.375417236328125,-0.002397377509623766,-0.016577377915382385,0.027635356411337852
1782845812204422100,4.385422119140625,-0.0063210129737854,-0.012947756797075272,0.024868331849575043
1782845812214427100,4.39542724609375,-0.013016998767852783,-0.006613427773118019,0.021019265055656433
1782845812224432000,4.40543212890625,-0.016952618956565857,-0.003972104750573635,0.002939597237855196
1782845812234437000,4.41543701171875,-0.021466409787535667,0.00339126936160028,-0.009515208192169666
1782845812244442000,4.425442138671875,-0.02377377264201641,0.0059905145317316055,-0.019397400319576263
1782845812254447000,4.435447021484375,-0.02082139253616333,0.0031763522420078516,-0.021106084808707237
1782845812264452000,4.4454521484375,-0.015894809737801552,-0.004565723240375519,-0.018499648198485374
1782845812274457300,4.455457275390625,-0.007937018759548664,-0.011974104680120945,-0.014372015371918678
1782845812284462300,4.46546240234375,-0.0020093549974262714,-0.022168951109051704,-0.0015968313673511147
1782845812294467300,4.47546728515625,-0.0010697918478399515,-0.025511484593153,0.002915362361818552
1782845812304472300,4.485472412109375,0.000770452490542084,-0.024577781558036804,0.0003504719934426248
1782845812314477300,4.495477294921875,0.0027079021092504263,-0.01461702585220337,-0.005253085400909185
1782845812324482300,4.505482421875,0.0028218855150043964,-0.006362558342516422,-0.01732546091079712
1782845812334487300,4.5154873046875,-0.0011968245962634683,-0.005342833697795868,-0.02478630654513836
1782845812344492300,4.5254921875,-0.0015630092239007354,-0.0006388923502527177,-0.031717449426651
1782845812354497300,4.535497314453125,-0.0054815844632685184,-0.0017816547770053148,-0.04129737243056297
1782845812364502300,4.545502197265625,-0.008017712272703648,-0.005313538946211338,-0.046427953988313675
1782845812374507300,4.55550732421875,-0.010831608437001705,-0.009929862804710865,-0.05086211487650871
1782845812384512300,4.56551220703125,-0.014934474602341652,-0.008982841856777668,-0.04620051756501198
1782845812394517200,4.575517333984375,-0.017164073884487152,-0.011857724748551846,-0.0401490181684494
1782845812404522200,4.585522216796875,-0.021208615973591805,-0.01130831427872181,-0.032412800937891006
1782845812414527200,4.59552734375,-0.02345845475792885,-0.009069395251572132,-0.01816621981561184
1782845812424532200,4.6055322265625,-0.026068618521094322,-0.007870705798268318,-0.015210910700261593
1782845812434537200,4.615537109375,-0.027236681431531906,-0.004092213232070208,-0.00977433379739523
1782845812444542200,4.625542236328125,-0.025238510221242905,0.001110005541704595,-0.007249923422932625
1782845812454547200,4.635547119140625,-0.02670910954475403,0.011456386186182499,-0.009301356039941311
1782845812464552200,4.64555224609375,-0.02696477249264717,0.009635317139327526,-0.00920068845152855
1782845812474557200,4.65555712890625,-0.027477430179715157,0.0038719698786735535,-0.004011519718915224
1782845812484562200,4.665562255859375,-0.02574744075536728,-0.007984423078596592,-0.004625910893082619
1782845812494567200,4.675567138671875,-0.02315911464393139,-0.01338717807084322,-0.0035566515289247036
1782845812504572200,4.685572265625,-0.023782560601830482,-0.015389609150588512,-0.00860174372792244
1782845812514577400,4.695577392578125,-0.027283286675810814,-0.008495483547449112,-0.011055846698582172
1782845812524582400,4.70558251953125,-0.03075738064944744,-0.002862099092453718,-0.015721704810857773
1782845812534587400,4.71558740234375,-0.03225886821746826,0.0025358619168400764,-0.021695975214242935
1782845812544592400,4.72559228515625,-0.03178935497999191,0.0067820060066878796,-0.022732742130756378
1782845812554597400,4.735597412109375,-0.029039641842246056,0.0015784555580466986,-0.02214311994612217
1782845812564602400,4.745602294921875,-0.030068686231970787,-0.004849882796406746,-0.021809158846735954
1782845812574607400,4.755607421875,-0.029036711901426315,-0.009969010949134827,-0.023241406306624413
1782845812584612400,4.7656123046875,-0.029157884418964386,-0.014985340647399426,-0.018866365775465965
1782845812594617300,4.775617431640625,-0.026750387623906136,-0.011995675973594189,-0.019712984561920166
1782845812604622300,4.785622314453125,-0.02689499780535698,-0.006464024540036917,-0.01540345698595047
1782845812614627300,4.79562744140625,-0.02725931815803051,-0.001928128651343286,-0.01540558785200119
1782845812624632300,4.80563232421875,-0.026692863553762436,-0.0004106594424229115,-0.0054245926439762115
1782845812634637300,4.81563720703125,-0.026561036705970764,0.0014807175612077117,0.0010061422362923622
1782845812644642300,4.825642333984375,-0.023303458467125893,0.007477091159671545,0.0025385250337421894
1782845812654647300,4.835647216796875,-0.022823823615908623,0.008105064742267132,0.008065915666520596
1782845812664652300,4.84565234375,-0.021152423694729805,0.01050643716007471,0.013509949669241905
1782845812674657300,4.8556572265625,-0.017543839290738106,0.0065380604937672615,0.01938435062766075
1782845812684662300,4.865662353515625,-0.015368569642305374,-0.0024831313639879227,0.024817464873194695
1782845812694667300,4.875667236328125,-0.008094944059848785,-0.0112196309491992,0.023667778819799423
1782845812704672300,4.88567236328125,-0.004244812298566103,-0.009250489994883537,0.009632919915020466
1782845812714677200,4.89567724609375,-0.002968625631183386,-0.006955111399292946,-0.0036581179592758417
1782845812724682200,4.90568212890625,-0.002360359765589237,-0.003221625927835703,-0.015853265300393105
1782845812734687200,4.915687255859375,-0.002088717184960842,0.003936684690415859,-0.028800755739212036
1782845812744692200,4.925692138671875,-0.0013784521725028753,0.01486656442284584,-0.0389828197658062
1782845812754697200,4.935697265625,-0.0008500810363329947,0.014152304269373417,-0.03527676314115524
1782845812764702200,4.9457021484375,0.0013036173768341541,0.008837167173624039,-0.03317100182175636
1782845812774707200,4.955707275390625,-0.000609863898716867,0.0017544905422255397,-0.025669677183032036
1782845812784712200,4.965712158203125,0.0010101370280608535,-0.004522846546024084,-0.01685408130288124
1782845812794717200,4.97571728515625,-0.00541260838508606,-0.010102701373398304,-0.006572681479156017
1782845812804722400,4.985722412109375,-0.006702377460896969,-0.010852647945284843,-0.0010050770360976458
1782845812814727400,4.9957275390625,-0.010155964642763138,-0.005921804811805487,0.0000697748182574287
1782845812824732400,5.005732421875,-0.013946175575256348,-0.00729413190856576,0.0023672839161008596
1782845812834737400,5.0157373046875,-0.008500543422996998,-0.0017744642682373524,0.002283926820382476
1782845812844742400,5.025742431640625,-0.007779892534017563,0.005651494022458792,0.005132177844643593
1782845812854747400,5.035747314453125,-0.005633118096739054,0.005686914082616568,0.01062414888292551
1782845812864752400,5.04575244140625,-0.0013041499769315124,0.008010522462427616,0.013738182373344898
1782845812874757400,5.05575732421875,0.0003933488915208727,0.009453688748180866,0.017474863678216934
1782845812884762400,5.065762451171875,0.002627208363264799,0.0021379857789725065,0.01519786100834608
1782845812894768000,5.07576806640625,0.007760184817016125,0.0032551817130297422,0.011533884331583977
1782845812904773000,5.085773193359375,0.01107262447476387,-0.0057281930930912495,0.008461661636829376
1782845812914778000,5.095778076171875,0.008665925823152065,-0.008248874917626381,0.0031699605751782656
1782845812924783000,5.105783203125,0.008578307926654816,-0.00794474221765995,-0.0062488410621881485
1782845812934788400,5.115788330078125,0.008185491897165775,-0.003593935864046216,-0.009251821786165237
1782845812944793300,5.12579345703125,0.009322129189968109,-0.002681004349142313,-0.019782759249210358
1782845812954798300,5.13579833984375,0.010512296110391617,-0.0046538738533854485,-0.023566313087940216
1782845812964803300,5.14580322265625,0.014414092525839806,-0.003457049373537302,-0.022051772102713585
1782845812974808300,5.155808349609375,0.017079917713999748,-0.004923652391880751,-0.020789965987205505
1782845812984813300,5.165813232421875,0.020238159224390984,-0.005149488337337971,-0.018331602215766907
1782845812994818300,5.175818359375,0.023569773882627487,-0.009810819290578365,-0.007237406447529793
1782845813004823300,5.1858232421875,0.0244267787784338,-0.012888900935649872,-0.010366620495915413
1782845813014828300,5.195828369140625,0.025561286136507988,-0.014766163192689419,-0.01224468182772398
1782845813024833300,5.205833251953125,0.02353009395301342,-0.013437245041131973,-0.013591708615422249
1782845813034838300,5.21583837890625,0.018223745748400688,-0.015429023653268814,-0.014485465362668037
1782845813044843300,5.22584326171875,0.009740245528519154,-0.017077254131436348,-0.0166183914989233
1782845813054848300,5.23584814453125,0.001258876291103661,-0.015360847115516663,-0.017178187146782875
1782845813064853200,5.245853271484375,-0.0061535001732409,-0.012991432100534439,-0.021139374002814293
1782845813074858200,5.255858154296875,-0.014851383864879608,-0.012811402790248394,-0.018746789544820786
1782845813084863200,5.26586328125,-0.019873039796948433,-0.006999852601438761,-0.015139804221689701
1782845813094868200,5.2758681640625,-0.022366823628544807,-0.0035931370221078396,-0.0040948763489723206
1782845813104873200,5.285873291015625,-0.023551398888230324,-0.01010989211499691,0.006997189484536648
1782845813114878700,5.295878662109375,-0.018275143578648567,-0.015509450808167458,0.013569604605436325
1782845813124883700,5.3058837890625,-0.013189571909606457,-0.01793479174375534,0.013645504601299763
1782845813134888700,5.315888671875,-0.007677094545215368,-0.01756354793906212,0.014859640039503574
1782845813144893700,5.325893798828125,-0.0059479037299752235,-0.013963219709694386,0.012943228706717491
1782845813154898700,5.335898681640625,-0.004138019867241383,-0.00481393001973629,0.013104083947837353
1782845813164903700,5.345903564453125,-0.005400890484452248,0.0065069012343883514,0.015482020564377308
1782845813174908700,5.35590869140625,-0.00803262647241354,0.006106095854192972,0.020005932077765465
1782845813184913700,5.36591357421875,-0.0070704263634979725,0.0008434231276623905,0.027601001784205437
1782845813194918700,5.375918701171875,-0.0049643986858427525,-0.00478383619338274,0.03172463923692703
1782845813204923600,5.385923583984375,-0.0033515882678329945,-0.0073561836034059525,0.035897813737392426
1782845813214928600,5.3959287109375,-0.00021598236344289035,-0.008642490021884441,0.03454865515232086
1782845813224933600,5.40593359375,0.002642654813826084,-0.009789779782295227,0.03146551549434662
1782845813234938600,5.415938720703125,0.0024825986474752426,-0.00865953415632248,0.02389680966734886
1782845813244943600,5.425943603515625,0.005691441707313061,-0.00993039458990097,0.013607688248157501
1782845813254948600,5.435948486328125,0.0057255299761891365,-0.00660570478066802,0.005775597412139177
1782845813264953600,5.44595361328125,0.0042144525796175,-0.013673733919858932,-0.0001382180635118857
1782845813274958600,5.45595849609375,-0.00013901700731366873,-0.017166202887892723,-0.002385925967246294
1782845813284963600,5.465963623046875,-0.0013784521725028753,-0.014644456095993519,-0.002834135899320245
1782845813294968600,5.475968505859375,-0.006401173770427704,-0.009882192127406597,-0.006325540132820606
1782845813304973600,5.4859736328125,-0.012004464864730835,-0.008957808837294579,-0.005624329671263695
1782845813314978600,5.495978515625,-0.011512579396367073,-0.00800386443734169,-0.006929545197635889
1782845813324983600,5.505983642578125,-0.01311979629099369,-0.013954964466392994,-0.00196354859508574
1782845813334988500,5.515988525390625,-0.006178000941872597,-0.01859951764345169,0.0012580773327499628
1782845813344993500,5.52599365234375,-0.00544403400272131,-0.0186621006578207,0.005662146955728531
1782845813354998500,5.53599853515625,-0.005154281854629517,-0.01948927901685238,0.011323761194944382
1782845813365003500,5.54600341796875,-0.006849916651844978,-0.018084727227687836,0.010646252892911434
1782845813375008500,5.556008544921875,-0.005607551895081997,-0.016213323920965195,0.01122309360653162
1782845813385013500,5.566013427734375,-0.008388158865272999,-0.014024739153683186,0.009004147723317146
1782845813395018500,5.5760185546875,-0.003863980295136571,-0.0022218753583729267,0.004269579891115427
1782845813405023500,5.5860234375,-0.003656253917142749,0.0018189389957115054,0.006647516507655382
1782845813415028500,5.596028564453125,0.004856273997575045,0.0012037487467750907,0.006758836563676596
1782845813425033500,5.606033447265625,0.014038853347301483,-0.006171609275043011,0.004912200383841991
1782845813435038500,5.61603857421875,0.023250726982951164,-0.010970626026391983,-0.0001328917423961684
1782845813445043500,5.62604345703125,0.028065722435712814,-0.011699266731739044,-0.00957006961107254
1782845813455048400,5.63604833984375,0.02604891173541546,-0.007765511516481638,-0.013843643479049206
1782845813465053400,5.646053466796875,0.02329094149172306,-0.008297877386212349,-0.019725235179066658
1782845813475058400,5.656058349609375,0.01895185373723507,-0.01110405009239912,-0.014056696556508541
1782845813485063700,5.666063720703125,0.01853586733341217,-0.016413060948252678,-0.012922722846269608
1782845813495068700,5.676068603515625,0.0188975241035223,-0.01269875094294548,-0.0070397998206317425
1782845813505073700,5.68607373046875,0.013073191046714783,-0.013155749067664146,-0.0003408846096135676
1782845813515078700,5.69607861328125,0.012831109575927258,-0.012740829028189182,0.008509332314133644
1782845813525083600,5.706083740234375,0.018684737384319305,-0.021197430789470673,0.014970693737268448
1782845813535088600,5.716088623046875,0.020713534206151962,-0.021623803302645683,0.014386395923793316
1782845813545093600,5.72609375,0.02317536063492298,-0.014730476774275303,0.005628857295960188
1782845813555098600,5.7360986328125,0.023489613085985184,-0.013827398419380188,-0.002258626976981759
1782845813565103600,5.746103515625,0.02340412512421608,-0.01074159424751997,-0.0014660701854154468
1782845813575108600,5.756108642578125,0.017541708424687386,-0.010465158149600029,-0.0024074974935501814
1782845813585113600,5.766113525390625,0.014169881120324135,-0.011844941414892673,-0.00720491586253047
1782845813595118600,5.77611865234375,0.015193866565823555,-0.009612413123250008,-0.0101375887170434
1782845813605123600,5.78612353515625,0.015578427352011204,-0.008460329845547676,-0.016954481601715088
1782845813615128600,5.796128662109375,0.016757674515247345,-0.011213771998882294,-0.021869612857699394
1782845813625133600,5.806133544921875,0.014615427702665329,-0.014462029561400414,-0.019957462325692177
1782845813635138600,5.816138671875,0.019639747217297554,-0.014945659786462784,-0.021676266565918922
1782845813645143600,5.8261435546875,0.018126007169485092,-0.019101256504654884,-0.01991378702223301
1782845813655148500,5.8361484375,0.019273295998573303,-0.019054118543863297,-0.01588602177798748
1782845813665153500,5.846153564453125,0.022820893675088882,-0.016379239037632942,-0.011979963630437851
1782845813675158500,5.856158447265625,0.021141504868865013,-0.011759720742702484,-0.006622216198593378
1782845813685163500,5.86616357421875,0.023571372032165527,-0.008227303624153137,0.0015984292840585113
1782845813695168500,5.87616845703125,0.02129916287958622,-0.007888282649219036,0.012630308046936989
1782845813705173500,5.886173583984375,0.021576931700110435,-0.011372762732207775,0.0235213041305542
1782845813715178500,5.896178466796875,0.021134313195943832,-0.013710752129554749,0.031978171318769455
1782845813725183500,5.90618359375,0.01996838115155697,-0.011435613967478275,0.029450567439198494
1782845813735188500,5.9161884765625,0.015125690028071404,-0.0034413367975503206,0.027590349316596985
1782845813745193500,5.926193359375,0.0112784868106246,0.004252802114933729,0.020620323717594147
1782845813755198500,5.936198486328125,0.010526143945753574,0.008615326136350632,0.020009661093354225
1782845813765203500,5.946203369140625,0.012369584292173386,0.004036553204059601,0.01763385534286499
1782845813775208400,5.95620849609375,0.012918994762003422,-0.005913815461099148,0.022471753880381584
1782845813785213400,5.96621337890625,0.017851434648036957,-0.012234828434884548,0.015959259122610092
1782845813795218400,5.976218505859375,0.02117799036204815,-0.016536366194486618,0.006955910474061966
1782845813805223400,5.986223388671875,0.02244831807911396,-0.009941314347088337,-0.0038450718857347965
1782845813815228400,5.996228515625,0.018917499110102654,-0.0030250847339630127,-0.013263873755931854
1782845813825233400,6.0062333984375,0.016226373612880707,0.004233360756188631,-0.02327948994934559
1782845813835238400,6.01623828125,0.01335788331925869,0.008951150812208652,-0.024900022894144058
1782845813845243400,6.026243408203125,0.0076422072015702724,0.006039516534656286,-0.02304220199584961
1782845813855248400,6.036248291015625,0.007790811359882355,-0.0033981935121119022,-0.014822089113295078
1782845813865253400,6.04625341796875,0.009670737199485302,-0.012407667003571987,-0.011012704111635685
1782845813875258400,6.05625830078125,0.007871771231293678,-0.014799718745052814,-0.00759933004155755
1782845813885263400,6.066263427734375,0.011322695761919022,-0.020228838548064232,-0.007258978206664324
1782845813895268600,6.0762685546875,0.008085623383522034,-0.022368954494595528,-0.003680754918605089
1782845813905273600,6.086273681640625,0.01381141971796751,-0.022658973932266235,0.0009600695921108127
1782845813915278600,6.096278564453125,0.012118981219828129,-0.01882774941623211,0.004325772635638714
1782845813925283600,6.10628369140625,0.011949070729315281,-0.00987287051975727,0.003712979145348072
1782845813935288600,6.11628857421875,0.012026302516460419,-0.0025331987999379635,0.0044176517985761166
1782845813945293600,6.12629345703125,0.01210007257759571,-0.0035292210523039103,0.00746084563434124
1782845813955298600,6.136298583984375,0.010394318029284477,-0.007004646118730307,0.010243582539260387
1782845813965303600,6.146303466796875,0.010745588690042496,-0.005913549102842808,0.010612696409225464
1782845813975308500,6.15630859375,0.016038887202739716,-0.008957542479038239,0.0063798688352108
1782845813985313500,6.1663134765625,0.018252506852149963,-0.009137039072811604,0.0019686087034642696
1782845813995318500,6.176318603515625,0.0219122227281332,-0.011640677228569984,-0.01437973789870739
1782845814005323800,6.18632373046875,0.023973776027560234,-0.01281619630753994,-0.021286113187670708
1782845814015328800,6.196328857421875,0.027601800858974457,-0.01068220566958189,-0.029151760041713715
1782845814025333800,6.206333740234375,0.023367373272776604,-0.007779093459248543,-0.027065439149737358
1782845814035338800,6.2163388671875,0.01979847252368927,-0.006617156323045492,-0.028742698952555656
1782845814045343700,6.22634375,0.017174193635582924,-0.0037092508282512426,-0.024891501292586327
1782845814055348700,6.2363486328125,0.011306717060506344,-0.00433136522769928,-0.020310331135988235
1782845814065353700,6.246353759765625,0.008666458539664745,-0.005738579668104649,-0.010638263076543808
1782845814075358700,6.256358642578125,0.005556153133511543,-0.015229286625981331,-0.000788561999797821
1782845814085363700,6.26636376953125,0.000969656917732209,-0.017620006576180458,-0.0017603494925424457
1782845814095368700,6.27636865234375,-0.0029236183036118746,-0.013977867551147938,-0.007065100129693747
1782845814105373700,6.286373779296875,-0.0010583401890471578,-0.013738182373344898,-0.016994429752230644
1782845814115378700,6.296378662109375,-0.006339388433843851,-0.01076849177479744,-0.022657908499240875
1782845814125383200,6.306383056640625,-0.011002849787473679,-0.0060293967835605145,-0.026437200605869293
1782845814135388200,6.31638818359375,-0.011264372617006302,-0.0013406352372840047,-0.025652365759015083
1782845814145393200,6.32639306640625,-0.011877964250743389,0.005230980925261974,-0.020491426810622215
1782845814155398100,6.336398193359375,-0.013103817589581013,0.009853163734078407,-0.011267834343016148
1782845814165403100,6.346403076171875,-0.012553342618048191,0.0012516856659203768,-0.0032176312524825335
1782845814175408000,6.356408203125,-0.011435880325734615,-0.008261391893029213,0.00947925541549921
1782845814185413000,6.3664130859375,-0.01278503704816103,-0.014086257666349411,0.012689163908362389
1782845814195418000,6.376418212890625,-0.008716792799532413,-0.0118502676486969,0.010187390260398388
1782845814205423000,6.386423095703125,-0.008341286331415176,-0.013939251191914082,0.003930026665329933
1782845814215428000,6.396427978515625,-0.009260077029466629,-0.01465564128011465,-0.0017121462151408195
1782845814225433000,6.40643310546875,-0.00965768750756979,-0.012266785837709904,-0.005387042183429003
1782845814235438000,6.41643798828125,-0.012622051872313023,-0.005191300064325333,-0.011965849436819553
1782845814245443000,6.426443115234375,-0.014508368447422981,-0.002823749789968133,-0.016938237473368645
1782845814255448000,6.436447998046875,-0.014513429254293442,-0.0010892328573390841,-0.016687633469700813
1782845814265453000,6.446453125,-0.01571051962673664,-0.003995274193584919,-0.015799203887581825
1782845814275458000,6.4564580078125,-0.021469073370099068,-0.0043444144539535046,-0.010549846105277538
1782845814285463000,6.466463134765625,-0.01769670471549034,-0.01630653440952301,-0.004641090985387564
1782845814295468000,6.476468017578125,-0.017796840518712997,-0.027543211355805397,0.003165699541568756
1782845814305473000,6.48647314453125,-0.01372326910495758,-0.03032940998673439,0.0009651295840740204
1782845814315478000,6.49647802734375,-0.011718175373971462,-0.030829017981886864,-0.002460494404658675
1782845814325483000,6.50648291015625,-0.007537544704973698,-0.02418469823896885,-0.0067716194316744804
1782845814335488000,6.516488037109375,-0.003923901356756687,-0.014005830511450768,-0.019344402477145195
1782845814345493000,6.526492919921875,-0.0031726236920803785,0.006839530076831579,-0.02863910235464573
1782845814355498000,6.536498046875,-0.003644003299996257,0.02275271713733673,-0.02743508666753769
1782845814365503000,6.5465029296875,-0.0086001455783844,0.02646649442613125,-0.01648949459195137
1782845814375508000,6.556508056640625,-0.007399593014270067,0.013295299373567104,0.004748416133224964
1782845814385513000,6.566512939453125,-0.004999818746000528,0.0019449065439403057,0.026311231777071953
1782845814395518000,6.57651806640625,-0.0011768508702516556,-0.004022172186523676,0.04300525784492493
1782845814405523000,6.58652294921875,0.0007446198142133653,-0.012397280894219875,0.05004985257983208
1782845814415528000,6.59652783203125,0.007917843759059906,-0.009236108511686325,0.04579651728272438
1782845814425533200,6.606533203125,0.0065348646603524685,-0.0010993528412654996,0.03728718310594559
1782845814435538200,6.6165380859375,0.0047055394388735294,0.010665161535143852,0.028206603601574898
1782845814445543200,6.626543212890625,0.0003802994033321738,0.012952283956110477,0.02135615423321724
1782845814455548200,6.636548095703125,-0.005848301574587822,0.009663812816143036,0.016505740582942963
1782845814465553200,6.64655322265625,-0.011654791422188282,0.0030836742371320724,0.01543381717056036
1782845814475558100,6.65655810546875,-0.020316191017627716,-0.004006725735962391,0.010959972627460957
1782845814485563100,6.666563232421875,-0.028070516884326935,-0.004126035608351231,0.0025872609112411737
1782845814495568100,6.676568115234375,-0.025201493874192238,-0.0006948187365196645,-0.007754059974104166
1782845814505573000,6.686572998046875,-0.022291457280516624,-0.00037044569035060704,-0.011937086470425129
1782845814515578000,6.696578125,-0.018317222595214844,-0.0027885958552360535,-0.013206349685788155
1782845814525583000,6.7065830078125,-0.005938316695392132,-0.007308779284358025,-0.01088780164718628
1782845814535588000,6.716588134765625,0.0026639599818736315,-0.009119195863604546,-0.009246495552361012
1782845814545593000,6.726593017578125,0.009456885047256947,-0.006818757392466068,-0.008212655782699585
1782845814555598000,6.73659814453125,0.010576211847364902,-0.0019859191961586475,-0.008108792826533318
1782845814565603000,6.74660302734375,0.015852998942136765,0.0005965480813756585,-0.008086156100034714
1782845814575608000,6.756608154296875,0.017227189615368843,0.005536445416510105,-0.00827790331095457
1782845814585613000,6.766613037109375,0.023028086870908737,0.0014831144362688065,-0.006134058814495802
1782845814595618000,6.7766181640625,0.025848375633358955,-0.0012293151812627912,-0.008353270590305328
1782845814605623000,6.786623046875,0.03334464132785797,-0.0028826056513935328,-0.011809521354734898
1782845814615628000,6.7966279296875,0.036918338388204575,-0.006127933505922556,-0.01991485245525837
1782845814625633000,6.806633056640625,0.04267901927232742,-0.005403021350502968,-0.02352583222091198
1782845814635638000,6.816637939453125,0.045156028121709824,-0.00316037330776453,-0.030918234959244728
1782845814645643000,6.82664306640625,0.04290379211306572,0.0012186624808236957,-0.034280743449926376
1782845814655648000,6.83664794921875,0.038612108677625656,-0.00004713794987765141,-0.03809492290019989
1782845814665653000,6.846653076171875,0.03304050862789154,0.0022953785955905914,-0.032763805240392685
1782845814675658000,6.856657958984375,0.020733507350087166,0.002514024032279849,-0.023786822333931923
1782845814685663000,6.8666630859375,0.00884888507425785,0.00033688987605273724,-0.010609767399728298
1782845814695668000,6.87666796875,-0.001353152096271515,-0.003067961661145091,0.00666296249255538
1782845814705673000,6.8866728515625,-0.007763913366943598,-0.009474728256464005,0.015481754206120968
1782845814715678000,6.896677978515625,-0.016161926090717316,-0.011177287437021732,0.027483290061354637
1782845814725683000,6.906682861328125,-0.02221236191689968,-0.008130097761750221,0.030072415247559547
1782845814735688000,6.91668798828125,-0.02486034296452999,-0.003977697342634201,0.024107733741402626
1782845814745693000,6.92669287109375,-0.02767024375498295,0.004799549002200365,0.01010856032371521
1782845814755698000,6.936697998046875,-0.02881806530058384,0.009317602030932903,0.0020122844725847244
1782845814765703000,6.946702880859375,-0.02563505619764328,0.006599845830351114,-0.0023451796732842922
1782845814775708000,6.9567080078125,-0.02142939157783985,0.002061286708340049,0.0006298375665210187
1782845814785713000,6.966712890625,-0.026730148121714592,-0.0028274781070649624,0.0022572954185307026
1782845814795718000,6.9767177734375,-0.02382437326014042,-0.005811017472296953,0.011632154695689678
1782845814805723000,6.986722900390625,-0.02732616290450096,-0.0008114652009680867,0.020625649020075798
1782845814815727900,6.996727783203125,-0.028723523020744324,-0.0016215987270697951,0.027086744084954262
1782845814825732900,7.00673291015625,-0.025403359904885292,-0.002656503114849329,0.026756778359413147
1782845814835737900,7.01673779296875,-0.022163892164826393,-0.00600436283275485,0.01799657754600048
1782845814845743000,7.0267431640625,-0.02082804962992668,-0.00264798104763031,0.007465106900781393
1782845814855748000,7.036748046875,-0.01762213744223118,-0.001568069215863943,-0.01179247722029686
1782845814865753000,7.046753173828125,-0.015096128918230534,-0.00700864102691412,-0.027403661981225014
1782845814875758000,7.056758056640625,-0.00812051072716713,-0.004431233741343021,-0.044322188943624496
1782845814885763000,7.06676318359375,-0.008101069368422031,-0.004827245604246855,-0.04855315387248993
1782845814895768000,7.07676806640625,-0.003549727378413081,-0.00526640098541975,-0.043177299201488495
1782845814905773000,7.08677294921875,0.000054861116950633004,-0.007751130498945713,-0.029377862811088562
1782845814915778000,7.096778076171875,0.006253102328628302,-0.010577809065580368,-0.017167801037430763
1782845814925783000,7.106782958984375,0.013278520666062832,-0.008953280746936798,-0.004400873556733131
1782845814935788000,7.1167880859375,0.014554974623024464,-0.007441138383001089,0.0073532541282474995
1782845814945793000,7.12679296875,0.018073542043566704,-0.004997155629098415,0.01623702608048916
1782845814955798300,7.13679833984375,0.020659739151597023,-0.0005270395777188241,0.019301526248455048
1782845814965803300,7.14680322265625,0.018391257151961327,0.0029140308033674955,0.017772872000932693
1782845814975808300,7.156808349609375,0.02309652976691723,0.0060086240991950035,0.012969594448804855
1782845814985813200,7.166813232421875,0.019205385819077492,0.007412642706185579,0.007131678983569145
1782845814995818200,7.176818359375,0.02155136503279209,0.008565524592995644,0.004779042676091194
1782845815005823200,7.1868232421875,0.02209491655230522,0.005773200653493404,0.006332198157906532
1782845815015828200,7.196828125,0.02153804898262024,0.004399808589369059,0.006118612363934517
1782845815025833200,7.206833251953125,0.02118411473929882,0.002502039773389697,0.009384180419147015
1782845815035838200,7.216838134765625,0.01799231581389904,0.007107976824045181,0.0073351445607841015
1782845815045843200,7.22684326171875,0.013935789465904236,0.009407882578670979,0.0013347762869670987
1782845815055848200,7.23684814453125,0.013759488239884377,0.008313323371112347,-0.002026399364694953
1782845815065853200,7.246853271484375,0.012051336467266083,0.003221093211323023,-0.0017728663515299559
1782845815075858200,7.256858154296875,0.015835687518119812,0.0018868496408686042,-0.003394465195015073
1782845815085863200,7.26686328125,0.013546967878937721,0.006786799523979425,-0.0037230991292744875
1782845815095868200,7.2768681640625,0.01751774176955223,0.006607036106288433,-0.001425057533197105
1782845815105873200,7.286873046875,0.016162991523742676,0.0022032330743968487,0.004083957523107529
1782845815115878100,7.296878173828125,0.017670340836048126,-0.00043542683124542236,0.004120708908885717
1782845815125883600,7.306883544921875,0.016223976388573647,-0.004575044382363558,0.004805940669029951
1782845815135888600,7.316888671875,0.008792959153652191,-0.005526858381927013,0.0059993029572069645
1782845815145893600,7.3268935546875,0.007400658447295427,-0.0025627599097788334,0.007865113206207752
1782845815155898600,7.336898681640625,0.006734335329383612,0.004211789462715387,0.007991347461938858
1782845815165902600,7.346902587890625,0.004715126473456621,0.010056895203888416,0.011391138657927513
1782845815175908900,7.356908935546875,0.004576109815388918,0.0142329977825284,0.015539544634521008
1782845815185912600,7.36691259765625,0.006744721904397011,0.007106379140168428,0.025424133986234665
1782845815195918800,7.3769189453125,0.014134461060166359,0.009730657562613487,0.02767983078956604
1782845815205922600,7.386922607421875,0.019771574065089226,0.00538357999175787,0.03238324075937271
1782845815215927600,7.396927490234375,0.021085577085614204,0.0031345405150204897,0.03393905982375145
1782845815225933800,7.406933837890625,0.024032099172472954,-0.0009054747642949224,0.031441014260053635
1782845815235937500,7.4169375,0.021698104217648506,0.004372910596430302,0.027397535741329193
1782845815245942500,7.426942626953125,0.017402159050107002,0.006076268386095762,0.018271414563059807
1782845815255947500,7.436947509765625,0.01287798210978508,0.011947739869356155,0.018683938309550285
1782845815265952500,7.446952392578125,0.00869362335652113,0.009723201394081116,0.015744874253869057
1782845815275957500,7.45695751953125,0.0062634884379804134,0.003236273303627968,0.014062555506825447
1782845815285962500,7.46696240234375,0.005587844643741846,0.005903162993490696,0.00896819494664669
1782845815295967500,7.476967529296875,0.002544117858633399,0.00276196445338428,0.0014644722687080503
1782845815305972500,7.486972412109375,-0.00008841694943839684,-0.0009693906176835299,-0.005544168874621391
1782845815315977500,7.4969775390625,-0.0002868224401026964,0.0004796353168785572,-0.014860172756016254
1782845815325982500,7.506982421875,0.0038488004356622696,0.005652293097227812,-0.019268503412604332
1782845815335987500,7.516987548828125,0.0037550569977611303,0.0037111148703843355,-0.017423996701836586
1782845815345992700,7.52699267578125,0.004033623728901148,-0.00008335694292327389,-0.012163455598056316
1782845815355997700,7.536997802734375,0.008073372766375542,0.003388073528185487,-0.006213953718543053
1782845815366002700,7.547002685546875,0.007358047645539045,0.005567071959376335,0.002086320426315069
1782845815376007700,7.557007568359375,0.00893810112029314,0.001344896387308836,0.012043613009154797
1782845815386012700,7.5670126953125,0.010493920184671879,-0.0009278453071601689,0.012956811115145683
1782845815396017700,7.577017578125,0.010290454141795635,0.0035665053874254227,0.01344443578273058
1782845815406023000,7.58702294921875,0.008448611944913864,0.0022655511274933815,0.01637338101863861
1782845815416028000,7.59702783203125,0.009979130700230598,-0.002373675350099802,0.015142734162509441
1782845815426033000,7.607032958984375,0.007841144688427448,-0.005270129535347223,0.007830492220818996
1782845815436038000,7.617037841796875,0.0028415927663445473,-0.00390259618870914,0.000931307440623641
1782845815446043000,7.62704296875,0.0013499563792720437,-0.007250189781188965,-0.0029201561119407415
1782845815456047900,7.6370478515625,-0.003923634998500347,-0.007199855986982584,-0.00629065278917551
1782845815466052900,7.647052978515625,-0.00836925022304058,-0.00618039770051837,-0.008187356404960155
1782845815476057900,7.657057861328125,-0.011241203173995018,-0.00857564527541399,-0.010092581622302532
1782845815486062800,7.667062744140625,-0.01062281709164381,-0.011575696058571339,-0.007495200727134943
1782845815496067800,7.67706787109375,-0.011547733098268509,-0.01190885715186596,-0.012724317610263824
1782845815506072800,7.68707275390625,-0.01594354584813118,-0.010785269550979137,-0.009981527924537659
1782845815516077800,7.697077880859375,-0.017779795452952385,-0.011597800068557262,-0.0025779400020837784
1782845815526082800,7.707082763671875,-0.019593941047787666,-0.010536530055105686,-0.00210682675242424
1782845815536087800,7.717087890625,-0.015676431357860565,-0.012340555898845196,-0.0031140341889113188
1782845815546092800,7.7270927734375,-0.009216668084263802,-0.010340522043406963,-0.007697867229580879
1782845815556097800,7.737097900390625,-0.006954845041036606,-0.009096559137105942,-0.009355152025818825
1782845815566102800,7.747102783203125,-0.0005688511882908642,-0.005496498197317123,-0.008285626769065857
1782845815576107800,7.757107666015625,-0.002123870886862278,0.00004234426160110161,-0.011903797276318073
1782845815586112800,7.76711279296875,0.0013688647886738181,0.006929012481123209,-0.007708253338932991
1782845815596117800,7.77711767578125,-0.0018554243724793196,0.007860053330659866,-0.0046333675272762775
1782845815606122800,7.787122802734375,0.00037923414492979646,0.006972954608500004,-0.0034410704392939806
1782845815616127700,7.797127685546875,-0.0003587277897167951,-0.003862382611259818,0.008787366561591625
1782845815626132700,7.8071328125,0.0016817862633615732,-0.01740029640495777,0.01594807393848896
1782845815636137700,7.8171376953125,0.004495682194828987,-0.023504793643951416,0.018931346014142036
1782845815646142700,7.827142822265625,0.006625944748520851,-0.016878582537174225,0.014282799325883389
1782845815656147700,7.837147705078125,0.010152236558496952,-0.010998588986694813,0.006015814375132322
1782845815666152700,7.847152587890625,0.013073723763227463,-0.006932741031050682,0.002115881536155939
1782845815676157700,7.85715771484375,0.013196761719882488,-0.0017060210229828954,-0.0113988621160388
1782845815686162700,7.86716259765625,0.01146597322076559,-0.000494016392622143,-0.01266652625054121
1782845815696167700,7.877167724609375,0.008329036645591259,-0.0013435647124424577,-0.012533368542790413
1782845815706172700,7.887172607421875,0.00449914438650012,-0.005825931206345558,-0.014870292507112026
1782845815716177700,7.897177734375,0.0014684670604765415,-0.014243118464946747,-0.006836600601673126
1782845815726182700,7.9071826171875,-0.0025923210196197033,-0.015331818722188473,0.0010980212828144431
1782845815736187600,7.917187744140625,-0.00609251344576478,-0.015751799568533897,0.004610198084264994
1782845815746192600,7.927192626953125,-0.005155080929398537,-0.02034149132668972,0.005703425966203213
1782845815756197600,7.93719775390625,-0.005003546830266714,-0.01618429645895958,0.011235077865421772
1782845815766202600,7.94720263671875,-0.007648066151887178,-0.008564460091292858,0.009940781630575657
1782845815776207600,7.95720751953125,-0.004472246393561363,-0.0018431737553328276,0.01587723381817341
1782845815786212600,7.967212646484375,-0.002481533447280526,0.00032623723382130265,0.023244069889187813
1782845815796217600,7.977217529296875,0.0031558459158986807,0.0041220407001674175,0.031210649758577347
1782845815806222600,7.98722265625,0.006640325766056776,0.0007494135061278939,0.034879419952631
1782845815816227600,7.9972275390625,0.009662481024861336,-0.001014398061670363,0.036248818039894104
1782845815826232600,8.007232666015625,0.01537682581692934,-0.0059750680811703205,0.03305515646934509
1782845815836237600,8.017237548828126,0.021741248667240143,-0.00800279900431633,0.022942600771784782
1782845815846242600,8.02724267578125,0.021744709461927414,-0.007095459848642349,0.012986638583242893
1782845815856247600,8.03724755859375,0.02286110632121563,-0.0019006980583071709,-0.0034762241411954165
1782845815866252500,8.04725244140625,0.022275477647781372,0.003349457634612918,-0.015790147706866264
1782845815876257500,8.057257568359375,0.020979849621653557,0.004406466148793697,-0.0182943195104599
1782845815886262500,8.067262451171874,0.019153455272316933,0.005638178437948227,-0.018082598224282265
1782845815896267800,8.077267822265625,0.018279405310750008,-0.001264468883164227,-0.014620753936469555
1782845815906272800,8.087272705078124,0.018322814255952835,-0.0006761765689589083,-0.009679258801043034
1782845815916277800,8.09727783203125,0.016406403854489326,-0.004091148264706135,-0.008460329845547676
1782845815926282800,8.10728271484375,0.015017032623291016,0.00020346550445538014,-0.008854477666318417
1782845815936287700,8.117287841796875,0.015598134137690067,0.0031936627347022295,-0.010581005364656448
1782845815946292700,8.127292724609376,0.014902516268193722,0.005531119182705879,-0.002639725338667631
1782845815956297700,8.137297607421875,0.010713363997638226,0.007836351171135902,-0.0024687503464519978
1782845815966302700,8.147302734375,0.013981861993670464,0.007744472473859787,0.004047205671668053
1782845815976307700,8.1573076171875,0.005938849411904812,0.005608617328107357,0.004582235123962164
1782845815986312700,8.167312744140625,0.005042162723839283,0.005771336145699024,0.014459899626672268
1782845815996317700,8.177317626953124,-0.0008333030855283141,0.00449781259521842,0.02046852372586727
1782845816006322700,8.18732275390625,-0.0006407565670087934,0.005316202063113451,0.027882497757673264
1782845816016327700,8.19732763671875,-0.006110356654971838,0.00626029260456562,0.032220520079135895
1782845816026332700,8.207332763671875,-0.007735417690128088,0.007228884380310774,0.03669117018580437
1782845816036337700,8.217337646484374,-0.009680324234068394,0.0022301310673356056,0.038786545395851135
1782845816046342700,8.2273427734375,-0.009068063460290432,-0.0012567456578835845,0.03726028650999069
1782845816056347600,8.23734765625,-0.003801928833127022,0.004335626028478146,0.02936294861137867
1782845816066352600,8.2473525390625,-0.0006074670236557722,0.005596100352704525,0.020167052745819092
1782845816076357600,8.257357666015626,0.0020391824655234814,0.005498628597706556,0.008676046505570412
1782845816086362600,8.267362548828125,0.0075575183145701885,0.007727428339421749,0.0032498554792255163
1782845816096367600,8.27736767578125,0.00866219773888588,0.006930077914148569,-0.0002567287301644683
1782845816106372600,8.28737255859375,0.016149675473570824,-0.0010926949325948954,0.0011435613268986344
1782845816116377600,8.297377685546875,0.015835421159863472,-0.001972337020561099,0.001580319833010435
1782845816126382600,8.307382568359374,0.016410931944847107,-0.004734035115689039,0.005950567312538624
1782845816136387600,8.3173876953125,0.014362427406013012,0.0013294500531628728,0.0049156625755131245
1782845816146392600,8.327392578125,0.013501959852874279,0.006305566523224115,0.0067660268396139145
1782845816156397600,8.3373974609375,0.011537079699337482,0.006965231616050005,0.003439206164330244
1782845816166402600,8.347402587890626,0.014570953324437141,0.0032772859558463097,0.008584166876971722
1782845816176407600,8.357407470703125,0.013689180836081505,0.0028130970895290375,-0.0033755565527826548
1782845816186412500,8.36741259765625,0.017109744250774384,-0.004328702110797167,-0.008160724304616451
1782845816196417500,8.37741748046875,0.015746206045150757,-0.007004379760473967,-0.010836934670805931
1782845816206422500,8.387422607421875,0.013126187957823277,-0.004496747627854347,-0.01167556457221508
1782845816216427500,8.397427490234374,0.013822072185575962,0.0011329087428748608,-0.015452725812792778
1782845816226432500,8.4074326171875,0.012799684889614582,0.0037321539130061865,-0.016809074208140373
1782845816236437500,8.4174375,0.010488593950867653,0.0043649207800626755,-0.008680040948092937
1782845816246442500,8.4274423828125,0.010022540576756,0.005351355765014887,-0.006683202926069498
1782845816256447500,8.437447509765626,0.011216968297958374,0.001996571896597743,0.004197141621261835
1782845816266452500,8.447452392578125,0.011354919523000717,0.0011819108622148633,0.010239321738481522
1782845816276457500,8.45745751953125,0.014131531119346619,0.0012492889072746038,0.012169847264885902
1782845816286462500,8.46746240234375,0.011199657805263996,-0.0013345100451260805,0.009555954486131668
1782845816296467500,8.477467529296876,0.00926407240331173,-0.004326837603002787,0.005115399602800608
1782845816306472400,8.487472412109375,0.004683701321482658,-0.0027348001021891832,-0.0019742012955248356
1782845816316477400,8.4974775390625,0.001800030586309731,-0.005732986610382795,-0.00487331859767437
1782845816326482400,8.507482421875,-0.0017984326696023345,-0.002822950715199113,-0.003771835006773472
1782845816336487400,8.5174873046875,-0.002633866388350725,-0.0033076461404561996,-0.0024767396971583366
1782845816346492400,8.527492431640624,-0.005334311630576849,0.000147272803587839,0.002311357529833913
1782845816356497400,8.537497314453125,-0.0036674391012638807,0.00008388957212446257,0.007225422188639641
1782845816366502400,8.54750244140625,-0.0018615495646372437,-0.00010972223390126601,0.013033243827521801
1782845816376507600,8.557507568359375,0.00011717908637365326,-0.00692022405564785,0.018608838319778442
1782845816386512600,8.5675126953125,0.003059173235669732,-0.012555206194519997,0.018642393872141838
1782845816396517600,8.577517578125,0.007750864140689373,-0.01264255866408348,0.015680160373449326
1782845816406522600,8.587522705078126,0.0032597091048955917,-0.006909305229783058,0.013680924661457539
1782845816416527600,8.597527587890625,0.006342850625514984,-0.002383795566856861,0.011386877857148647
1782845816426532600,8.60753271484375,0.005636313930153847,-0.004795287735760212,0.01341673918068409
1782845816436537600,8.61753759765625,0.008838232606649399,-0.005952697712928057,0.020239224657416344
1782845816446542600,8.62754248046875,0.010003365576267242,-0.006865629460662603,0.01871350035071373
1782845816456547600,8.637547607421874,0.01071176677942276,-0.010160758160054684,0.019285013899207115
1782845816466552600,8.647552490234375,0.010974354110658169,-0.008550078608095646,0.02009967528283596
1782845816476557600,8.6575576171875,0.012343484908342361,-0.001958222361281514,0.018151573836803436
1782845816486562600,8.6675625,0.010407100431621075,0.005311674904078245,0.023740217089653015
1782845816496567600,8.677567626953126,-0.00017443705291952938,0.00595642626285553,0.09512118995189667
1782845816506571500,8.687571533203124,0.005102616734802723,0.02936800941824913,0.07411390542984009
1782845816516576500,8.697576416015625,0.0062403189949691296,0.03774391487240791,0.007290936075150967
1782845816526581500,8.70758154296875,0.022012092173099518,-0.0017744642682373524,-0.03490844741463661
1782845816536586500,8.71758642578125,0.03668983653187752,-0.033367544412612915,-0.05789525806903839
1782845816546591500,8.727591552734374,0.041857436299324036,-0.04073624312877655,-0.06884058564901352
1782845816556596500,8.737596435546875,0.04068005084991455,-0.04400474205613136,-0.06897533684968948
1782845816566601500,8.7476015625,0.02515994757413864,-0.0422595739364624,-0.05537617206573486
1782845816576606500,8.7576064453125,0.01667937822639942,-0.02713707834482193,-0.025427062064409256
1782845816586611500,8.767611572265626,0.01630227454006672,-0.014096910133957863,-0.0014183996245265007
