time,seconds_elapsed,z,y,x
1782845807894760000,0.075760009765625,0.01727076806128025,-0.02081381157040596,-0.005221811588853598
1782845807904765000,0.085764892578125,0.015649743378162384,-0.023495130240917206,-0.011428345926105976
1782845807914770000,0.09577001953125,0.01580633781850338,-0.021437836810946465,-0.015484873205423355
1782845807924775000,0.10577490234375,0.01706981472671032,-0.016632551327347755,-0.017280416563153267
1782845807934780000,0.11577978515625,0.012996776029467583,-0.0070560891181230545,-0.020152369514107704
1782845807944785000,0.125784912109375,0.007220808416604996,-0.002265669172629714,-0.01440336275845766
1782845807954790000,0.135789794921875,0.0036582977045327425,-0.0010150487069040537,-0.005036492832005024
1782845807964795000,0.145794921875,-0.0016871258849278092,0.0022120492067188025,0.005247530993074179
1782845807974800000,0.1557998046875,-0.008020122535526752,-0.00012514088302850723,0.013569111004471779
1782845807984804900,0.165804931640625,-0.013945027254521847,-0.007288584019988775,0.022819219157099724
1782845807994809900,0.175809814453125,-0.0204993337392807,-0.01100795529782772,0.023623228073120117
1782845808004814800,0.18581494140625,-0.031692761927843094,-0.007190239150077105,0.01564861834049225
1782845808014819800,0.19581982421875,-0.03413062170147896,-0.006542025599628687,0.010202187113463879
1782845808024824800,0.205824951171875,-0.03583362698554993,-0.0023588293697685003,0.008424983359873295
1782845808034829800,0.215829833984375,-0.03812208026647568,-0.0017052895855158567,0.010063359513878822
1782845808044834800,0.225834716796875,-0.03772347792983055,-0.0013874545693397522,0.01424110122025013
1782845808054839800,0.23583984375,-0.036838777363300323,-0.0026069157756865025,0.018593505024909973
1782845808064844800,0.2458447265625,-0.037595126777887344,-0.0014708349481225014,0.019486233592033386
1782845808074849800,0.255849853515625,-0.03966067358851433,0.0019369461806491017,0.016477659344673157
1782845808084854800,0.265854736328125,-0.042593758553266525,0.004603543318808079,0.018524112179875374
1782845808094859800,0.27585986328125,-0.04177111014723778,0.002765429439023137,0.018475644290447235
1782845808104864800,0.28586474609375,-0.041398629546165466,-0.0029091606847941875,0.013764625415205956
1782845808114870500,0.29587060546875,-0.033693570643663406,-0.003338196314871311,0.008893170394003391
1782845808124875500,0.30587548828125,-0.031947601586580276,-0.003959511406719685,-0.001199677586555481
1782845808134880500,0.315880615234375,-0.02312454953789711,-0.0011639916338026524,-0.006912424229085445
1782845808144886500,0.325886474609375,-0.020097091794013977,0.003291696310043335,-0.008908390067517757
1782845808154891500,0.3358916015625,-0.018204117193818092,0.010571978986263275,-0.007403437979519367
1782845808164896500,0.345896484375,-0.02237079106271267,0.008125283755362034,-0.009640643373131752
1782845808174901500,0.355901611328125,-0.019113745540380478,0.009588425047695637,-0.008163386955857277
1782845808184906500,0.365906494140625,-0.017665432766079903,0.009661830961704254,-0.0039181187748909
1782845808194911500,0.375911376953125,-0.020645510405302048,0.0015884583117440343,0.0061683375388383865
1782845808204916500,0.38591650390625,-0.017740268260240555,0.004169860389083624,0.0009858258999884129
1782845808214921500,0.39592138671875,-0.015099210664629936,0.010166499763727188,-0.006206572987139225
1782845808224926500,0.405926513671875,-0.012085353955626488,0.01758265309035778,-0.018766002729535103
1782845808234931500,0.415931396484375,-0.005608545616269112,0.0167943574488163,-0.020283471792936325
1782845808244936400,0.4259365234375,-0.004604588262736797,0.011256871744990349,-0.02078806608915329
1782845808254941400,0.43594140625,0.004036569967865944,0.010370304808020592,-0.020463427528738976
1782845808264946400,0.445946533203125,0.01043258048593998,0.008084173314273357,-0.01712857559323311
1782845808274951400,0.455951416015625,0.007732401601970196,0.007760865613818169,-0.01388857327401638
1782845808284956400,0.465956298828125,0.009883563965559006,0.009207083843648434,-0.01194191724061966
1782845808294961400,0.47596142578125,0.013894018717110157,0.012286762706935406,-0.012526215054094791
1782845808304966400,0.48596630859375,0.013492880389094353,0.01680747978389263,-0.015386870130896568
1782845808314971400,0.495971435546875,0.011772211641073227,0.013205288909375668,-0.013433707877993584
1782845808324976400,0.505976318359375,0.008369490504264832,0.006184929516166449,-0.014279794879257679
1782845808334981400,0.5159814453125,0.00408792681992054,0.001818943303078413,-0.019652189686894417
1782845808344986400,0.525986328125,0.002310266951099038,0.000598949147388339,-0.022577138617634773
1782845808354991400,0.535991455078125,-0.003977722488343716,-0.0005834943149238825,-0.027464305981993675
1782845808364996400,0.545996337890625,-0.005186234600841999,0.001905690529383719,-0.0267668254673481
1782845808375001300,0.55600146484375,-0.007924230769276619,0.003140331944450736,-0.026141248643398285
1782845808385006300,0.56600634765625,-0.0032235581893473864,0.005628377199172974,-0.026477033272385597
1782845808395011300,0.57601123046875,-0.0024057014379650354,0.006142367143183947,-0.018537085503339767
1782845808405016300,0.586016357421875,-0.0016104691894724965,0.0028501912020146847,-0.01785455457866192
1782845808415021300,0.596021240234375,0.0016764041502028704,-0.0010920860804617405,-0.020429830998182297
1782845808425026300,0.6060263671875,0.00420778151601553,-0.00820810068398714,-0.025613179430365562
1782845808435031300,0.61603125,0.0053018080070614815,-0.008041919209063053,-0.03426392748951912
1782845808445036300,0.626036376953125,0.009401296265423298,-0.004121311008930206,-0.042173322290182114
1782845808455041500,0.63604150390625,0.011218104511499405,0.0017192676896229386,-0.04785730689764023
1782845808465046500,0.646046630859375,0.007464785128831863,0.004134633578360081,-0.04522759094834328
1782845808475051500,0.656051513671875,0.003698808839544654,0.011763258837163448,-0.03876329958438873
1782845808485056500,0.666056396484375,0.001230772351846099,0.01086773443967104,-0.02386683039367199
1782845808495061500,0.6760615234375,-0.0021977811120450497,0.006236230954527855,-0.015008356422185898
1782845808505066500,0.68606640625,-0.0030710860155522823,0.0024308643769472837,-0.0049196952022612095
1782845808515071500,0.696071533203125,0.00030713388696312904,0.001241496647708118,0.0001166084548458457
1782845808525076500,0.706076416015625,-0.003090920392423868,0.0036467425525188446,0.002692798851057887
1782845808535081500,0.71608154296875,-0.0019902358762919903,-0.001486766617745161,-0.0004188386374153197
1782845808545086500,0.72608642578125,-0.00371805252507329,0.00010682037100195885,-0.00368045037612319
1782845808555091500,0.736091552734375,-0.005925546400249004,0.0010967173147946596,-0.011360207572579384
1782845808565096400,0.746096435546875,-0.008708646520972252,0.0011492548510432243,-0.015649382025003433
1782845808575101400,0.756101318359375,-0.009156590327620506,0.002056327648460865,-0.025824520736932755
1782845808585106400,0.7661064453125,-0.016489550471305847,0.004553282633423805,-0.02598678320646286
1782845808595111400,0.776111328125,-0.021127445623278618,0.0008445645216852427,-0.024342812597751617
1782845808605116400,0.786116455078125,-0.024427464231848717,-0.0019325066823512316,-0.023323241621255875
1782845808615121400,0.796121337890625,-0.022927839308977127,0.0015242762165144086,-0.020660612732172012
1782845808625126400,0.80612646484375,-0.014499061740934849,-0.0003443190362304449,-0.018992295488715172
1782845808635131400,0.81613134765625,-0.008064331486821175,0.0001792584080249071,-0.022735901176929474
1782845808645136400,0.826136474609375,0.004076923243701458,0.00038546021096408367,-0.025412796065211296
1782845808655141400,0.836141357421875,0.010645875707268715,-0.002811398357152939,-0.029322583228349686
1782845808665146400,0.846146484375,0.014892286621034145,0.002362058497965336,-0.031850188970565796
1782845808675151400,0.8561513671875,0.01772455871105194,-0.00000575813464820385,-0.03290506824851036
1782845808685156400,0.86615625,0.019603950902819633,-0.004285724367946386,-0.026776600629091263
1782845808695161300,0.876161376953125,0.024239450693130493,-0.00402207113802433,-0.025100674480199814
1782845808705166300,0.886166259765625,0.025065379217267036,-0.006770283915102482,-0.01978614553809166
1782845808715171300,0.89617138671875,0.028780490159988403,-0.00852930173277855,-0.021188300102949142
1782845808725177600,0.906177490234375,0.023908207193017006,-0.0037224902771413326,-0.013317059725522995
1782845808735182600,0.9161826171875,0.023786233738064766,0.0009827825706452131,-0.009293822571635246
1782845808745187600,0.9261875,0.023307185620069504,0.007030264008790255,-0.009073654189705849
1782845808755192600,0.936192626953125,0.022408368065953255,0.007627611048519611,-0.002677274402230978
1782845808765197600,0.946197509765625,0.02356707490980625,0.005161719396710396,0.004306176211684942
1782845808775202600,0.95620263671875,0.018215717747807503,0.00042981491424143314,-0.0003511596587486565
1782845808785207600,0.96620751953125,0.01830739714205265,0.0045065805315971375,-0.00036565179470926523
1782845808795212500,0.976212646484375,0.012655636295676231,0.010009204037487507,0.0006636599428020418
1782845808805217500,0.986217529296875,0.011319250799715519,0.006051456555724144,-0.0008769421256147325
1782845808815222500,0.996222412109375,0.0094867292791605,0.011128507554531097,0.004580407403409481
1782845808825227500,1.0062275390625,0.005456470884382725,0.011764543130993843,0.008654091507196426
1782845808835232500,1.016232421875,0.0021613414864987135,0.019287174567580223,0.020088905468583107
1782845808845237500,1.026237548828125,0.006871100049465895,0.015889296308159828,0.02862730622291565
1782845808855242500,1.036242431640625,0.015172705054283142,0.018325822427868843,0.03253842145204544
1782845808865247500,1.04624755859375,0.01998395286500454,0.017191143706440926,0.03107817843556404
1782845808875252500,1.05625244140625,0.02034427970647812,0.015932001173496246,0.03028295747935772
1782845808885257500,1.066257568359375,0.025391381233930588,0.015496334061026573,0.027060186490416527
1782845808895262500,1.076262451171875,0.024455014616250992,0.019607722759246826,0.01648637093603611
1782845808905267500,1.086267333984375,0.025930993258953094,0.02300242707133293,0.0024871244095265865
1782845808915272400,1.0962724609375,0.028049005195498466,0.02275076135993004,-0.007225423585623503
1782845808925277400,1.10627734375,0.023550191894173622,0.01950436644256115,-0.011723081581294537
1782845808935282400,1.116282470703125,0.018772214651107788,0.013144204393029213,-0.01126661617308855
1782845808945287400,1.126287353515625,0.01837216690182686,0.01168590597808361,-0.014107371680438519
1782845808955292400,1.13629248046875,0.015266920439898968,0.01462576910853386,-0.015251199714839458
1782845808965297400,1.14629736328125,0.01777489297091961,0.008961105719208717,-0.018117332831025124
1782845808975302400,1.156302490234375,0.017704319208860397,0.010846356861293316,-0.02177518419921398
1782845808985307400,1.166307373046875,0.015986016020178795,0.0068833790719509125,-0.02187718264758587
1782845808995312400,1.1763125,0.011355845257639885,0.006189625710248947,-0.016574827954173088
1782845809005317400,1.1863173828125,0.005485492758452892,0.004575458820909262,-0.013002539984881878
1782845809015322400,1.196322265625,-0.00048318388871848583,0.016236908733844757,-0.011132467538118362
1782845809025327400,1.206327392578125,-0.007900322787463665,0.015668518841266632,-0.004411716014146805
1782845809035332400,1.216332275390625,-0.009512334130704403,0.005858231335878372,0.005914957262575626
1782845809045337300,1.22633740234375,-0.010742897167801857,-0.0021768880542367697,0.012832708656787872
1782845809055342300,1.23634228515625,-0.012251578271389008,-0.009306970052421093,0.011200189590454102
1782845809065347300,1.246347412109375,-0.013036453165113926,-0.012738404795527458,0.004380938597023487
1782845809075352300,1.256352294921875,-0.015277236700057983,-0.006549217738211155,0.0011244250927120447
1782845809085357300,1.266357421875,-0.01903415657579899,0.000303095206618309,-0.007884249091148376
1782845809095362300,1.2763623046875,-0.024851033464074135,0.0021199039183557034,-0.004261818248778582
1782845809105367300,1.2863671875,-0.02653673104941845,0.004189616069197655,-0.0062739127315580845
1782845809115372300,1.296372314453125,-0.024774517863988876,0.00596674345433712,-0.00391728151589632
1782845809125377300,1.306377197265625,-0.024720944464206696,0.01402914896607399,0.001149876625277102
1782845809135382300,1.31638232421875,-0.019185831770300865,0.016811886802315712,0.003678548149764538
1782845809145387300,1.32638720703125,-0.01740134321153164,0.009122880175709724,0.008108562789857388
1782845809155392300,1.336392333984375,-0.012881159782409668,-0.001258121570572257,0.010785839520394802
1782845809165397200,1.346397216796875,-0.01095722708851099,-0.009869454428553581,0.0074128336273133755
1782845809175402200,1.35640234375,-0.009756406769156456,-0.006529051344841719,0.0002204347401857376
1782845809185407200,1.3664072265625,-0.010205373167991638,-0.002713055582717061,-0.002607614267617464
1782845809195412200,1.376412109375,-0.011009648442268372,0.003511018119752407,-0.0005790844443254173
1782845809205417200,1.386417236328125,-0.007792496122419834,0.0022718245163559914,0.005720547400414944
1782845809215422200,1.396422119140625,-0.005852116271853447,-0.0004078480415046215,0.013602705672383308
1782845809225427500,1.406427490234375,-0.006062881089746952,-0.003652860876172781,0.018635431304574013
1782845809235432400,1.416432373046875,-0.005425586365163326,0.0016644066199660301,0.01854621432721615
1782845809245437400,1.4264375,-0.005153072066605091,-0.006591512821614742,0.023490866646170616
1782845809255442400,1.4364423828125,-0.0017077408265322447,-0.013403345830738544,0.017698490992188454
1782845809265447400,1.446447509765625,0.003957074135541916,-0.021873386576771736,0.009964827448129654
1782845809275452400,1.456452392578125,0.00720027182251215,-0.020083477720618248,-0.0033182213082909584
1782845809285458400,1.46645849609375,0.009493496268987656,-0.011548890732228756,-0.012542802840471268
1782845809295463400,1.47646337890625,0.015131939202547073,-0.01081758737564087,-0.0188776645809412
1782845809305468400,1.486468505859375,0.014921719208359718,-0.01473342627286911,-0.020001936703920364
1782845809315473400,1.496473388671875,0.014290817081928253,-0.021206505596637726,-0.019701533019542694
1782845809325478400,1.506478515625,0.011319020763039589,-0.02652399241924286,-0.01709570363163948
1782845809335483400,1.5164833984375,0.004521834198385477,-0.022450687363743782,-0.009464949369430542
1782845809345488400,1.52648828125,-0.0017830419819802046,-0.017952559515833855,-0.013940239325165749
1782845809355493400,1.536493408203125,-0.004438746254891157,-0.01497434638440609,-0.009785974398255348
1782845809365498400,1.546498291015625,0.00011322507634758949,-0.007891476154327393,-0.008596453815698624
1782845809375503400,1.55650341796875,0.005599603056907654,-0.01052534207701683,-0.0026935581117868423
1782845809385508400,1.56650830078125,0.012765861116349697,-0.014273160137236118,-0.0008684555068612099
1782845809395513300,1.576513427734375,0.014752047136425972,-0.01013221126049757,-0.0026644915342330933
1782845809405518300,1.586518310546875,0.01666560024023056,-0.0132913738489151,-0.0034064874053001404
1782845809415523300,1.5965234375,0.013546239584684372,-0.01912556029856205,-0.009790351614356041
1782845809425528300,1.6065283203125,0.0065279691480100155,-0.020420074462890625,-0.007208377588540316
1782845809435533300,1.616533203125,-0.0036375829949975014,-0.01737688109278679,-0.0018010956700891256
1782845809445538300,1.626538330078125,-0.012207604944705963,-0.022172506898641586,0.0017566194292157888
1782845809455543300,1.636543212890625,-0.01663644053041935,-0.024439387023448944,0.006689326371997595
1782845809465548300,1.64654833984375,-0.02019985392689705,-0.023013340309262276,0.0031566843390464783
1782845809475553300,1.65655322265625,-0.025475310161709785,-0.018149342387914658,-0.0005957096582278609
1782845809485558300,1.666558349609375,-0.029505429789423943,-0.011444350704550743,-0.005620067473500967
1782845809495563300,1.676563232421875,-0.030079873278737068,-0.0068437401205301285,-0.005462674889713526
1782845809505568300,1.686568359375,-0.031472157686948776,-0.006645962595939636,-0.007253615185618401
1782845809515573200,1.6965732421875,-0.03562189266085625,-0.006162332370877266,-0.009101582691073418
1782845809525578200,1.706578125,-0.03733394294977188,-0.0052880896255373955,-0.010143258608877659
1782845809535583200,1.716583251953125,-0.038446612656116486,-0.007073473185300827,-0.007873978465795517
1782845809545588200,1.726588134765625,-0.042386479675769806,-0.0017010543961077929,0.00022172811441123486
1782845809555593200,1.73659326171875,-0.04330234229564667,-0.005120020359754562,0.0036518797278404236
1782845809565598200,1.74659814453125,-0.03976462036371231,-0.011525237001478672,0.008211551234126091
1782845809575603200,1.756603271484375,-0.03758775070309639,-0.010985147207975388,0.006361985579133034
1782845809585608200,1.766608154296875,-0.030862096697092056,-0.002276127692312002,0.006502716802060604
1782845809595613200,1.77661328125,-0.028944620862603188,-0.00005185534246265888,0.004831050522625446
1782845809605618200,1.7866181640625,-0.023016618564724922,-0.0003939257003366947,0.005491208750754595
1782845809615623200,1.796623046875,-0.014880129136145115,-0.0017353601288050413,0.0021753066685050726
1782845809625628200,1.806628173828125,-0.007774470839649439,0.001935830106958747,0.005622087046504021
1782845809635633200,1.816633056640625,0.00396847166121006,0.009190547280013561,0.008510817773640156
1782845809645638100,1.82663818359375,0.009803718887269497,0.017961792647838593,0.013512342236936092
1782845809655643100,1.83664306640625,0.012545975856482983,0.019738653674721718,0.018075667321681976
1782845809665648000,1.846648193359375,0.013140076771378517,0.018641864880919456,0.020287392660975456
1782845809675653000,1.856653076171875,0.014366197399795055,0.01555925514549017,0.023699967190623283
1782845809685658000,1.866658203125,0.014217634685337543,0.012975141406059265,0.03212616965174675
1782845809695663000,1.8766630859375,0.013687665574252605,0.005367822013795376,0.03247983753681183
1782845809705668000,1.886668212890625,0.010992703959345818,0.0001653865911066532,0.023807136341929436
1782845809715673000,1.896673095703125,0.011072066612541676,0.0038858226034790277,0.014946534298360348
1782845809725678000,1.906677978515625,0.011754840612411499,0.00900243129581213,-0.0029160839039832354
1782845809735683300,1.916683349609375,0.00947144627571106,0.0177538450807333,-0.012555128894746304
1782845809745688300,1.926688232421875,0.010262380354106426,0.021644942462444305,-0.01737005077302456
1782845809755693300,1.936693359375,0.008249031379818916,0.023273197934031487,-0.01593860052525997
1782845809765698300,1.9466982421875,0.005350501276552677,0.020256878808140755,-0.009995033033192158
1782845809775703300,1.956703369140625,0.004923596046864986,0.016889045014977455,0.0037668514996767044
1782845809785708300,1.966708251953125,0.0027149824891239405,0.00656852126121521,0.014316240325570107
1782845809795713300,1.97671337890625,-0.0005857392679899931,0.0043700821697711945,0.020850306376814842
1782845809805718300,1.98671826171875,-0.004774292930960655,0.006686498410999775,0.020242726430296898
1782845809815723300,1.99672314453125,-0.006509608589112759,0.011689778417348862,0.019194239750504494
1782845809825728300,2.006728271484375,-0.012250415980815887,0.015003889799118042,0.012807827442884445
1782845809835733200,2.016733154296875,-0.019451603293418884,0.018737908452749252,0.014115439727902412
1782845809845738200,2.02673828125,-0.022198036313056946,0.01565919816493988,0.01705043390393257
1782845809855744300,2.036744140625,-0.028518516570329666,0.011990692466497421,0.02533659338951111
1782845809865749200,2.046749267578125,-0.023075813427567482,0.007045735139399767,0.025193048641085625
1782845809875754200,2.056754150390625,-0.022741319611668587,0.011154459789395332,0.020873934030532837
1782845809885759200,2.06675927734375,-0.01681220903992653,0.01532027404755354,0.013868143782019615
1782845809895764200,2.07676416015625,-0.010431010276079178,0.016646262258291245,0.0035750260576605797
1782845809905769500,2.08676953125,-0.0036247267853468657,0.014295707456767559,-0.00020750012481585145
1782845809915774500,2.0967744140625,0.002032359829172492,0.016006790101528168,0.0018322148825973272
1782845809925779500,2.106779541015625,0.009300949051976204,0.015423071570694447,0.009145182557404041
1782845809935784400,2.116784423828125,0.007871098816394806,0.014722393825650215,0.019433505833148956
1782845809945789400,2.12678955078125,0.009757360443472862,0.009885052219033241,0.025752196088433266
1782845809955794400,2.13679443359375,0.01271932851523161,-0.002647251356393099,0.028197776526212692
1782845809965799400,2.14679931640625,0.01162722148001194,-0.0012195550370961428,0.027776123955845833
1782845809975804400,2.156804443359375,0.010429862886667252,0.006974459160119295,0.017806580290198326
1782845809985809400,2.166809326171875,0.005090588703751564,0.011865281499922276,0.005888821091502905
1782845809995814400,2.176814453125,0.0036367690190672874,0.015921808779239655,-0.0032759150490164757
1782845810005819400,2.1868193359375,-0.0026134701911360025,0.010233297944068909,-0.012247726321220398
1782845810015824400,2.196824462890625,-0.001835028175264597,0.001835551462136209,-0.013607802800834179
1782845810025829400,2.206829345703125,-0.0031773156952112913,-0.0020635577384382486,-0.012307839468121529
1782845810035834400,2.21683447265625,-0.0029365660157054663,-0.0034302922431379557,-0.010260667651891708
1782845810045839400,2.22683935546875,-0.0019186632707715034,-0.0019376387353986502,-0.008959751576185226
1782845810055844400,2.23684423828125,-0.0061067501083016396,0.0019108953420072794,-0.002062696497887373
1782845810065849300,2.246849365234375,-0.008017471991479397,0.005327924154698849,-0.0028412514366209507
1782845810075854300,2.256854248046875,-0.007176712155342102,0.001027718186378479,0.0016749370843172073
1782845810085859300,2.266859375,-0.0051329173147678375,-0.0019900063052773476,0.0005406201235018671
1782845810095864300,2.2768642578125,-0.003380823414772749,-0.0051421234384179115,0.000005058420356363058
1782845810105869300,2.286869384765625,-0.0025555286556482315,-0.00534655898809433,-0.009166104719042778
1782845810115875600,2.29687548828125,-0.0028322311118245125,-0.005534579046070576,-0.013616778887808323
1782845810125880600,2.306880615234375,-0.003254226641729474,-0.0018073865212500095,-0.02380318194627762
1782845810135885600,2.316885498046875,-0.003126927651464939,-0.0008973842486739159,-0.02754545584321022
1782845810145890600,2.326890625,-0.004757925868034363,0.00008849566802382469,-0.026983117684721947
1782845810155895600,2.3368955078125,-0.0032899915240705013,0.0035604587756097317,-0.024499719962477684
1782845810165900500,2.346900634765625,-0.0012761035468429327,0.007958545349538326,-0.01805923692882061
1782845810175905500,2.356905517578125,0.0012602910865098238,0.004741712938994169,-0.009353629313409328
1782845810185910500,2.36691064453125,0.0007253044750541449,-0.0018278209026902914,0.001531470799818635
1782845810195915500,2.37691552734375,0.002204424235969782,-0.008901708759367466,0.007408800534904003
1782845810205920500,2.38692041015625,0.002608522307127714,-0.01488324161618948,0.003551631234586239
1782845810215925500,2.396925537109375,0.00472307251766324,-0.01181687880307436,0.0033263275399804115
1782845810225930500,2.406930419921875,0.0021559002343565226,-0.0048448918387293816,-0.006952752359211445
1782845810235935500,2.416935546875,0.004153004847466946,-0.0034776246175169945,-0.012907847762107849
1782845810245940500,2.4269404296875,0.003585859900340438,0.005430866032838821,-0.018257489427924156
1782845810255945500,2.436945556640625,-0.0007737347623333335,0.007907605729997158,-0.02201920561492443
1782845810265950500,2.446950439453125,-0.0034994068555533886,0.004992122761905193,-0.015083839185535908
1782845810275955500,2.45695556640625,-0.0071655148640275,0.0016147021669894457,-0.007042424753308296
1782845810285960400,2.46696044921875,-0.005596519447863102,-0.004670236259698868,0.0019722608849406242
1782845810295965400,2.47696533203125,-0.008029050193727016,-0.00459460262209177,0.001087292330339551
1782845810305970400,2.486970458984375,-0.0065321726724505424,-0.0015281422529369593,-0.0010482199722900987
1782845810315975400,2.496975341796875,-0.008133265189826488,0.001423705485649407,-0.012287292629480362
1782845810325980400,2.50698046875,-0.005413560196757317,0.00644952617585659,-0.016065329313278198
1782845810335985400,2.5169853515625,-0.004475860856473446,0.010378487408161163,-0.023618586361408234
1782845810345990400,2.526990478515625,-0.0050741154700517654,0.00367589364759624,-0.01737811788916588
1782845810355995400,2.536995361328125,-0.003300716634839773,-0.001880259020254016,-0.009436039254069328
1782845810366000400,2.54700048828125,-0.004543130286037922,0.0011447265278548002,-0.005323086865246296
1782845810376005400,2.55700537109375,-0.006589237134903669,0.0006400574930012226,0.005031283479183912
1782845810386010400,2.56701025390625,-0.00660922285169363,0.001931933336891234,0.0074920812621712685
1782845810396015400,2.577015380859375,-0.008327494375407696,0.0074502695351839066,0.009854305535554886
1782845810406021400,2.587021484375,-0.008404224179685116,0.0059709553606808186,0.0104865413159132
1782845810416026400,2.5970263671875,-0.007185028865933418,0.0029418759513646364,0.01153582613915205
1782845810426030300,2.6070302734375,-0.007854759693145752,0.0029857931658625603,0.008870191872119904
1782845810436035300,2.617035400390625,-0.009305649437010288,0.002897110069170594,0.008746088482439518
1782845810446041300,2.627041259765625,-0.009826375171542168,0.004074204713106155,0.011685037054121494
1782845810456046300,2.63704638671875,-0.014634180814027786,0.0067405616864562035,0.00825488567352295
1782845810466051300,2.64705126953125,-0.015133843757212162,0.008353396318852901,0.006361452862620354
1782845810476056300,2.657056396484375,-0.017575163394212723,0.007661241106688976,0.0029491446912288666
1782845810486061300,2.667061279296875,-0.022012660279870033,0.008547928184270859,0.0007439320906996727
1782845810496066300,2.67706640625,-0.024547457695007324,0.002374188741669059,0.006422856822609901
1782845810506071300,2.6870712890625,-0.02734239026904106,0.003162992186844349,0.008405239321291447
1782845810516076300,2.697076171875,-0.02072017453610897,-0.0011571876239031553,0.00647018663585186
1782845810526081300,2.707081298828125,-0.0188797265291214,-0.006729708053171635,0.005258983466774225
1782845810536086300,2.717086181640625,-0.016972102224826813,-0.004803177900612354,-0.0019864123314619064
1782845810546091300,2.72709130859375,-0.018055502325296402,0.0022059488110244274,-0.007409865967929363
1782845810556096500,2.737096435546875,-0.020522121340036392,0.007393786683678627,-0.012807561084628105
1782845810566101500,2.7471015625,-0.02045942097902298,0.015054733492434025,-0.011855027638375759
1782845810576106500,2.7571064453125,-0.016986392438411713,0.02245326153934002,-0.007721001747995615
1782845810586111500,2.767111572265625,-0.015289027243852615,0.018926968798041344,0.0010043556103482842
1782845810596116500,2.777116455078125,-0.009229537099599838,0.008959288708865643,0.01237418968230486
1782845810606121500,2.78712158203125,-0.0033134878613054752,-0.0018219125922769308,0.020703982561826706
1782845810616126500,2.79712646484375,0.0013616911601275206,-0.0029183358419686556,0.023242507129907608
1782845810626131500,2.80713134765625,0.006410148926079273,-0.0005709526594728231,0.01837223209440708
1782845810636136400,2.817136474609375,0.011334866285324097,0.004255760461091995,0.008593371137976646
1782845810646141400,2.827141357421875,0.015484102070331573,0.007825123146176338,-0.005640162155032158
1782845810656146400,2.837146484375,0.015851350501179695,0.009832082316279411,-0.017612135037779808
1782845810666151400,2.8471513671875,0.014753730036318302,0.011708276346325874,-0.025540854781866074
1782845810676156400,2.857156494140625,0.01025804691016674,0.009414762258529663,-0.02563566341996193
1782845810686161400,2.867161376953125,0.004687489476054907,0.008925491943955421,-0.0198538675904274
1782845810696166400,2.87716650390625,0.0006972751580178738,0.002487033838406205,-0.017677532508969307
1782845810706171400,2.88717138671875,-0.0008387395646423101,-0.002525641117244959,-0.015767892822623253
1782845810716176400,2.89717626953125,-0.0033983036410063505,-0.003530451562255621,-0.014463475905358791
1782845810726181600,2.907181640625,-0.0026733186095952988,-0.004469070117920637,-0.011198480613529682
1782845810736186600,2.9171865234375,-0.0006434571696445346,-0.012891050428152084,-0.008860758505761623
1782845810746191600,2.927191650390625,-0.001772219897247851,-0.012356918305158615,-0.012451419606804848
1782845810756196600,2.937196533203125,0.0021500836592167616,-0.00829879380762577,-0.016037898138165474
1782845810766201600,2.94720166015625,0.0022294882219284773,-0.002510993741452694,-0.024642877280712128
1782845810776206600,2.95720654296875,0.0005996336694806814,0.0007135616615414619,-0.0247091893106699
1782845810786211600,2.967211669921875,-0.0009215216850861907,0.0019353715470060706,-0.025843733921647072
1782845810796216600,2.977216552734375,-0.0024331319145858288,0.0066744666546583176,-0.02385728247463703
1782845810806221600,2.9872216796875,-0.005635358858853579,0.007259877864271402,-0.017713598906993866
1782845810816226600,2.9972265625,-0.005901408847421408,0.005790079478174448,-0.010082576423883438
1782845810826231600,3.0072314453125,-0.006039935164153576,-0.000043260399252176285,0.0020707976073026657
1782845810836236500,3.017236572265625,-0.005956312175840139,-0.007685467600822449,0.012498671188950539
1782845810846241500,3.027241455078125,-0.005318770185112953,-0.0066643161699175835,0.01698872447013855
1782845810856246500,3.03724658203125,-0.008630677126348019,-0.005154569633305073,0.018775971606373787
1782845810866251500,3.04725146484375,-0.008107081055641174,-0.0006920064333826303,0.010542046278715134
1782845810876256500,3.057256591796875,-0.004232980776578188,0.004454818554222584,0.0034612342715263367
1782845810886261500,3.067261474609375,-0.003585801925510168,0.008179443888366222,-0.010266831144690514
1782845810896266500,3.0772666015625,0.0023972555063664913,0.008843636140227318,-0.015186754055321217
1782845810906271500,3.087271484375,0.0037860211450606585,0.010507432743906975,-0.017453065142035484
1782845810916276500,3.0972763671875,0.0037633844185620546,0.004610927775502205,-0.01207214780151844
1782845810926281500,3.107281494140625,0.008154192939400673,0.0010702309664338827,-0.018362075090408325
1782845810936286500,3.117286376953125,0.0075997221283614635,-0.000042703934013843536,-0.024752862751483917
1782845810946291500,3.12729150390625,0.014220038428902626,-0.007050083950161934,-0.02540336549282074
1782845810956296400,3.13729638671875,0.02134399488568306,-0.011013134382665157,-0.03062555566430092
1782845810966301400,3.147301513671875,0.022954098880290985,-0.011581137776374817,-0.035744380205869675
1782845810976306400,3.157306396484375,0.02797495573759079,-0.002665141364559531,-0.037260252982378006
1782845810986311400,3.1673115234375,0.02725081332027912,0.0013709511840716004,-0.03846346586942673
1782845810996316400,3.17731640625,0.02700527012348175,0.0014367311960086226,-0.03210756555199623
1782845811006321400,3.1873212890625,0.023439720273017883,0.0024072369560599327,-0.026179486885666847
1782845811016326400,3.197326416015625,0.019586391746997833,-0.0011262453626841307,-0.01988377422094345
1782845811026331400,3.207331298828125,0.02087290585041046,-0.0054169874638319016,-0.014709248207509518
1782845811036336400,3.21733642578125,0.01912320777773857,-0.011438660323619843,-0.010516100563108921
1782845811046341400,3.22734130859375,0.022393641993403435,-0.009569773450493813,-0.012531621381640434
1782845811056347400,3.237347412109375,0.02477717213332653,-0.008666163310408592,-0.016382286325097084
1782845811066352400,3.247352294921875,0.024810655042529106,-0.007110757753252983,-0.017438454553484917
1782845811076357400,3.257357421875,0.024760054424405098,-0.0058910297229886055,-0.017855238169431686
1782845811086362400,3.2673623046875,0.020912935957312584,0.004427025094628334,-0.0209637563675642
1782845811096367400,3.277367431640625,0.017504356801509857,0.01198347844183445,-0.019130436703562737
1782845811106372400,3.287372314453125,0.010194627568125725,0.01415405236184597,-0.014451608993113041
1782845811116376300,3.297376220703125,0.007796984165906906,0.019666530191898346,-0.004880208056420088
1782845811126381300,3.30738134765625,0.0006068546790629625,0.01644717901945114,0.00813424214720726
1782845811136386300,3.31738623046875,0.0011594605166465044,0.015227984637022018,0.015377773903310299
1782845811146391300,3.327391357421875,-0.0007619133684784174,0.005106034688651562,0.022696826606988907
1782845811156396300,3.337396240234375,-0.0035302694886922836,-0.0016693135257810354,0.023947447538375854
1782845811166401300,3.3474013671875,-0.008101948536932468,0.0009648923296481371,0.02022712491452694
1782845811176406300,3.35740625,-0.014742806553840637,0.003220323473215103,0.013706107623875141
1782845811186411300,3.367411376953125,-0.022071504965424538,0.010986609384417534,0.00677622202783823
1782845811196416300,3.377416259765625,-0.027819672599434853,0.010741065256297588,0.007582094520330429
1782845811206421200,3.387421142578125,-0.031226471066474915,0.011651696637272835,0.011126039549708366
1782845811216426500,3.397426513671875,-0.03232875466346741,0.02262818068265915,0.015108530409634113
1782845811226431500,3.407431396484375,-0.03199133276939392,0.021696873009204865,0.03117884323000908
1782845811236436500,3.4174365234375,-0.02920673042535782,0.018525049090385437,0.04242084547877312
1782845811246441500,3.42744140625,-0.028792355209589005,0.015589157119393349,0.055560916662216187
1782845811256446500,3.437446533203125,-0.021031372249126434,0.008448156528174877,0.058263227343559265
1782845811266451500,3.447451416015625,-0.015600023791193962,0.0054411087185144424,0.04965178295969963
1782845811276456400,3.45745654296875,-0.011402882635593414,0.0085913622751832,0.04168786481022835
1782845811286461400,3.46746142578125,-0.00834766123443842,0.008671474643051624,0.03169857710599899
1782845811296466400,3.477466552734375,-0.00535586616024375,0.012401764281094074,0.02024032734334469
1782845811306471400,3.487471435546875,-0.008984144777059555,0.01710093580186367,0.017702830955386162
1782845811316476400,3.497476318359375,-0.010570589452981949,0.010673129931092262,0.02233300358057022
1782845811326481400,3.5074814453125,-0.007446810603141785,0.00807712972164154,0.019419653341174126
1782845811336486400,3.517486328125,-0.008756553754210472,-0.0006740170065313578,0.021562699228525162
1782845811346491400,3.527491455078125,-0.010106389410793781,-0.0065005067735910416,0.01687801256775856
1782845811356496400,3.537496337890625,-0.010327698662877083,-0.009482182562351227,0.010671249590814114
1782845811366501400,3.54750146484375,-0.010996423661708832,-0.012862940318882465,0.003994811326265335
1782845811376506400,3.55750634765625,-0.007205413654446602,-0.012158800847828388,-0.0006755741778761148
1782845811386511400,3.567511474609375,-0.00616912916302681,-0.011222606524825096,-0.004953022114932537
1782845811396516400,3.577516357421875,-0.006019193679094315,-0.007954373955726624,-0.012471658177673817
1782845811406521300,3.587521240234375,-0.005118845030665398,-0.005234753713011742,-0.011556483805179596
1782845811416526300,3.5975263671875,-0.0051297638565301895,-0.003581196768209338,-0.01831931620836258
1782845811426531600,3.607531494140625,-0.0013911097776144743,0.00007340987212955952,-0.02044120617210865
1782845811436536600,3.61753662109375,0.004107785411179066,0.001975972205400467,-0.015012884512543678
1782845811446541600,3.62754150390625,0.007462448440492153,0.0033981259912252426,-0.004856734070926905
1782845811456546600,3.637546630859375,0.005294103175401688,-0.00184510531835258,0.0057311952114105225
1782845811466551600,3.647551513671875,0.004319162108004093,-0.0039727529510855675,0.01437817420810461
1782845811476556500,3.657556640625,0.010730721987783909,-0.004375689662992954,0.01476246863603592
1782845811486561500,3.6675615234375,0.009700611233711243,-0.010383781045675278,0.0057029277086257935
1782845811496566500,3.67756640625,0.007379399612545967,-0.00754192192107439,0.0011643683537840843
1782845811506571500,3.687571533203125,0.005105363205075264,-0.0007494587916880846,-0.01113634929060936
1782845811516576500,3.697576416015625,-0.0015437512192875147,0.0028993382584303617,-0.012903355993330479
1782845811526581500,3.70758154296875,-0.006825398653745651,0.00032512773759663105,-0.011313071474432945
1782845811536586500,3.71758642578125,-0.008510912768542767,-0.008424155414104462,-0.007977995090186596
1782845811546591500,3.727591552734375,-0.010741014033555984,-0.01677510142326355,-0.0028423573821783066
1782845811556596500,3.737596435546875,-0.013714167289435863,-0.021855613216757774,-0.005342799238860607
1782845811566601500,3.7476015625,-0.014680125750601292,-0.02687826380133629,-0.01149549800902605
1782845811576606500,3.7576064453125,-0.014961621724069118,-0.029972856864333153,-0.02127116359770298
1782845811586611500,3.767611572265625,-0.012649786658585072,-0.02731180004775524,-0.03575681895017624
1782845811596616400,3.777616455078125,-0.014580578543245792,-0.026985829696059227,-0.04513487592339516
1782845811606621400,3.787621337890625,-0.008745410479605198,-0.021076977252960205,-0.05867750570178032
1782845811616626400,3.79762646484375,-0.007964571937918663,-0.010651768185198307,-0.0666789710521698
1782845811626631400,3.80763134765625,-0.005841190926730633,-0.0056743682362139225,-0.05931776762008667
1782845811636636400,3.817636474609375,-0.002001179149374366,-0.001552593894302845,-0.04046471789479256
1782845811646641400,3.827641357421875,0.0014698156155645847,-0.005994552746415138,-0.016900384798645973
1782845811656646400,3.837646484375,0.00413111224770546,-0.016796069219708443,0.006372182630002499
1782845811666651400,3.8476513671875,0.009274922311306,-0.027949023991823196,0.01628933846950531
1782845811676656400,3.857656494140625,0.015555189922451973,-0.0303791593760252,0.01887739822268486
1782845811686661400,3.867661376953125,0.009369060397148132,-0.024564824998378754,0.020547617226839066
1782845811696666400,3.877666259765625,0.0063152131624519825,-0.012092174962162971,0.014906776137650013
1782845811706671400,3.88767138671875,0.0006418691482394934,-0.00988070946186781,0.011499563232064247
1782845811716676400,3.89767626953125,-0.0029619205743074417,-0.0025873768609017134,0.006524246651679277
1782845811726681300,3.907681396484375,-0.008735387586057186,0.0023040510714054108,0.005704525392502546
1782845811736686600,3.9176865234375,-0.011951420456171036,0.008893776684999466,0.010828446596860886
1782845811746691600,3.927691650390625,-0.014090150594711304,0.013740172609686852,0.02433645725250244
1782845811756696600,3.937696533203125,-0.018391955643892288,0.009013860486447811,0.03643040731549263
1782845811766701600,3.94770166015625,-0.019279949367046356,-0.0004956817720085382,0.0518060103058815
1782845811776706600,3.95770654296875,-0.017180047929286957,-0.007193798199295998,0.05624789744615555
1782845811786711600,3.967711669921875,-0.016818026080727577,-0.0057509709149599075,0.05358729138970375
1782845811796716500,3.977716552734375,-0.019018065184354782,0.0038095114286988974,0.047769080847501755
1782845811806721500,3.987721435546875,-0.021995745599269867,0.012540685012936592,0.041808128356933594
1782845811816727300,3.997727294921875,-0.025305522605776787,0.016226233914494514,0.03944617137312889
1782845811826732300,4.007732177734375,-0.02464352548122406,0.019130945205688477,0.034804388880729675
1782845811836737300,4.0177373046875,-0.02667977847158909,0.01460277196019888,0.03074333444237709
1782845811846742300,4.0277421875,-0.02133728377521038,0.008543668314814568,0.035813238471746445
1782845811856747300,4.037747314453125,-0.018480243161320686,0.005032556131482124,0.03741486370563507
1782845811866752500,4.04775244140625,-0.01086423359811306,-0.0017179513815790415,0.03645756468176842
1782845811876757500,4.057757568359375,-0.005317401606589556,-0.0022135653998702765,0.034153930842876434
1782845811886762500,4.067762451171875,0.0011749917175620794,0.0032939964439719915,0.027699345722794533
1782845811896767500,4.077767578125,0.004364393651485443,0.006699913181364536,0.014901524409651756
1782845811906772500,4.0877724609375,0.008305762894451618,0.003881273325532675,0.006341473199427128
1782845811916777500,4.097777587890625,0.01139130163937807,0.0005773555021733046,0.003170447424054146
1782845811926782500,4.107782470703125,0.013276994228363037,0.0027286058757454157,-0.007884591817855835
1782845811936787500,4.117787353515625,0.015806464478373528,0.002996786031872034,-0.00845797173678875
1782845811946792400,4.12779248046875,0.01823670230805874,-0.003902324242517352,-0.010239136405289173
1782845811956797400,4.13779736328125,0.021530766040086746,-0.00426078587770462,-0.011054863221943378
1782845811966802400,4.147802490234375,0.02111571840941906,-0.004887282848358154,-0.01011012401431799
1782845811976807400,4.157807373046875,0.025599949061870575,-0.0077589694410562515,-0.012626012787222862
1782845811986812400,4.1678125,0.023500505834817886,-0.011257443577051163,-0.014229993335902691
1782845811996817400,4.1778173828125,0.024508779868483543,-0.011222023516893387,-0.016644148156046867
1782845812006822400,4.187822509765625,0.021599862724542618,-0.005262959748506546,-0.01834598369896412
1782845812016827400,4.197827392578125,0.01582852564752102,-0.0006037589628249407,-0.02148292027413845
1782845812026832400,4.207832275390625,0.016411390155553818,0.004321422427892685,-0.022534919902682304
1782845812036837400,4.21783740234375,0.014993522316217422,0.005216776859015226,-0.019285863265395164
1782845812046842400,4.22784228515625,0.01131189614534378,0.005048585124313831,-0.012874792329967022
1782845812056847400,4.237847412109375,0.012383285909891129,0.0001984359696507454,-0.003670642152428627
1782845812066852400,4.247852294921875,0.01207638718187809,-0.013425837270915508,-0.0017693676054477692
1782845812076857300,4.257857421875,0.010413509793579578,-0.012044455856084824,-0.0030743165407329798
1782845812086862300,4.2678623046875,0.01001441664993763,-0.012215333059430122,-0.008768766187131405
1782845812096867300,4.277867431640625,0.011723366566002369,-0.007780637592077255,-0.013439684174954891
1782845812106872300,4.287872314453125,0.012888148427009583,-0.003271010471507907,-0.01916327327489853
1782845812116877300,4.297877197265625,0.012591739185154438,0.003800747450441122,-0.02549520507454872
1782845812126882300,4.30788232421875,0.013946149498224258,0.007758857682347298,-0.029161272570490837
1782845812136887300,4.31788720703125,0.010136498138308525,0.013829800300300121,-0.023657849058508873
1782845812146892300,4.327892333984375,0.007977952249348164,0.015819204971194267,-0.013248277828097343
1782845812156897300,4.337897216796875,0.0033142243046313524,0.011654287576675415,-0.004551192745566368
1782845812166902300,4.34790234375,0.0037666407879441977,0.0051261065527796745,0.007568128407001495
1782845812176907300,4.3579072265625,0.002319212770089507,-0.00702776201069355,0.018887361511588097
1782845812186912300,4.367912353515625,0.0007623410783708096,-0.012039541266858578,0.02346077375113964
1782845812196917200,4.377917236328125,-0.003237726865336299,-0.014471272937953472,0.029553020372986794
1782845812206922200,4.387922119140625,-0.011172446422278881,-0.00814006756991148,0.025509921833872795
1782845812216927200,4.39792724609375,-0.014151458628475666,-0.006372527219355106,0.016741996631026268
1782845812226932200,4.40793212890625,-0.021411331370472908,-0.0004945916589349508,0.0001610017498023808
1782845812236937200,4.417937255859375,-0.02486465312540531,0.009987876750528812,-0.013516194187104702
1782845812246942200,4.427942138671875,-0.02567645162343979,0.012121602892875671,-0.018233075737953186
1782845812256947200,4.437947265625,-0.021994631737470627,0.003466063179075718,-0.0229045283049345
1782845812266952200,4.4479521484375,-0.01505056582391262,-0.003098750254139304,-0.016975682228803635
1782845812276957200,4.457957275390625,-0.008432609960436821,-0.012094908393919468,-0.010275968350470066
1782845812286962200,4.467962158203125,-0.003964654635637999,-0.020817754790186882,-0.0009144211653620005
1782845812296967200,4.47796728515625,-0.0025222867261618376,-0.020046504214406013,0.0005907974555157125
1782845812306972200,4.48797216796875,0.0005509825423359871,-0.01793052814900875,-0.00004413339775055647
1782845812316977200,4.49797705078125,0.0024950902443379164,-0.009506681933999062,-0.006571541074663401
1782845812326982100,4.507982177734375,0.0008512118365615606,-0.0015744054690003395,-0.01752859354019165
1782845812336987100,4.517987060546875,-0.0014042193070054054,-0.0015032989904284477,-0.029522405937314034
1782845812346992000,4.5279921875,-0.008217783644795418,0.0009622524958103895,-0.03504016250371933
1782845812356997400,4.537997314453125,-0.010780012235045433,0.00300969067029655,-0.04241711646318436
1782845812367002400,4.54800244140625,-0.013084329664707184,-0.002396428259089589,-0.045808468014001846
1782845812377007400,4.55800732421875,-0.01589076779782772,-0.00862502958625555,-0.045687559992074966
1782845812387012400,4.568012451171875,-0.017681211233139038,-0.007919823750853539,-0.04377088323235512
1782845812397017300,4.578017333984375,-0.021462367847561836,-0.008027948439121246,-0.034661006182432175
1782845812407022300,4.588022216796875,-0.026919856667518616,-0.008846483193337917,-0.027809342369437218
1782845812417027300,4.59802734375,-0.028226403519511223,-0.0024548962246626616,-0.017021141946315765
1782845812427032300,4.6080322265625,-0.030402792617678642,-0.004844525828957558,-0.01139008067548275
1782845812437037300,4.618037353515625,-0.027713533490896225,-0.0010809465311467648,-0.0083466200158
1782845812447042300,4.628042236328125,-0.030539831146597862,0.0066407211124897,-0.007677715737372637
1782845812457047300,4.63804736328125,-0.027982397004961967,0.01554872840642929,-0.00888226367533207
1782845812467052300,4.64805224609375,-0.028835130855441093,0.013298114761710167,-0.0065626841969788074
1782845812477057300,4.658057373046875,-0.02827453427016735,0.005291853100061417,-0.007785607594996691
1782845812487062300,4.668062255859375,-0.027911489829421043,-0.006765367463231087,-0.0006257731001824141
1782845812497067300,4.6780673828125,-0.02417054772377014,-0.012682379223406315,-0.0022178106009960175
1782845812507072300,4.688072265625,-0.027272790670394897,-0.011551187373697758,-0.00622191559523344
1782845812517077200,4.6980771484375,-0.030983639881014824,-0.005284236744046211,-0.011641182005405426
1782845812527082200,4.708082275390625,-0.034325629472732544,0.0011862023966386914,-0.016046084463596344
1782845812537087200,4.718087158203125,-0.03705936297774315,0.0065588634461164474,-0.01933535560965538
1782845812547092200,4.72809228515625,-0.03561369702219963,0.009424500167369843,-0.024461455643177032
1782845812557097200,4.73809716796875,-0.03134118765592575,0.0037959092296659946,-0.022118672728538513
1782845812567102200,4.748102294921875,-0.030030397698283195,-0.0013380383607000113,-0.02368916943669319
1782845812577107200,4.758107177734375,-0.029493771493434906,-0.007721901871263981,-0.023389030247926712
1782845812587112200,4.7681123046875,-0.029443267732858658,-0.009202545508742332,-0.01816859096288681
1782845812597117200,4.7781171875,-0.02783791348338127,-0.008862460032105446,-0.015981603413820267
1782845812607122200,4.7881220703125,-0.028502531349658966,-0.000002972083166241646,-0.015219287015497684
1782845812617127200,4.798127197265625,-0.029774989932775497,0.0032279749866575003,-0.010753164999186993
1782845812627132200,4.808132080078125,-0.02982672117650509,0.003004537196829915,-0.004821930546313524
1782845812637137200,4.81813720703125,-0.02820965088903904,0.006878371350467205,0.001476445235311985
1782845812647142100,4.82814208984375,-0.02493773214519024,0.009689386002719402,0.006228095851838589
1782845812657147100,4.838147216796875,-0.024142777547240257,0.011632961221039295,0.009352250024676323
1782845812667152100,4.848152099609375,-0.02509015053510666,0.013754798099398613,0.017497606575489044
1782845812677157000,4.8581572265625,-0.019150501117110252,0.006156799383461475,0.022795697674155235
1782845812687162000,4.868162109375,-0.016198836266994476,-0.0006468745414167643,0.02647957019507885
1782845812697167000,4.8781669921875,-0.009281806647777557,-0.007255774922668934,0.018327368423342705
1782845812707172000,4.888172119140625,-0.007698939181864262,-0.007843099534511566,0.006424983963370323
1782845812717177000,4.898177001953125,-0.004901288542896509,-0.001970297656953335,-0.004449235275387764
1782845812727182300,4.908182373046875,-0.001816367730498314,0.003874372225254774,-0.02259034477174282
1782845812737187300,4.918187255859375,-0.004857963882386684,0.010110430419445038,-0.031027238816022873
1782845812747192300,4.9281923828125,-0.0034125815145671368,0.016830287873744965,-0.03747802600264549
1782845812757197300,4.938197265625,-0.0016895162407308817,0.01704919897019863,-0.03498610481619835
1782845812767202300,4.948202392578125,-0.0011432598112151027,0.009970469400286674,-0.028759406879544258
1782845812777207300,4.958207275390625,-0.0021155800204724073,0.0025250702165067196,-0.022317485883831978
1782845812787212300,4.96821240234375,-0.005442666821181774,-0.0019128210842609406,-0.010429135523736477
1782845812797217300,4.97821728515625,-0.006518583744764328,-0.008960078470408916,-0.00751457130536437
1782845812807222300,4.98822216796875,-0.009920154698193073,-0.006003533490002155,-0.0016615533968433738
1782845812817227300,4.998227294921875,-0.011897286400198936,-0.0009003845043480396,0.0009107938385568559
1782845812827232300,5.008232177734375,-0.014453005976974964,-0.0010254543740302324,0.0021213856525719166
1782845812837237200,5.0182373046875,-0.009655588306486607,0.004317113198339939,0.005243675783276558
1782845812847242200,5.0282421875,-0.008008664473891258,0.007853837683796883,0.008382141590118408
1782845812857247200,5.038247314453125,-0.007030219305306673,0.009132687002420425,0.008107303641736507
1782845812867252200,5.048252197265625,-0.004001684952527285,0.010200325399637222,0.016463804990053177
1782845812877257500,5.058257568359375,-0.0016426569782197475,0.009441856294870377,0.013913295231759548
1782845812887262500,5.068262451171875,0.0027441021520644426,0.008574465289711952,0.01549015287309885
1782845812897268200,5.078268310546875,0.0036410547327250242,0.003828712273389101,0.013879206962883472
1782845812907273200,5.088273193359375,0.007543300278484821,-0.0028852864634245634,0.007942832075059414
1782845812917278200,5.0982783203125,0.005292130168527365,-0.007818260230123997,0.0018748196307569742
1782845812927283200,5.108283203125,0.004245229065418243,-0.0026624032761901617,-0.004348686896264553
1782845812937288200,5.1182880859375,0.008036505430936813,0.0010641580447554588,-0.01326761394739151
1782845812947293200,5.128293212890625,0.007231728173792362,0.003186093410477042,-0.019911406561732292
1782845812957298200,5.138298095703125,0.010738312266767025,-0.0007732282392680645,-0.0208621546626091
1782845812967303200,5.14830322265625,0.010891087353229523,0.0012957300059497356,-0.022185999900102615
1782845812977308200,5.15830810546875,0.014265311881899834,-0.0021796952933073044,-0.02035268023610115
1782845812987313200,5.168313232421875,0.017527617514133453,-0.0027701163198798895,-0.016144776716828346
1782845812997318100,5.178318115234375,0.020357226952910423,-0.00946024339646101,-0.00657071266323328
1782845813007323400,5.188323486328125,0.02455339953303337,-0.010161792859435081,-0.012600220739841461
1782845813017328400,5.198328369140625,0.021708345040678978,-0.010951953008770943,-0.012651885859668255
1782845813027333400,5.20833349609375,0.019212642684578896,-0.01099560409784317,-0.012546085752546787
1782845813037338400,5.21833837890625,0.014113487675786018,-0.015081159770488739,-0.014355171471834183
1782845813047343400,5.22834326171875,0.0024405561853200197,-0.01610507443547249,-0.014671551063656807
1782845813057348400,5.238348388671875,-0.002095339819788933,-0.012241891585290432,-0.01745828241109848
1782845813067353300,5.248353271484375,-0.010806775651872158,-0.010053643956780434,-0.018939802423119545
1782845813077358300,5.2583583984375,-0.01681246981024742,-0.007190212607383728,-0.01957283727824688
1782845813087363300,5.26836328125,-0.02517927996814251,-0.002066605491563678,-0.010715999640524387
1782845813097368300,5.278368408203125,-0.02518513984978199,-0.0010410223621875048,0.0023872849997133017
1782845813107373300,5.288373291015625,-0.02071004919707775,-0.010195009410381317,0.012642130255699158
1782845813117378600,5.298378662109375,-0.01618906669318676,-0.013470165431499481,0.012293255887925625
1782845813127383600,5.308383544921875,-0.013897417113184929,-0.015474192798137665,0.013979303650557995
1782845813137388500,5.318388427734375,-0.007574805989861488,-0.014077365398406982,0.011754498817026615
1782845813147393500,5.3283935546875,-0.006235823035240173,-0.008270051330327988,0.014233708381652832
1782845813157398500,5.3383984375,-0.010381831787526608,-0.0010797830764204264,0.014898699708282948
1782845813167403500,5.348403564453125,-0.00915176048874855,0.012662975117564201,0.015781575813889503
1782845813177408500,5.358408447265625,-0.011249000206589699,0.010108737275004387,0.023476246744394302
1782845813187413500,5.36841357421875,-0.010091789066791534,0.004246319178491831,0.030736982822418213
1782845813197418500,5.37841845703125,-0.006784942466765642,-0.0005452402401715517,0.0337040089070797
1782845813207423500,5.388423583984375,-0.004567576572299004,-0.004068164154887199,0.036494236439466476
1782845813217428500,5.398428466796875,0.00007937336340546608,-0.004370965529233217,0.03192078694701195
1782845813227433500,5.40843359375,-0.0003375869709998369,-0.0047339098528027534,0.029892876744270325
1782845813237438700,5.418438720703125,0.0010800135787576437,-0.006720627658069134,0.022368382662534714
1782845813247443700,5.428443603515625,0.0019207254517823458,-0.006950018927454948,0.01722329668700695
1782845813257448700,5.43844873046875,0.003238990204408765,-0.005276755429804325,0.006264920346438885
1782845813267453700,5.44845361328125,-0.0006149854743853211,-0.01391082163900137,0.0025938344188034534
1782845813277458700,5.458458740234375,-0.0030701537616550922,-0.014193383045494556,-0.00018277729395776987
1782845813287463700,5.468463623046875,-0.0059539517387747765,-0.009485035203397274,-0.00010489730630069971
1782845813297468700,5.47846875,-0.010460020042955875,-0.005725184455513954,-0.006106330547481775
1782845813307473700,5.4884736328125,-0.014719394966959953,-0.004089035093784332,-0.008142661303281784
1782845813317478700,5.498478759765625,-0.01349513977766037,-0.006674698553979397,-0.003683996619656682
1782845813327483600,5.508483642578125,-0.012838544324040413,-0.012279997579753399,-0.0007218783139251173
1782845813337488600,5.518488525390625,-0.008778288029134274,-0.01706729643046856,0.0037367858458310366
1782845813347493600,5.52849365234375,-0.008752933703362942,-0.017517663538455963,0.010610065422952175
1782845813357498600,5.53849853515625,-0.007393656298518181,-0.015480344183743,0.012524611316621304
1782845813367503600,5.548503662109375,-0.010940877720713615,-0.015680929645895958,0.013690128922462463
1782845813377508600,5.558508544921875,-0.00751019362360239,-0.013034014031291008,0.008090300485491753
1782845813387513600,5.568513671875,-0.00963404681533575,-0.006463824771344662,0.0073630232363939285
1782845813397518600,5.5785185546875,-0.005918404087424278,0.0029326067306101322,0.0063459621742367744
1782845813407523600,5.588523681640625,-0.001795582938939333,0.004404365085065365,0.004185307305306196
1782845813417528600,5.598528564453125,0.008530291728675365,0.0030996822752058506,0.006448728032410145
1782845813427533600,5.608533447265625,0.012992460280656815,-0.007913069799542427,0.0069805230014026165
1782845813437538600,5.61853857421875,0.021903131157159805,-0.009240921586751938,0.0008696333388797939
1782845813447543600,5.62854345703125,0.026052063331007957,-0.006196270696818829,-0.012779765762388706
1782845813457548500,5.638548583984375,0.02196490950882435,-0.006111050024628639,-0.015760909765958786
1782845813467553500,5.648553466796875,0.020891062915325165,-0.007081629708409309,-0.014593902043998241
1782845813477558500,5.65855859375,0.01827317662537098,-0.01012429129332304,-0.01275259256362915
1782845813487563500,5.6685634765625,0.016516603529453278,-0.013029166497290134,-0.008972743526101112
1782845813497568500,5.678568603515625,0.014268096536397934,-0.009359597228467464,-0.006421169266104698
1782845813507573500,5.688573486328125,0.011396924033761024,-0.007314727175980806,0.005283928010612726
1782845813517578500,5.69857861328125,0.015093658119440079,-0.012129189446568489,0.009673084132373333
1782845813527583500,5.70858349609375,0.016785703599452972,-0.018865510821342468,0.01568422093987465
1782845813537588500,5.71858837890625,0.020334631204605103,-0.01568835973739624,0.01268097385764122
1782845813547593500,5.728593505859375,0.021619467064738274,-0.01015125960111618,0.006406982894986868
1782845813557598500,5.738598388671875,0.021616805344820023,-0.005132000427693129,-0.001396345323882997
1782845813567603700,5.748603759765625,0.019053807482123375,-0.0063664475455880165,-0.006261412985622883
1782845813577608700,5.758608642578125,0.018194938078522682,-0.007957419380545616,-0.005718660540878773
1782845813587613700,5.76861376953125,0.0132616451010108,-0.006595720537006855,-0.007538858335465193
1782845813597618700,5.77861865234375,0.009891148656606674,-0.0072665708139538765,-0.010889115743339062
1782845813607623700,5.788623779296875,0.011868569999933243,-0.004815617110580206,-0.01643335074186325
1782845813617628700,5.798628662109375,0.013133571483194828,-0.009553113952279091,-0.022966617718338966
1782845813627633700,5.808633544921875,0.013047127053141594,-0.013887192122638226,-0.020853014662861824
1782845813637638700,5.818638671875,0.017312712967395782,-0.013202759437263012,-0.02100428193807602
1782845813647643600,5.8286435546875,0.01723279431462288,-0.01457486767321825,-0.014992658980190754
1782845813657648600,5.838648681640625,0.016617603600025177,-0.01463505532592535,-0.016871253028512
1782845813667653600,5.848653564453125,0.017699040472507477,-0.011218366213142872,-0.007864132523536682
1782845813677658600,5.85865869140625,0.019116375595331192,-0.007949069142341614,-0.004263006150722504
1782845813687663600,5.86866357421875,0.017594225704669952,-0.0047720856964588165,0.006301139015704393
1782845813697668600,5.878668701171875,0.018042968586087227,-0.006455469876527786,0.016219284385442734
1782845813707673600,5.888673583984375,0.018292156979441643,-0.012192887254059315,0.028022224083542824
1782845813717678600,5.8986787109375,0.01906261034309864,-0.011645341292023659,0.030754094943404198
1782845813727683600,5.90868359375,0.016850898042321205,-0.0064639439806342125,0.028820866718888283
1782845813737688600,5.9186884765625,0.01115679182112217,0.003230761270970106,0.026296723634004593
1782845813747693600,5.928693603515625,0.009634370915591717,0.011998370289802551,0.022025400772690773
1782845813757698600,5.938698486328125,0.008846341632306576,0.008045706897974014,0.022268813103437424
1782845813767703600,5.94870361328125,0.008275057189166546,0.0036540839355438948,0.019749032333493233
1782845813777708500,5.95870849609375,0.014891681261360645,-0.0052097151055932045,0.01960575394332409
1782845813787713500,5.968713623046875,0.014134598895907402,-0.012284694239497185,0.01564076915383339
1782845813797718500,5.978718505859375,0.016970332711935043,-0.0121933463960886,0.00619320385158062
1782845813807723500,5.9887236328125,0.01918421871960163,-0.005338903050869703,-0.005341479554772377
1782845813817728500,5.998728515625,0.018109368160367012,0.0017818568740040064,-0.017361924052238464
1782845813827733500,6.0087333984375,0.011198603548109531,0.00874563492834568,-0.022472679615020752
1782845813837738500,6.018738525390625,0.010783416219055653,0.012006942182779312,-0.02497764863073826
1782845813847743500,6.028743408203125,0.007999432273209095,0.007334062829613686,-0.02163332886993885
1782845813857748500,6.03874853515625,0.00553387776017189,-0.002623495878651738,-0.014844664372503757
1782845813867753500,6.04875341796875,0.00679770577698946,-0.00797906331717968,-0.01127694919705391
1782845813877758500,6.058758544921875,0.005872789770364761,-0.012057427316904068,-0.007862510159611702
1782845813887763500,6.068763427734375,0.008539351634681225,-0.01617559790611267,-0.004806256387382746
1782845813897768400,6.0787685546875,0.00787595845758915,-0.019943704828619957,-0.00272579537704587
1782845813907773400,6.0887734375,0.007928622886538506,-0.02109472081065178,0.002789451275020838
1782845813917778400,6.0987783203125,0.009123848751187325,-0.014150794595479965,0.00205788086168468
1782845813927783400,6.108783447265625,0.01037684828042984,-0.00530580896884203,0.0038690678775310516
1782845813937788400,6.118788330078125,0.008259901776909828,-0.0007882884237915277,0.005957785062491894
1782845813947793400,6.12879345703125,0.008262885734438896,-0.0033707807306200266,0.00957321934401989
1782845813957798400,6.13879833984375,0.00951696839183569,-0.001700179884210229,0.009123677387833595
1782845813967803400,6.148803466796875,0.009395056404173374,-0.0028806356713175774,0.01027229055762291
1782845813977808400,6.158808349609375,0.0143016641959548,-0.006766720674932003,0.006483943201601505
1782845813987813400,6.1688134765625,0.0173022598028183,-0.007117701694369316,-0.002503992523998022
1782845813997818400,6.178818359375,0.0222429558634758,-0.008439694531261921,-0.012441844679415226
1782845814007823400,6.1888232421875,0.020908840000629425,-0.006826230324804783,-0.020772861316800117
1782845814017828400,6.198828369140625,0.0255105160176754,-0.006402255035936832,-0.02824249491095543
1782845814027833300,6.208833251953125,0.023403622210025787,-0.004547095391899347,-0.026919063180685043
1782845814037838300,6.21883837890625,0.015379784628748894,-0.003590487875044346,-0.025180285796523094
1782845814047843600,6.228843505859375,0.012635143473744392,-0.00023887609131634235,-0.025647172704339027
1782845814057848600,6.2388486328125,0.007518944330513477,0.001707361894659698,-0.01628189906477928
1782845814067853600,6.248853515625,0.0036531295627355576,-0.005888577550649643,-0.006672421470284462
1782845814077858600,6.258858642578125,0.0015023606829345226,-0.013531317934393883,-0.003151989309117198
1782845814087863600,6.268863525390625,0.0005177417770028114,-0.01532292552292347,-0.0006254718755371869
1782845814097868800,6.278868896484375,-0.0033204061910510063,-0.013089066371321678,-0.00788951013237238
1782845814107873800,6.288873779296875,-0.003971348982304335,-0.009358774870634079,-0.015527880750596523
1782845814117878000,6.2988779296875,-0.009161317721009254,-0.003790371585637331,-0.027236469089984894
1782845814127883000,6.308883056640625,-0.008785448968410492,-0.0007661592680960894,-0.024687934666872025
1782845814137888000,6.318887939453125,-0.01394558884203434,0.0036397743970155716,-0.02362959459424019
1782845814147893000,6.32889306640625,-0.015320228412747383,0.00693933479487896,-0.018852494657039642
1782845814157898000,6.33889794921875,-0.01776980422437191,0.008462662808597088,-0.009170572273433208
1782845814167903000,6.348903076171875,-0.015093551017343998,0.0007024293299764395,0.0032101585529744625
1782845814177908000,6.358907958984375,-0.015382770448923111,-0.0079850684851408,0.014974405989050865
1782845814187913200,6.368913330078125,-0.013298132456839085,-0.008314670994877815,0.012079095467925072
1782845814197918200,6.378918212890625,-0.012953253462910652,-0.008471798151731491,0.0099570881575346
1782845814207923200,6.388923095703125,-0.01016025710850954,-0.012657876126468182,0.0033522984012961388
1782845814217928200,6.39892822265625,-0.011730989441275597,-0.013235249556601048,-0.0015854683006182313
1782845814227933200,6.40893310546875,-0.013255861587822437,-0.009312704205513,-0.007158205844461918
1782845814237938200,6.418938232421875,-0.013789825141429901,-0.0020076532382518053,-0.01117505133152008
1782845814247943200,6.428943115234375,-0.01745186559855938,0.0017819050699472427,-0.01651686243712902
1782845814257948200,6.4389482421875,-0.01950329728424549,-0.00022851512767374516,-0.01621086522936821
1782845814267953200,6.448953125,-0.019828233867883682,-0.00007744249887764454,-0.015373829752206802
1782845814277958100,6.458958251953125,-0.02301177568733692,-0.003512653987854719,-0.008644022047519684
1782845814287963100,6.468963134765625,-0.022085020318627357,-0.012441480532288551,-0.0007476816535927355
1782845814297968000,6.478968017578125,-0.02294761873781681,-0.024571379646658897,0.002818024717271328
1782845814307973000,6.48897314453125,-0.016658199951052666,-0.029018666595220566,0.0022410727106034756
1782845814317978000,6.49897802734375,-0.013162270188331604,-0.02710678242146969,-0.0032900464721024036
1782845814327983000,6.508983154296875,-0.01008682046085596,-0.020692098885774612,-0.01226490456610918
1782845814337988000,6.518988037109375,-0.006528304889798164,-0.0048532141372561455,-0.02071218565106392
1782845814347993000,6.5289931640625,-0.00701477937400341,0.011464409530162811,-0.029411479830741882
1782845814357998000,6.538998046875,-0.009277934208512306,0.026239095255732536,-0.023525360971689224
1782845814368003000,6.549003173828125,-0.00973647553473711,0.026997538283467293,-0.007827429100871086
1782845814378008000,6.559008056640625,-0.009027807973325253,0.012560276314616203,0.013072526082396507
1782845814388013000,6.569012939453125,-0.0068397680297493935,0.0028876515571027994,0.027834462001919746
1782845814398018000,6.57901806640625,-0.004281268920749426,-0.004113798961043358,0.04325602576136589
1782845814408023000,6.58902294921875,0.0022165055852383375,-0.008745182305574417,0.0534069798886776
1782845814418028000,6.599028076171875,0.0010883905924856663,-0.005969902500510216,0.043274182826280594
1782845814428033000,6.609032958984375,-0.00028623640537261963,0.004135122522711754,0.034220654517412186
1782845814438038000,6.6190380859375,0.0012999423779547215,0.01572866179049015,0.02817634493112564
1782845814448043000,6.62904296875,-0.0057441433891654015,0.017098013311624527,0.021618643775582314
1782845814458048000,6.639048095703125,-0.010355140082538128,0.01248382031917572,0.018258001655340195
1782845814468053000,6.649052978515625,-0.01670875772833824,0.0017115010414272547,0.015062822960317135
1782845814478058000,6.65905810546875,-0.025615699589252472,-0.002768202219158411,0.006265337113291025
1782845814488063000,6.66906298828125,-0.028369983658194542,0.0001019348856061697,0.00013531139120459557
1782845814498068000,6.67906787109375,-0.02780752442777157,0.0030702941585332155,-0.00918362196534872
1782845814508073200,6.6890732421875,-0.022485293447971344,0.004534041043370962,-0.013531654141843319
1782845814518078200,6.699078125,-0.017076680436730385,-0.0008615232072770596,-0.011511113494634628
1782845814528083200,6.709083251953125,-0.008520391769707203,-0.007408734876662493,-0.009386520832777023
1782845814538088200,6.719088134765625,-0.0002696523442864418,-0.006887021940201521,-0.009527934715151787
1782845814548093200,6.72909326171875,0.006424778141081333,-0.0013732612133026123,-0.010563144460320473
1782845814558098200,6.73909814453125,0.009567574597895145,0.0028830026276409626,-0.008656853809952736
1782845814568103200,6.749103271484375,0.012124390341341496,0.006906069815158844,-0.007831462658941746
1782845814578108200,6.759108154296875,0.018455523997545242,0.006139079574495554,-0.004530740901827812
1782845814588113200,6.769113037109375,0.020439887419342995,0.002864142181351781,-0.005338782910257578
1782845814598118100,6.7791181640625,0.025935053825378418,0.0016324302414432168,-0.0102725550532341
1782845814608123100,6.789123046875,0.034495458006858826,-0.0004241860006004572,-0.015051055699586868
1782845814618128100,6.799128173828125,0.03655088320374489,-0.001701171975582838,-0.019974706694483757
1782845814628133000,6.809133056640625,0.040327489376068115,-0.0013715187087655067,-0.02548791468143463
1782845814638138000,6.81913818359375,0.043089188635349274,0.0023475857451558113,-0.03271360322833061
1782845814648143000,6.82914306640625,0.042240213602781296,0.004620811436325312,-0.0325770229101181
1782845814658148000,6.839148193359375,0.0326341912150383,0.004089777357876301,-0.034463606774806976
1782845814668153000,6.849153076171875,0.025102362036705017,0.005670336075127125,-0.02915104664862156
1782845814678158000,6.859157958984375,0.014745594002306461,0.006521482951939106,-0.02294774539768696
1782845814688163000,6.8691630859375,0.00461371336132288,0.003748697694391012,-0.0041174134239554405
1782845814698168000,6.87916796875,-0.005961166229099035,-0.00031741661950945854,0.011185909621417522
1782845814708173000,6.889173095703125,-0.015089974738657475,-0.006016094703227282,0.022298550233244896
1782845814718178000,6.899177978515625,-0.020227212458848953,-0.008499225601553917,0.031056087464094162
1782845814728183000,6.90918310546875,-0.022815877571702003,-0.005880420096218586,0.027569521218538284
1782845814738188000,6.91918798828125,-0.02923276461660862,-0.00003824383020401001,0.01989748701453209
1782845814748193000,6.929193115234375,-0.030978433787822723,0.010703012347221375,0.012272851541638374
1782845814758198000,6.939197998046875,-0.027684103697538376,0.012223144061863422,-0.0005718409665860236
1782845814768203000,6.949203125,-0.025253286585211754,0.009662150405347347,-0.000023945642169564962
1782845814778208000,6.9592080078125,-0.024611730128526688,0.005038370378315449,0.0014008455909788609
1782845814788213000,6.969212890625,-0.027659621089696884,-0.001971143065020442,0.0084131034091115
1782845814798218000,6.979218017578125,-0.027261212468147278,-0.0038795641157776117,0.017456399276852608
1782845814808223000,6.989222900390625,-0.03125184401869774,0.0013190243626013398,0.027993913739919662
1782845814818228000,6.99922802734375,-0.03175784647464752,0.00009077438153326511,0.03134123980998993
1782845814828233000,7.00923291015625,-0.02834617905318737,0.00005327467806637287,0.028081674128770828
1782845814838238000,7.019238037109375,-0.02335754595696926,0.000017588259652256966,0.0163539107888937
1782845814848243000,7.029242919921875,-0.022131552919745445,0.00019856146536767483,0.0003207339032087475
1782845814858248000,7.039248046875,-0.01885426789522171,-0.0002834706101566553,-0.015438787639141083
1782845814868253000,7.0492529296875,-0.015949122607707977,-0.002426709048449993,-0.032446954399347305
1782845814878258000,7.0592578125,-0.014194099232554436,0.00023139198310673237,-0.043088413774967194
1782845814888263000,7.069262939453125,-0.008574132807552814,0.002379155484959483,-0.04753025248646736
1782845814898268000,7.079267822265625,-0.006141335237771273,-0.001134352758526802,-0.03915886953473091
1782845814908273000,7.08927294921875,0.0010518385097384453,-0.00397173035889864,-0.024285580962896347
1782845814918278000,7.09927783203125,0.004955766256898642,-0.003947495482861996,-0.014280884526669979
1782845814928283000,7.109282958984375,0.009287252090871334,-0.004175223410129547,0.0009825790766626596
1782845814938287900,7.119287841796875,0.012813543900847435,-0.005890564993023872,0.00994864385575056
1782845814948292900,7.12929296875,0.013033763505518436,0.002276238054037094,0.0191616490483284
1782845814958297900,7.1392978515625,0.021376382559537888,0.003897304181009531,0.016297154128551483
1782845814968302800,7.149302734375,0.01662764512002468,0.003196651814505458,0.017094843089580536
1782845814978307800,7.159307861328125,0.01860104687511921,0.008938427083194256,0.011508329771459103
1782845814988312800,7.169312744140625,0.018332237377762794,0.00944956112653017,0.009923059493303299
1782845814998318000,7.179318115234375,0.019606025889515877,0.011441871523857117,0.009251410141587257
1782845815008323000,7.189322998046875,0.020580042153596878,0.00790645182132721,0.005720214918255806
1782845815018328000,7.199328125,0.019519571214914322,0.005092289764434099,0.008941574953496456
1782845815028333000,7.2093330078125,0.015050631016492844,0.005250431597232819,0.007875899784266949
1782845815038338000,7.219338134765625,0.016072219237685204,0.009218009188771248,0.0033906043972820044
1782845815048343000,7.229343017578125,0.012245637364685535,0.009653267450630665,0.0006823521689511836
1782845815058348300,7.239348388671875,0.014718382619321346,0.011624805629253387,0.0010693094227463007
1782845815068353300,7.249353271484375,0.011887636035680771,0.0060128457844257355,-0.001495003467425704
1782845815078358300,7.259358154296875,0.013265821151435375,0.006945751141756773,0.0016227592714130878
1782845815088363300,7.26936328125,0.013019884936511517,0.008490262553095818,-0.0030072962399572134
1782845815098368300,7.2793681640625,0.016181588172912598,0.006362397223711014,0.0028543213848024607
1782845815108373200,7.289373291015625,0.01366470754146576,0.003145711962133646,0.0038114169146865606
1782845815118378200,7.299378173828125,0.014418382197618484,0.00248418259434402,0.004566156771034002
1782845815128383700,7.3093837890625,0.0114009790122509,-0.0012985232751816511,0.0013424392091110349
1782845815138388700,7.319388671875,0.008256851695477962,-0.002029560739174485,0.005854633171111345
1782845815148393700,7.329393798828125,0.004530816338956356,0.0033533379901200533,0.0077818999998271465
1782845815158398700,7.339398681640625,0.002902027452364564,0.009710836224257946,0.008855153806507587
1782845815168402700,7.349402587890625,0.004322296939790249,0.013750201091170311,0.011960462667047977
1782845815178408700,7.35940869140625,0.0005571199581027031,0.013943546451628208,0.01981891691684723
1782845815188412700,7.36941259765625,0.006403406150639057,0.011320166289806366,0.028314050287008286
1782845815198418700,7.379418701171875,0.013173161074519157,0.01260381005704403,0.029686111956834793
1782845815208422700,7.389422607421875,0.017949577420949936,0.00958971306681633,0.03349140286445618
1782845815218427600,7.399427734375,0.017653966322541237,0.008435765281319618,0.03831225633621216
1782845815228433700,7.40943359375,0.021354053169488907,0.0037688915617763996,0.029751405119895935
1782845815238437600,7.419437744140625,0.017741741612553596,0.006900768727064133,0.025124695152044296
1782845815248442600,7.429442626953125,0.013432426378130913,0.01176239550113678,0.01846153847873211
1782845815258447600,7.439447509765625,0.009892020374536514,0.011989296413958073,0.01882479339838028
1782845815268452600,7.44945263671875,0.005965225398540497,0.011942227371037006,0.016250481829047203
1782845815278457600,7.45945751953125,0.0038394902367144823,0.0076313684694468975,0.014329276978969574
1782845815288462600,7.469462646484375,0.004355919547379017,0.0055892085656523705,0.002856606850400567
1782845815298467600,7.479467529296875,0.0007246995810419321,0.005893341265618801,-0.0006654236349277198
1782845815308472600,7.48947265625,-0.0006400499260053039,0.002066094195470214,-0.00722960801795125
1782845815318477600,7.4994775390625,-0.00034603686071932316,0.0020711543038487434,-0.01821807771921158
1782845815328482600,7.509482666015625,0.001228012377396226,0.006577194668352604,-0.016144447028636932
1782845815338487600,7.519487548828125,0.0021318893413990736,0.007028867024928331,-0.01435347180813551
1782845815348492500,7.529492431640625,0.005377459339797497,0.005030385218560696,-0.008796721696853638
1782845815358497500,7.53949755859375,0.004761470016092062,0.009240309707820415,-0.0029761171899735928
1782845815368502500,7.54950244140625,0.007446408737450838,0.007902480661869049,0.004529483150690794
1782845815378507500,7.559507568359375,0.007529233116656542,0.0020587057806551456,0.01294107735157013
1782845815388512500,7.569512451171875,0.0070419469848275185,0.004112150054425001,0.015702463686466217
1782845815398517500,7.579517578125,0.008917611092329025,0.006880239583551884,0.016777848824858665
1782845815408522500,7.5895224609375,0.005695380736142397,0.004341301508247852,0.015913696959614754
1782845815418527500,7.599527587890625,0.008208073675632477,0.0025263570714741945,0.014684649184346199
1782845815428532500,7.609532470703125,0.006024505011737347,0.0009543413762003183,0.008500827476382256
1782845815438537500,7.619537353515625,0.0017852853052318096,-0.0027125650085508823,0.002861584071069956
1782845815448542700,7.629542724609375,-0.000833371072076261,-0.0037549976259469986,-0.0028527667745947838
1782845815458547700,7.639547607421875,-0.005897638387978077,-0.0032047885470092297,-0.008829432539641857
1782845815468552700,7.649552734375,-0.011254248209297657,-0.0033311417791992426,-0.010297412984073162
1782845815478557700,7.6595576171875,-0.015422893688082695,-0.005249682813882828,-0.00878047663718462
1782845815488562700,7.669562744140625,-0.012522311881184578,-0.010364288464188576,-0.008653652854263783
1782845815498567700,7.679567626953125,-0.01505737379193306,-0.005838245619088411,-0.01116128545254469
1782845815508572700,7.68957275390625,-0.01926407404243946,-0.0072548529133200645,-0.007425941061228514
1782845815518577700,7.69957763671875,-0.020320815965533257,-0.007749135605990887,-0.003432530676946044
1782845815528582700,7.709582763671875,-0.01990889199078083,-0.0076492647640407085,-0.001903772121295333
1782845815538587600,7.719587646484375,-0.01582306995987892,-0.008007992058992386,-0.006448722444474697
1782845815548593000,7.729593017578125,-0.011090759187936783,-0.0097799152135849,-0.010467582382261753
1782845815558598000,7.739597900390625,-0.007339697331190109,-0.006582257337868214,-0.006525837350636721
1782845815568603000,7.749602783203125,-0.0031344390008598566,-0.0011247862130403519,-0.006676157005131245
1782845815578607900,7.75960791015625,-0.005910784471780062,0.004611130338162184,-0.006240197457373142
1782845815588612900,7.76961279296875,-0.0033592097461223602,0.011266635730862617,-0.004072916693985462
1782845815598617900,7.779617919921875,-0.003925664350390434,0.011306051164865494,-0.004399420693516731
1782845815608622800,7.789622802734375,-0.0010127956047654152,0.006307370960712433,0.0060365526005625725
1782845815618627800,7.7996279296875,-0.002835995750501752,-0.0058379750698804855,0.014816195704042912
1782845815628632800,7.8096328125,-0.0002249111421406269,-0.012757694348692894,0.019656848162412643
1782845815638637800,7.819637939453125,0.0034534470178186893,-0.01580435037612915,0.020101329311728477
1782845815648642800,7.829642822265625,0.0049471165984869,-0.01363646425306797,0.016073143109679222
1782845815658647800,7.839647705078125,0.009330679662525654,-0.008015861734747887,0.005633817985653877
1782845815668652800,7.84965283203125,0.012671010568737984,-0.0019229627214372158,-0.0025375145487487316
1782845815678657800,7.85965771484375,0.007750022225081921,0.0030393050983548164,-0.009997827000916004
1782845815688662800,7.869662841796875,0.006614673882722855,0.0027733033057302237,-0.012713148258626461
1782845815698667800,7.879667724609375,0.00454326719045639,-0.0008507263846695423,-0.0097615672275424
1782845815708672800,7.8896728515625,-0.00010175839997828007,-0.005653879605233669,-0.007301882840692997
1782845815718677800,7.899677734375,-0.0000700666569173336,-0.008437415584921837,-0.003241627011448145
1782845815728682800,7.909682861328125,-0.007353491149842739,-0.011631635949015617,0.000685931125190109
1782845815738687700,7.919687744140625,-0.0078070275485515594,-0.012460945174098015,0.0034154048189520836
1782845815748692700,7.929692626953125,-0.008972748182713985,-0.015842868015170097,0.011743447743356228
1782845815758697700,7.93969775390625,-0.011448156088590622,-0.012990887276828289,0.012314962223172188
1782845815768702700,7.94970263671875,-0.0086505226790905,-0.0033203233033418655,0.012571663595736027
1782845815778707700,7.959707763671875,-0.0061271777376532555,0.003279788652434945,0.01670968160033226
1782845815788712700,7.969712646484375,-0.004099544137716293,0.005055124871432781,0.026350170373916626
1782845815798717700,7.9797177734375,0.0017128046602010727,0.005191212520003319,0.03394923359155655
1782845815808722700,7.98972265625,0.004816204309463501,0.002151919063180685,0.03834294527769089
1782845815818727700,7.999727783203125,0.010934283956885338,0.0006861151196062565,0.037231072783470154
1782845815828732700,8.009732666015625,0.017385829240083694,-0.00277565885335207,0.031698793172836304
1782845815838737700,8.019737548828125,0.0195792093873024,-0.004803389776498079,0.02179635874927044
1782845815848742700,8.02974267578125,0.02157934568822384,-0.00248449994251132,0.008965997956693172
1782845815858747600,8.03974755859375,0.021325545385479927,0.00538274459540844,-0.005835052579641342
1782845815868752600,8.049752685546874,0.02119499444961548,0.01008378155529499,-0.018233859911561012
1782845815878757600,8.059757568359375,0.01921387016773224,0.00593031570315361,-0.019528158009052277
1782845815888762600,8.0697626953125,0.01760471612215042,0.006657477468252182,-0.01654643565416336
1782845815898767600,8.079767578125,0.015149547718465328,0.00026775547303259373,-0.012748767621815205
1782845815908772600,8.089772705078126,0.015003819018602371,-0.0006454172544181347,-0.008233839645981789
1782845815918777600,8.099777587890625,0.01469622366130352,0.0032292159739881754,-0.007743019610643387
1782845815928782600,8.109782470703125,0.01281174086034298,0.000786901917308569,-0.008104936219751835
1782845815938787600,8.11978759765625,0.013482857495546341,0.007804065011441708,-0.010128672234714031
1782845815948792600,8.12979248046875,0.010003212839365005,0.009122015908360481,-0.0038947835564613342
1782845815958797600,8.139797607421874,0.010777393355965614,0.010089808143675327,0.0022499277256429195
1782845815968802800,8.149802734375,0.009513233788311481,0.010420790873467922,0.005122906994074583
1782845815978807800,8.159807861328124,0.00517015065997839,0.009696943685412407,0.008811385370790958
1782845815988812800,8.169812744140625,0.00005358876660466194,0.008054113015532494,0.016609231010079384
1782845815998817800,8.17981787109375,-0.002883611712604761,0.004525158554315567,0.024790994822978973
1782845816008822800,8.18982275390625,-0.0061757564544677734,0.006123029626905918,0.03025945834815502
1782845816018827800,8.199827880859376,-0.008874338120222092,0.010217373259365559,0.033163633197546005
1782845816028832800,8.209832763671875,-0.01109130959957838,0.009865785948932171,0.03805838152766228
1782845816038837800,8.219837646484375,-0.011483593843877316,0.0006677601486444473,0.04338417202234268
1782845816048842800,8.2298427734375,-0.00862053781747818,0.000300560612231493,0.03648139908909798
1782845816058847700,8.23984765625,-0.006813850253820419,0.0070844306610524654,0.027258075773715973
1782845816068852700,8.249852783203124,-0.002448632847517729,0.007968262769281864,0.01796416938304901
1782845816078857700,8.259857666015625,0.001472072908654809,0.012075389735400677,0.006097123492509127
1782845816088862700,8.26986279296875,0.00404137559235096,0.011120548471808434,0.003414073260501027
1782845816098867700,8.27986767578125,0.008482196368277073,0.007150040939450264,-0.00038945331471040845
1782845816108872700,8.289872802734376,0.01352189015597105,0.004582340829074383,0.0021895961835980415
1782845816118877700,8.299877685546875,0.012411086820065975,0.0014209022046998143,0.003922781441360712
1782845816128882400,8.30988232421875,0.011299343779683113,0.0003986358642578125,0.004738924093544483
1782845816138887400,8.319887451171875,0.011103334836661816,0.007566533982753754,0.00550058763474226
1782845816148892400,8.329892333984375,0.011771732941269875,0.010701099410653114,0.007061805110424757
1782845816158897700,8.339897705078124,0.010514454916119576,0.010346898809075356,0.008508168160915375
1782845816168902700,8.349902587890625,0.012723184190690517,0.006388982757925987,0.0059409914538264275
1782845816178907600,8.35990771484375,0.012945557944476604,0.0028531039133667946,-0.00007295928662642837
1782845816188912600,8.36991259765625,0.011832332238554955,-0.0024879113771021366,-0.007240260485559702
1782845816198917600,8.379917724609374,0.01420893706381321,-0.004157180432230234,-0.009970800019800663
1782845816208922600,8.389922607421875,0.009947249665856361,-0.0028375107795000076,-0.013212822377681732
1782845816218927600,8.399927734375,0.009289449080824852,0.002710120053961873,-0.01650129444897175
1782845816228932600,8.4099326171875,0.008995248936116695,0.00878321286290884,-0.01332321111112833
1782845816238937600,8.4199375,0.006082816049456596,0.007982400245964527,-0.009026734158396721
1782845816248942600,8.429942626953125,0.006798703223466873,0.007699768058955669,-0.0003890442312695086
1782845816258947600,8.439947509765625,0.009627513587474823,0.0044107637368142605,0.0059514096938073635
1782845816268952600,8.44995263671875,0.009433623403310776,0.004235505126416683,0.012067390605807304
1782845816278957600,8.45995751953125,0.008909246884286404,0.0017521075205877423,0.016035500913858414
1782845816288962600,8.469962646484374,0.008487105369567871,0.0022296833340078592,0.008545367047190666
1782845816298967600,8.479967529296875,0.004110466688871384,-0.0006430684588849545,0.003996688406914473
1782845816308972500,8.48997265625,0.0012708893045783043,-0.0023023164831101894,-0.0021122521720826626
1782845816318977500,8.4999775390625,-0.0011621746234595776,-0.0033273673616349697,-0.006074769422411919
1782845816328982500,8.509982421875,-0.005841808393597603,0.0019221364054828882,-0.0027754248585551977
1782845816338987500,8.519987548828125,-0.0066940197721123695,0.0007492802105844021,0.0005452706827782094
1782845816348992500,8.529992431640625,-0.008828658610582352,0.0018024616874754429,0.004920662380754948
1782845816358997500,8.53999755859375,-0.005550040863454342,0.0019790292717516422,0.012914939783513546
1782845816369002500,8.55000244140625,-0.00397639162838459,0.0032458719797432423,0.017030887305736542
1782845816379007500,8.560007568359374,-0.0011086994782090187,-0.005663200281560421,0.01763116382062435
1782845816389012500,8.570012451171875,0.00041776965372264385,-0.008407562971115112,0.018308211117982864
1782845816399017500,8.580017578125,0.0011272358242422342,-0.008132192306220531,0.016279680654406548
1782845816409022500,8.5900224609375,0.0036680977791547775,-0.001519953366369009,0.010237780399620533
1782845816419027500,8.60002734375,0.003297918476164341,0.0006244238466024399,0.011189061217010021
1782845816429032400,8.610032470703125,0.00572662428021431,-0.0009955037385225296,0.016139989718794823
1782845816439037400,8.620037353515626,0.007689373567700386,-0.004828325007110834,0.01756637915968895
1782845816449042400,8.63004248046875,0.007883294485509396,-0.0029391266871243715,0.01898340694606304
1782845816459047700,8.640047607421875,0.007962124422192574,-0.005110668018460274,0.01932775415480137
1782845816469052700,8.650052734375,0.01099683903157711,-0.0024765837006270885,0.020298702642321587
1782845816479057700,8.6600576171875,0.010182710364460945,0.002301926026120782,0.01654231548309326
1782845816489062700,8.670062744140624,0.00897290837019682,0.026174915954470634,0.0527719147503376
1782845816499067600,8.680067626953125,-0.0025516548193991184,0.010525913909077644,0.09740649163722992
1782845816509071600,8.690071533203126,0.00018533039838075638,0.04087447375059128,0.05921189486980438
1782845816519076600,8.70007666015625,0.006621126085519791,0.03966966271400452,-0.003793966956436634
1782845816529081600,8.71008154296875,0.021694423630833626,-0.008383207023143768,-0.04228734225034714
1782845816539086600,8.720086669921875,0.037819065153598785,-0.03300386294722557,-0.06281126290559769
1782845816549091600,8.730091552734375,0.041916731745004654,-0.0365057997405529,-0.06910709291696548
1782845816559096600,8.7400966796875,0.0357682928442955,-0.040133558213710785,-0.06541142612695694
1782845816569101600,8.7501015625,0.02343391440808773,-0.04056394845247269,-0.051776375621557236
1782845816579106600,8.7601064453125,0.015477721579372883,-0.020081311464309692,-0.01744050532579422
1782845816589111600,8.770111572265625,0.01504400186240673,-0.004704003222286701,0.001521858386695385
