time,seconds_elapsed,z,y,x
1782846227072835000,0.0778349609375,0.015198738175630569,0.00636615576473996,-0.026002191401226445
1782846227082839000,0.087839111328125,0.12967208957374096,0.013413918851781635,0.013651017826574388
1782846227092844000,0.097843994140625,0.12683540484309197,0.013515990986768155,0.012643025810830294
1782846227102849000,0.10784912109375,0.05500584790706634,0.013625862835720181,-0.00048004088519373905
1782846227112854000,0.11785400390625,0.07041267587542534,0.011899203439895064,-0.005020268997561652
1782846227122859000,0.12785888671875,0.12892740868628025,0.010612908222712577,0.018821687046298757
1782846227132864000,0.137864013671875,0.10513678325414658,0.008472462127916514,0.014704486101993824
1782846227142869000,0.147868896484375,0.050664019310474394,0.018224004280939697,-0.02437806993126869
1782846227152874000,0.1578740234375,0.09585340660214424,0.012722886114008724,-0.002400661083695013
1782846227162879000,0.16787890625,0.11351298193335532,0.006240574890002608,0.011384319570183288
1782846227172884000,0.177884033203125,0.07864800477921963,-0.0038300248832441866,0.009769358654215465
1782846227182889000,0.187888916015625,0.07206278117001057,0.00022420067731291054,0.009741324436396826
1782846227192894000,0.19789404296875,0.08942191224992274,0.025630846471339463,0.005997301902750041
1782846227202899000,0.20789892578125,0.09420914652645587,0.0031101313771679994,0.007481852788524702
1782846227212904000,0.217904052734375,0.06966741046607494,0.003617039719689637,-0.005663158594537526
1782846227222909000,0.227908935546875,0.08118892143368721,0.005876655214745551,-0.01042254131634254
1782846227232914000,0.237913818359375,0.11141688643693923,0.011208864821866154,0.002708731519023422
1782846227242919000,0.2479189453125,0.08358312309384346,0.009782667943648994,-0.0009785786915919744
1782846227252924000,0.257923828125,0.07370470315814018,-0.004193396569229662,-0.006419851863489021
1782846227262929000,0.267928955078125,0.09839256969094276,0.004582633348833769,-0.0031514292186475357
1782846227272934000,0.277933837890625,0.10138239915668963,0.013580909449141471,0.0029571738717379045
1782846227282939000,0.28793896484375,0.08522212247252464,0.007983473034575582,0.012684663862315938
1782846227292943000,0.297943115234375,0.08327800266742706,-0.0032840997045859694,0.0021630734851351007
1782846227302948000,0.307947998046875,0.1004910032749176,0.008627122966665774,-0.010061774862685707
1782846227312953000,0.317953125,0.09001754005551338,0.003946837929636239,-0.000020999405544716864
1782846227322958000,0.3279580078125,0.0885217485398054,0.002415481910202652,-0.001080080004420597
1782846227332963000,0.337963134765625,0.09779927997291088,-0.007300915864203125,-0.007932331935805267
1782846227342968000,0.347968017578125,0.09974749143123626,0.009192593096010386,-0.008479866832948754
1782846227352973000,0.35797314453125,0.09480828146338462,0.005357344048377126,-0.0018684219370945355
1782846227362978000,0.36797802734375,0.08672551277279854,0.009944105583056808,0.003970259904419072
1782846227372983000,0.377983154296875,0.0835860457032919,0.01728478720206767,0.000941756095830351
1782846227382988000,0.387988037109375,0.0940600934445858,0.019721512829698622,0.02166263696011156
1782846227392993000,0.397992919921875,0.09480711241960525,0.015279201267007738,0.011620904805033933
1782846227402998000,0.407998046875,0.0769978994846344,0.011023315654508769,-0.001095672582485713
1782846227413003000,0.4180029296875,0.09120938018858432,0.007033862425852567,0.014806277392478659
1782846227423008000,0.428008056640625,0.1064730002939701,0.010752828150056301,0.017699379901925567
1782846227433013000,0.438012939453125,0.08522212247252464,0.0032393837800249454,-0.004423147921205964
1782846227443018000,0.44801806640625,0.09299918621480464,0.012237532016169278,0.002155369669292122
1782846227453023000,0.45802294921875,0.09748948337137699,0.014577172211185097,-0.0013867211010656318
1782846227463028000,0.468028076171875,0.09749065241515636,0.014375932284351437,-0.011729536828259005
1782846227473033000,0.478032958984375,0.09060732264220714,0.00927963205864653,-0.002002412163862027
1782846227483038000,0.488037841796875,0.1031792194455862,0.01294051092006266,0.002210109230945818
1782846227493042000,0.4980419921875,0.09240589649677276,0.012450681576505303,0.005642814492830075
1782846227503047000,0.508046875,0.09464987603127956,0.013083645717799663,0.005496677170542534
1782846227513052200,0.51805224609375,0.08447334993183613,0.00250809209709987,0.004351881916436832
1782846227523057200,0.52805712890625,0.08716624227762222,0.001335029729735106,0.012628109086200129
1782846227533062100,0.538062255859375,0.07564414678812026,-0.004344495477713644,0.0018237288454198278
1782846227543067100,0.548067138671875,0.08312251984477043,0.014373082740139216,0.01971053021138068
1782846227553072000,0.558072021484375,0.09673837274312973,0.008603340232279152,-0.0019561824189382603
1782846227563077000,0.5680771484375,0.08985212036073208,0.01172684254767373,-0.005531481339153833
1782846227573082000,0.57808203125,0.08012333802878856,0.004494754135981202,0.005703641301975585
1782846227583087000,0.588087158203125,0.09718202485740184,0.007651665530633181,0.007432871680799871
1782846227593092000,0.598092041015625,0.09404080422222613,0.015662373632006347,-0.00930572548112832
1782846227603097000,0.60809716796875,0.07443652456402779,0.012613927580509334,-0.0004092429545940831
1782846227613102000,0.61810205078125,0.09568155716657638,0.0042338199111633,-0.006225436686375178
1782846227623107000,0.628107177734375,0.09657879826724529,0.012782763075083494,0.0057003510830574665
1782846227633112300,0.6381123046875,0.10361293468773364,0.011407839726377277,0.0018180297569953836
1782846227643117300,0.648117431640625,0.08460895901024341,0.007347202691342682,-0.004302227238565683
1782846227653122300,0.658122314453125,0.08790157081484794,0.005821417896170169,0.0037064989682752637
1782846227663127300,0.668127197265625,0.11064064136743545,0.0005505830874666572,0.0004233468284714035
1782846227673132500,0.678132568359375,0.10405424871444702,0.008285981378797441,0.0019316073833964764
1782846227683137500,0.688137451171875,0.09059037150740623,0.010685078409779817,-0.008164343743526842
1782846227693142500,0.698142578125,0.09373159214258193,0.007881948888860643,-0.004606142088584602
1782846227703146200,0.708146240234375,0.0970230349034071,0.0025396014802157875,-0.009052864964911714
1782846227713151200,0.718151123046875,0.09089023123681544,0.013501213542744516,0.007578723592008464
1782846227723156200,0.72815625,0.09119067548811435,0.01759631910296157,-0.00969522483892506
1782846227733161200,0.7381611328125,0.07757540711164473,-0.0007344700207002461,-0.019257806591375264
1782846227743166200,0.748166259765625,0.0944827027708292,0.0015852964300662278,0.012491511343815364
1782846227753171200,0.758171142578125,0.08939502424299717,0.023875545502919704,0.000188638456875924
1782846227763176200,0.76817626953125,0.08415653906762599,0.01540923912115395,0.007274320118222385
1782846227773181200,0.77818115234375,0.09089081575870514,0.005036898188665509,-0.0016528703571180813
1782846227783186200,0.788186279296875,0.07458031694889068,0.022537008641846476,-0.002459903290530201
1782846227793191200,0.798191162109375,0.1027127709776163,0.0008161021558567881,0.0006678345252759755
1782846227803196200,0.808196044921875,0.10510638811588287,0.008176200861390679,-0.011788119164679664
1782846227813201200,0.818201171875,0.07383095988631248,0.007030136098805814,-0.00839738303113263
1782846227823206100,0.8282060546875,0.08655015620589256,-0.008370481324475258,-0.011652583151508588
1782846227833211100,0.838211181640625,0.1033095678269863,0.003443180990125984,-0.01696882115465123
1782846227843216400,0.84821630859375,0.0932797567218542,0.021107633425854144,-0.0074852297724108206
1782846227853221400,0.858221435546875,0.09133622143864631,0.014323982901405543,0.009650677877722773
1782846227863226400,0.868226318359375,0.09417875138819218,0.010595171636622398,0.003532793219049927
1782846227873231400,0.8782314453125,0.09851590380966663,0.0024754867354407906,-0.014947115201852284
1782846227883236400,0.888236328125,0.09417641330063342,0.007586765334568917,-0.01308040573123144
1782846227893241300,0.898241455078125,0.09567162029445171,0.013905026836972683,-0.009221220968873239
1782846227903246300,0.908246337890625,0.10060732313096522,0.015047091277875005,-0.005841236841492355
1782846227913250300,0.918250244140625,0.08653905028998851,0.00603840338140726,0.016117727600515355
1782846227923255300,0.92825537109375,0.09821429051458835,0.009184354990627617,0.004843330111633986
1782846227933260300,0.93826025390625,0.09207973328232764,0.023963716976717113,-0.012163055707584134
1782846227943265300,0.948265380859375,0.10898995155096053,0.004015774980001151,-0.020750748562871013
1782846227953270300,0.958270263671875,0.10659633441269398,0.004618033455777913,-0.013036904516222421
1782846227963275300,0.968275146484375,0.09672668230533599,-0.005264642529934645,-0.004677976632222998
1782846227973280300,0.9782802734375,0.09657938278913497,0.0021206819484010336,0.0050440517319482745
1782846227983285200,0.98828515625,0.1009182887762785,0.00303715747250244,0.011032533290714491
1782846227993290200,0.998290283203125,0.08550210845768451,0.010252678341884166,0.010540582772018386
1782846228003295200,1.008295166015625,0.09567395838201045,0.01623505895342678,0.0023462023665430025
1782846228013300500,1.018300537109375,0.07606909420192241,0.0168056619156152,-0.009174141840578522
1782846228023305500,1.028305419921875,0.09911620779037475,0.0138339160958305,-0.004043076262169052
1782846228033310500,1.038310546875,0.10300503192245959,0.001203987228590995,0.003974940646113828
1782846228043315500,1.0483154296875,0.08399813363552093,0.014636281987279653,-0.01463338906058343
1782846228053320400,1.058320556640625,0.08279635663032531,0.010512772316485643,-0.0020990203891531564
1782846228063325400,1.068325439453125,0.08489362117052078,0.002759345178119838,-0.009556741100130602
1782846228073330400,1.078330322265625,0.09566869768500327,0.016625848369300363,-0.006720035819883924
1782846228083335400,1.08833544921875,0.10165537087917327,0.019873232792690394,-0.011357230633858125
1782846228093340400,1.09834033203125,0.08953355593085288,0.013644238742627202,-0.00015185924359830097
1782846228103345400,1.108345458984375,0.10090309120714663,0.012432871925178914,0.007716561160120181
1782846228113350400,1.118350341796875,0.08369301320910454,0.018668113052938133,0.010712719901953823
1782846228123354000,1.12835400390625,0.09700842185616493,0.011756032109539955,-0.001469284817983862
1782846228133359000,1.138359130859375,0.09371522552967071,0.015088446201570332,0.005795091578247957
1782846228143364000,1.148364013671875,0.0790542474925518,0.0027985994762741028,-0.00024921638756059106
1782846228153369000,1.158369140625,0.0693289722919464,0.006801332311611622,-0.007712549421994481
1782846228163374000,1.1683740234375,0.08818272584378718,0.011601243406627326,0.003547588929382618
1782846228173379000,1.178379150390625,0.0818950238764286,-0.0023735789972357453,0.007411550331558101
1782846228183384300,1.18838427734375,0.07935293817818165,0.002795311540644616,0.008569549843820277
1782846228193389300,1.198389404296875,0.0952139396548271,0.01567305942280218,-0.007255393938755151
1782846228203394300,1.208394287109375,0.08758242186307906,0.017328809006884695,0.013111136512923985
1782846228213399300,1.2183994140625,0.08743161521553992,0.0014982940000481902,0.009377877401886506
1782846228223404300,1.228404296875,0.07935118461251259,0.013612820691056548,-0.015626633315056097
1782846228233409300,1.2384091796875,0.08533435067534446,0.006971556045673787,0.007095486102730501
1782846228243414500,1.24841455078125,0.09131810126006602,0.008524904701206832,0.008313999613595661
1782846228253419500,1.25841943359375,0.10718027178049087,0.014469346188846976,-0.004192270907934289
1782846228263424500,1.268424560546875,0.0940115781277418,0.009130378047376871,0.009217156715109013
1782846228273429500,1.278429443359375,0.08308861757516861,0.011053528129681944,0.006399347931577358
1782846228283434500,1.2884345703125,0.08877718460559844,0.02606543849632144,0.008876522017316892
1782846228293439500,1.298439453125,0.09221592688262462,0.012106599112879484,0.00039867361151846124
1782846228303444500,1.308444580078125,0.09535773203969002,-0.002688709361013025,0.004304958051769062
1782846228313449500,1.318449462890625,0.07186579729318618,0.009811364315170793,0.005148642334295436
1782846228323453200,1.328453125,0.1004471641331911,0.011746844156086443,-0.0036828395314747464
1782846228333458200,1.338458251953125,0.0959597895860672,0.010930468005593866,0.011752189334772992
1782846228343463400,1.34846337890625,0.0808487296938896,0.012466518466453998,0.00306563693160424
1782846228353468400,1.358468505859375,0.09431494498848915,0.0009745806531980633,0.001762383729754947
1782846228363473400,1.368473388671875,0.09925415495634078,0.011973127192631362,0.010737146523734553
1782846228373478400,1.378478515625,0.09731178871691226,0.01020573392761871,-0.003194839102111291
1782846228383483400,1.3884833984375,0.08983166209459305,-0.00814366856496781,0.003273614843189716
1782846228393488400,1.39848828125,0.0928226606041193,0.014693729529250412,-0.009833245070127304
1782846228403493400,1.408493408203125,0.07950608291327953,0.01703011832125485,-0.007835648361989297
1782846228413498400,1.418498291015625,0.08998071517646312,0.009559618043806404,-0.005388967595924623
1782846228423503400,1.42850341796875,0.08683832549750804,0.0025231070031411945,-0.007837671355716884
1782846228433508400,1.43850830078125,0.0857902777493,0.008362133621238171,0.00013846775577403605
1782846228443513300,1.448513427734375,0.08489128308296204,0.007831844403129071,-0.004558375690411776
1782846228453518300,1.458518310546875,0.09357026410102844,0.006653685735538602,0.0030346481382963245
1782846228463523300,1.4685234375,0.10599018521308898,-0.0015743549109436571,-0.0004298313681851141
1782846228473528300,1.4785283203125,0.09925824660956858,-0.00016381225958466528,-0.013901729768188669
1782846228483533300,1.488533203125,0.08713584713935851,0.018610482847876846,-0.0008482462932122871
1782846228493538300,1.498538330078125,0.08085223682522773,0.014997023324761539,0.0031600509165204127
1782846228503543300,1.508543212890625,0.07381810040473938,0.014756054175738244,0.015124752774101215
1782846228513547500,1.518547607421875,0.07935410722196101,0.001010419151559472,0.017216902747761925
1782846228523552500,1.528552490234375,0.08803075015246868,0.006959299352299422,-0.008879563357774168
1782846228533557500,1.5385576171875,0.08174421722888946,0.018148637489788233,-0.006506744695652741
1782846228543561500,1.5485615234375,0.10329320121407508,0.003577876753080636,0.014394203159981406
1782846228553566500,1.55856640625,0.08204524600207805,0.006868497529998421,0.00120058741181856
1782846228563571500,1.568571533203125,0.08219488360583782,0.004017802540306001,0.0057435029549058525
1782846228573576400,1.578576416015625,0.09072071988880634,0.010285831692814827,0.005777788816997781
1782846228583581400,1.58858154296875,0.08443769409656524,0.014979926059488207,0.015548277699085882
1782846228593586400,1.59858642578125,0.08713350905179977,0.015764427500683815,-0.005605875449348241
1782846228603591400,1.60859130859375,0.10748597672879695,0.014046608998440206,-0.0009149617037386633
1782846228613596400,1.618596435546875,0.09281739990711212,0.00645540495077148,0.0032401326986961063
1782846228623601400,1.628601318359375,0.09236556448638439,0.012717278357129543,0.004328256728965789
1782846228633606400,1.6386064453125,0.10927578275501727,0.011788308677636087,-0.011008526794041972
1782846228643611400,1.648611328125,0.09535948560535908,-0.0004890621585771441,0.005799744920479134
1782846228653616400,1.658616455078125,0.08548398827910422,0.01788372120959684,0.011949209744215476
1782846228663621400,1.668621337890625,0.09027414516508579,0.013501724999397993,0.017288342282467055
1782846228673626400,1.67862646484375,0.09386544765532016,-0.007734777236822992,0.014332239273097366
1782846228683631400,1.68863134765625,0.07441372821033,0.007509334450494498,0.01034856276467908
1782846228693636400,1.69863623046875,0.1005997243463993,0.003776723793428391,-0.007261195775168016
1782846228703641300,1.708641357421875,0.08892799125313758,0.006174706579558551,-0.008894813442544546
1782846228713646300,1.718646240234375,0.09999942036569118,0.010732333351299165,0.010495565453357994
1782846228723651300,1.7286513671875,0.09760171157419681,0.0002607698280364275,-0.006928381340939086
1782846228733656300,1.73865625,0.0926660087376833,0.007210406302846968,0.003446162965078838
1782846228743661300,1.748661376953125,0.0787491270661354,-0.0033768194893375038,0.0053618124442291444
1782846228753665500,1.75866552734375,0.08937105884552002,0.014964856354519725,-0.005584081459359731
1782846228763670500,1.76867041015625,0.07575520594716072,0.010279347153101116,-0.000931737025314942
1782846228773675500,1.778675537109375,0.09072364249825476,0.010521375748049467,-0.002454674559563864
1782846228783680500,1.788680419921875,0.10060089339017868,0.004935465374495834,-0.00902522803931497
1782846228793685500,1.798685546875,0.0896767637938261,0.008990275456942618,0.0009442288974183611
1782846228803690500,1.8086904296875,0.08713234000802039,0.018135083888471126,-0.0035621928434702564
1782846228813695500,1.818695556640625,0.08009703454375267,0.0044948820001445705,0.007535249776463024
1782846228823700500,1.828700439453125,0.09296586846709251,0.02635811956627294,0.014075919574603904
1782846228833705500,1.83870556640625,0.09236731805205345,0.010188764526508748,0.005402996121277101
1782846228843710500,1.84871044921875,0.09386544765532016,0.003809804079122841,0.005076896838913671
1782846228853715500,1.858715576171875,0.10718202534615993,0.014353355126362294,-0.016953918129752856
1782846228863720400,1.868720458984375,0.1017979942202568,0.015561178279854357,-0.004767246367852203
1782846228873725400,1.878725341796875,0.09311959772408009,0.003139777596760541,0.006429533007286954
1782846228883730400,1.88873046875,0.08638765912055969,0.010108721560239791,0.00637886454926338
1782846228893735400,1.8987353515625,0.11003390764594077,0.014899079375620931,0.004869398417940828
1782846228903740400,1.908740478515625,0.09312602746486663,0.004386142662353813,0.005534285217593424
1782846228913745400,1.918745361328125,0.07831248921453952,0.007506375308427959,0.021565149668697266
1782846228923750400,1.92875048828125,0.09656710782945155,0.01097801520805806,0.0011984776531229727
1782846228933755400,1.93875537109375,0.10703881748318672,0.003935384953860193,-0.011787516376480926
1782846228943760400,1.948760498046875,0.09297054464221,0.01810764789227396,-0.0009397742012981325
1782846228953765400,1.958765380859375,0.08144786463081836,0.00992326372442767,0.0015870066132512874
1782846228963770400,1.968770263671875,0.08818038775622844,0.004023318965639918,-0.007263316950306762
1782846228973774300,1.9787744140625,0.08698387144804,-0.004681691542826593,-0.005587654806068167
1782846228983779300,1.988779296875,0.09626432549059391,0.02120292876018211,0.009803658216039185
1782846228993784300,1.998784423828125,0.10853285543322562,0.009481967964023352,-0.003334398269851226
1782846229003789300,2.008789306640625,0.08833236344754695,0.005262030447740107,-0.003608212525839917
1782846229013794300,2.018794189453125,0.07771043166816234,0.010384451495390384,0.017027782516984735
1782846229023799300,2.02879931640625,0.08998013065457343,0.007252473612595349,-0.0063393659392255355
1782846229033804500,2.038804443359375,0.09506547109484673,0.009262863586936145,0.006376099486730527
1782846229043809500,2.0488095703125,0.07471417246162891,0.0004339161715470254,-0.007461207292717881
1782846229053814500,2.058814453125,0.08458791622221469,0.0033973690870217977,0.014560004163964186
1782846229063819500,2.068819580078125,0.1037415295034647,0.025987441356666384,0.0041379172220593315
1782846229073824500,2.078824462890625,0.07964812173247336,0.012589980449341237,0.013487854020961094
1782846229083829500,2.08882958984375,0.10014847344756125,0.005093779475055634,-0.005311557261447887
1782846229093834500,2.09883447265625,0.08084229995310306,0.007921952105686069,-0.0004374438524828292
1782846229103839500,2.108839599609375,0.089820556178689,0.010011197736207395,0.008042203784757293
1782846229113844500,2.118844482421875,0.07889584206044674,0.012434716822393237,0.00538464989712229
1782846229123849500,2.128849365234375,0.09236264187693595,-0.0009975962026044726,-0.001730837814020924
1782846229133854500,2.1388544921875,0.1025385834544897,0.00406977018956095,-0.005030831490771379
1782846229143859500,2.148859375,0.09400865551829338,0.02624163531344384,0.007901717601832933
1782846229153864400,2.158864501953125,0.0893716433674097,0.007130308537650853,-0.01029916381513467
1782846229163869400,2.168869384765625,0.09026713090240955,0.013066731115616858,-0.00022650451554218307
1782846229173874400,2.17887451171875,0.09849661458730698,0.00920813772501424,-0.002816308662900701
1782846229183878400,2.18887841796875,0.09430559263825417,0.00596022357866168,0.008629488453688099
1782846229193883400,2.19888330078125,0.07799217121899127,0.013399214472994208,-0.0005335999866249039
1782846229203888400,2.208888427734375,0.09355565105378627,0.017853289538715032,0.0012441639753524214
1782846229213893400,2.218893310546875,0.08667173675894736,0.016665084401145575,0.006775519733631517
1782846229223898400,2.2288984375,0.09670154786407947,0.011249525625817478,-0.008413939157000276
1782846229233903400,2.2389033203125,0.08937281241118908,0.00948527416596189,-0.014673207331029697
1782846229243908400,2.248908447265625,0.10284195031523703,0.021983228950295596,0.007964857382362243
1782846229253913300,2.258913330078125,0.09431143785715103,0.019924268860183655,0.004821894597960636
1782846229263918300,2.26891845703125,0.08443360244333743,0.008335154282767324,0.005710514000756665
1782846229273923300,2.27892333984375,0.08308627948760985,0.0023991883625276386,-0.007226763782603666
1782846229283928300,2.28892822265625,0.08892214603424071,0.03337075654100626,-0.0027984944449970495
1782846229293933300,2.298933349609375,0.08233750694692134,0.01918724155621603,-0.004888562059425749
1782846229303938300,2.308938232421875,0.10074234768748283,0.010404124310240149,0.01046216322396649
1782846229313943300,2.318943359375,0.09835048411488533,0.011807890160940587,-0.006346300286799669
1782846229323948300,2.3289482421875,0.09760054253041743,0.005733757879026234,-0.003021117369865533
1782846229333953300,2.338953369140625,0.0856289497077465,0.015022924950998275,0.007291230153827928
1782846229343958300,2.348958251953125,0.08877192390859126,0.02053027192931622,0.00786434930008836
1782846229353963300,2.35896337890625,0.1032838488638401,0.005987549977004528,-0.006418628020782489
1782846229363968300,2.36896826171875,0.09729951375722884,0.0026579671628773212,0.007497317502426448
1782846229373973200,2.37897314453125,0.07919336370229721,0.010137509263306855,0.00546570436025504
1782846229383978200,2.388978271484375,0.092657240909338,0.007884433106891811,0.00558610673637595
1782846229393983500,2.3989833984375,0.10567395887076854,0.01754603195413947,-0.007888632074685301
1782846229403987500,2.408987548828125,0.09744505970776081,0.01076017120629549,0.005736719304381404
1782846229413992400,2.418992431640625,0.07769406505525112,0.007600008408632129,0.0010932796959998085
1782846229423997400,2.42899755859375,0.09011866234242916,0.004245711278356611,-0.008781571459572295
1782846229434002400,2.43900244140625,0.0783002142548561,0.006680920802336186,0.007150232514250092
1782846229444007400,2.44900732421875,0.09057049776315688,0.006239533710386604,-0.02098227631340269
1782846229454012400,2.459012451171875,0.08878010721504688,0.0007625270714052021,0.004545819886226672
1782846229464017400,2.469017333984375,0.0829454097121954,-0.0028856019062921405,-0.018131805085996166
1782846229474022400,2.4790224609375,0.09446750520169735,0.017304240821208804,0.010567123719071968
1782846229484027400,2.48902734375,0.08967968640327453,0.009493932396452874,0.009336291866039391
1782846229494032400,2.499032470703125,0.08414484862983226,0.01075956841809675,-0.004653593392926268
1782846229504037400,2.509037353515625,0.08983224661648273,0.013702654398977755,0.005254244433506391
1782846229514043000,2.51904296875,0.09507014726996421,0.006649173957202583,-0.012450190669449511
1782846229524048000,2.5290478515625,0.07591770303249358,-0.005817015715688467,-0.0011900523180724122
1782846229534052900,2.539052978515625,0.08339958322048187,0.007956767690740526,0.006368089710210916
1782846229544057900,2.549057861328125,0.1077934352427721,0.014396463615726678,-0.0016493723589344881
1782846229554062800,2.559062744140625,0.10495032077133655,0.020086565016116945,-0.006179668165754992
1782846229564067800,2.56906787109375,0.0705319183409214,0.01178144054543227,-0.004851428936410229
1782846229574072800,2.57907275390625,0.08713935427069663,0.017399116030428558,-0.0036399274049326775
1782846229584077800,2.589077880859375,0.0875894361257553,-0.0017907924069091676,0.007909722811775282
1782846229594082800,2.599082763671875,0.08295008588731288,0.002131696532759815,0.011210360375919845
1782846229604087800,2.609087890625,0.0883352860569954,0.0038932811114937064,0.014648938256164546
1782846229614091800,2.619091796875,0.09252572348415851,0.009703739222232251,0.017607381636381612
1782846229624096800,2.6290966796875,0.08354746725857258,0.0019175605917349456,-0.004293030151957646
1782846229634101800,2.639101806640625,0.08370002747178078,0.0017665164821781217,-0.006323095224436838
1782846229644106800,2.649106689453125,0.09447627303004265,0.01739084139242768,-0.000924750162102282
1782846229654111700,2.65911181640625,0.08415361645817757,0.007100187394022941,0.0018220483449869788
1782846229664116700,2.66911669921875,0.09896481662094593,0.008850318996980786,-0.0037217033872730095
1782846229674122000,2.6791220703125,0.09836451264023781,0.0018930106723681092,0.0010165726144216022
1782846229684127000,2.689126953125,0.08355155891180038,-0.0002408960837870836,-0.001196545990940649
1782846229694132000,2.699132080078125,0.09447627303004265,0.010350238698534667,-0.011556433867232407
1782846229704137000,2.709136962890625,0.08744622826278209,0.001545494142640382,0.005410012667241971
1782846229714142000,2.719141845703125,0.08789806368350982,0.001998681270238012,0.000981457918556407
1782846229724147000,2.72914697265625,0.09747487032413482,0.01111917724441737,-0.007266282942239194
1782846229734152000,2.73915185546875,0.08744622826278209,0.01843147301916033,0.007435641309909988
1782846229744157000,2.749156982421875,0.08729542161524295,0.002475139675568789,0.007107936875638552
1782846229754162000,2.759161865234375,0.07966448834538459,0.009034662587940692,0.004144203115662094
1782846229764167000,2.7691669921875,0.07951368169784545,0.008631744342856108,-0.003791211259795818
1782846229774172000,2.779171875,0.0982207202553749,0.01467162729529664,0.0017444210980902424
1782846229784177000,2.789177001953125,0.08116203342676162,0.004645305055193603,0.004852543181262444
1782846229794182000,2.799181884765625,0.09463000228703021,0.004037183094210923,0.012771179951855446
1782846229804187000,2.809186767578125,0.095680388122797,0.0024228067001327873,0.015446484125312417
1782846229814191900,2.81919189453125,0.08431202189028263,0.020181147964391855,0.007197763733693864
1782846229824195800,2.82919580078125,0.09299100290834904,0.013146920212358236,-0.0013182338585611432
1782846229834200800,2.839200927734375,0.09254209009706973,0.014344678629562258,0.0017921075811609625
1782846229844205800,2.849205810546875,0.09299158743023872,0.008333985238987951,0.004538186852331273
1782846229854210800,2.8592109375,0.09658113635480403,0.00976279419939965,0.02427381040577311
1782846229864215800,2.8692158203125,0.08071779679059982,-0.0011085822964087128,0.014659206205140798
1782846229874220800,2.879220703125,0.09268938961327075,0.006811945037171244,0.0028624493595678356
1782846229884225800,2.889225830078125,0.09523147531151771,0.007332808839809149,0.003386085074604489
1782846229894230800,2.899230712890625,0.08924714020490646,0.008189279538672416,-0.009886192250205204
1782846229904235800,2.90923583984375,0.1000198786318302,0.002400649667251855,0.0004005984238348901
1782846229914240800,2.91924072265625,0.09538345100283623,0.019212248133309184,0.00621843840671936
1782846229924245800,2.929245849609375,0.0956850642979145,0.018068302262574432,-0.0073263631160021755
1782846229934250800,2.939250732421875,0.08236848660707473,0.010834186290577053,-0.0017404344761394895
1782846229944255700,2.949255859375,0.09015022652447223,0.004974610074795782,0.014714548554993235
1782846229954260700,2.9592607421875,0.09942834247946739,0.006291227365005761,0.017728685911512002
1782846229964265700,2.969265625,0.08775777842998504,0.0075950582388788455,0.0021776226002955808
1782846229974270700,2.979270751953125,0.09434183299541472,0.01175910084946081,0.01194543318481883
1782846229984275700,2.989275634765625,0.0977811597943306,-0.003228661456611007,0.01199606739351293
1782846229994280700,2.99928076171875,0.09104805214703082,-0.0014546923203393816,-0.0023143322238232938
1782846230004285700,3.00928564453125,0.08596212718486786,0.007743289336841553,-0.019960041143174748
1782846230014290700,3.019290771484375,0.07982932351827621,0.008976740121934562,0.0012160544090089387
1782846230024296000,3.0292958984375,0.10107844777405262,-0.0037630240616388618,0.0025261163775576276
1782846230034300000,3.0392998046875,0.08745850322246551,0.012972897086013107,0.026004018032131714
1782846230044305000,3.049304931640625,0.08446808923482894,0.01155630828635767,-0.013005538980290292
1782846230054310000,3.059309814453125,0.07713643117249011,0.018860201558936387,-0.012751612168282736
1782846230064315000,3.06931494140625,0.10227671764791012,0.004590506128035485,0.01382061822284013
1782846230074320000,3.07931982421875,0.0879167683839798,0.01020005310550332,0.015249826758762354
1782846230084324900,3.089324951171875,0.08941431346535682,0.026141097548417744,0.002966581020900048
1782846230094329900,3.099329833984375,0.0885176568865776,0.013083316924236714,0.0019878927314537576
1782846230104334800,3.1093349609375,0.09151274704933166,0.011483133452292531,0.012544150279927998
1782846230114339800,3.11933984375,0.10078677135109901,0.019091617428325117,0.020213365166983566
1782846230124344800,3.1293447265625,0.0891144537359476,0.00865888807810843,0.011064554130483883
1782846230134349800,3.139349853515625,0.09016074791848659,0.017395718496944754,-0.0006942202087026089
1782846230144354800,3.149354736328125,0.07594576008319855,0.009124039638135581,0.018176984518149402
1782846230154359800,3.15935986328125,0.08597147953510284,0.004016487366054207,0.010506340292410458
1782846230164364800,3.16936474609375,0.07205518238544463,0.011955938595812766,0.01742799963161815
1782846230174369800,3.179369873046875,0.08477730131447314,-0.00017427885467186568,0.0002726748949615285
1782846230184374800,3.189374755859375,0.08148468950986862,0.011374558511283248,-0.013439430035662371
1782846230194380000,3.199380126953125,0.07924129449725151,0.007703633179888128,0.01295951473134337
1782846230204385000,3.209385009765625,0.08283551959693432,0.018371614324394613,0.008945025242841803
1782846230214390000,3.21939013671875,0.07624912694394588,0.013255732615385204,-0.00048720127834239973
1782846230224395000,3.22939501953125,0.09615209728777407,0.026211861229687928,0.004012975668138824
1782846230234398700,3.239398681640625,0.08313245671689509,0.024902422598935662,-0.010985518094501457
1782846230244403700,3.24940380859375,0.07789630962908267,-0.0007288805301301181,-0.002711813958676066
1782846230254409000,3.259408935546875,0.07206219664812087,-0.0006588292349129915,-0.0002109690196928568
1782846230264414000,3.2694140625,0.08926993655860424,0.013130170006956904,-0.007192114877619314
1782846230274419000,3.2794189453125,0.07370879481136798,0.00873140532504767,-0.005370109915116336
1782846230284424000,3.289423828125,0.10004968924820423,0.011520451521687208,-0.005252988624759018
1782846230294429000,3.299428955078125,0.09526362401545047,0.003487604653742164,-0.0028050200839061287
1782846230304434000,3.309433837890625,0.0770107589662075,0.01037504434622824,-0.005362846773979254
1782846230314439000,3.31943896484375,0.08554477855563163,-0.002839442943315953,0.007750328715692739
1782846230324444000,3.32944384765625,0.107692897477746,0.015947455917391926,0.0014276604662300087
1782846230334449000,3.339448974609375,0.10440145471692085,0.008146426777634769,0.00374575554971816
1782846230344454000,3.349453857421875,0.08794365639090537,0.0052210043176077305,0.0037909121489850804
1782846230354459000,3.359458984375,0.09811959796845912,0.005033336258400231,0.004243939446378499
1782846230364464000,3.369464111328125,0.08914192626476287,0.006061144936177879,-0.006237848643376492
1782846230374469000,3.37946923828125,0.09902034620046615,0.008195453551132232,0.009534529268322512
1782846230384474000,3.38947412109375,0.09617547816336154,0.004814030951913446,-0.0024270673167193306
1782846230394479000,3.39947900390625,0.09722118782401085,0.008027239111065863,-0.002331228559697047
1782846230404484000,3.409484130859375,0.0909405001193285,0.010841474547889083,0.012586982491367962
1782846230414489000,3.419489013671875,0.07732406269907952,0.005270907873939723,0.011496981597843113
1782846230424494000,3.429494140625,0.06939560778737068,-0.008147997680213301,0.007997038052335847
1782846230434499000,3.4394990234375,0.07104688212573528,-0.007460636470559984,0.01497074495590059
1782846230444502800,3.449502685546875,0.08600888893604278,0.004726809326186776,-0.010318695066089276
1782846230454507800,3.4595078125,0.10396423234343528,0.012570545096509157,-0.01198355953838909
1782846230464512800,3.4695126953125,0.09738017777800559,0.013013667487818747,-0.011787397645472082
1782846230474517800,3.479517822265625,0.08226736432015895,0.005502506406418979,-0.00422372777541168
1782846230484522800,3.489522705078125,0.07732756983041762,0.0033371815986931322,-0.002798040070559364
1782846230494527700,3.49952783203125,0.08241524835824966,-0.007716456128843128,-0.003166793467849493
1782846230504532700,3.50953271484375,0.08899988744556904,0.001539027869235724,0.0009775443618418647
1782846230514537700,3.519537841796875,0.08585866681039332,-0.0045023711868561805,0.012307124370371457
1782846230524542700,3.529542724609375,0.09528642036914825,0.01145686649987474,0.00977521757284412
1782846230534547700,3.539547607421875,0.10007599273324012,0.008847359854914248,0.005480159860581625
1782846230544552700,3.549552734375,0.10875380470752716,-0.006050386080145836,0.010052025220228824
1782846230554557700,3.5595576171875,0.08720306715667248,0.008591960321739315,0.006608136410627048
1782846230564562700,3.569562744140625,0.10306465315520763,-0.0008437208151444792,-0.0012805869956035165
1782846230574567700,3.579567626953125,0.08944996930062771,0.013855068481713532,-0.008703553770319557
1782846230584572700,3.58957275390625,0.07583528544604778,-0.003756977913342416,0.005201726511691231
1782846230594577700,3.59957763671875,0.09199322404265403,0.0067090326519683,0.006399466662586201
1782846230604583000,3.6095830078125,0.08555822255909443,-0.0009086392775177955,-0.0003149294343777001
1782846230614588000,3.619587890625,0.10201952801644802,-0.005900894606858492,-0.01170934342360124
1782846230624593000,3.629593017578125,0.09139467362761497,0.001295684100035578,0.014801761047565377
1782846230634598000,3.639597900390625,0.07612871543467044,0.00784777262462303,-0.0007417628445895388
1782846230644603000,3.649602783203125,0.09648001406788825,0.010215159343089909,0.001156312161963433
1782846230654606800,3.65960693359375,0.09318974035084247,0.009529003709834068,0.0035537355423788538
1782846230664611800,3.66961181640625,0.10605857427418232,0.0014563545544631778,0.0017904476303257978
1782846230674616800,3.679616943359375,0.09917524450123309,0.0005678630158305167,-0.00019386718784226103
1782846230684621800,3.689621826171875,0.08181786698698996,0.004589738943055272,0.008446272807312197
1782846230694626800,3.699626708984375,0.09917349093556403,0.006027169601339847,-0.007470153217576444
1782846230704631800,3.7096318359375,0.09902034620046615,-0.006077913407888263,0.0018504570221411995
1782846230714636800,3.71963671875,0.09064122491180897,0.013502565249614417,0.01324659717757022
1782846230724641800,3.729641845703125,0.08824819229543208,0.004187460018787533,-0.005440859896654729
1782846230734646800,3.739646728515625,0.06774842510223389,0.009529734362196177,0.0039371019869111476
1782846230744651800,3.74965185546875,0.08854980559051036,-0.0028031112546101212,0.004746673937281593
1782846230754656800,3.75965673828125,0.08166530677378177,0.005777469156589359,-0.014454751407913862
1782846230764661800,3.769661865234375,0.07657704372406006,-0.004650090828165412,-0.0011358493292471393
1782846230774666800,3.779666748046875,0.0791197139441967,0.014849687275942413,0.0033329438149929044
1782846230784671700,3.789671630859375,0.0830061999887228,0.01575945906462148,0.0012096223849337548
1782846230794676700,3.7996767578125,0.09842238030731677,0.012329411550704389,0.0020856243347516282
1782846230804681700,3.809681640625,0.08166179964244365,0.005809508262667805,-0.000667887040914502
1782846230814686700,3.819686767578125,0.07746960864961147,0.006972999084088951,0.0030484734509605912
1782846230824691700,3.829691650390625,0.07686872014701367,0.009304912630375474,0.00721039488640381
1782846230834696700,3.83969677734375,0.09512158519625663,-0.0001502769245766103,0.0033233288865652864
1782846230844701000,3.849700927734375,0.0988654478996992,0.008860347200650721,0.00978144181765383
1782846230854706000,3.859705810546875,0.0895896700322628,0.003075023531168699,0.0010595441064680925
1782846230864711000,3.8697109375,0.09587444939017295,0.0032079839947633444,0.007562706322257872
1782846230874716000,3.8797158203125,0.09258125306367873,0.009102722855471075,0.0021870388826122507
1782846230884721000,3.889720947265625,0.08479951314628124,0.01464274826068431,-0.014655007237347308
1782846230894726000,3.899725830078125,0.08060732215344905,0.005927271157130599,-0.002412623232835904
1782846230904731000,3.90973095703125,0.09182546626031399,0.003167268391884863,-0.0019167568741366265
1782846230914735900,3.91973583984375,0.09346855729222298,0.014513148797955363,0.011598880202893633
1782846230924740900,3.929740966796875,0.08074702288508415,0.012949863270297646,0.016782029878278263
1782846230934745900,3.939745849609375,0.09585866729915142,0.0062840487055480475,-0.006441942680999636
1782846230944750800,3.949750732421875,0.09600888942480086,0.00014256854215636847,0.016837301446183117
1782846230954755800,3.959755859375,0.0973538742929697,0.005915124061610549,0.002000217923487071
1782846230964760800,3.9697607421875,0.10154489624202251,0.0012316424204967915,-0.01999676099094795
1782846230974765800,3.979765869140625,0.07610708812475205,0.006308105434570461,-0.0026178589147748425
1782846230984770800,3.989770751953125,0.08568272572159767,0.017568097655475137,0.008691959230648354
1782846230994775800,3.99977587890625,0.09092413350641727,0.007803422026243061,-0.00976416188928997
1782846231004780800,4.00978076171875,0.07700549826920032,0.020477975486498323,-0.0012884232421871275
1782846231014785800,4.019785888671875,0.1105254905551672,0.0021548216800205407,-0.0009039950684411451
1782846231024790800,4.029790771484375,0.08448620941340923,0.003893993497546762,-0.005387136398442089
1782846231034795800,4.039795654296875,0.08747720792293548,0.006223605488892644,0.00830374993092846
1782846231044800800,4.04980078125,0.09854980607926846,0.0070015310588292775,-0.00151974321345333
1782846231054804700,4.0598046875,0.08972352554500103,0.001786426759045571,0.010697049692075234
1782846231064809700,4.069809814453125,0.09211831172704696,0.007898826958425342,0.009368561584269627
1782846231074814700,4.079814697265625,0.09316402138769626,0.0017287417550571262,-0.0029275253688567314
1782846231084819700,4.08981982421875,0.09047112904191017,0.007822108460403978,0.0027497165499604306
1782846231094824700,4.09982470703125,0.09301379926204681,0.016865228349436073,0.0017078176980372516
1782846231104829700,4.10982958984375,0.08837269545793533,0.015147409847192466,0.01611572515638545
1782846231114834700,4.119834716796875,0.08119067499935627,-0.004015446186438202,-0.01597150122997118
1782846231124839700,4.129839599609375,0.1006476551413536,-0.005401384119503199,-0.014264411901007405
1782846231134844700,4.1398447265625,0.10259352851212024,-0.005301924066711217,-0.000443688646890223
1782846231144849700,4.149849609375,0.08418985681533812,-0.0022414587838575245,-0.003904663305322174
1782846231154854700,4.159854736328125,0.08658464299738407,0.00701572398096323,-0.004605756212805863
1782846231164859600,4.169859619140625,0.10005319637954234,0.011026676655374467,-0.000018161277775652707
1782846231174865000,4.179864990234375,0.0906266118645668,0.023863270543236285,0.010998194912984035
1782846231184870000,4.189869873046875,0.08389233517348765,0.019082228545472025,0.010519896177016198
1782846231194875000,4.199875,0.09736322664320468,-0.001396934251114726,-0.012266319719236344
1782846231204880000,4.2098798828125,0.1024514896929264,-0.0038362354283221064,-0.0022019898565718904
1782846231214884900,4.219884765625,0.09721651164889335,-0.004995232737716287,0.0023612834879546424
1782846231224889900,4.229889892578125,0.08958440933525562,0.0073078387953341,0.003590270443772897
1782846231234894800,4.239894775390625,0.07492109321057797,0.0004966244105249643,-0.0017254835021798499
1782846231244898800,4.24989892578125,0.08569324711561202,-0.001974843736924231,0.0004314913190202787
1782846231254903800,4.25990380859375,0.07611468690931797,0.009315032165590674,0.0020958648842643013
1782846231264908800,4.26990869140625,0.09137655344903468,-0.0026129955099895596,0.010974382495845201
1782846231274913800,4.279913818359375,0.09227496359348297,0.009644099723175167,0.011763525862828828
1782846231284918800,4.289918701171875,0.08045534646213054,-0.001960669081099331,-0.005856717538414523
1782846231294923800,4.299923828125,0.08269991051852703,-0.002846694668009877,-0.009693450723658315
1782846231304928800,4.3099287109375,0.07956044344902038,0.002859736812673509,0.00853456072882982
1782846231314933800,4.319933837890625,0.09003215310275554,0.008967807896807789,0.01818809728391934
1782846231324938800,4.329938720703125,0.09616671033501624,0.01708791292309761,0.00831862783965189
1782846231334943700,4.33994384765625,0.092726214492321,0.005057740047294646,0.008549890728702303
1782846231344948700,4.34994873046875,0.10469371566176414,-0.0012160247262567282,0.005834035349148325
1782846231354953700,4.35995361328125,0.0814981335133314,0.01337404349911958,0.012886253132310229
1782846231364958700,4.369958740234375,0.09002630788385868,0.003540266422741115,-0.010935301727626938
1782846231374963700,4.379963623046875,0.08598433901667595,-0.004023300699330866,-0.01664103680527769
1782846231384968700,4.38996875,0.09346563468277454,0.014424611997976898,0.011757744576013647
1782846231394973700,4.3999736328125,0.08837854067683219,0.020524755503982306,-0.010133024884434415
1782846231404978700,4.409978759765625,0.10005144281387328,0.0043046018587425345,0.010630201850808225
1782846231414983700,4.419983642578125,0.10259235946834087,0.002784424820449203,0.007822674715984612
1782846231424988700,4.42998876953125,0.08762684552669525,0.0018240188230760393,-0.011540747674333397
1782846231434993000,4.439992919921875,0.1003425347149372,0.015874262817017735,-0.01186226667970186
1782846231444998000,4.449997802734375,0.09899754984676837,0.015644728377461434,-0.009975482535432092
1782846231455003000,4.4600029296875,0.09869944368302822,0.0006331102717667818,0.017008475028316025
1782846231465007900,4.4700078125,0.09301555282771587,0.0065026050933636725,0.0018034783585462717
1782846231475012900,4.480012939453125,0.08897358396053313,0.005075695829093456,0.0007117627152591012
1782846231485017900,4.490017822265625,0.09091828828752041,0.005844817038066685,-0.000024422055203467605
1782846231495022800,4.50002294921875,0.08761983126401901,0.006435951331630349,-0.007067324020748492
1782846231505027800,4.51002783203125,0.08492693891823291,0.009263521174062043,-0.007113946491316892
1782846231515032600,4.520032470703125,0.10168576601743698,0.003461666494887322,-0.017542243978299666
1782846231525037600,4.53003759765625,0.08836626571714877,0.010121909835375845,-0.0238167142880382
1782846231535042600,4.54004248046875,0.08851648784279822,-0.00006983209950849413,-0.014607476017903536
1782846231545047600,4.550047607421875,0.09809621709287165,0.0059419938022270795,0.005183464769215789
1782846231555052500,4.560052490234375,0.0901689312249422,0.010274232586566357,-0.020131602884375023
1782846231565057500,4.5700576171875,0.0820867470562458,-0.008654942555353045,0.0006571578676346689
1782846231575062500,4.5800625,0.09585399112403392,-0.0013243439389392733,0.01153887081107823
1782846231585067500,4.590067626953125,0.09705050743222236,0.00707499815383926,0.0008948093982762657
1782846231595072500,4.600072509765625,0.08941840511858462,0.011608202870376408,-0.010318779547768645
1782846231605077500,4.610077392578125,0.07131400862932205,0.0031634142006747423,-0.002293259753042366
1782846231615082500,4.62008251953125,0.08657704421281814,0.0022893165135756135,0.0018883573301369323
1782846231625086500,4.63008642578125,0.09136544753313064,0.0038042693874798714,0.013813165568746625
1782846231635091500,4.640091552734375,0.09166647630631923,-0.008097673998773097,-0.01473065943957772
1782846231645096400,4.650096435546875,0.09720423668920994,0.014446568101458251,-0.010190107100224121
1782846231655101400,4.660101318359375,0.08149053472876548,0.021855364786926654,0.010903333403496071
1782846231665106400,4.6701064453125,0.06368482892513275,-0.0006330554728396237,-0.012593199886311777
1782846231675111400,4.680111328125,0.09046879095435142,0.006306790260318666,-0.010151409924495964
1782846231685116400,4.690116455078125,0.09046820643246173,0.010507785614114255,0.001412654693343211
1782846231695121400,4.700121337890625,0.09211480459570884,0.0047985593881458045,-0.008888758161093574
1782846231705126400,4.71012646484375,0.09301496830582619,0.01215821970226243,-0.012320538691082038
1782846231715131600,4.720131591796875,0.09047755878269671,0.008295772120449692,-0.0004117317392025143
1782846231725136600,4.73013671875,0.08927753534317016,-0.012242810979485512,-0.003786660665553063
1782846231735141600,4.7401416015625,0.08239771270155906,0.007795293518714606,0.004351932148786727
1782846231745146600,4.750146728515625,0.09362111750543117,0.01196587546793744,0.02054838754131924
1782846231755151600,4.760151611328125,0.0852455033481121,0.011193283660244196,-0.0000061899954802356655
1782846231765156600,4.770156494140625,0.08644552678763866,-0.009161649968475103,0.010963728671090212
1782846231775161600,4.78016162109375,0.09183481861054897,0.019748948825895785,-0.00957532706959173
1782846231785166600,4.79016650390625,0.08211012793183327,0.01623953419914469,-0.00868826030306518
1782846231795171600,4.800171630859375,0.08735153571665287,0.010961630328837782,0.018305175191792658
1782846231805176600,4.810176513671875,0.0895984378606081,0.013235018620919435,0.008345853773294947
1782846231815180500,4.8201806640625,0.09603110125660896,0.0073153279820457094,0.001315779323282186
1782846231825185500,4.830185546875,0.09408639692962169,0.0012936382734216748,0.005225831189774908
1782846231835190500,4.8401904296875,0.10680617777109146,0.00921306962845847,-0.0032584195573464965
1782846231845195500,4.850195556640625,0.0852583628296852,0.0020202903138473627,0.00297972363026347
1782846231855200500,4.860200439453125,0.09423603453338146,-0.005279072914086282,-0.0031600029674591495
1782846231865205500,4.87020556640625,0.09139642719328403,0.01339753397256136,0.006102150516712572
1782846231875210500,4.88021044921875,0.0901993263632059,0.002204359910171479,0.00007540104048093781
1782846231885215500,4.890215576171875,0.07957505649626255,0.0008513195997104048,-0.002837661978183314
1782846231895220500,4.900220458984375,0.09124620506763458,0.006106500181555748,0.010735657819546758
1782846231905225500,4.9102255859375,0.10591010571420192,0.009703848820086567,-0.010896184426790568
1782846231915230500,4.92023046875,0.09603402386605739,0.01346106419544667,0.0018999998188694008
1782846231925235500,4.9302353515625,0.07882569943368434,0.009743267515022308,0.003058323558117263
1782846231935240400,4.940240478515625,0.0931885713070631,0.025549378732964395,-0.010444963210704736
1782846231945245400,4.950245361328125,0.08795008613169193,0.012154310712125152,0.001061526001000311
1782846231955250400,4.96025048828125,0.09558160392343998,0.012289645795896649,-0.0055340272059780544
1782846231965255400,4.97025537109375,0.08615326584279537,-0.0035283202566206455,-0.0012185272105969488
1782846231975260400,4.980260498046875,0.07702537201344967,0.005178553415369242,0.002305749341857154
1782846231985265400,4.990265380859375,0.09797405201792717,0.010268259503506124,0.0031514977173064834
1782846231995270400,5.0002705078125,0.08899404222667216,0.003313362331688404,0.016913748232857323
1782846232005274600,5.010274658203125,0.07807225071787834,-0.008128251800127327,0.01481424378651427
1782846232015279600,5.020279541015625,0.09213701642751693,0.009587638561893253,-0.009585700049845035
1782846232025284600,5.03028466796875,0.09423194288015366,0.013785017186496405,0.007531409284984692
1782846232035289600,5.04028955078125,0.08869827415049075,0.00721035150391981,0.0008699786344077438
1782846232045294600,5.050294677734375,0.10620528926849365,0.004390343913435936,-0.01795708327332977
1782846232055299600,5.060299560546875,0.09169453335702418,0.005383355272468179,0.005419193770829588
1782846232065304600,5.0703046875,0.0955892027080059,0.024201580853201447,0.0007358536936109885
1782846232075309600,5.0803095703125,0.08346972584724426,0.00665691887224093,-0.0005387693520868197
1782846232085314600,5.090314453125,0.07733575313687324,-0.0016310170016251503,0.02327797233541496
1782846232095319600,5.100319580078125,0.08436638242602348,0.01720350212678313,-0.005286240157100838
1782846232105324500,5.110324462890625,0.09274725728034973,-0.002734904856607318,0.0063099366320529945
1782846232115329500,5.12032958984375,0.08915537026822566,-0.000772281280439347,-0.0032008076185942626
1782846232125334500,5.13033447265625,0.09125321933031082,0.0015129801125265657,-0.011490654605044982
1782846232135339500,5.140339599609375,0.11355097585618495,0.004865889003314077,-0.01281793713645311
1782846232145344500,5.150344482421875,0.08945990617275237,0.0005101049466058611,-0.005570452509517781
1782846232155349500,5.160349609375,0.09020809419155121,-0.005475801062583923,0.013404851912625599
1782846232165354500,5.1703544921875,0.08556348325610161,0.000012768150027841328,0.0008977936565177514
1782846232175359500,5.180359375,0.07987550074756145,0.0035330329643562435,0.001646317318745423
1782846232185363500,5.190363525390625,0.08735621189177036,-0.009723886961117386,-0.0014378576332586817
1782846232195368400,5.200368408203125,0.08884908079802989,-0.00686889938879758,-0.0037435909920954143
1782846232205373400,5.21037353515625,0.08959668429493904,0.00016984014157205818,0.0007519508784636855
1782846232215378400,5.22037841796875,0.09139292006194591,0.005392360562831163,0.007179095565841998
1782846232225383400,5.230383544921875,0.09722937113046645,0.01687257140567526,0.004443147246330045
1782846232235388400,5.240388427734375,0.09004559710621833,0.01022104109460488,0.0009081780532142147
1782846232245393400,5.250393310546875,0.08211071245372295,0.0063381717792712145,-0.008194017362582963
1782846232255398400,5.2603984375,0.10111527265310287,0.015596395723707973,-0.011924280798935797
1782846232265403400,5.2704033203125,0.10485738179087638,0.002669785464834422,-0.011117996784194837
1782846232275408400,5.280408447265625,0.09602700960338115,0.01217920769136399,0.00039337638189317656
1782846232285413400,5.290413330078125,0.09048866469860076,0.017646094795130192,0.015849900127318687
1782846232295418600,5.300418701171875,0.10784370412528514,-0.005412544834334403,0.0007299970582709647
1782846232305423600,5.310423583984375,0.09946750544607638,0.008045158360246569,0.01612406144317938
1782846232315428600,5.3204287109375,0.10171031593680381,0.003629406010918319,0.002688535831077024
1782846232325433600,5.33043359375,0.10305880793631077,0.006093896428309381,-0.004597216713323723
1782846232335438600,5.3404384765625,0.08435352294445038,0.010138440845068543,0.009691455129394308
1782846232345443600,5.350443603515625,0.09049041826426982,-0.0002737571737729013,0.005338449834950734
1782846232355448600,5.360448486328125,0.09527648349702357,0.009870985547918825,0.012417882135312537
1782846232365452500,5.37045263671875,0.08509878835380077,-0.00004049640716984868,-0.002743531121057458
1782846232375457500,5.38045751953125,0.093323011341691,0.00875542552145198,0.0021458620554301888
1782846232385462500,5.390462646484375,0.09002864597141742,0.013511150414869189,-0.011281450567464343
1782846232395467500,5.400467529296875,0.0895768105506897,0.011388513971399516,-0.0034925091577228157
1782846232405472500,5.410472412109375,0.09496317976415157,-0.0008620967220515012,0.0029140242831781505
1782846232415477500,5.4204775390625,0.09122282419204711,0.009754263833072036,0.00010512032530969008
1782846232425482500,5.430482421875,0.08239479009211063,0.00913388517871499,0.006000582988513633
1782846232435487500,5.440487548828125,0.08314064002335071,0.002809139136597514,-0.006167721999634523
1782846232445492500,5.450492431640625,0.08792670525610446,-0.0011256247627548872,0.00913000358804129
1782846232455497500,5.46049755859375,0.09121697897315025,0.0022353213040158153,0.003816873140726238
1782846232465502500,5.47050244140625,0.0934586204200983,0.010939509828574955,-0.005975884655385744
1782846232475507500,5.480507568359375,0.10468085618019103,0.009011099049262701,-0.0016370699997874908
1782846232485512400,5.490512451171875,0.09600187516212463,0.013660057366266846,0.0014068186076008713
1782846232495517400,5.500517333984375,0.09270867883563041,0.009653726068045944,0.010268901107611599
1782846232505522400,5.5105224609375,0.08193184875547885,0.012324680576659738,-0.006183679903880693
1782846232515528200,5.520528076171875,0.09045943860411644,0.007930701667722313,0.004255718932428863
1782846232525533200,5.530533203125,0.09689385556578635,0.0030202976692467924,0.0025645555416704156
1782846232535538200,5.5405380859375,0.08821604359149933,0.006263078982755541,-0.004039386467740405
1782846232545542100,5.550542236328125,0.07429974644184112,0.01822407734617591,0.0035499703994253647
1782846232555547100,5.560547119140625,0.0756511610507965,0.0076935136446729295,-0.0011617212727316655
1782846232565552000,5.57055224609375,0.10183949527442454,0.010611958374641834,0.0037890741016366517
1782846232575557000,5.58055712890625,0.09660159462094306,0.00752683357456699,0.011696862967940978
1782846232585562000,5.59056201171875,0.08268295938372612,0.0026792474129237235,0.02161148901147535
1782846232595567000,5.600567138671875,0.09480652789771556,0.005993449994828552,0.0020298184773069805
1782846232605572000,5.610572021484375,0.1022901616513729,0.012170184134691953,-0.014110876723553519
1782846232615577300,5.620577392578125,0.08867197066545486,0.024638054308015852,-0.0024525899170432237
1782846232625582300,5.630582275390625,0.09615326633155345,0.021669614690169692,0.011046646297746337
1782846232635587300,5.64058740234375,0.09405833987891674,0.008200695981830358,-0.009139107059815433
1782846232645592300,5.65059228515625,0.08343640809953212,0.00032535949684679504,0.006577414762089028
1782846232655597300,5.660597412109375,0.08657762873470783,0.00515309018054977,0.01694772585098399
1782846232665602300,5.670602294921875,0.10722937161922454,0.014045476487278937,0.02280960133841727
1782846232675607300,5.680607177734375,0.10333645583391189,0.002337338640075177,0.007777340020204428
1782846232685612300,5.6906123046875,0.08627426187396049,0.00022060221442952752,0.008154886362014804
1782846232695617300,5.7006171875,0.08672609729468822,0.012388064669072628,-0.005646022513357456
1782846232705622300,5.710622314453125,0.094809450507164,0.010607793656177818,-0.003121292091999203
1782846232715627300,5.720627197265625,0.09077332685887814,0.004743285536952317,-0.0009702538212412036
1782846232725631200,5.73063134765625,0.08837970972061157,0.004721585161797702,0.006568767948041204
1782846232735636200,5.74063623046875,0.10364391434788703,0.00870614301962778,0.005279362891742493
1782846232745641200,5.75064111328125,0.10289514180719851,-0.0033799247618764637,-0.0018377824869472532
1782846232755646200,5.760646240234375,0.09047463617324829,0.003525982169061899,-0.009723809329303912
1782846232765651200,5.770651123046875,0.09915186362564563,0.007027907609101385,-0.0013331848325207828
1782846232775656200,5.78065625,0.08673428060114383,0.00421626598816365,-0.004697092324646655
1782846232785661200,5.7906611328125,0.09661036244928836,-0.004765917493868619,-0.0031015210957382805
1782846232795666200,5.800666259765625,0.10439268688857554,0.01434239534093067,-0.008028362489072606
1782846232805671200,5.810671142578125,0.09062310473322868,0.01041804323773831,0.005134072669537272
1782846232815676200,5.82067626953125,0.09122223967015743,0.01650982077419758,0.026495815570489502
1782846232825681200,5.83068115234375,0.10079963083267211,-0.0005704202990978956,-0.003295879190636333
1782846232835686100,5.84068603515625,0.10184534049332142,0.008311956070270389,-0.000575091907638125
1782846232845691100,5.850691162109375,0.09705635265111923,0.011508048697840422,0.01549042144845007
1782846232855696100,5.860696044921875,0.10214344665706157,-0.003274966550059616,0.008927231574535835
1782846232865701000,5.870701171875,0.08059154006242751,0.01563095558043569,0.0056301125581725495
1782846232875706000,5.8807060546875,0.07699673044085502,0.0036666144824586805,0.00044512026886222883
1782846232885711000,5.890711181640625,0.08148644307553768,0.011698822029586881,0.0015904863451258278
1782846232895715300,5.90071533203125,0.08088964622616768,0.00803058184562251,0.0046863289020373485
1782846232905720300,5.91072021484375,0.09765314950048923,0.0024481055381707847,0.003138462422508746
1782846232915725300,5.920725341796875,0.08538228147029876,-0.007984696877282113,0.0010994445753050967
1782846232925730300,5.930730224609375,0.08912205252051353,-0.004188756926730275,0.004124059943354223
1782846232935735300,5.9407353515625,0.08088906170427798,0.01165615193163976,0.005636270587611943
1782846232945740300,5.950740234375,0.08986439532041549,0.018510164278559386,-0.004796203034278005
1782846232955745300,5.960745361328125,0.09300795404314995,-0.0023428367991000414,0.01893180092384573
1782846232965750300,5.970750244140625,0.0844786106288433,0.0188829065810889,0.0000073384896619245405
1782846232975755300,5.98075537109375,0.09046294573545455,0.005038176830299198,0.004230796837015077
1782846232985760300,5.99076025390625,0.09675181674659251,0.007089209342282265,-0.0005195303620770573
1782846232995765200,6.00076513671875,0.08897183039486407,0.006311174174491316,0.007474329352483619
1782846233005770200,6.010770263671875,0.08178980993628501,0.011092508433200417,-0.0001547772864694707
1782846233015775200,6.020775146484375,0.08732698579728602,0.000592248538415879,0.008084051898797042
1782846233025780200,6.0307802734375,0.09301496830582619,0.020856161149125543,0.012636513871653005
1782846233035785200,6.04078515625,0.09271861570775508,0.015304901963844894,0.01192795232705539
1782846233045790200,6.050790283203125,0.08643851252496242,0.017049316212069242,0.010110073267109691
1782846233055795200,6.060795166015625,0.08853519254326819,0.019786778351943937,-0.003803682582301553
1782846233065800200,6.07080029296875,0.0882347482919693,0.003955423094891011,-0.0023258240155060775
1782846233075804200,6.08080419921875,0.10903612878024578,0.00867786677321419,0.007694851651811041
1782846233085809200,6.09080908203125,0.0882347482919693,0.005317304298933595,-0.00013174803733127192
1782846233095814100,6.100814208984375,0.0993061774045229,0.011691278043948114,0.008659726045036223
1782846233105819100,6.110819091796875,0.08509060504734516,0.00977474036552012,0.01071984376248438
1782846233115824000,6.12082421875,0.09975509021580219,0.008863689935207366,0.0123554775737226
1782846233125829000,6.1308291015625,0.09257482332289219,0.009182711022812873,-0.0011597233951790257
1782846233135834000,6.140834228515625,0.0894324336439371,0.013527078636363148,0.004768762471503578
1782846233145839000,6.150839111328125,0.08284954812228679,0.001966879626177251,-0.007203229926677886
1782846233155844000,6.160843994140625,0.09063128803968429,0.00854872396821156,-0.018524724810163023
1782846233165849000,6.17084912109375,0.11876081945896148,0.003110734165366739,-0.0038363450261764227
1782846233175854000,6.18085400390625,0.10424538737237453,0.00749247464723885,-0.0021413822431350124
1782846233185859300,6.190859375,0.10035773228406905,0.001672828583046794,0.011755516086309216
1782846233195864300,6.2008642578125,0.08808861781954765,-0.000016202216129750014,-0.000022597707586828618
1782846233205869300,6.210869384765625,0.08554360951185226,0.003934599502570927,0.0023973868477973155
1782846233215874300,6.220874267578125,0.09122925393283367,0.008445190528500825,0.024313235950574743
1782846233225879300,6.23087939453125,0.08344459140598773,0.019680431900639086,0.01903913375583943
1782846233235884300,6.24088427734375,0.08793430404067039,-0.0077413713743910186,-0.012269121314387302
1782846233245888300,6.25088818359375,0.08793313499689101,0.007861782883666455,-0.0006613225860986859
1782846233255893200,6.260893310546875,0.0894283419907093,0.0059643517645075915,0.004583982772415038
1782846233265898200,6.270898193359375,0.08523790456354617,-0.00521830090386793,0.0112902731947368
1782846233275903200,6.2809033203125,0.09451660504043102,0.00042580593032762404,-0.010766269870230463
1782846233285908200,6.290908203125,0.0975111106812954,0.007509900706075131,0.0015765605677617713
1782846233295913200,6.300913330078125,0.09332242681980132,0.00207286075130105,0.02399580174856819
1782846233305918200,6.310918212890625,0.08703530937433242,0.013695512272138147,0.01382769185102079
1782846233315923200,6.320923095703125,0.08658698108494281,0.006194836052134633,-0.0037046654875040985
1782846233325928200,6.33092822265625,0.0894283419907093,0.008342588670551777,0.001180910030391533
1782846233335933200,6.34093310546875,0.08493804483413696,0.009761880883947015,-0.008784016861696727
1782846233345938200,6.350938232421875,0.09032558309137821,0.014655881736893205,-0.005927702698681969
1782846233355943200,6.360943115234375,0.0868880098581314,0.012220288620423524,-0.0012644258786691353
1782846233365948200,6.3709482421875,0.10110416673719883,0.017306304914131758,-0.014105355731642339
1782846233375953200,6.380953125,0.10035773228406905,0.0010501849063672124,0.0022447124701575373
1782846233385958100,6.390958251953125,0.09392214627861976,0.0033553017772734164,-0.005005877429316751
1782846233395963100,6.400963134765625,0.08210194462537765,-0.0032935251200571654,0.00221387894047657
1782846233405967400,6.41096728515625,0.09167875126600265,0.028406412131898102,0.00782167920214124
1782846233415972400,6.420972412109375,0.10678981115818023,0.005478394878469408,0.01623613894894952
1782846233425977300,6.430977294921875,0.09347031085789204,0.01769420825317502,0.0036450465380446985
1782846233435982300,6.440982421875,0.10199556261897086,0.012350253409333526,0.0011834513306384906
1782846233445987300,6.4509873046875,0.0954109235316515,0.015964881976228206,0.009418844166514463
1782846233455992300,6.460992431640625,0.08733107745051384,0.0026070406932383774,0.005628249394649174
1782846233465997300,6.470997314453125,0.09092062637507915,0.009132643069699405,0.0046122110697673635
1782846233476002300,6.481002197265625,0.09196692055761814,0.0054182987216860054,-0.0013967150554060935
1782846233486007300,6.49100732421875,0.09181962104141711,0.0032049152548424896,-0.010663106323278044
1782846233496012300,6.50101220703125,0.08717851723730563,0.010787132278457283,0.009226579847291578
1782846233506017300,6.511017333984375,0.09436170673966407,0.002828702353592962,0.012923927394731435
1782846233516022300,6.521022216796875,0.09645487962663173,0.007559968659188598,-0.004024373844987713
1782846233526027300,6.53102734375,0.08642740660905837,0.014222659685090183,-0.007679176875355187
1782846233536032300,6.5410322265625,0.08567629598081111,0.002383698532450944,-0.0022640975906397217
1782846233546037200,6.551037353515625,0.09704816934466362,0.011250530272815376,-0.0010598637668765148
1782846233556042200,6.561042236328125,0.08672551277279854,0.0006523812278173863,-0.0006227692575543187
1782846233566047200,6.571047119140625,0.08582651810646057,0.015383428826462476,-0.001987716918229125
1782846233576052200,6.58105224609375,0.08373276069760321,0.014293624295759946,0.006166868049686309
1782846233586056200,6.59105615234375,0.09121113375425338,0.015341489380877465,-0.011314389289263635
1782846233596061200,6.601061279296875,0.10752163256406784,0.022086780656315384,0.017049795702681874
1782846233606066200,6.611066162109375,0.08417641281187534,0.007058777671400457,-0.00045933830717112865
1782846233616071200,6.6210712890625,0.07714052282571793,0.003601093231886625,-0.0006135402049054392
1782846233626076200,6.631076171875,0.09419804061055183,-0.0008739880892448126,0.0009030269540613516
1782846233636081200,6.6410810546875,0.10302490566670894,0.01370842655263841,0.007246114653756376
1782846233646086100,6.651086181640625,0.08357318622171879,0.008439619304239749,0.005001938756427262
1782846233656091100,6.661091064453125,0.08626549404561519,0.02390632423367351,-0.0018558569997549055
1782846233666096000,6.67109619140625,0.08611527191996574,0.011221614705584942,0.004469740709022153
1782846233676101000,6.68110107421875,0.0885088890582323,0.015598368485085666,-0.004414896116091404
1782846233686106000,6.691106201171875,0.08043138106465339,-0.0023445720984600483,0.012056816570844966
1782846233696111000,6.701111083984375,0.08566928171813487,0.01858134808493778,-0.003986176709469874
1782846233706116000,6.7111162109375,0.08252513847351074,0.0077347041715867815,0.0023395374470273965
1782846233716121000,6.72112109375,0.09000935674905776,0.01421703366190195,-0.012483910275960805
1782846233726126000,6.7311259765625,0.10018237571716308,0.010268734427541493,-0.005951994606433436
1782846233736131000,6.741131103515625,0.09210077607035637,-0.0009143018333241343,0.0053065111935720775
1782846233746135300,6.75113525390625,0.09180033181905746,0.008562003574892878,0.0050507349177729335
1782846233756140300,6.761140380859375,0.09673895726501941,0.006896444982849061,0.018118377065553793
1782846233766145300,6.771145263671875,0.09733575411438941,0.013258965752087532,-0.005864435053989291
1782846233776150300,6.781150390625,0.0832674812734127,0.01143175032492727,0.002104966072749812
1782846233786155300,6.7911552734375,0.06456687245666981,-0.003995992567297071,0.017230186921020504
1782846233796160300,6.80116015625,0.08836217406392097,0.008627342162374407,0.007642139650462195
1782846233806165200,6.811165283203125,0.08342354861795902,0.01810333704333752,0.004269635576638393
1782846233816170200,6.821170166015625,0.09150397922098637,0.007770780131965875,0.007187267455854453
1782846233826175200,6.83117529296875,0.08566752815246581,-0.0010044278021901845,-0.010706061832304112
1782846233836180200,6.84118017578125,0.08865852666199207,0.015830752468854188,-0.004273101608781144
1782846233846185200,6.851185302734375,0.09988310050964355,0.023700846523139623,-0.0014379078656085766
1782846233856190200,6.861190185546875,0.10467033478617667,0.016095595683809368,-0.003415493832179345
1782846233866195200,6.8711953125,0.08835808241069316,0.015264752616547047,0.014542785884393379
1782846233876200200,6.8812001953125,0.09957914912700652,0.000528115527331829,0.009787768810451961
1782846233886205200,6.891205078125,0.09539046526551247,0.002137450420111418,0.00997592549342662
1782846233896210200,6.901210205078125,0.09868307707011699,0.012294778628740458,0.0119264133905177
1782846233906215200,6.911215087890625,0.09912789822816848,-0.010899524878058581,-0.005142573353112675
1782846233916219100,6.92121923828125,0.10002689289450645,0.0026736396560445427,-0.0011867278498248197
1782846233926224100,6.93122412109375,0.07877659959495067,0.013376692113932222,0.003415509815199766
1782846233936229000,6.94122900390625,0.10406418558657168,-0.002280457353685051,0.011336103364150038
1782846233946234000,6.951234130859375,0.11304302633404731,0.01850811845194548,-0.016188164771511217
1782846233956239000,6.961239013671875,0.09598141689598559,0.020876802078355104,-0.002694671027630102
1782846233966244000,6.971244140625,0.08445932140648364,0.00532598079573363,0.011435583966539707
1782846233976249300,6.981249267578125,0.10017068527936934,-0.0012441000432707368,-0.0005071435212506912
1782846233986254300,6.99125439453125,0.09059095602929591,0.006820511936116963,-0.004359985307790339
1782846233996259300,7.00125927734375,0.09956570512354374,0.021673012223653493,-0.003449190605804324
1782846234006264300,7.011264404296875,0.07233458384871483,0.015710377492196857,-0.0029915305157774126
1782846234016269300,7.021269287109375,0.08879296669661998,0.01219500804869458,0.0025407408412429504
1782846234026274300,7.0312744140625,0.09163432760238648,-0.0019091398232616483,0.007218989184813108
1782846234036279300,7.041279296875,0.09657587565779685,0.001083173860516399,0.009332684270001482
1782846234046284300,7.0512841796875,0.08475450496077537,-0.005188782548438757,0.0011685620054719037
1782846234056289300,7.061289306640625,0.10226268912255763,0.013194851007312535,0.013253330595744774
1782846234066294300,7.071294189453125,0.11602934866845607,0.00540962222488597,0.006341491680941544
1782846234076298200,7.08129833984375,0.09777589909732341,0.0015603446519002317,0.014525113230384886
1782846234086303200,7.09130322265625,0.09268880509138107,0.003459438005182892,0.003206675670377444
1782846234096308200,7.10130810546875,0.09493453819155692,0.014335161882545798,-0.0001657302220351994
1782846234106313200,7.111313232421875,0.08386077099144458,0.012568426204659044,0.004424988251843023
1782846234116318200,7.121318115234375,0.09882686945497988,0.011123835153225809,0.005105602343589998
1782846234126323200,7.1313232421875,0.10361293468773364,0.0006007058395072817,-0.0012927158248145132
1782846234136328200,7.141328125,0.09089256932437419,0.018036117026023566,0.01075703853429295
1782846234146333200,7.151333251953125,0.09538462004661559,0.017610603356640785,0.007988176609156654
1782846234156338200,7.161338134765625,0.09224456845521926,0.016741309708822517,0.005424349436559714
1782846234166343200,7.17134326171875,0.086709730681777,0.0038183527117595074,-0.002660501613258384
1782846234176348200,7.18134814453125,0.09299158743023872,-0.013107373653259128,-0.0009128222622908651
1782846234186353200,7.191353271484375,0.08954933802187443,0.006059500968363136,0.004924546688259579
1782846234196358100,7.201358154296875,0.09224456845521926,0.008232004435546695,0.005237832154822535
1782846234206363100,7.211363037109375,0.09493512271344662,-0.00003196604084223509,0.005749275108566507
1782846234216368000,7.2213681640625,0.08820026150047779,0.017236618945095688,-0.0039147577243624256
1782846234226372400,7.231372314453125,0.08715279827415942,0.0031891148975118993,0.005197134818253107
1782846234236377300,7.24137744140625,0.09792553670108317,-0.0079879848129116,0.025429437581147067
1782846234246382300,7.25138232421875,0.09972118794620037,0.008488956604991108,0.015930034425132907
1782846234256387300,7.26138720703125,0.07936755122542381,0.008321381485741585,0.0022929971748497334
1782846234266392300,7.271392333984375,0.08041559897363186,0.012163261203560977,-0.005469069927698001
1782846234276397300,7.281397216796875,0.10510755715966225,0.008331848080828786,0.011487508233310654
1782846234286402300,7.29140234375,0.1007698202162981,0.013359814044367521,0.004502850677468814
1782846234296407300,7.3014072265625,0.1000198786318302,0.011059336815960705,0.010297994771355297
1782846234306412300,7.311412353515625,0.08400982407331466,0.001861117696762085,-0.0025231892015319317
1782846234316417300,7.321417236328125,0.09418225851953028,0.009916011999733746,0.0009154526107944548
1782846234326422300,7.33142236328125,0.1042073934495449,0.01757976982695982,0.014241391785023733
1782846234336427300,7.34142724609375,0.10405717132389544,0.009535798776801675,0.020849665192968676
1782846234346432300,7.351432373046875,0.09013912060856819,0.01887839480275288,0.009495469049701933
1782846234356437200,7.361437255859375,0.10046528431177139,-0.0063063884015195065,0.00068050677718129
1782846234366442200,7.371442138671875,0.09448153372704982,0.02175641619078815,-0.0007727379381656646
1782846234376447200,7.381447265625,0.10540858593285084,0.012033917469158767,-0.004189158785529434
1782846234386452200,7.3914521484375,0.08700316067039966,0.009639387015439569,-0.006185517951229121
1782846234396456200,7.401456298828125,0.0838601864695549,-0.004560165788698941,-0.017171097694523633
1782846234406461200,7.411461181640625,0.09448153372704982,-0.0033729835644364355,0.021712218572746494
1782846234416466200,7.421466064453125,0.10375731159448623,-0.0009095343266613781,0.022515114187158177
1782846234426471200,7.43147119140625,0.09043722677230834,0.018049067839141935,0.01031890284535475
1782846234436476200,7.44147607421875,0.08953940114974974,0.01833791298419237,0.016348328335862607
1782846234446481200,7.451481201171875,0.08834288484156132,-0.00024442148143425583,0.01156831381798256
1782846234456486100,7.461486083984375,0.0901379515647888,0.020722433500550686,0.012290776023769285
1782846234466491100,7.4714912109375,0.08669687120020389,0.010387173175439237,-0.004917256147658918
1782846234476496100,7.48149609375,0.07996434807479381,0.009286554989777505,0.0008035943007329478
1782846234486501000,7.491501220703125,0.09732231011092662,0.005547934717033058,0.013626166513108181
1782846234496506000,7.501506103515625,0.08191080596745014,0.013582589949574321,0.017604554925055707
1782846234506511000,7.511510986328125,0.0846054518789053,0.003084850805439055,-0.012773609370959456
1782846234516516000,7.52151611328125,0.0923866072744131,0.017472564859129486,0.017945217022311406
1782846234526521000,7.53152099609375,0.10480652838647365,0.014776475909259169,-0.009144945428846403
1782846234536526000,7.541526123046875,0.08924830924868583,0.009491302047949284,0.008143794145842547
1782846234546530300,7.5515302734375,0.09104571405947208,0.006298899214807897,0.013201762522000353
1782846234556535300,7.561535400390625,0.09852876329123973,0.007002919298317283,0.00445744519974105
1782846234566540300,7.571540283203125,0.09224573749899864,0.013664459546748548,0.008702816268091555
1782846234576545300,7.581545166015625,0.0886526814430952,0.0007086597260087728,0.008697055530874059
1782846234586550300,7.59155029296875,0.1052618709385395,-0.000002940875757485628,0.008438144299783743
1782846234596555300,7.60155517578125,0.0976326912343502,0.0081138944812119,-0.004868820745917037
1782846234606560300,7.611560302734375,0.09883271467387676,0.003515972231701016,0.00748860675629694
1782846234616565200,7.621565185546875,0.09105214380025863,0.0012261442614719272,-0.00036693589953938497
1782846234626570200,7.6315703125,0.09763795193135738,0.008031677824165672,-0.005634985096112359
1782846234636575200,7.6415751953125,0.08746084131002425,0.011879274896718561,0.007824955721327569
1782846234646580200,7.651580322265625,0.09464169272482395,-0.001958586721867323,0.001398591918661259
1782846234656585200,7.661585205078125,0.08805880720317363,0.012789338946342467,0.008735106535919477
1782846234666590200,7.671590087890625,0.10032909071147442,0.01265939242374152,-0.00659842101749964
1782846234676595200,7.68159521484375,0.10062836591899395,-0.0013987974146381019,0.010080066287913358
1782846234686600200,7.69160009765625,0.08761047891378403,0.007681512679625302,0.009904145748715381
1782846234696605200,7.701605224609375,0.09255027340352534,0.010892346218600869,0.005255573307489976
1782846234706609200,7.711609130859375,0.09689093295633792,0.0011155600264668463,-0.0011838098069536498
1782846234716614100,7.7216142578125,0.0956932476043701,0.011461780137009919,0.012829748588544316
1782846234726619100,7.731619140625,0.09075462215840815,0.01615026674680412,-0.009744758502498735
1782846234736624000,7.7416240234375,0.09360007471740245,0.0034897052792832255,-0.0113989577336004
1782846234746629000,7.751629150390625,0.09150397922098637,0.009091836135275661,0.0077853018476627765
1782846234756634000,7.761634033203125,0.09195230751037597,0.026330281711276618,-0.0042783417561906385
1782846234766639400,7.771639404296875,0.0867144068568945,0.013793602351751177,-0.002950760113971773
1782846234776644400,7.781644287109375,0.09329378524720668,0.004260452189762145,0.014723935154557694
1782846234786649300,7.7916494140625,0.09419277991354465,0.013809293111227451,0.010529506538866553
1782846234796654300,7.801654296875,0.09269581935405731,0.013370298905763774,-0.02030924958977848
1782846234806659300,7.811659423828125,0.08551262985169887,0.010867522304598242,0.00821993497184012
1782846234816664300,7.821664306640625,0.08476561087667941,-0.003230360223352909,0.018850607180106452
1782846234826669300,7.83166943359375,0.08282266011536121,-0.011541439510788768,0.0191190694075427
1782846234836674300,7.84167431640625,0.08940905276834964,0.004206804040074348,0.008445503339043352
1782846234846679300,7.85167919921875,0.10213058717548847,0.002766121978778392,0.017964061003387904
1782846234856683300,7.861683349609375,0.0927051717042923,0.010775277443882077,0.0035403714540181677
1782846234866688300,7.871688232421875,0.09046353025734424,0.010050872159469872,0.01630014181258157
1782846234876693200,7.881693359375,0.09734393742084503,0.009729257255978882,0.007697244538296945
1782846234886698200,7.8916982421875,0.10826514440774918,0.013292557494435458,0.0001146142394398339
1782846234896703200,7.901703125,0.09060673812031746,0.009424483889434485,0.009450246235064696
1782846234906708200,7.911708251953125,0.0840256061643362,0.014714206061698496,0.016731936808989847
1782846234916713200,7.921713134765625,0.09524725740253925,0.0028028920589014887,0.007733713224320672
1782846234926718200,7.93171826171875,0.09075403763651847,0.015107735423929989,-0.0009952992142410948
1782846234936723200,7.94172314453125,0.09389525827169418,0.003786532801389694,0.019789767176762688
1782846234946728200,7.951728271484375,0.10287468354105948,0.01927912109075114,-0.0026884741822839715
1782846234956733200,7.961733154296875,0.10062895044088363,0.002145505862403661,0.008359868598915635
1782846234966738200,7.97173828125,0.08880991783142089,-0.005745795376691967,0.01439939764161827
1782846234976743200,7.9817431640625,0.08626841665506363,0.0056827035452239215,-0.011468767000222578
1782846234986748200,7.991748046875,0.0968921020001173,0.015291220498364419,0.008448487597284837
1782846234996753200,8.001753173828124,0.08731471083760262,0.01081518932916224,-0.004693231283570639
1782846235006758100,8.011758056640625,0.08761106343567371,0.016907642719056457,0.00872996685320977
1782846235016762400,8.021762451171876,0.09074936146140097,0.019932580030802637,0.008752404730592389
1782846235026767400,8.031767333984375,0.09434007942974566,0.017407134940102695,0.003974461155501194
1782846235036772400,8.0417724609375,0.08925064733624458,0.012708601860329507,-0.009555304911581334
1782846235046777300,8.05177734375,0.08431552902162075,0.017056622735690325,-0.004127854769059922
1782846235056782300,8.0617822265625,0.0937415290147066,0.0061683316376991565,0.012828769057721364
1782846235066787300,8.071787353515624,0.08117313934266566,0.004197670885547996,0.02011063772815978
1782846235076792300,8.081792236328125,0.1112567274391651,0.01813747677495703,0.014072286862391046
1782846235086797300,8.09179736328125,0.10168167436420916,0.007421418705023825,-0.0038233028815127905
1782846235096802300,8.10180224609375,0.09868775324523449,0.002824720298219472,0.006689617848733905
1782846235106807300,8.111807373046876,0.10003390715718269,0.0052539750054478645,-0.00046831848135916516
1782846235116812300,8.121812255859375,0.0922515827178955,0.007547529302723705,0.011007987937924917
1782846235126817300,8.1318173828125,0.08836217406392097,0.0006332929348573088,-0.0014932410823064856
1782846235136822300,8.141822265625,0.0853676684230566,0.012506028492935,0.0034229327865410593
1782846235146827300,8.1518271484375,0.07998071468770504,0.007873582919314503,0.016527354147599545
1782846235156832300,8.161832275390625,0.08222410970032215,0.0077617565752938385,-0.005861724790383596
1782846235166836200,8.171836181640625,0.08760755630433559,0.012564718143921344,0.006961874901875853
1782846235176841200,8.18184130859375,0.09688625678122043,0.007867025314364583,0.005097667915595229
1782846235186846200,8.19184619140625,0.08162322119772433,0.009061331399157643,0.0170858305638656
1782846235196851200,8.201851318359376,0.09524258122742175,0.0038861207183450456,-0.004820764370087999
1782846235206856200,8.211856201171875,0.0983908161252737,0.011108290524221956,0.005904977126931771
1782846235216861200,8.221861083984376,0.0956979237794876,0.004657580014877021,-0.00522742949181702
1782846235226866200,8.2318662109375,0.09001403292417526,0.012920162251777946,0.006485770406282972
1782846235236871200,8.24187109375,0.0847796394020319,0.0008240114676766097,-0.00012489588814787567
1782846235246876200,8.251876220703124,0.09031389265358447,0.001237816432956606,0.007240251168550457
1782846235256881200,8.261881103515625,0.09749649763405323,0.009642382690124213,0.014867697856668381
1782846235266886100,8.27188623046875,0.08881693209409713,0.019853249450586734,0.0020997921407106333
1782846235276891100,8.28189111328125,0.08627367735207081,0.00888984728977084,0.005838506028288975
1782846235286896000,8.291896240234376,0.09525427166521548,0.010856325057148933,0.016633712015347555
1782846235296901000,8.301901123046875,0.0901695157468319,0.0125215548556298,0.0022770803697989323
1782846235306906000,8.311906005859376,0.08044248698055743,0.0005893076626583934,0.00935830048515927
1782846235316910300,8.321910400390625,0.09839666134417056,0.01702060157423839,0.006378170429519377
1782846235326915300,8.331915283203125,0.09450374555885792,0.016526004724018276,-0.007641144136618822
1782846235336920300,8.34192041015625,0.07849369100034237,0.012437712497077882,-0.002565411774907261
1782846235346925300,8.35192529296875,0.09450783721208572,0.005571406924165785,0.01567963072748389
1782846235356930300,8.361930419921874,0.10259002138078212,0.00353739861221984,0.00427035024598008
1782846235366935300,8.371935302734375,0.09391104036271572,0.011466017920710146,0.0007694682688452303
1782846235376940300,8.381940185546876,0.09361293419897555,-0.003222487444151193,0.003778625772858504
1782846235386945300,8.3919453125,0.06802899560928344,0.0009389248179271817,-0.00562467833122937
1782846235396950300,8.4019501953125,0.09121931706070899,0.011873977667093276,0.0016289095262181945
1782846235406955300,8.411955322265625,0.10349193865656853,0.009839914556220174,0.009792011160729452
1782846235416960300,8.421960205078125,0.10214403117895125,0.014673508725129066,0.004316621090099215
1782846235426965200,8.43196533203125,0.09451660504043102,0.0020647505100816485,0.003942659511440434
1782846235436970200,8.44197021484375,0.08748246861994266,0.0016715499414131044,-0.006596119462558999
1782846235446975200,8.451975341796874,0.08299158694148064,0.0117786092675291,-0.013565287188324145
1782846235456980200,8.461980224609375,0.08418576516211032,0.009222056652512401,0.01166558191368822
1782846235466984200,8.471984130859376,0.10049392588436602,0.021729509917553513,0.026030846673552877
1782846235476989200,8.4819892578125,0.0900204626649618,0.0019415077229030429,0.028516459794074762
1782846235486994200,8.491994140625,0.09151391609311103,0.010776172493025659,0.01125798292690888
1782846235496999200,8.501999267578125,0.1042377885878086,-0.0006703735422343016,0.04227823995216749
1782846235507004200,8.512004150390625,0.0849403829216957,0.007588409302383661,0.002698285473533906
1782846235517009400,8.522009521484375,0.08598901519179343,0.006937069254182279,-0.008808055324410088
1782846235527014400,8.532014404296875,0.1002034185051918,-0.0012351312855258584,0.010397893215564545
1782846235537019400,8.542019287109374,0.09945581500828266,0.007734229247551411,-0.006336870304751209
1782846235547024400,8.5520244140625,0.08988134645521641,-0.0005786401381716132,0.012755936716950963
1782846235557029400,8.562029296875,0.08658990369439125,0.001786737286299467,0.016103151085891294
1782846235567034400,8.572034423828125,0.09826163678765297,0.0019176884558983146,-0.003080857333622407
1782846235577039400,8.582039306640626,0.09108078537285327,-0.0019018515659496187,0.004914566433650907
1782846235587044400,8.59204443359375,0.08251870873272418,0.013016973689757287,0.01460150065155467
1782846235597049600,8.602049560546876,-0.27022037794888015,0.004236852118466049,-0.08389523038347252
1782846235607054600,8.6120546875,0.6193804370999336,-0.008772285324707627,0.2016059106018394
1782846235617058600,8.62205859375,-0.18971242451667786,0.003665847297478467,-0.13525308631015942
1782846235627063600,8.6320634765625,0.29003859261870385,0.009666695147473365,0.12122174794608727
1782846235637068500,8.642068603515625,-0.052472530037164684,0.020561543850414452,-0.07661777759324759
1782846235647073500,8.652073486328124,0.24770985545516014,0.004095708348415792,0.026159126395452766
1782846235657078500,8.66207861328125,-0.025526070922613144,0.030495621229801324,-0.04641768697760999
