time,seconds_elapsed,z,y,x
1782846227060330000,0.065330078125,0.001898301183246076,0.002255164785310626,0.002127865795046091
1782846227070335000,0.0753349609375,0.0032711606472730637,0.005874933209270239,-0.0008796420879662037
1782846227080339000,0.0853388671875,0.0007440872141160071,-0.010526943020522594,-0.0007105313707143068
1782846227090344000,0.095343994140625,0.0033489251509308815,-0.008044877089560032,-0.0009161274065263569
1782846227100349000,0.105348876953125,0.002091380301862955,0.004048271104693413,0.00279046013019979
1782846227110354000,0.11535400390625,0.00247540813870728,-0.0005555353709496558,0.0028370653744786978
1782846227120359000,0.12535888671875,0.001377653214149177,-0.010066482238471508,-0.000964064325671643
1782846227130364000,0.135364013671875,0.0019094864837825298,-0.0033449302427470684,-0.0003885551996063441
1782846227140369000,0.145368896484375,0.004480235744267702,0.002176867797970772,-0.0016519587952643633
1782846227150374000,0.155373779296875,0.0013651363551616669,-0.0028937908355146646,-0.00018375810759607702
1782846227160379000,0.16537890625,0.0036597158759832382,-0.005391303449869156,0.0004106594424229115
1782846227170384000,0.1753837890625,0.0013022858183830976,-0.0006532734259963036,0.0012900352012366056
1782846227180388900,0.185388916015625,0.0018522285390645266,-0.001751827308908105,0.0013560815714299679
1782846227190393900,0.195393798828125,0.0007419566973112524,-0.0049196574836969376,-0.0008580705034546554
1782846227200398800,0.20539892578125,0.0006271744496189058,-0.005155880004167557,0.0010096043115481734
1782846227210403800,0.21540380859375,-0.0004849616379942745,-0.002657035831362009,-0.0010804444318637252
1782846227220408800,0.225408935546875,0.00162426196038723,-0.003035471076145768,-0.001787779969163239
1782846227230413800,0.235413818359375,0.0002854908525478095,-0.007545800413936377,0.000251402409048751
1782846227240418800,0.245418701171875,0.0005225121858529747,-0.004466653801500797,0.0023015039041638374
1782846227250423800,0.255423828125,0.0023241406306624413,-0.0028873991686850786,-0.003719637170433998
1782846227260428800,0.2654287109375,0.0026549051981419325,-0.003840810852125287,0.0024519723374396563
1782846227270433800,0.275433837890625,0.005007275380194187,-0.003555319970473647,-0.0006346312584355474
1782846227280438800,0.285438720703125,0.0007829693495295942,-0.003183542750775814,-0.000499875342939049
1782846227290443000,0.295443115234375,0.004263987299054861,-0.0030866037122905254,0.0015188007382676005
1782846227300448000,0.305447998046875,0.001877262257039547,-0.004185423720628023,-0.0022538332268595695
1782846227310453000,0.315452880859375,0.0013672668719664216,-0.004322576802223921,-0.0006583334179595113
1782846227320458000,0.3254580078125,0.0020413128659129143,-0.002430933527648449,-0.004052798729389906
1782846227330463000,0.335462890625,0.0036099147982895374,-0.003029345767572522,0.000009853695701167453
1782846227340468000,0.345468017578125,0.002763828495517373,-0.00213532242923975,-0.004344148561358452
1782846227350473000,0.355472900390625,0.003029345767572522,-0.0033779535442590714,-0.003409378696233034
1782846227360478000,0.36547802734375,0.003724164329469204,-0.004275438841432333,-0.0014050838071852922
1782846227370483000,0.37548291015625,0.0023726101499050856,-0.004397944081574678,-0.005705290008336306
1782846227380488000,0.385488037109375,0.0005278385360725224,-0.0027270768769085407,-0.003181145992130041
1782846227390493000,0.395492919921875,0.0026322684716433287,-0.00033662354690022767,0.0013510215794667602
1782846227400498000,0.405497802734375,0.0027300063520669937,-0.0005283711361698806,0.0005968143814243376
1782846227410503000,0.4155029296875,0.00210602767765522,-0.0028394623659551144,-0.001127848750911653
1782846227420508000,0.4255078125,0.003905259305611253,-0.001814411603845656,0.000568318588193506
1782846227430513000,0.435512939453125,0.002237321576103568,-0.0030216225422918797,0.0004543352697510272
1782846227440518000,0.445517822265625,0.0032586439047008753,-0.0033071134239435196,-0.003972104750573635
1782846227450523000,0.45552294921875,0.001960885478183627,-0.004120708908885717,0.0025569009594619274
1782846227460527900,0.46552783203125,0.00036139096482656896,-0.004208327271044254,0.0021971079986542463
1782846227470532900,0.475532958984375,0.0028605014085769653,-0.002180596347898245,-0.0014085458824411035
1782846227480537900,0.485537841796875,0.0005488775204867125,-0.005037369206547737,0.000002663161012605997
1782846227490541800,0.495541748046875,0.002728408435359597,-0.005350024439394474,-0.0014740596525371075
1782846227500546800,0.505546875,0.0022945795208215714,-0.0009331716573797166,0.0004961469094268978
1782846227510552300,0.51555224609375,0.0021576930303126574,-0.003970240708440542,0.001969673903658986
1782846227520557300,0.525557373046875,0.001222657272592187,-0.0023118900135159492,-0.0037380128633230925
1782846227530562300,0.535562255859375,0.0018751317402347922,-0.0038285604678094387,-0.0015582155901938677
1782846227540567300,0.5455673828125,0.001998702296987176,-0.001862614881247282,-0.0021465078461915255
1782846227550572300,0.555572265625,0.0012367720482870936,-0.004577441141009331,-0.00016192019393201917
1782846227560577300,0.565577392578125,0.0008527441532351077,-0.004489290527999401,-0.000943025341257453
1782846227570582300,0.575582275390625,0.00148151651956141,-0.001356347929686308,-0.002121740486472845
1782846227580587300,0.585587158203125,0.004763596225529909,-0.0011997540714219213,-0.0011092065833508968
1782846227590592500,0.595592529296875,0.003379551460966468,-0.00506852800026536,-0.00017550231132190675
1782846227600597500,0.605597412109375,0.002025067573413253,-0.0027832696214318275,-0.0026929883752018213
1782846227610602500,0.6156025390625,0.0014176006661728024,-0.002843457041308284,-0.0010692591313272715
1782846227620607500,0.625607421875,0.004578240215778351,-0.0011355718597769737,-0.0016769925132393837
1782846227630612500,0.635612548828125,0.0010343717876821756,-0.0020208065398037434,-0.000287088769255206
1782846227640617500,0.645617431640625,0.0006708502769470215,-0.003855724586173892,-0.0011169298086315393
1782846227650622500,0.65562255859375,0.001261273049749434,-0.003993410151451826,-0.0004977448261342943
1782846227660627500,0.66562744140625,0.0028104339726269245,-0.001321194227784872,0.0026098978705704212
1782846227670632400,0.675632568359375,0.0012034825049340725,-0.0016176040517166257,-0.0006815029191784561
1782846227680637400,0.685637451171875,0.0031587753910571337,-0.002922020386904478,-0.0005893575726076961
1782846227690642400,0.695642333984375,0.003069559345021844,-0.002160090021789074,-0.003094326937571168
1782846227700646400,0.705646484375,0.002972354181110859,-0.0017060210229828954,-0.002061553066596389
1782846227710651400,0.7156513671875,0.0025515747256577015,-0.003388339886441827,-0.002368615474551916
1782846227720656400,0.725656494140625,0.002033855998888612,-0.0035630431957542896,-0.0015853798249736428
1782846227730661400,0.735661376953125,0.003421629313379526,-0.0008668589289300144,-0.00037950044497847557
1782846227740666400,0.745666259765625,0.004385693464428186,-0.004236290231347084,0.00023329291434492916
1782846227750671400,0.75567138671875,0.0008370315190404654,-0.0037593182642012835,0.0022743395529687405
1782846227760676400,0.76567626953125,0.002763562137261033,-0.004583300091326237,0.00017070861940737814
1782846227770681300,0.775681396484375,0.003722033929079771,-0.00245143985375762,-0.0015936355339363217
1782846227780686300,0.785686279296875,0.0012681973166763783,-0.003552923211827874,-0.0011877698125317693
1782846227790691300,0.79569140625,0.0027776770293712616,-0.003229881636798382,0.0004945489927195013
1782846227800696300,0.8056962890625,0.003260508179664612,-0.004739361349493265,0.0024341291282325983
1782846227810701300,0.815701416015625,0.002724946476519108,-0.003766242414712906,-0.005622731987386942
1782846227820706300,0.825706298828125,0.003995540551841259,-0.003698864486068487,0.0004652542411349714
1782846227830711300,0.835711181640625,0.0019347865600138903,-0.002727875951677561,-0.0020240023732185364
1782846227840716300,0.84571630859375,0.000993625377304852,-0.0020570256747305393,0.002326004905626178
1782846227850721300,0.85572119140625,0.002365419641137123,-0.004305532667785883,-0.0007882956997491419
1782846227860726300,0.865726318359375,0.0019712718203663826,-0.0034820830915123224,0.001110005541704595
1782846227870731300,0.875731201171875,0.0019374496769160032,-0.0022533005103468895,-0.0005526058957912028
1782846227880736300,0.885736328125,0.003498861100524664,-0.003579821204766631,0.00009986854274757206
1782846227890741200,0.8957412109375,0.003177950158715248,-0.0011491540353745222,0.001401089015416801
1782846227900746200,0.905746337890625,0.003579022129997611,-0.0036213663406670094,-0.0022021678742021322
1782846227910750500,0.91575048828125,0.0036618465092033148,-0.003963582683354616,-0.0031350732315331697
1782846227920755500,0.92575537109375,0.003031742526218295,-0.00472657848149538,0.0013928331900388002
1782846227930760400,0.935760498046875,0.0033047166652977467,-0.005245894659310579,-0.0018823222490027547
1782846227940765400,0.945765380859375,0.002447711303830147,-0.004373443312942982,0.00005326322207110934
1782846227950770400,0.9557705078125,0.0008250473183579743,-0.00490208063274622,-0.0002031991898547858
1782846227960775400,0.965775390625,0.0031848743092268705,-0.0030157635919749737,-0.003537210635840893
1782846227970780400,0.975780517578125,0.00014993596414569765,-0.0025837989524006844,0.0013819142477586865
1782846227980785400,0.985785400390625,0.0019092201255261898,-0.004036553204059601,-0.00025220136740244925
1782846227990790400,0.995790283203125,0.0026783409994095564,-0.0007843009079806507,-0.003430950455367565
1782846228000795400,1.00579541015625,0.0013869742397218943,-0.0031585090328007936,0.0015547533985227346
1782846228010800400,1.01580029296875,0.002814428647980094,-0.002070873975753784,-0.00009108010999625549
1782846228020805400,1.025805419921875,0.0021054951939731836,-0.004457599017769098,-0.002555303042754531
1782846228030810400,1.035810302734375,-0.00012090751260984689,-0.003266633255407214,0.0006857639527879655
1782846228040815400,1.0458154296875,0.004493285436183214,-0.0043505397625267506,-0.0023193468805402517
1782846228050820400,1.0558203125,0.003078347770497203,-0.002930808812379837,0.0008559399866499007
1782846228060825300,1.065825439453125,0.003725229762494564,-0.004291151650249958,-0.0004442152567207813
1782846228070830300,1.075830322265625,0.004143878817558289,-0.0020548950415104628,-0.0033451966010034084
1782846228080835300,1.08583544921875,0.0010349043877795339,-0.002243713242933154,-0.0022628880105912685
1782846228090840300,1.09584033203125,0.0016977651976048946,-0.00281948852352798,0.0005475459038279951
1782846228100845300,1.10584521484375,0.0021499700378626585,-0.0016298545524477959,-0.002755306428298354
1782846228110850300,1.115850341796875,0.003163569141179323,-0.0006918892613612115,-0.0008908273885026574
1782846228120854300,1.125854248046875,0.0011459582019597292,-0.004464257042855024,-0.001392300589941442
1782846228130859300,1.135859375,0.0021113541442900896,-0.0024863271974027157,-0.002802178030833602
1782846228140864300,1.1458642578125,-0.0005347627447918057,-0.003184075467288494,0.000020506340661086142
1782846228150869200,1.155869140625,0.004779575392603874,-0.004703408572822809,-0.001118793967179954
1782846228160874200,1.165874267578125,0.004774781409651041,-0.0026698189321905375,-0.0018937737913802266
1782846228170879500,1.17587939453125,0.004680505488067865,-0.0022572954185307026,-0.000045540054998127744
1782846228180884500,1.185884521484375,0.0034751589410007,-0.0032474587205797434,-0.0024770060554146767
1782846228190889500,1.195889404296875,0.00318913534283638,-0.003519101068377495,-0.001068193931132555
1782846228200894500,1.20589453125,0.004297542851418257,-0.0023880566004663706,0.0014887070283293724
1782846228210899500,1.2158994140625,0.0018698053900152445,-0.0026466494891792536,-0.0024983114562928677
1782846228220904400,1.225904541015625,0.003712712787091732,-0.00421418622136116,-0.0019052254501730204
1782846228230909400,1.235909423828125,0.0007360977469943464,-0.0017156084068119526,-0.0018519621808081865
1782846228240914400,1.24591455078125,0.0011195929255336523,-0.003605920122936368,-0.0011113371001556516
1782846228250919400,1.25591943359375,0.0009233179152943194,-0.004358795937150717,0.00250603468157351
1782846228260924400,1.26592431640625,0.0024080302100628614,-0.003061569994315505,-0.00145195540972054
1782846228270929400,1.275929443359375,0.0030099046416580677,-0.0011385013349354267,-0.0008663262706249952
1782846228280934400,1.285934326171875,0.0017592841759324074,-0.003184075467288494,-0.0006615291931666434
1782846228290939400,1.295939453125,0.0008663262706249952,-0.0016655409708619118,-0.00046631949953734875
1782846228300944400,1.3059443359375,0.0007451524725183845,-0.002763562137261033,-0.0015635418239980936
1782846228310949400,1.315949462890625,0.002540655666962266,-0.0037358824629336596,-0.002508697798475623
1782846228320953300,1.325953369140625,0.002403769176453352,-0.0018865832826122642,-0.00009933590627042577
1782846228330958300,1.335958251953125,0.003307912265881896,-0.003614974906668067,0.0011550129856914282
1782846228340963300,1.34596337890625,0.0019212043844163418,-0.0033779535442590714,-0.0011339739430695772
1782846228350968300,1.35596826171875,0.002558498876169324,-0.0016058861510828137,0.0012942962348461151
1782846228360973300,1.365973388671875,0.0018660769565030932,-0.0029763488564640284,-0.0013164004776626825
1782846228370978300,1.375978271484375,0.0012681973166763783,-0.0034320156555622816,0.0008665926288813353
1782846228380983300,1.3859833984375,0.0024525050539523363,-0.004203266929835081,0.0003779025573749095
1782846228390988300,1.39598828125,0.005112736485898495,-0.002180596347898245,0.0011076086666435003
1782846228400993300,1.4059931640625,0.0019140138756483793,-0.0043982104398310184,-0.0013552826130762696
1782846228410998300,1.415998291015625,0.0009901633020490408,-0.002873817225918174,0.0014516890514642
1782846228421003300,1.426003173828125,0.0013555489713326097,-0.00021411814668681473,-0.0019014970166608691
1782846228431008300,1.43600830078125,0.004079164005815983,-0.004189418628811836,-0.0011385013349354267
1782846228441013200,1.44601318359375,0.0013635384384542704,-0.0033910030033439398,0.00026764770154841244
1782846228451018200,1.456018310546875,0.0027739484794437885,-0.005634982604533434,-0.0011643340112641454
1782846228461023200,1.466023193359375,0.0023843280505388975,-0.004430967383086681,-0.0008143946761265397
1782846228471028200,1.4760283203125,0.0008519452530890703,-0.0036040558479726315,-0.0023843280505388975
1782846228481033200,1.486033203125,0.002695119008421898,-0.0026612968649715185,-0.0006679208017885685
1782846228491038200,1.4960380859375,0.0009171926649287343,-0.0030597057193517685,0.0013126720441505313
1782846228501043200,1.506043212890625,0.0001030643325066194,-0.0028959212359040976,0.00023568976030219346
1782846228511047400,1.51604736328125,0.0027457191608846188,-0.0007643272401764989,-0.0009462211164645851
1782846228521052400,1.526052490234375,0.0016346483025699854,-0.0029707562644034624,-0.0020671456586569548
1782846228531057400,1.536057373046875,0.0013243899447843432,-0.002951315138489008,-0.003453587181866169
1782846228541061400,1.546061279296875,0.0033566481433808804,-0.0032477248460054398,-0.0012721919920295477
1782846228551066400,1.55606640625,0.003501524217426777,-0.0018551580142229795,-0.002043709857389331
1782846228561071400,1.5660712890625,0.0024074974935501814,-0.0024058998096734285,-0.000517718493938446
1782846228571076400,1.576076416015625,0.004471980035305023,-0.0037553233560174704,0.000007989483492565341
1782846228581081300,1.586081298828125,0.0006801713607273996,-0.00261868629604578,-0.0005155879771336913
1782846228591086300,1.59608642578125,0.0033846113365143538,-0.0035396073944866657,-0.0011922972043976188
1782846228601091300,1.60609130859375,0.003996872343122959,-0.003597398055717349,-0.0012327772565186024
1782846228611096300,1.616096435546875,0.001151284552179277,-0.004092213232070208,0.0010958907660096884
1782846228621101300,1.626101318359375,0.0031382690649479628,-0.0036695697344839573,0.0002085255109705031
1782846228631106300,1.636106201171875,0.0009150621481239796,-0.002921487670391798,-0.003123888047412038
1782846228641111300,1.646111328125,0.0009928264189511538,-0.0008604673203080893,-0.0029739518649876118
1782846228651116300,1.6561162109375,0.002270611235871911,-0.0043595945462584496,-0.0014141384745016694
1782846228661121300,1.666121337890625,0.0017965685110539198,-0.004508731886744499,-0.0037294907961040735
1782846228671126300,1.676126220703125,0.002612028270959854,-0.007318366784602404,-0.002204830991104245
1782846228681131300,1.68613134765625,-0.0008223841432482004,-0.0028541097417473793,0.0001382180635118857
1782846228691136300,1.69613623046875,0.001404018490575254,-0.002636263146996498,-0.00030413299100473523
1782846228701141200,1.706141357421875,0.002654106356203556,-0.002672215923666954,-0.0015630092239007354
1782846228711146200,1.716146240234375,0.005450159311294556,-0.004269579891115427,0.00024820660473778844
1782846228721151200,1.726151123046875,0.0011438276851549745,-0.0020591560751199722,0.002897519152611494
1782846228731156200,1.73615625,0.0026051041204482317,-0.003882089862599969,-0.002210689941421151
1782846228741161500,1.746161376953125,0.00233825552277267,-0.003765976056456566,0.0009656621841713786
1782846228751165400,1.75616552734375,0.001427987008355558,-0.0036629117093980312,0.0013752563390880823
1782846228761170400,1.76617041015625,0.003632818115875125,-0.0047087352722883224,-0.00045619948650710285
1782846228771175400,1.776175537109375,0.0026881948579102755,-0.0028104339726269245,-0.00013635384675581008
1782846228781180400,1.786180419921875,0.002217081608250737,-0.006132461130619049,-0.00047111319145187736
1782846228791185400,1.796185302734375,0.002040514023974538,-0.002397377509623766,-0.003192863892763853
1782846228801190400,1.8061904296875,0.001088966615498066,-0.0045585329644382,-0.003148389048874378
1782846228811195400,1.8161953125,0.0024469124618917704,-0.0025369273498654366,-0.0006125270738266408
1782846228821200400,1.826200439453125,0.0028549085836857557,-0.0036125779151916504,-0.0022679478861391544
1782846228831205400,1.836205322265625,0.0010040117194876075,-0.0032503881957381964,0.0004138552176300436
1782846228841210400,1.84621044921875,0.00495054991915822,-0.004086087923496962,0.00004394215648062527
1782846228851215400,1.85621533203125,0.0033715618774294853,-0.0027499801944941282,0.00033103092573583126
1782846228861220400,1.866220458984375,0.0013539510546252131,-0.002591521944850683,-0.0012535499408841133
1782846228871225300,1.876225341796875,0.002237321576103568,-0.005060805007815361,-0.002204564632847905
1782846228881230300,1.886230224609375,0.005824067164212465,-0.003765443339943886,0.0012543488992378116
1782846228891235300,1.8962353515625,0.0008303736103698611,-0.0010463559301570058,-0.0004820321628358215
1782846228901240300,1.906240234375,0.005531385540962219,-0.0007488809060305357,0.0018335863715037704
1782846228911245300,1.916245361328125,0.0033928672783076763,-0.003486876841634512,-0.0005502090789377689
1782846228921250300,1.926250244140625,0.0015992282424122095,-0.0027196200098842382,0.0020383833907544613
1782846228931255300,1.93625537109375,0.0013824469642713666,-0.003157443832606077,-0.0000476705827168189
1782846228941260300,1.94626025390625,-0.0004266384057700634,-0.0026900589000433683,0.0010807107901200652
1782846228951265300,1.956265380859375,0.002038117265328765,-0.005613144487142563,-0.001505484920926392
1782846228961270300,1.966270263671875,0.0011025486746802926,-0.005142830312252045,-0.001541171339340508
1782846228971274500,1.9762744140625,0.0015081481542438269,-0.005795571021735668,0.0021792647894471884
1782846228981279500,1.986279541015625,0.00036698358599096537,-0.001957689644768834,-0.0009084042394533753
1782846228991284500,1.996284423828125,0.0022535668686032295,-0.001534779672510922,-0.002916161436587572
1782846229001289500,2.00628955078125,0.00290391081944108,0.00031904669594950974,-0.0032527849543839693
1782846229011294500,2.01629443359375,0.0007965514669194818,-0.003997138235718012,-0.0008109325426630676
1782846229021299500,2.026299560546875,0.00014061490946915,-0.0008870989549905062,0.002767024328932166
1782846229031304400,2.036304443359375,0.002014415105804801,-0.0016290555940940976,-0.004142014309763908
1782846229041309400,2.046309326171875,0.0018887137994170189,-0.00035952674807049334,-0.0023102923296391964
1782846229051314400,2.056314453125,0.0028810077346861362,-0.0038048583082854748,-0.001958488719537854
1782846229061319400,2.0663193359375,0.0023244069889187813,-0.003382480936124921,-0.001193096162751317
1782846229071324400,2.076324462890625,0.002153964713215828,-0.004613393917679787,-0.0015877765836194158
1782846229081329400,2.086329345703125,0.002561694709584117,-0.002609098795801401,-0.002310824813321233
1782846229091334400,2.09633447265625,-0.0004386226355563849,-0.004667456261813641,-0.00180908537004143
1782846229101339400,2.10633935546875,0.0009467537747696042,-0.004083158448338509,-0.000056459015468135476
1782846229111344400,2.116344482421875,0.0036517265252768993,-0.0019289276096969843,0.0009411611245013773
1782846229121349400,2.126349365234375,0.002383262850344181,-0.0030192257836461067,-0.001645300886593759
1782846229131354400,2.136354248046875,0.0016503608785569668,-0.003126284806057811,-0.0010663296561688185
1782846229141359400,2.146359375,0.003334810258820653,-0.002645317930728197,0.0013097425689920783
1782846229151364400,2.1563642578125,0.0024144218768924475,-0.002007757080718875,0.0004165183927398175
1782846229161369300,2.166369384765625,0.004566255956888199,-0.005477056838572025,0.0013827132061123848
1782846229171374300,2.176374267578125,0.001589108258485794,-0.0030687605030834675,0.0003755057114176452
1782846229181378300,2.18637841796875,0.0007166566210798919,-0.006589725613594055,-0.00242161238566041
1782846229191383300,2.19638330078125,0.0023497070651501417,-0.001731853699311614,-0.004208593629300594
1782846229201388300,2.20638818359375,0.004034689161926508,-0.0034149715211242437,-0.002273540711030364
1782846229211393300,2.216393310546875,0.001047687605023384,-0.0032722260802984238,-0.00004713794987765141
1782846229221398300,2.226398193359375,0.002517486223950982,-0.0031097731553018093,-0.0019214707426726818
1782846229231403300,2.2364033203125,0.0032780850306153297,-0.0026375947054475546,-0.0030341395176947117
1782846229241408300,2.246408203125,0.005261607468128204,-0.001654089312069118,-0.003564641112461686
1782846229251413200,2.256413330078125,0.0017856494523584843,-0.003614708548411727,-0.0015472965314984322
1782846229261418200,2.266418212890625,0.001058872789144516,-0.004285292699933052,-0.0017781927017495036
1782846229271423200,2.27642333984375,0.002122006844729185,-0.002192580606788397,-0.002906307578086853
1782846229281428200,2.28642822265625,0.004700212739408016,-0.00498144282028079,0.00016165387933142483
1782846229291433200,2.29643310546875,0.001981391804292798,-0.0043982104398310184,0.0002996056282427162
1782846229301438200,2.306438232421875,0.0015992282424122095,-0.004677309654653072,-0.0037939392495900393
1782846229311443500,2.316443359375,0.0023433153983205557,-0.0021204089280217886,-0.003495931625366211
1782846229321448400,2.326448486328125,0.004597148858010769,-0.0036160401068627834,-0.001044491771608591
1782846229331453400,2.336453369140625,0.000865793670527637,-0.005396629683673382,0.0014911039033904672
1782846229341458400,2.34645849609375,-0.002291117561981082,-0.003477822057902813,0.0006878945278003812
1782846229351463400,2.35646337890625,0.0023281353060156107,-0.005119128152728081,0.0000013315805063029984
1782846229361468400,2.366468505859375,0.000928111607208848,-0.0028812738601118326,-0.001386707997880876
1782846229371473400,2.376473388671875,0.0029851372819393873,-0.002650910522788763,-0.0006966829532757401
1782846229381478400,2.386478515625,0.0012580773327499628,-0.0031638352666050196,0.0005811017472296953
1782846229391483600,2.396483642578125,0.0032447953708469868,-0.0018080200534313917,0.0008380967774428427
1782846229401487400,2.4064873046875,-0.0003091930120717734,-0.0030362699180841446,-0.0016791230300441384
1782846229411492400,2.416492431640625,0.0010466222884133458,-0.003500991500914097,-0.002115348819643259
1782846229421497300,2.426497314453125,-0.0002644518972374499,-0.00478330347687006,-0.003882089862599969
1782846229431502300,2.43650244140625,0.002685531508177519,-0.0035233621019870043,-0.0017845842521637678
1782846229441507300,2.44650732421875,0.0043779704719781876,-0.0029523803386837244,-0.0010359697043895721
1782846229451512300,2.45651220703125,0.005829127039760351,-0.0026636936236172915,-0.0023853934835642576
1782846229461517300,2.466517333984375,0.0024985778145492077,-0.0005787048721686006,-0.0008546083699911833
1782846229471522300,2.476522216796875,0.0017084177816286683,-0.001820270554162562,0.0003789678157772869
1782846229481527300,2.48652734375,0.0018122810870409012,-0.0035204326268285513,-0.003275954397395253
1782846229491532300,2.4965322265625,0.0013046825770288706,-0.003442401997745037,-0.0034048515371978283
1782846229501537300,2.506537353515625,0.0017574200173839927,-0.005528456065803766,-0.0012460930738598108
1782846229511543000,2.51654296875,0.005788380745798349,-0.003936951048672199,-0.0030415961518883705
1782846229521548000,2.526548095703125,0.0016279903938993812,-0.003433613572269678,0.0022956449538469315
1782846229531553000,2.536552978515625,0.002231728984043002,-0.00595456175506115,-0.0016016251174733043
1782846229541558000,2.54655810546875,0.002016811864450574,-0.003650128608569503,-0.001520665013231337
1782846229551563000,2.55656298828125,0.004385161213576794,-0.0027513117529451847,-0.0008820389630272985
1782846229561568000,2.566568115234375,0.0025933862198144197,-0.002365952357649803,-0.0030895331874489784
1782846229571573000,2.576572998046875,0.0007462177309207618,-0.0029198897536844015,-0.0005984122981317341
1782846229581578000,2.586577880859375,0.0026043052785098553,-0.005309011787176132,-0.0016567525453865528
1782846229591583000,2.5965830078125,0.0017100156983360648,-0.004095675423741341,0.0015273229219019413
1782846229601588000,2.606587890625,0.0019976370967924595,-0.0035595810040831566,-0.0013409015955403447
1782846229611592000,2.616592041015625,0.002243979601189494,-0.0034149715211242437,-0.0009566074586473405
1782846229621597000,2.626596923828125,0.0026498453225940466,-0.0024205471854656935,-0.0013704627053812146
1782846229631602000,2.636601806640625,0.0034788872580975294,-0.003787015099078417,-0.0008149272762238979
1782846229641607000,2.64660693359375,0.004579837899655104,-0.0032655680552124977,-0.003686081152409315
1782846229651612200,2.656612060546875,0.0024410535115748644,-0.0008191883680410683,-0.0021789984311908484
1782846229661617200,2.6666171875,0.000892425247002393,-0.0038104509003460407,-0.0011944277212023735
1782846229671622100,2.6766220703125,0.0014362427173182368,-0.002014415105804801,-0.0004791026876773685
1782846229681627100,2.686627197265625,0.003022687742486596,-0.00384374032728374,0.0006141249323263764
1782846229691632000,2.696632080078125,0.0018881811993196607,-0.0049063414335250854,-0.00030599720776081085
1782846229701637000,2.70663720703125,0.002225337317213416,-0.006562827620655298,-0.0009214537567459047
1782846229711642000,2.71664208984375,0.0010831075487658381,-0.0034961977507919073,-0.001213336130604148
1782846229721647000,2.726647216796875,0.004288488067686558,-0.004559597931802273,-0.0006332996999844909
1782846229731652000,2.736652099609375,0.00046631949953734875,-0.005813414230942726,-0.0018588864477351308
1782846229741657000,2.746656982421875,0.003314303932711482,-0.00170761882327497,0.00007882956560933962
1782846229751662000,2.756662109375,0.002275138394907117,-0.005052549298852682,-0.0015566176734864712
1782846229761667000,2.7666669921875,0.002496713539585471,-0.002513491315767169,-0.0015100123127922416
1782846229771672000,2.776672119140625,-0.00026604978484101593,-0.0018194715958088636,-0.00007962851668708026
1782846229781677000,2.786677001953125,0.0017054883064702153,-0.004141747951507568,0.0011054781498387456
1782846229791682000,2.79668212890625,0.0012964267516508698,-0.00387330143712461,-0.0010218549286946654
1782846229801687000,2.80668701171875,0.002832538215443492,-0.0033276197500526905,-0.0024740765802562237
1782846229811692000,2.816692138671875,0.0008990831556729972,-0.005288505461066961,-0.0034493261482566595
1782846229821696000,2.826696044921875,0.000006125270374468528,-0.005393167492002249,-0.0023901870008558035
1782846229831701000,2.836700927734375,0.002975017298012972,-0.0044022053480148315,-0.0013933659065514803
1782846229841706000,2.8467060546875,0.004759068600833416,-0.0030341395176947117,-0.0023912524338811636
1782846229851711000,2.8567109375,0.0009531453251838684,-0.004560397006571293,0.0001395496365148574
1782846229861716000,2.866716064453125,0.0013944311067461967,-0.00185063062235713,-0.0003478088474366814
1782846229871721000,2.876720947265625,-0.0002812298189383,-0.003840544493868947,-0.0006823018775321543
1782846229881726000,2.886725830078125,0.002094842493534088,-0.003454386256635189,0.0003177151083946228
1782846229891731000,2.89673095703125,0.002680737990885973,-0.0041670482605695724,-0.001187237212434411
1782846229901736000,2.90673583984375,0.0030836742371320724,-0.0017323862994089723,0.0004844290087930858
1782846229911741000,2.916740966796875,0.0025569009594619274,-0.00637933611869812,-0.0013403689954429865
1782846229921746000,2.926745849609375,0.0023094932548701763,-0.002201635157689452,-0.0012002866715192795
1782846229931751000,2.9367509765625,0.0017600831342861056,-0.0016029566759243608,-0.0005419532535597682
1782846229941756000,2.946755859375,0.0032645028550177813,-0.003026682650670409,-0.0010455570882186294
1782846229951761000,2.956760986328125,0.0010399643797427416,-0.0036506610922515392,-0.004263188224285841
1782846229961766000,2.966765869140625,-0.00010279801790602505,-0.002764627570286393,-0.0005382248782552779
1782846229971771000,2.97677099609375,0.0019137475173920393,-0.0014330470003187656,0.001954493811354041
1782846229981776000,2.98677587890625,0.0027169568929821253,-0.004417917691171169,-0.0013462279457598925
1782846229991781000,2.996781005859375,0.0013938985066488385,-0.0026226809713989496,0.00007376955909421667
1782846230001786000,3.0067861328125,0.000028762138754245825,-0.0017486315919086337,-0.0016128103015944362
1782846230011791000,3.016791015625,0.0044378917664289474,-0.003044259501621127,-0.0000125168571685208
1782846230021796000,3.026796142578125,0.0015720640076324344,-0.004474909510463476,-0.0003933488915208727
1782846230031800000,3.036800048828125,0.0014807175612077117,-0.0036133769899606705,-0.002481799805536866
1782846230041805000,3.04680517578125,0.001612011343240738,-0.0034117756877094507,-0.0007595335482619703
1782846230051810000,3.05681005859375,0.003221093211323023,-0.0030389330349862576,-0.0013427657540887594
1782846230061815000,3.06681494140625,0.004227501805871725,-0.0037473340053111315,-0.0015544871566817164
1782846230071820000,3.076820068359375,0.0007222492713481188,-0.0037268276792019606,0.0004689826746471226
1782846230081825000,3.086824951171875,0.0018442390719428658,-0.001734783174470067,0.000523843802511692
1782846230091830000,3.096830078125,0.0036045885644853115,-0.002662362065166235,-0.0007022755453363061
1782846230101835000,3.1068349609375,0.0043769050389528275,-0.0026114957872778177,-0.0019803266040980816
1782846230111840000,3.116840087890625,0.0012924320762977004,-0.002755040070042014,-0.0006159891490824521
1782846230121845000,3.126844970703125,0.0046783750876784325,-0.002260491019114852,-0.0024828650057315826
1782846230131850000,3.13685009765625,0.0026146916206926107,-0.0031649006996303797,-0.00044474788592197
1782846230141855000,3.14685498046875,0.0021582257468253374,-0.003337473375722766,-0.0018189389957115054
1782846230151860000,3.15685986328125,0.0031017838045954704,-0.0032783513888716698,-0.0013283847365528345
1782846230161865000,3.166864990234375,0.0021734058391302824,0.00020666129421442747,-0.00021198761533014476
1782846230171870000,3.176869873046875,0.0021252024453133345,-0.0041524008847773075,-0.002528405049815774
1782846230181875000,3.186875,0.0019313243683427572,-0.004246943164616823,-0.0006388923502527177
1782846230191880000,3.1968798828125,0.002035187790170312,-0.0043622576631605625,0.0007520766812376678
1782846230201885000,3.206885009765625,0.0033577135764062405,-0.002296443795785308,-0.0020301276817917824
1782846230211890000,3.216889892578125,0.00276116537861526,-0.004833903629332781,-0.001255946815945208
1782846230221895000,3.22689501953125,-0.0005097290268167853,-0.0034645062405616045,-0.0021318604703992605
1782846230231899100,3.236899169921875,0.0035606464371085167,-0.005907157436013222,0.00022370553051587194
1782846230241904000,3.246904052734375,0.003596332622691989,-0.0011592740193009377,-0.00042583944741636515
1782846230251909000,3.2569091796875,0.001600559800863266,-0.003206978552043438,-0.001981658162549138
1782846230261914000,3.2669140625,-0.0002002697146963328,-0.002897519152611494,-0.00011185276525793597
1782846230271919000,3.276919189453125,0.00267727579921484,-0.0018698053900152445,-0.0003880225704051554
1782846230281924000,3.286924072265625,0.002344646956771612,-0.0046386937610805035,-0.001368598430417478
1782846230291929000,3.29692919921875,0.00410552928224206,-0.0036370791494846344,-0.0025624935515224934
1782846230301934000,3.30693408203125,0.0021872541401535273,-0.004269313532859087,-0.003346528159454465
1782846230311939000,3.31693896484375,0.0020602215081453323,-0.0010836402652785182,-0.00108284130692482
1782846230321944000,3.326944091796875,0.0028988507110625505,-0.006551908794790506,-0.0014029532903805375
1782846230331949000,3.336948974609375,0.004506601020693779,-0.002228266792371869,-0.0002820287481881678
1782846230341954000,3.3469541015625,0.002225870033726096,-0.004496481269598007,-0.00022397184511646628
1782846230351959000,3.356958984375,0.0008080030675046146,-0.001496430253610015,-0.003431216813623905
1782846230361964000,3.366964111328125,0.0032019184436649084,-0.0029582392890006304,-0.0003408846096135676
1782846230371969000,3.376968994140625,0.0025574336759746075,-0.0028929917607456446,-0.00021837920940015465
1782846230381974000,3.38697412109375,0.002153964713215828,-0.004446413833647966,0.0008287757518701255
1782846230391979000,3.39697900390625,0.004012584686279297,-0.0030117689166218042,-0.0025539714843034744
1782846230401984000,3.40698388671875,0.0025515747256577015,-0.0021435783710330725,0.001454884884878993
1782846230411989000,3.416989013671875,0.003203516360372305,-0.003951332066208124,-0.0044346959330141544
1782846230421994000,3.426993896484375,0.0015425028977915645,-0.004399808589369059,0.0009747169679030776
1782846230431999000,3.4369990234375,0.0033902039285749197,-0.003949468024075031,-0.0011944277212023735
1782846230442003000,3.4470029296875,0.002180862706154585,-0.0033361418172717094,-0.0031587753910571337
1782846230452008000,3.457008056640625,0.0037883466575294733,-0.0021459751296788454,-0.0006580671179108322
1782846230462013000,3.467012939453125,0.002972087822854519,-0.0006929545197635889,-0.002837598090991378
1782846230472018000,3.477017822265625,0.0025132251903414726,-0.00574816670268774,-0.0014769891276955605
1782846230482023000,3.48702294921875,0.0028274781070649624,-0.005140966270118952,-0.00458809407427907
1782846230492028000,3.49702783203125,0.0037004624027758837,-0.0028636970091611147,0.00033209618413820863
1782846230502033000,3.507032958984375,0.0019539613276720047,-0.0008506136364303529,-0.001190166687592864
1782846230512037600,3.51703759765625,0.0010351707460358739,-0.002614957746118307,-0.0030839405953884125
1782846230522042600,3.527042724609375,0.0019076223252341151,-0.0028181569650769234,0.0004884237423539162
1782846230532048000,3.5370478515625,0.00264798104763031,-0.0017896442441269755,-0.0020719394087791443
1782846230542052900,3.547052978515625,0.0017499631503596902,-0.00036432043998502195,0.0011004181578755379
1782846230552057900,3.557057861328125,0.0019536949694156647,-0.0012234562309458852,-0.002147306688129902
1782846230562062800,3.567062744140625,0.004643221385776997,-0.00333161442540586,-0.0015422365395352244
1782846230572067800,3.57706787109375,0.002484995638951659,-0.0016468988033011556,-0.0044173854403197765
1782846230582072800,3.58707275390625,0.0036732980515807867,-0.003692472819238901,-0.001377653214149177
1782846230592077800,3.597077880859375,0.0016695356462150812,-0.0033244239166378975,-0.0002079928817693144
1782846230602082800,3.607082763671875,0.0017526262672618032,-0.003944940399378538,-0.0007699198904447258
1782846230612087800,3.617087890625,0.003489806316792965,-0.0024264061357825994,-0.0020999026019126177
1782846230622092800,3.6270927734375,0.003611779073253274,-0.0031414648983627558,-0.00040320257539860904
1782846230632097800,3.637097900390625,0.0009795106016099453,-0.0019920445047318935,0.0007384945638477802
1782846230642102800,3.647102783203125,0.002332130214199424,-0.003224289044737816,-0.0019973707385361195
1782846230652106800,3.657106689453125,0.0019225359428673983,-0.002769687445834279,-0.001642637769691646
1782846230662111700,3.66711181640625,0.0016218650853261352,-0.0014831144362688065,0.0012053466634824872
1782846230672116700,3.67711669921875,0.0009289105655625463,-0.0025811356026679277,0.0007757788407616317
1782846230682121700,3.687121826171875,0.00475400872528553,-0.0026732811238616705,-0.0018442390719428658
1782846230692126700,3.697126708984375,0.0004117247008252889,-0.0035340148024260998,-0.0004415521107148379
1782846230702131700,3.707131591796875,0.002365685999393463,-0.0036962011363357306,-0.00016964336100500077
1782846230712136700,3.71713671875,-0.0014154701493680477,-0.002817890839651227,0.0007270429632626474
1782846230722141700,3.7271416015625,0.0008860336965881288,-0.002767557045444846,-0.0019800602458417416
1782846230732146700,3.737146728515625,0.0020237360149621964,-0.003943875432014465,0.00006231796578504145
1782846230742151700,3.747151611328125,0.0031465247739106417,-0.0017859158106148243,-0.0023989754263311625
1782846230752156700,3.75715673828125,0.003494866192340851,-0.004790227860212326,-0.0011707255616784096
1782846230762161700,3.76716162109375,0.0034738273825496435,-0.004393683280795813,0.0010844392236322165
1782846230772166700,3.777166748046875,0.0025537051260471344,-0.004278368316590786,-0.000264718197286129
1782846230782171600,3.787171630859375,0.0024927188642323017,-0.005390504375100136,0.002210423583164811
1782846230792176600,3.7971767578125,0.0008024104172363877,-0.0024194817524403334,-0.0014791196445003152
1782846230802181600,3.807181640625,0.0021731394808739424,-0.0049737198278307915,-0.0007787083159200847
1782846230812186600,3.8171865234375,0.002028529765084386,-0.002841326640918851,0.0005004079430364072
1782846230822191600,3.827191650390625,0.0033244239166378975,-0.0027172232512384653,-0.0008583368035033345
1782846230832196600,3.837196533203125,0.004451473709195852,-0.001630120910704136,-0.004160656593739986
1782846230842200800,3.847200927734375,0.0027001791168004274,-0.0037822213489562273,0.00032330775866284966
1782846230852205800,3.857205810546875,0.0010040117194876075,-0.004219246096909046,-0.002117745578289032
1782846230862210800,3.8672109375,0.0019267969764769077,-0.00261841993778944,-0.0013646037550643086
1782846230872215800,3.8772158203125,0.0030890004709362984,-0.0015960324089974165,-0.0002812298189383
1782846230882220800,3.887220703125,0.002897785510867834,-0.0016828514635562897,0.00021678130724467337
1782846230892225800,3.897225830078125,0.003051982494071126,-0.0036993969697505236,-0.000004261057711119065
1782846230902230800,3.907230712890625,0.0008905610884539783,-0.0014543522847816348,0.0015600797487422824
1782846230912235800,3.91723583984375,0.0035422705113887787,-0.001008805469609797,0.0007408913807012141
1782846230922240800,3.92724072265625,0.0018599516479298472,-0.0018945727497339249,-0.000185888638952747
1782846230932245800,3.937245849609375,0.00014141385327093303,-0.00526666734367609,0.001234641415067017
1782846230942250800,3.947250732421875,0.002805906580761075,-0.003552923211827874,-0.0015867113834246993
1782846230952255700,3.957255859375,0.00013528858835343271,-0.005515939090400934,-0.0011699266033247113
1782846230962260700,3.9672607421875,0.0034738273825496435,-0.004604339133948088,0.002433863002806902
1782846230972265700,3.977265625,0.0014231932582333684,-0.002412024885416031,-0.0007635282818228006
1782846230982270700,3.987270751953125,-0.00027057717670686543,-0.002385659608989954,0.0006199838826432824
1782846230992275700,3.997275634765625,0.0034993935842067003,-0.0036701022181659937,-0.0018405106384307146
1782846231002280700,4.00728076171875,0.003366768127307296,-0.0041185785084962845,0.0003379551344551146
1782846231012285700,4.01728564453125,0.0006729807937517762,-0.0001400822657160461,-0.0019403791520744562
1782846231022290700,4.027290771484375,0.0006998787284828722,-0.004101534374058247,-0.004767324775457382
1782846231032295700,4.037295654296875,0.0017563547007739544,-0.004098604898899794,-0.000036485307646216825
1782846231042300700,4.04730078125,0.000598145998083055,-0.004063184838742018,-0.00008069378236541525
1782846231052304600,4.0573046875,0.002689792774617672,-0.0020596887916326523,-0.0002412823960185051
1782846231062309600,4.0673095703125,0.0019923108629882336,-0.0038685076870024204,-0.0029933929909020662
1782846231072314600,4.077314697265625,0.0030178942251950502,-0.003153715282678604,-0.002189384773373604
1782846231082319600,4.087319580078125,0.0015092133544385433,-0.0035262915771454573,-0.000336090917699039
1782846231092324600,4.09732470703125,0.0011081412667408586,-0.0034554514568299055,-0.000182959163794294
1782846231102329900,4.107329833984375,0.0027718180790543556,-0.0017502295086160302,-0.0023041670210659504
1782846231112334800,4.1173349609375,0.0006194512825459242,-0.004343083128333092,-0.0013398362789303064
1782846231122339800,4.12733984375,0.003186205867677927,-0.0020791299175471067,-0.0019595539197325706
1782846231132344800,4.1373447265625,0.0012636699248105288,-0.001770469476468861,-0.0001304948964389041
1782846231142349800,4.147349853515625,0.0027116306591778994,-0.0016429040115326643,-0.0019632822368294
1782846231152354800,4.157354736328125,0.002180596347898245,-0.002823749789968133,-0.00045087316539138556
1782846231162359800,4.16735986328125,0.0011030812747776508,-0.005630721338093281,0.0012221246724948287
1782846231172364800,4.17736474609375,0.00315930787473917,-0.003299123840406537,-0.000925182132050395
1782846231182369800,4.187369873046875,0.002366218715906143,-0.004101534374058247,-0.0007946872501634061
1782846231192374800,4.197374755859375,0.002394980750977993,-0.004312456585466862,-0.0029113676864653826
1782846231202379800,4.2073798828125,0.0010812433902174234,-0.0008964200387708843,-0.001540904981084168
1782846231212384800,4.217384765625,0.0016295883106067777,-0.0025691515766084194,-0.002755839144811034
1782846231222389800,4.2273896484375,0.0021763353142887354,-0.0018900453578680754,-0.0003193130251020193
1782846231232394800,4.237394775390625,0.0022367890924215317,-0.0011060107499361038,0.00014274542627390474
1782846231242398700,4.247398681640625,0.00324825756251812,-0.003808320267125964,0.0009060074225999415
1782846231252403700,4.25740380859375,0.0010788465151563287,-0.002073803450912237,-0.00008415588672505692
1782846231262408700,4.26740869140625,0.001904160133562982,-0.0022335932590067387,-0.0018602180061861873
1782846231272413700,4.27741357421875,0.0008223841432482004,-0.004148139618337154,-0.00033902039285749197
1782846231282418700,4.287418701171875,0.003924966789782047,-0.0027614317368716,-0.0023252058308571577
1782846231292423700,4.297423583984375,0.003093261504545808,-0.001669003046117723,-0.0011765845119953156
1782846231302428700,4.3074287109375,0.00290364446118474,-0.004297276493161917,-0.00045673211570829153
1782846231312433700,4.31743359375,0.0014056164072826505,-0.0016596820205450058,-0.0012186624808236957
1782846231322438700,4.327438720703125,0.002413356676697731,-0.004278101958334446,0.0002306297537870705
1782846231332443600,4.337443603515625,0.0006985471700318158,-0.005465871654450893,-0.002409628126770258
1782846231342448600,4.34744873046875,0.0023608922492712736,-0.0032019184436649084,0.0021640846971422434
1782846231352453600,4.35745361328125,0.001933987601660192,-0.003079679561778903,0.00020053602929692715
1782846231362458600,4.367458740234375,0.003096190979704261,-0.0009392969077453017,0.0015169365797191858
1782846231372463600,4.377463623046875,0.00436012726277113,-0.0027944548055529594,-0.0014088122406974435
1782846231382468600,4.387468505859375,0.0019864519126713276,-0.002225070958957076,-0.0031055121216923
1782846231392473600,4.3974736328125,0.002925216220319271,-0.0020152139477431774,-0.0023190807551145554
1782846231402478600,4.407478515625,0.0015923039754852653,-0.0037055222783237696,0.00038296254933811724
1782846231412483600,4.417483642578125,0.0021726067643612623,-0.0022533005103468895,-0.0017177389236167073
1782846231422488600,4.427488525390625,0.001205080421641469,-0.003919906914234161,-0.00020133497309871018
1782846231432492800,4.437492919921875,0.004743356257677078,-0.002380866091698408,-0.003753991797566414
1782846231442497800,4.447497802734375,0.003611779073253274,-0.0005025385180488229,-0.000898550555575639
1782846231452502800,4.457502685546875,0.003543335711583495,-0.0008820389630272985,0.00046339002437889576
1782846231462507800,4.4675078125,0.0034285534638911486,-0.001957956003025174,-0.0031470574904233217
1782846231472512800,4.4775126953125,0.0021528995130211115,-0.0022005699574947357,0.00022796659322921187
1782846231482517800,4.487517822265625,0.00011638013529591262,-0.0038282941095530987,-0.00019041601626668125
1782846231492522800,4.497522705078125,0.001475657569244504,-0.004451207350939512,0.0011938951211050153
1782846231502527700,4.50752783203125,0.0023811322171241045,-0.005169195588678122,-0.0017784589435905218
1782846231512532500,4.517532470703125,0.0010793792316690087,-0.005591839086264372,0.0025454494170844555
1782846231522537500,4.527537353515625,0.0014053500490263104,-0.0031017838045954704,-0.001401089015416801
1782846231532542500,4.53754248046875,0.004215783905237913,-0.0035451999865472317,-0.003394465195015073
1782846231542547500,4.54754736328125,0.0023848607670515776,-0.0009305084822699428,-0.002642388455569744
1782846231552552400,4.557552490234375,0.0014085458824411035,-0.0026615632232278585,-0.001103880233131349
1782846231562557400,4.567557373046875,-0.0014530207263305783,-0.005299157928675413,0.0002287655370309949
1782846231572562400,4.5775625,0.0027020431589335203,-0.0022365227341651917,0.0012745888670906425
1782846231582567400,4.5875673828125,0.0019624833948910236,-0.002406965009868145,-0.0019150790758430958
1782846231592572400,4.597572509765625,0.00032676986302249134,-0.0043798345141112804,-0.002094576135277748
1782846231602577400,4.607577392578125,0.0038104509003460407,-0.0041542649269104,-0.0016567525453865528
1782846231612582400,4.61758251953125,0.0024887239560484886,-0.0027092336677014828,-0.002459961920976639
1782846231622586400,4.62758642578125,0.0022985744290053844,-0.004769721534103155,-0.0005371595616452396
1782846231632591400,4.63759130859375,0.001508414396084845,-0.003571032779291272,-0.001347825862467289
1782846231642596600,4.6475966796875,0.0046485476195812225,-0.0016916398890316486,-0.002002430846914649
1782846231652601600,4.6576015625,0.002528671408072114,-0.0013110742438584566,-0.003998736385256052
1782846231662606600,4.667606689453125,0.0017334514996036887,-0.00367143377661705,-0.002201369032263756
1782846231672611600,4.677611572265625,0.0008490157779306173,-0.0038898130878806114,-0.0001984054979402572
1782846231682616600,4.687616455078125,0.002011219272390008,-0.003867442486807704,-0.0016389093361794949
1782846231692621600,4.69762158203125,0.003952663857489824,-0.0054485611617565155,0.00008175904804375023
1782846231702626600,4.70762646484375,0.0036815537605434656,-0.0034045851789414883,-0.000874582096002996
1782846231712631600,4.717631591796875,0.0038927425630390644,-0.004332696553319693,-0.0009499495499767363
1782846231722636500,4.727636474609375,0.001716673607006669,-0.003653324441984296,0.0014149374328553677
1782846231732641500,4.7376416015625,0.0046384274028241634,-0.004111121874302626,-0.0011970909545198083
1782846231742646500,4.747646484375,0.00025246766745112836,-0.0014255901332944632,-0.0007843009079806507
1782846231752651500,4.757651611328125,0.0008841694798320532,-0.0038072550669312477,0.00043995422311127186
1782846231762656500,4.767656494140625,0.004629106726497412,-0.0033577135764062405,-0.0027808728627860546
1782846231772661500,4.77766162109375,0.000963797967415303,-0.002032258315011859,-0.0025931198615580797
1782846231782666500,4.78766650390625,0.002572613535448909,-0.0027454528026282787,-0.00039175100391730666
1782846231792671500,4.79767138671875,0.0016508935950696468,-0.0018783274572342634,-0.001961418194696307
1782846231802676500,4.807676513671875,0.0026495789643377066,0.0004748416249640286,-0.003754258155822754
1782846231812680400,4.817680419921875,0.00213585514575243,-0.006610764656215906,-0.001264735241420567
1782846231822685400,4.827685546875,0.0029473204631358385,-0.00024234765442088246,-0.0005944175645709038
1782846231832690400,4.8376904296875,0.002689792774617672,-0.004287689458578825,0.001534779672510922
1782846231842695400,4.8476953125,0.003135872073471546,-0.0031103058718144894,-0.000040746363083599135
1782846231852700400,4.857700439453125,0.0024943165481090546,-0.0005816344055347145,0.00038722361205145717
1782846231862705400,4.867705322265625,0.0024474449455738068,-0.0025891251862049103,-0.00339153571985662
1782846231872710400,4.87771044921875,-0.0001257012045243755,-0.0038991342298686504,-0.002400573343038559
1782846231882715400,4.88771533203125,0.0008697884040884674,0.00006817692337790504,-0.001657551503740251
1782846231892720400,4.897720458984375,0.003736148588359356,-0.003959587775170803,0.0006293049664236605
1782846231902725400,4.907725341796875,0.002674612682312727,-0.0018543590558692813,-0.0003150519623886794
1782846231912730400,4.91773046875,0.0035233621019870043,-0.003335609333589673,-0.0007787083159200847
1782846231922735400,4.9277353515625,0.001618403010070324,-0.003849599277600646,0.00264744833111763
1782846231932740400,4.937740234375,0.0037388119380921125,-0.0009129316313192248,-0.0026583673898130655
1782846231942745300,4.947745361328125,0.004335892386734486,-0.00236249016597867,-0.0023105584550648928
1782846231952750300,4.957750244140625,0.0021105550695210695,-0.002778475871309638,-0.002570483135059476
1782846231962755300,4.96775537109375,0.0017622136510908604,-0.0036495958920568228,0.0020093549974262714
1782846231972760300,4.97776025390625,0.0011893677292391658,-0.0028431906830519438,0.0007779093575663865
1782846231982765300,4.987765380859375,0.0012990899849683046,-0.005980127956718206,0.00019441076437942684
1782846231992770600,4.9977705078125,0.0006402239087037742,-0.003040797309949994,-0.0006764429272152483
1782846232002774500,5.0077744140625,0.0017624800093472004,-0.0010615360224619508,-0.002079928759485483
1782846232012779500,5.017779541015625,0.0012309130979701877,-0.0027113643009215593,-0.0022951122373342514
1782846232022784500,5.027784423828125,0.002406165935099125,-0.004701810888946056,-0.003320429241284728
1782846232032789500,5.03778955078125,0.001901230658404529,-0.003468234557658434,-0.0008298410102725029
1782846232042794500,5.04779443359375,0.003906857222318649,-0.0008596684201620519,-0.0034466630313545465
1782846232052799500,5.057799560546875,0.0025278725661337376,-0.0031992553267627954,-0.0021675468888133764
1782846232062804500,5.067804443359375,0.0030429279431700706,-0.004817125853151083,-0.00301709515042603
1782846232072809500,5.0778095703125,0.0008351673022843897,-0.0028040423057973385,-0.0008423578692600131
1782846232082814500,5.087814453125,0.0035782232880592346,-0.003081543603911996,-0.0018809906905516982
1782846232092819500,5.0978193359375,0.002323341788724065,-0.004643754102289677,0.0006809702608734369
1782846232102824400,5.107824462890625,0.004171309061348438,-0.00004314320904086344,-0.0024501082953065634
1782846232112829400,5.117829345703125,0.0015129417879506946,-0.003665042342618108,0.00017337177996523678
1782846232122834400,5.12783447265625,0.0006133259739726782,-0.0036884781438857317,-0.0034197650384157896
1782846232132839400,5.13783935546875,0.0005169195355847478,-0.005814479663968086,-0.001398425898514688
1782846232142844400,5.147844482421875,0.002469815546646714,-0.003578755771741271,0.001160339335910976
1782846232152849400,5.157849365234375,0.0026554379146546125,-0.00336144189350307,0.0015733955660834908
1782846232162854400,5.1678544921875,0.00004873584839515388,-0.0037526602391153574,0.002834934974089265
1782846232172859400,5.177859375,0.0006239786162041128,-0.002945189829915762,-0.00021491710504051298
1782846232182863400,5.18786328125,0.0010306433541700244,-0.0041124531999230385,-0.0013696637470275164
1782846232192868400,5.197868408203125,0.0011733887949958444,-0.001874066423624754,0.00350392097607255
1782846232202873300,5.207873291015625,0.0020242687314748764,-0.0044133905321359634,-0.0026495789643377066
1782846232212878600,5.217878662109375,0.0019265307346358895,-0.001773132593370974,-0.002508431440219283
1782846232222883600,5.227883544921875,0.00038642468280158937,-0.0022176143247634172,0.0015875103417783976
1782846232232888600,5.237888671875,0.0009600695921108127,-0.0041374871507287025,0.00047617321251891553
1782846232242893600,5.2478935546875,0.0024895230308175087,-0.0010333064710721374,-0.0018903117161244154
1782846232252898600,5.257898681640625,0.0021403825376182795,-0.001383778522722423,-0.00018961707246489823
1782846232262903600,5.267903564453125,0.0035121769178658724,-0.004693288821727037,-0.001317998394370079
1782846232272908500,5.277908447265625,0.004453337751328945,-0.0013281183782964945,-0.0002724413643591106
1782846232282913500,5.28791357421875,0.0018077536951750517,-0.003885552054271102,-0.000934236915782094
1782846232292918500,5.29791845703125,0.004238953348249197,-0.0030860709957778454,-0.002038117265328765
1782846232302923500,5.307923583984375,0.0026589001063257456,-0.003032275242730975,-0.0021347899455577135
1782846232312928500,5.317928466796875,0.0032493227627128363,-0.0035888757556676865,-0.00115394766908139
1782846232322933500,5.32793359375,0.0015638081822544336,-0.006445382256060839,0.000737695605494082
1782846232332938500,5.3379384765625,0.002898584585636854,-0.00293293921276927,-0.0035694348625838757
1782846232342943500,5.347943603515625,0.0020785972010344267,-0.004486627411097288,0.0011467571603134274
1782846232352948500,5.357948486328125,0.0007970841252245009,0.0003808320325333625,-0.002103630919009447
1782846232362952400,5.367952392578125,0.0021635519806295633,-0.005024053156375885,-0.004351605195552111
1782846232372957400,5.37795751953125,0.0023244069889187813,-0.0025997778866440058,-0.0002490055630914867
1782846232382962400,5.38796240234375,0.0027334685437381268,-0.0015515576815232635,-0.0011938951211050153
1782846232392967400,5.397967529296875,0.0036557212006300688,-0.0026578346733003855,-0.001936917076818645
1782846232402972400,5.407972412109375,0.002561161993071437,-0.004172640852630138,-0.0011078750248998404
1782846232412977400,5.417977294921875,0.0024857944808900356,-0.005025917664170265,-0.002936934120953083
1782846232422982400,5.427982421875,0.0021797972731292248,-0.004707936197519302,-0.001416269107721746
1782846232432987400,5.4379873046875,0.002548911375924945,-0.002787797013297677,-0.00021544973424170166
1782846232442992400,5.447992431640625,0.002323608146980405,-0.00344586418941617,-0.001115864492021501
1782846232452997400,5.457997314453125,0.0024045680183917284,-0.004225637763738632,0.0010974886827170849
1782846232463002400,5.46800244140625,0.001079911831766367,-0.003227484878152609,-0.0007257114048115909
1782846232473007400,5.47800732421875,0.0031529164407402277,-0.0020509003661572933,-0.0011651329696178436
1782846232483012400,5.488012451171875,0.0032842103391885757,-0.002859169617295265,-0.0014692660188302398
1782846232493017300,5.498017333984375,0.0016226640436798334,-0.0013203952694311738,0.00017230652156285942
1782846232503022300,5.508022216796875,0.0017955031944438815,-0.0009291769238188863,-0.0009962886106222868
1782846232513028400,5.5180283203125,0.0006572681595571339,-0.005688512232154608,-0.0010969560826197267
1782846232523033300,5.528033447265625,0.003369697602465749,-0.005516738165169954,-0.0017675400013104081
1782846232533038300,5.538038330078125,0.0006194512825459242,-0.0031667647417634726,-0.0011523497523739934
1782846232543042300,5.548042236328125,0.0029856697656214237,-0.001537975505925715,-0.0021172130946069956
1782846232553047300,5.55804736328125,0.002365419641137123,-0.0036850159522145987,-0.00018429075134918094
1782846232563052300,5.56805224609375,0.003245061729103327,-0.0051963599398732185,-0.004734301473945379
1782846232573057500,5.5780576171875,0.0019824570044875145,-0.003910585772246122,0.0003355582884978503
1782846232583062500,5.5880625,0.0016825852217152715,-0.004335626028478146,-0.0002969424531329423
1782846232593067500,5.598067626953125,0.0035712989047169685,-0.0029702235478907824,-0.005905826110392809
1782846232603072500,5.608072509765625,0.0008460862445645034,-0.0026841999497264624,0.00003435477628954686
1782846232613077500,5.618077392578125,0.002525475574657321,-0.004588892683386803,-0.0019371833186596632
1782846232623082500,5.62808251953125,0.0033896714448928833,-0.002353435382246971,-0.002543851500377059
1782846232633087500,5.63808740234375,0.001648496720008552,-0.00350392097607255,0.0020996362436562777
1782846232643092500,5.648092529296875,0.0009736517095007002,-0.003992611076682806,-0.0005898901727050543
1782846232653097500,5.658097412109375,0.004283161833882332,-0.0004996090428903699,-0.00236195744946599
1782846232663102500,5.6681025390625,0.0031497206073254347,-0.0021827267482876778,-0.00133903743699193
1782846232673107500,5.678107421875,0.0032871398143470287,-0.0013643373968079686,0.00010386328358436003
1782846232683112400,5.688112548828125,0.0030154972337186337,-0.0036812876351177692,-0.0028767467010766268
1782846232693117400,5.698117431640625,0.0020266654901206493,-0.0026668894570320845,-0.0007017429452389479
1782846232703122400,5.708122314453125,0.003698331769555807,-0.003197923768311739,-0.002252501668408513
1782846232713127400,5.71812744140625,0.0014583469601348042,-0.0017294568242505193,0.00013422331539914012
1782846232723131400,5.72813134765625,0.0021888520568609238,-0.0018666095566004515,0.0012130698887631297
1782846232733136400,5.738136474609375,0.0032929987646639347,-0.001407480682246387,-0.00270736962556839
1782846232743141400,5.748141357421875,0.004209125880151987,-0.004165982827544212,-0.0019230686593800783
1782846232753146400,5.758146484375,0.004081827122718096,-0.0034969968255609274,0.0012990899849683046
1782846232763151400,5.7681513671875,0.0025331987999379635,-0.0017715347930788994,-0.0012687299167737365
1782846232773156400,5.77815625,0.002293514320626855,-0.002749713836237788,-0.001252484624274075
1782846232783161300,5.788161376953125,0.0037180392537266016,-0.0019387812353670597,-0.0018881811993196607
1782846232793166300,5.798166259765625,0.005077050067484379,-0.0006197175825946033,-0.002261556452140212
1782846232803171300,5.80817138671875,0.003567836945876479,-0.0022631543688476086,-0.0024498419370502234
1782846232813176300,5.81817626953125,0.002410160843282938,-0.0020668793004006147,-0.002787530655041337
1782846232823181300,5.828181396484375,0.0005821670056320727,-0.0013683321885764599,-0.0008088020258583128
1782846232833186300,5.838186279296875,0.0020903151016682386,-0.004426972474902868,-0.0024562333710491657
1782846232843191300,5.84819140625,0.0014444985426962376,-0.0008287757518701255,0.0016026903176680207
1782846232853196300,5.8581962890625,0.0019297265680506825,-0.005269596818834543,-0.003282079705968499
1782846232863201300,5.868201171875,0.001449025934562087,-0.004018976353108883,0.002100967802107334
1782846232873206300,5.878206298828125,0.002177666872739792,-0.0010524812387302518,-0.0007504787645302713
1782846232883211300,5.888211181640625,0.004589159041643143,-0.002368615474551916,-0.0020804614759981632
1782846232893215500,5.898215576171875,0.0017214673571288586,-0.0016200009267777205,-0.0014554174849763513
1782846232903220500,5.908220458984375,0.0012066783383488655,-0.0037670412566512823,-0.0002695118892006576
1782846232913225500,5.9182255859375,0.0005805690889246762,-0.0012040151050314307,-0.0010338390711694956
1782846232923230500,5.92823046875,0.002715625334531069,-0.0011227887589484453,-0.0022479742765426636
1782846232933235500,5.9382353515625,0.0015060176374390721,-0.002826679265126586,-0.0014836470363661647
1782846232943240400,5.948240478515625,0.001276186783798039,-0.0005462143453769386,-0.0004625910660251975
1782846232953245400,5.958245361328125,0.0023824640084058046,-0.004059722647070885,0.001898034941405058
1782846232963250400,5.96825048828125,0.0031902005430310965,-0.0026194851379841566,0.0005118595436215401
1782846232973255400,5.97825537109375,0.001945439144037664,-0.004472246393561363,0.00105328019708395
1782846232983260400,5.988260498046875,0.004057059530168772,-0.0038461373187601566,-0.0023872575256973505
1782846232993265400,5.998265380859375,0.002201369032263756,-0.001722798915579915,0.0010985539993271232
1782846233003270400,6.0082705078125,0.0032519858796149492,-0.003757187630981207,-0.000639424950350076
1782846233013275400,6.018275390625,0.0010157296201214194,-0.004013650119304657,-0.0014144048327580094
1782846233023280400,6.0282802734375,0.00006684534309897572,-0.005146026145666838,-0.0015896408585831523
1782846233033285400,6.038285400390625,0.00008069378236541525,-0.0037033918779343367,-0.0017584852175787091
1782846233043290400,6.048290283203125,0.0019739349372684956,-0.003419232554733753,-0.0012950951931998134
1782846233053295400,6.05829541015625,0.0025182850658893585,-0.0016783240716904402,-0.0000399474156438373
1782846233063300400,6.06830029296875,0.0007408913807012141,-0.003993676509708166,0.0024402544368058443
1782846233073304300,6.07830419921875,0.0032658344134688377,-0.004595550708472729,-0.0018471685471013188
1782846233083309300,6.088309326171875,0.0036077843979001045,-0.0027893949300050735,-0.0019145464757457376
1782846233093314300,6.098314208984375,0.003209375310689211,-0.003120692213997245,-0.0023427826818078756
1782846233103319300,6.1083193359375,0.001323857344686985,-0.003994208760559559,-0.003637611633166671
1782846233113324300,6.11832421875,0.003623230615630746,-0.0012405004817992449,0.00025513084256090224
1782846233123329300,6.128329345703125,0.005228051450103521,-0.0032293491531163454,-0.0012937636347487569
1782846233133334300,6.138334228515625,-0.000316916179144755,-0.0017092167399823666,-0.00044767739018425345
1782846233143339500,6.148339599609375,0.00318966805934906,-0.003055178327485919,-0.0005299690528772771
1782846233153344500,6.158344482421875,0.000604004948399961,-0.0024711471050977707,0.0007997472421266139
1782846233163349500,6.168349609375,0.001202150946483016,-0.005134840961545706,0.0003304982965346426
1782846233173354500,6.1783544921875,0.0016479641199111938,-0.00515854312106967,-0.0024530377704650164
1782846233183359500,6.188359375,0.002430667169392109,0.0006910903030075133,-0.0009733853512443602
1782846233193364500,6.198364501953125,0.00273693073540926,-0.0018753979820758104,-0.00040986048406921327
1782846233203369500,6.208369384765625,0.0005257080192677677,-0.005781989078968763,-0.000046339002437889576
1782846233213374500,6.21837451171875,0.0008567389450035989,-0.0030447919853031635,-0.0023702133912593126
1782846233223379500,6.22837939453125,0.0020785972010344267,-0.004230697639286518,-0.00008602010348113254
1782846233233384400,6.238384521484375,0.0007177218794822693,-0.0030304109677672386,0.002368082758039236
1782846233243388400,6.248388427734375,0.001184307737275958,-0.005754824727773666,-0.0025827335193753242
1782846233253393400,6.258393310546875,0.0023483755066990852,-0.00447038235142827,-0.00036724991514347494
1782846233263398400,6.2683984375,0.002968891989439726,-0.004279699642211199,0.001755289500579238
1782846233273403400,6.2784033203125,0.0008530105114914477,-0.003897536313161254,-0.0004857605672441423
1782846233283408400,6.288408447265625,0.002317482838407159,-0.00126713200006634,0.0004189152386970818
1782846233293413400,6.298413330078125,-0.0008436894277110696,-0.00464721629396081,0.002168612089008093
1782846233303418400,6.30841845703125,0.0016215987270697951,-0.0035001926589757204,-0.00040027310024015605
1782846233313423400,6.31842333984375,-0.0003475425182841718,-0.0033390712924301624,-0.0012314456980675459
1782846233323428400,6.328428466796875,0.004342017695307732,-0.0027710190042853355,0.0015512913232669234
1782846233333433300,6.338433349609375,0.0024626250378787518,-0.0036964674945920706,0.000990695902146399
1782846233343438300,6.348438232421875,0.0007539408979937434,-0.001579787116497755,-0.0035918052308261395
1782846233353443300,6.358443359375,0.002168345730751753,-0.00273133791051805,-0.001883387565612793
1782846233363448300,6.3684482421875,0.004266916774213314,-0.0032264196779578924,-0.002529470482841134
1782846233373453300,6.378453369140625,0.0016442356863990426,-0.003114300547167659,-0.0005882922559976578
1782846233383458300,6.388458251953125,0.0029087045695632696,-0.0023345269728451967,-0.0005305017111822963
1782846233393463300,6.39846337890625,0.0034021881874650717,-0.000601075473241508,0.00046818371629342437
1782846233403467500,6.408467529296875,0.0006346312584355474,-0.0021515677217394114,-0.00242187874391675
1782846233413472500,6.418472412109375,-0.00015712650201749057,-0.0033505228348076344,-0.00041784998029470444
1782846233423477500,6.4284775390625,0.0025297366082668304,-0.0043532028794288635,0.001088966615498066
1782846233433482500,6.438482421875,0.003483148291707039,-0.0027204190846532583,0.0011946940794587135
1782846233443487500,6.448487548828125,0.003157177474349737,-0.0024863271974027157,-0.0025891251862049103
1782846233453492500,6.458492431640625,0.0013318468118086457,-0.0029920614324510098,-0.0020040287636220455
1782846233463497500,6.46849755859375,0.0023675502743571997,-0.002817358123138547,0.00020053602929692715
1782846233473502500,6.47850244140625,0.005593969952315092,-0.001275920425541699,-0.0049433596432209015
1782846233483507500,6.488507568359375,0.0020117517560720444,-0.004564658273011446,-0.001389371114782989
1782846233493512400,6.498512451171875,0.0016207997687160969,-0.0041518681682646275,0.000014114753867033869
1782846233503517400,6.508517333984375,0.0038029940333217382,-0.0022072279825806618,-0.002114816103130579
1782846233513522400,6.5185224609375,0.003081809962168336,0.00040533312130719423,-0.0008053398923948407
1782846233523527400,6.52852734375,0.001032241270877421,-0.0018077536951750517,-0.000391218374716118
1782846233533532400,6.538532470703125,0.004295146092772484,-0.0005547364708036184,-0.0016197345685213804
1782846233543537400,6.548537353515625,-0.00044368262751959264,-0.004178766161203384,-0.00002157160452043172
1782846233553542400,6.55854248046875,0.003114566905423999,-0.0025619608350098133,-0.001469798618927598
1782846233563547400,6.56854736328125,0.0018631474813446403,-0.003166232258081436,0.001255680457688868
1782846233573552400,6.578552490234375,0.0010697918478399515,-0.001856223214417696,-0.0011094729416072369
1782846233583556400,6.588556396484375,0.0026849990244954824,-0.00290417717769742,0.00041971419705078006
1782846233593561300,6.598561279296875,0.0036013927310705185,-0.0041057956404984,-0.002663427498191595
1782846233603566300,6.60856640625,0.0023843280505388975,-0.004799016285687685,0.0001054611784638837
1782846233613571300,6.6185712890625,0.003453853540122509,-0.0010215885704383254,-0.002010420197620988
1782846233623576300,6.628576416015625,0.002409361768513918,-0.002960369922220707,0.0006756439688615501
1782846233633581300,6.638581298828125,0.0018578211311250925,-0.0022146848496049643,-0.0010961571242660284
1782846233643586300,6.64858642578125,0.0027198863681405783,-0.005103415343910456,-0.0010556770721450448
1782846233653591300,6.65859130859375,0.003585413796827197,-0.00333241350017488,0.00024980452144518495
1782846233663596300,6.66859619140625,0.0022895196452736855,-0.003144926857203245,-0.0017486315919086337
1782846233673601300,6.678601318359375,0.0020991035271435976,-0.001978728687390685,-0.0009635316673666239
1782846233683606300,6.688606201171875,0.0024522386956959963,-0.0014985607704147696,-0.000027164242055732757
1782846233693611300,6.698611328125,0.004394748248159885,-0.002369148191064596,-0.0013640711549669504
1782846233703616300,6.7086162109375,0.0020149475894868374,-0.0031515848822891712,-0.0003129214164800942
1782846233713621500,6.71862158203125,0.0024527714122086763,-0.0034530546981841326,-0.0011656655697152019
1782846233723626500,6.72862646484375,0.002463423879817128,-0.003370230318978429,-0.0008295746520161629
1782846233733631500,6.738631591796875,0.002662894781678915,-0.0035428032279014587,-0.0008082693675532937
1782846233743635500,6.748635498046875,0.00169563468080014,-0.0021646174136549234,-0.00020586235041264445
1782846233753640400,6.758640380859375,0.004567587748169899,-0.0026138925459235907,0.0019257317762821913
1782846233763645400,6.7686455078125,0.0034820830915123224,-0.0006865629111416638,0.0032671659719198942
1782846233773650400,6.778650390625,0.002207760466262698,-0.0036972665693610907,-0.0005049353349022567
1782846233783655400,6.788655517578125,0.0037084517534822226,-0.004334294702857733,-0.0017944378778338432
1782846233793660400,6.798660400390625,0.0030072415247559547,-0.002198972040787339,-0.0015672702575102448
1782846233803665400,6.80866552734375,0.0010950918076559901,-0.005018194206058979,0.0005078648100607097
1782846233813670400,6.81867041015625,0.0011675298446789384,-0.0023664848413318396,-0.0036788906436413527
1782846233823675400,6.82867529296875,0.0033726270776242018,-0.0044115264900028706,-0.005251487251371145
1782846233833680400,6.838680419921875,0.0034075146540999413,-0.0051838429644703865,0.0005310343112796545
1782846233843685400,6.848685302734375,0.001981924520805478,-0.001606418751180172,-0.0012948289513587952
1782846233853690400,6.8586904296875,0.005631786771118641,-0.0017323862994089723,-0.00018961707246489823
1782846233863695400,6.8686953125,0.0015704660909250379,-0.002638926263898611,-0.0005302353529259562
1782846233873700400,6.878700439453125,0.002567553659901023,-0.001133174984715879,-0.0012450277572497725
1782846233883705300,6.888705322265625,0.002064748667180538,-0.0018125474452972412,-0.0006194512825459242
1782846233893710300,6.89871044921875,0.002028529765084386,-0.001449292292818427,-0.002290318487212062
1782846233903715300,6.90871533203125,0.003334543900564313,-0.0016916398890316486,0.0033507891930639744
1782846233913719300,6.91871923828125,0.0014266553334891796,-0.0021262678783386946,0.000011717908819264267
1782846233923724300,6.928724365234375,0.0012863067677244544,-0.002915096003562212,0.00028389296494424343
1782846233933729500,6.9387294921875,-0.0002372876479057595,-0.0037792918737977743,-0.0024399880785495043
1782846233943734500,6.948734619140625,0.0026988473255187273,-0.0018687400734052062,-0.0006106628570705652
1782846233953739500,6.958739501953125,0.000821318884845823,-0.0014980280539020896,0.002132925670593977
1782846233963744500,6.96874462890625,0.003026682650670409,-0.0006865629111416638,-0.0020628846250474453
1782846233973749500,6.97874951171875,0.002953445538878441,-0.001972070662304759,-0.0007595335482619703
1782846233983754500,6.98875439453125,0.0023499734234064817,-0.0043779704719781876,-0.002172074280679226
1782846233993759500,6.998759521484375,0.003051982494071126,-0.0035228293854743242,-0.001505484920926392
1782846234003764500,7.008764404296875,0.0011177286505699158,-0.004418184049427509,-0.0006258428329601884
1782846234013769500,7.01876953125,0.00023462448734790087,-0.0023550332989543676,0.0011076086666435003
1782846234023774500,7.0287744140625,0.003555319970473647,-0.0007840346079319715,0.0011544802691787481
1782846234033779500,7.038779541015625,0.0032535837963223457,-0.0025662221014499664,-0.00047590688336640596
1782846234043784400,7.048784423828125,0.0025837989524006844,-0.0033992587123066187,0.0017353157745674253
1782846234053789400,7.05878955078125,0.0017776599852368236,-0.0027867318131029606,-0.00014088122406974435
1782846234063794400,7.06879443359375,0.002513757674023509,-0.0017310547409579158,-0.00018961707246489823
1782846234073798400,7.07879833984375,0.0029579729307442904,-0.0008274441352114081,-0.0009147958480753005
1782846234083803400,7.088803466796875,0.0007291734800674021,-0.003314570290967822,-0.0017121462151408195
1782846234093808400,7.098808349609375,0.0019465044606477022,-0.0020935109350830317,-0.000993891735561192
1782846234103813400,7.1088134765625,0.002264219569042325,-0.004085022956132889,-0.002808836055919528
1782846234113818400,7.118818359375,0.0017864484107121825,-0.00446798512712121,-0.0026578346733003855
1782846234123823400,7.1288232421875,0.002957440447062254,-0.003852528752759099,0.0004886900424025953
1782846234133828400,7.138828369140625,0.0013520868960767984,-0.004055461846292019,0.00009028115891851485
1782846234143833300,7.148833251953125,0.003948935307562351,-0.0038477350026369095,0.001136637176387012
1782846234153838300,7.15883837890625,0.002100967802107334,-0.003204581793397665,-0.0005763080553151667
1782846234163843300,7.16884326171875,0.003686347510665655,-0.004085821565240622,0.0009563411585986614
1782846234173848300,7.178848388671875,0.0006450176006183028,-0.004532434046268463,-0.00038242992013692856
1782846234183853300,7.188853271484375,0.003471430391073227,-0.0029113676864653826,-0.0017728663515299559
1782846234193858300,7.1988583984375,0.001954760169610381,-0.0006221143994480371,0.0024647556710988283
1782846234203863300,7.20886328125,0.002632800955325365,-0.0026232136879116297,-0.000006125270374468528
1782846234213868300,7.218868408203125,0.0032317459117621183,-0.005111138802021742,0.0006466155173256993
1782846234223872300,7.228872314453125,0.0013020194601267576,-0.003299656556919217,0.00044314999831840396
1782846234233877500,7.23887744140625,0.0009139968897216022,0.00016058860637713224,0.0017683389596641064
1782846234243882500,7.248882568359375,0.003300189273431897,-0.0031198931392282248,0.0003400856803636998
1782846234253887500,7.258887451171875,0.0031649006996303797,-0.004441353492438793,-0.00007110639853635803
1782846234263892500,7.268892578125,0.0022032330743968487,-0.0027273432351648808,-0.0007898935582488775
1782846234273897500,7.2788974609375,0.0023209447972476482,-0.003224022686481476,0.00047936898772604764
1782846234283902500,7.28890234375,0.0025984463281929493,-0.0019462381023913622,-0.0014535533264279366
1782846234293907500,7.298907470703125,0.0018021611031144857,-0.0021486382465809584,0.0024916534312069416
1782846234303912400,7.308912353515625,0.0025300029665231705,-0.002484462922438979,-0.001127582392655313
1782846234313917400,7.31891748046875,0.00455773388966918,-0.0037201696541160345,-0.001151284552179277
1782846234323922400,7.32892236328125,0.0023462448734790087,-0.003263703780248761,0.0002697782183531672
1782846234333927400,7.338927490234375,0.002920954953879118,-0.0027363980188965797,-0.0006332996999844909
1782846234343932400,7.348932373046875,0.002255164785310626,-0.0038426751270890236,0.0002540655550546944
1782846234353937400,7.3589375,0.002679672557860613,-0.0023286680225282907,0.0007491472060792148
1782846234363942400,7.3689423828125,0.0020604876335710287,-0.003911118488758802,0.001064731739461422
1782846234373947400,7.378947509765625,0.0003174488083459437,-0.004984105937182903,-0.0034314829390496016
1782846234383952400,7.388952392578125,0.0028932581190019846,-0.002621882129460573,-0.002001631772145629
1782846234393956000,7.3989560546875,0.0008847020799294114,-0.004559864290058613,-0.00016298545233439654
1782846234403961300,7.40896142578125,0.0027134947013109922,-0.005514341406524181,0.001240766723640263
1782846234413966300,7.41896630859375,0.0032463932875543833,-0.0029119004029780626,0.00070520507870242
1782846234423971300,7.428971435546875,0.0035502600949257612,-0.0017201356822624803,-0.0015813850332051516
1782846234433976300,7.438976318359375,0.0030605047941207886,-0.004749215207993984,0.0006809702608734369
1782846234443981300,7.448981201171875,0.0012889700010418892,-0.0034796863328665495,0.0015195996966212988
1782846234453986300,7.458986328125,0.0029707562644034624,-0.0052168662659823895,0.0015164038632065058
1782846234463991300,7.4689912109375,-0.00005166532355360687,-0.0015417039394378662,-0.002246376359835267
1782846234473996300,7.478996337890625,0.003501790575683117,-0.004037884995341301,0.00031372037483379245
1782846234484001300,7.489001220703125,0.00148125016130507,-0.0035238948184996843,0.0011741877533495426
1782846234494006300,7.49900634765625,0.0029057750944048166,-0.001868473831564188,-0.0018783274572342634
1782846234504011500,7.509011474609375,0.004008323885500431,-0.004275705199688673,0.0008769789128564298
1782846234514016300,7.519016357421875,0.0016112125013023615,-0.006460562348365784,-0.0015813850332051516
1782846234524021200,7.529021240234375,-0.0014764565275982022,-0.003727093804627657,-0.0015880429418757558
1782846234534026200,7.539026123046875,0.0030487868934869766,-0.005688512232154608,-0.00033182985498569906
1782846234544030200,7.5490302734375,0.0034826158080250025,-0.0029409287963062525,-0.0010311759542673826
1782846234554035200,7.55903515625,0.0031127026304602623,-0.0030304109677672386,-0.0022003035992383957
1782846234564040200,7.569040283203125,0.0010005496442317963,-0.0019925772212445736,-0.0037353497464209795
1782846234574045200,7.579045166015625,0.0013065468519926071,-0.004584365524351597,0.0011709919199347496
1782846234584050200,7.58905029296875,0.004629373084753752,-0.0026788737159222364,-0.0009632653673179448
1782846234594055200,7.59905517578125,0.00424321461468935,-0.003614708548411727,-0.003564641112461686
1782846234604060200,7.60906005859375,0.0010242518037557602,-0.0029443909879773855,-0.002117745578289032
1782846234614065200,7.619065185546875,0.0028184233233332634,-0.0029379993211477995,-0.0004799016169272363
1782846234624070100,7.629070068359375,0.0016391756944358349,-0.0032501218374818563,-0.0003371562052052468
1782846234634075100,7.6390751953125,0.004126834217458963,-0.0005371595616452396,-0.0006596649764105678
1782846234644080000,7.649080078125,0.00020346550445538014,-0.0049191247671842575,0.0007036071619950235
1782846234654085000,7.659085205078125,0.0007874967413954437,-0.0022418489679694176,-0.002886600326746702
1782846234664090000,7.669090087890625,0.00279072648845613,-0.003975833300501108,-0.0010487528052181005
1782846234674095000,7.67909521484375,0.0014418354257941246,-0.003715908620506525,-0.001017327536828816
1782846234684100000,7.68910009765625,0.002793123247101903,-0.0037119139451533556,-0.0027566379867494106
1782846234694105000,7.69910498046875,0.003991013392806053,-0.005015531089156866,-0.0020908478181809187
1782846234704109300,7.709109375,0.002662894781678915,-0.001689775730483234,-0.001973402453586459
1782846234714114300,7.7191142578125,0.004132693167775869,-0.004252269398421049,0.002383262850344181
1782846234724119300,7.729119384765625,0.0032730249222368,-0.0026841999497264624,-0.0005568669876083732
1782846234734124300,7.739124267578125,0.0032506543211638927,-0.002847185591235757,0.0009773800848051906
1782846234744129300,7.74912939453125,0.005780124571174383,-0.0026911243330687284,0.0009592706337571144
1782846234754134300,7.75913427734375,0.0022442457266151905,-0.004622981417924166,-0.0006673881434835494
1782846234764139300,7.76913916015625,0.0019518306944519281,-0.0016508935950696468,-0.002129729837179184
1782846234774144300,7.779144287109375,0.0023513049818575382,-0.0028429245576262474,0.0009217200567945838
1782846234784149200,7.789149169921875,-0.0001227717293659225,-0.0056983656249940395,-0.000023435817638528533
1782846234794154200,7.799154296875,0.0002487392339389771,-0.003337473375722766,-0.0007946872501634061
1782846234804159200,7.8091591796875,0.0030328077264130116,-0.0026818031910806894,0.0014682007022202015
1782846234814164200,7.819164306640625,0.0015443670563399792,-0.004266117699444294,0.00044821001938544214
1782846234824169200,7.829169189453125,0.002296443795785308,-0.0036282907240092754,0.0013017531018704176
1782846234834174200,7.83917431640625,0.003108707955107093,-0.0006660565850324929,-0.0038986015133559704
1782846234844179200,7.84917919921875,0.002724946476519108,-0.0008532768115401268,-0.0016069513512775302
1782846234854183200,7.85918310546875,0.002581934677436948,-0.005656021647155285,-0.0032719597220420837
1782846234864188200,7.869188232421875,0.001547030289657414,-0.0030131004750728607,-0.0029521139804273844
1782846234874193200,7.879193115234375,0.0025539714843034744,-0.004307396709918976,-0.0006775081856176257
1782846234884198100,7.8891982421875,0.0035228293854743242,-0.0008945558220148087,0.0006444850005209446
1782846234894203100,7.899203125,0.0018216022290289402,-0.004830441437661648,-0.002377670258283615
1782846234904208100,7.9092080078125,-0.0006660565850324929,-0.004151335451751947,-0.00011638013529591262
1782846234914213000,7.919213134765625,0.003466636873781681,0.0005305017111822963,-0.0005091963685117662
1782846234924218000,7.929218017578125,0.0036045885644853115,-0.0019054916920140386,-0.0017539578257128596
1782846234934223000,7.93922314453125,0.0025068335235118866,-0.0035859462805092335,0.0014002900570631027
1782846234944228000,7.94922802734375,0.002186188939958811,-0.0022309301421046257,0.0005938849062658846
1782846234954233000,7.959233154296875,0.0021076255943626165,-0.004640824627131224,-0.00013209278404247016
1782846234964238000,7.969238037109375,0.003088201628997922,-0.003549194661900401,-0.0005496764206327498
1782846234974243000,7.9792431640625,0.0008498146780766547,-0.0028482507914304733,-0.0010804444318637252
1782846234984248000,7.989248046875,0.0025574336759746075,-0.00407410366460681,-0.0013840447645634413
1782846234994253000,7.999253173828125,0.002287655370309949,-0.0025188177824020386,-0.0013470269041135907
1782846235004258000,8.009258056640626,0.001731320982798934,-0.001740375766530633,0.00038988678716123104
1782846235014262300,8.01926220703125,0.003979029133915901,-0.0020295949652791023,0.00012783173588104546
1782846235024267300,8.029267333984375,0.0028511802665889263,-0.002758235903456807,-0.0016013587592169642
1782846235034272300,8.039272216796874,0.0015078817959874868,-0.004056793171912432,-0.0033981935121119022
1782846235044277200,8.04927734375,0.003063700394704938,-0.0025217472575604916,-0.00261868629604578
1782846235054282200,8.0592822265625,0.004026699345558882,-0.004381965380162001,0.00007776429993100464
1782846235064287200,8.069287353515625,0.0009246495319530368,-0.00287461606785655,-0.000045806369598722085
1782846235074292200,8.079292236328126,0.0034610440488904715,-0.003974767867475748,0.0006926882197149098
1782846235084297200,8.089297119140625,0.0017773937433958054,-0.0020876519847661257,0.00018136126163881272
1782846235094302200,8.09930224609375,0.002698048483580351,-0.002838397165760398,-0.0019433086272329092
1782846235104307200,8.10930712890625,0.002133458387106657,-0.0032386700622737408,0.0009558085002936423
1782846235114312200,8.119312255859375,0.0023086944129318,-0.0034346787724643946,-0.0006527407676912844
1782846235124317200,8.129317138671874,0.0005486111622303724,-0.0035425368696451187,-0.000824248360004276
1782846235134322200,8.139322265625,0.003307912265881896,-0.004510063212364912,-0.00009827064059209079
1782846235144327200,8.1493271484375,0.002953711897134781,-0.001919073867611587,0.000005858954409632133
1782846235154332200,8.159332275390625,0.0005834985640831292,-0.002799781272187829,0.0002937466779258102
1782846235164336000,8.169336181640626,0.0021851237397640944,-0.0034940673504024744,-0.0015273229219019413
1782846235174341000,8.179341064453125,0.0034112429711967707,-0.0022098910994827747,-0.00250550196506083
1782846235184346000,8.18934619140625,0.003659449517726898,-0.0038607846945524216,-0.0015579492319375277
1782846235194351000,8.19935107421875,0.002606169320642948,-0.0024258734192699194,-0.001088966615498066
1782846235204356000,8.209356201171875,0.0036397422663867474,-0.002112952060997486,-0.003865312086418271
1782846235214361000,8.219361083984374,0.002546780975535512,-0.007081078831106424,-0.0014532869681715965
1782846235224366000,8.229365966796875,0.0033451966010034084,-0.004290086217224598,-0.0018466358305886388
1782846235234371000,8.23937109375,0.002310824813321233,-0.002364886924624443,-0.003572630463168025
1782846235244376000,8.2493759765625,0.0015520902816206217,-0.005323659162968397,-0.0016929714474827051
1782846235254381000,8.259381103515626,0.001287904684431851,-0.0019020296167582273,-0.0007890945998951793
1782846235264386300,8.26938623046875,0.0015305186389014125,-0.0027856663800776005,-0.0012053466634824872
1782846235274391300,8.279391357421876,0.002356631215661764,-0.0017350494163110852,-0.002085521351546049
1782846235284396300,8.289396240234375,0.003867442486807704,-0.004453071393072605,-0.003254116512835026
1782846235294401300,8.2994013671875,0.0005227785441093147,-0.004349474795162678,-0.0023763386998325586
1782846235304406300,8.30940625,0.0032794165890663862,-0.003049585735425353,0.0011166634503751993
1782846235314410200,8.31941015625,0.00321816373616457,-0.001978462329134345,0.0002511360798962414
1782846235324415200,8.329415283203126,-0.00018216021999251097,-0.0007360977469943464,-0.0021899172570556402
1782846235334420200,8.339420166015625,0.00018216021999251097,-0.0020634171087294817,-0.000928377965465188
1782846235344425200,8.34942529296875,0.003605121048167348,-0.004381965380162001,-0.002447977662086487
1782846235354430200,8.35943017578125,0.002213885774835944,-0.003364371368661523,-0.00034887410583905876
1782846235364435200,8.369435302734376,0.001032507512718439,-0.0037923413328826427,-0.0014881744282320142
1782846235374440200,8.379440185546875,0.003310841741040349,-0.004008856136351824,-0.0023331954143941402
1782846235384445200,8.389445068359375,0.00039734362508170307,-0.0016682040877640247,-0.0009962886106222868
1782846235394450200,8.3994501953125,0.0001613875647308305,-0.004882373381406069,0.0014101437991485
1782846235404455200,8.409455078125,0.004480235744267702,-0.0009941579774022102,-0.0032490564044564962
1782846235414460200,8.419460205078124,0.0017781927017495036,-0.0035457327030599117,-0.000035420041967881843
1782846235424465200,8.429465087890625,0.002229332225397229,-0.005382515024393797,-0.0007968177669681609
1782846235434470100,8.43947021484375,0.000862864195369184,-0.006748982705175877,-0.0015603461069986224
1782846235444475100,8.44947509765625,0.0013185309944674373,-0.004036553204059601,0.0011638014111667871
1782846235454480100,8.459480224609376,-0.00018908442871179432,-0.0024290692526847124,-0.000316916179144755
1782846235464484000,8.469484130859374,0.002778742229565978,-0.00221947836689651,-0.0004527373821474612
1782846235474489000,8.479489013671875,0.004578772932291031,-0.004650145769119263,-0.0016671388875693083
1782846235484494300,8.489494384765624,0.00379021093249321,-0.0037590519059449434,-0.0025443839840590954
1782846235494499300,8.499499267578125,0.00202293717302382,-0.005647499579936266,-0.0014080132823437452
1782846235504504300,8.50950439453125,0.0026351979468017817,-0.0027379959356039762,-0.0022027005907148123
1782846235514509300,8.51950927734375,0.0008050735923461616,-0.003478354774415493,0.0015169365797191858
1782846235524514600,8.5295146484375,0.003605121048167348,-0.0028003137558698654,-0.002624278888106346
1782846235534519600,8.53951953125,0.0006948187365196645,-0.0059934440068900585,0.0018229337874799967
1782846235544524500,8.549524658203126,0.003385410411283374,-0.0052325790748000145,-0.0006146575906313956
1782846235554529800,8.55952978515625,0.0030330740846693516,-0.0022716764360666275,-0.000046072687837295234
1782846235564534800,8.56953466796875,0.0025619608350098133,-0.004281830508261919,-0.00008388957212446257
1782846235574539800,8.579539794921875,0.002296177437528968,-0.001686846255324781,-0.0021347899455577135
1782846235584544800,8.589544677734375,-0.0006551376427523792,0.039751406759023666,0.02430001273751259
1782846235594549800,8.5995498046875,-0.007153250742703676,0.0009121326729655266,0.008019576780498028
1782846235604554800,8.6095546875,-0.0033127060160040855,-0.00959776621311903,0.003087402554228902
1782846235614558500,8.619558349609376,0.006839796435087919,-0.018201107159256935,-0.0019917781464755535
1782846235624563500,8.6295634765625,0.0021763353142887354,0.0003653856983873993,-0.003861583536490798
1782846235634568400,8.639568359375,0.003028813051059842,-0.023304523900151253,-0.0044205812737345695
1782846235644573400,8.649573486328125,0.0041492050513625145,-0.00012889699428342283,-0.004214984830468893
1782846235654578400,8.659578369140625,0.004565723240375519,-0.012017780914902687,-0.003427221905440092
