time,seconds_elapsed,z,y,x
1782846227072835000,0.0778349609375,0.0009012683294713497,0.005011372268199921,0.002292567864060402
1782846227082839000,0.087839111328125,0.0012470197398215532,-0.00926157832145691,-0.006013121455907822
1782846227092844000,0.097843994140625,-0.0003865633625537157,-0.002804477233439684,-0.0031009549275040627
1782846227102849000,0.10784912109375,0.0009191655553877354,0.008481956087052822,0.003693350125104189
1782846227112854000,0.11785400390625,-0.0006763342535123229,-0.0014151495415717363,0.0001611997140571475
1782846227122859000,0.12785888671875,0.00006871204823255539,-0.0052201091311872005,-0.002044067019596696
1782846227132864000,0.137864013671875,-0.0004322286695241928,0.0014063686830922961,-0.0007449770346283913
1782846227142869000,0.147868896484375,0.00017164484597742558,0.004115991294384003,0.0010000716429203749
1782846227152874000,0.1578740234375,0.00042943889275193214,-0.003837272757664323,-0.0012252656742930412
1782846227162879000,0.16787890625,-0.00032671005465090275,-0.002435289090499282,0.00011917849769815803
1782846227172884000,0.177884033203125,-0.0005999504355713725,0.0033096822444349527,-0.0013580769300460815
1782846227182889000,0.187888916015625,0.0003446380142122507,0.0025272932834923267,0.0001980483066290617
1782846227192894000,0.19789404296875,-0.00030117854475975037,-0.0032578916288912296,0.0012718348298221827
1782846227202899000,0.20789892578125,-0.0017750069964677095,-0.0013933642767369747,-0.0006882114103063941
1782846227212904000,0.217904052734375,-0.001511087641119957,0.003128683427348733,-0.0011654498521238565
1782846227222909000,0.227908935546875,-0.0011248929658904672,-0.0014163372106850147,0.0010446914238855243
1782846227232914000,0.237913818359375,-0.00027880677953362465,-0.000021107029169797897,-0.0037250302266329527
1782846227242919000,0.2479189453125,0.000649196794256568,0.00041661597788333893,0.0021270967554301023
1782846227252924000,0.257923828125,0.0008196390699595213,-0.000496049178764224,-0.00041835266165435314
1782846227262929000,0.267928955078125,0.0009271937888115644,-0.0019602072425186634,0.004436896648257971
1782846227272934000,0.277933837890625,0.000378582626581192,0.0012816587695851922,-0.00037064170464873314
1782846227282939000,0.28793896484375,-0.0022396501153707504,-0.0006066926289349794,-0.000729289255104959
1782846227292943000,0.297943115234375,0.001129248645156622,0.0002015768550336361,-0.006327786482870579
1782846227302948000,0.307947998046875,-0.0008276789449155331,-0.0026072112377732992,-0.0008592111989855766
1782846227312953000,0.317953125,0.0001470379065722227,-0.0006338087841868401,-0.00031486107036471367
1782846227322958000,0.3279580078125,-0.0008381697116419673,0.0005702588241547346,-0.0011970363557338715
1782846227332963000,0.337963134765625,-0.00042351544834673405,-0.0005171098746359348,0.0014293731655925512
1782846227342968000,0.347968017578125,0.0009327663574367762,0.00029234238900244236,-0.003504076972603798
1782846227352973000,0.35797314453125,0.0011772445868700743,0.0011046065483242273,0.003419342916458845
1782846227362978000,0.36797802734375,-0.0009276275523006916,-0.0006939221639186144,-0.0012045176699757576
1782846227372983000,0.377983154296875,-0.0007936705369502306,0.00004324084147810936,0.00018032599473372102
1782846227382988000,0.387988037109375,-0.0002565986942499876,0.0017409672727808356,0.0017197681590914726
1782846227392993000,0.397992919921875,-0.000992696499451995,0.0014000826049596071,-0.0013958639465272427
1782846227402998000,0.407998046875,-0.00005579390563070774,-0.0014299454633146524,0.003791145049035549
1782846227413003000,0.4180029296875,-0.0007721843430772424,0.00007287622429430485,0.001118396525271237
1782846227423008000,0.428008056640625,-0.0007746454793959856,0.0010967131238430738,-0.0004661285784095526
1782846227433013000,0.438012939453125,-0.00024867127649486065,-0.0003134305588901043,0.003524351865053177
1782846227443018000,0.44801806640625,0.0022945748642086983,0.0005558077245950699,-0.0024958765134215355
1782846227453023000,0.45802294921875,-0.0007291781948879361,0.0008695281576365232,-0.0004082245286554098
1782846227463028000,0.468028076171875,0.0006750980392098427,0.0010395294521003962,-0.0007842709310352802
1782846227473033000,0.478032958984375,0.001256199786439538,-0.00003825174644589424,-0.0010146342683583498
1782846227483038000,0.488037841796875,-0.000245365547016263,0.00009233900345861912,0.0011724339565262198
1782846227493042000,0.4980419921875,0.0001487822737544775,-0.0001084634568542242,-0.0003274583723396063
1782846227503047000,0.508046875,-0.0006319500971585512,-0.0013780663721263409,-0.00012756057549268007
1782846227513052200,0.51805224609375,-0.0003467255737632513,0.0020563462749123573,-0.00030306284315884113
1782846227523057200,0.52805712890625,-0.002914091804996133,-0.00210368144325912,-0.0004305480979382992
1782846227533062100,0.538062255859375,-0.0018000914715230465,-0.00023893616162240505,0.0017396619077771902
1782846227543067100,0.548067138671875,-0.0008217638824135065,-0.001726455520838499,0.002309724222868681
1782846227553072000,0.558072021484375,0.00018331315368413925,-0.0007517386693507433,-0.0007731509394943714
1782846227563077000,0.5680771484375,-0.00011222786270081997,0.002024292014539242,0.001585038029588759
1782846227573082000,0.57808203125,0.000264875590801239,0.00027592689730226994,0.0008199118310585618
1782846227583087000,0.588087158203125,0.0011602111626416445,0.0002647680230438709,-0.0015217880718410015
1782846227593092000,0.598092041015625,0.00045580510050058365,-2.1653249859809875e-7,0.0005040784599259496
1782846227603097000,0.60809716796875,0.0010469690896570683,-0.0014680984895676374,0.00015943910693749785
1782846227613102000,0.61810205078125,-0.002065467182546854,-0.00035196798853576183,0.0005157701089046896
1782846227623107000,0.628107177734375,-0.0005436941282823682,0.0019803086761385202,-0.0003952019615098834
1782846227633112300,0.6381123046875,0.0008813634049147367,-0.0016285409219563007,-0.0002881428226828575
1782846227643117300,0.648117431640625,-0.00131515646353364,0.0020272256806492805,-0.0015211434802040458
1782846227653122300,0.658122314453125,-0.0022155712358653545,-0.0016362187452614307,0.002640312071889639
1782846227663127300,0.668127197265625,-0.00012163352221250534,-0.00041377684101462364,0.0016857251757755876
1782846227673132500,0.678132568359375,0.0011095458175987005,0.00047492003068327904,-0.0003595825983211398
1782846227683137500,0.688137451171875,0.00017489842139184475,-0.0005406795535236597,-0.0003365867305546999
1782846227693142500,0.698142578125,-0.0023665560875087976,-0.0002482642885297537,0.0018384167924523354
1782846227703146200,0.708146240234375,0.001146095572039485,0.0008558928966522217,0.0010193039197474718
1782846227713151200,0.718151123046875,0.0002922860439866781,0.002533950610086322,-0.0011895218631252646
1782846227723156200,0.72815625,-0.0016702329739928246,0.0021340325474739075,-0.0004959639627486467
1782846227733161200,0.7381611328125,0.001390271820127964,-0.0010822669137269258,-0.001535129500553012
1782846227743166200,0.748166259765625,-0.0004298388957977295,0.00022687111049890518,-0.00006925512570887804
1782846227753171200,0.758171142578125,-0.00007883436046540737,0.0006828042678534985,0.00009772507473826408
1782846227763176200,0.76817626953125,-0.0010816935682669282,0.0005063891876488924,0.00042124208994209766
1782846227773181200,0.77818115234375,0.0019481847994029522,0.0014576702378690243,-0.0022541694343090057
1782846227783186200,0.788186279296875,0.0007078694179654121,0.0009182237554341555,0.0013778159627690911
1782846227793191200,0.798191162109375,0.0004034701269119978,0.0012726905988529325,0.0009509112569503486
1782846227803196200,0.808196044921875,-0.0029246213380247355,0.00024282396771013737,0.0013931834837421775
1782846227813201200,0.818201171875,-0.00039887940511107445,-0.0015396296512335539,-0.0020968890748918056
1782846227823206100,0.8282060546875,-0.0018277703784406185,0.00025557889603078365,0.0008878345834091306
1782846227833211100,0.838211181640625,-0.0014828909188508987,0.0020734528079628944,0.0006729175220243633
1782846227843216400,0.84821630859375,-0.0002093757502734661,0.000292882788926363,0.0017432973254472017
1782846227853221400,0.858221435546875,0.00003856443800032139,-0.00017077336087822914,0.0017608741763979197
1782846227863226400,0.868226318359375,-0.0010879718465730548,-0.0027026680763810873,0.000878965191077441
1782846227873231400,0.8782314453125,-0.00019661174155771732,0.00023613008670508862,0.002607889473438263
1782846227883236400,0.888236328125,0.0033820539247244596,-0.0007728871423751116,0.00043013511458411813
1782846227893241300,0.898241455078125,0.0010469940025359392,0.002344342879951,0.0011430633021518588
1782846227903246300,0.908246337890625,0.0005022308323532343,0.00042550615034997463,0.0010101725347340107
1782846227913250300,0.918250244140625,0.0005344550590962172,0.00048063346184790134,-0.0006838642293587327
1782846227923255300,0.92825537109375,-0.00055964186321944,-0.0014774501323699951,-0.00203385716304183
1782846227933260300,0.93826025390625,0.0017370684072375298,-0.0015536164864897728,-0.0021345242857933044
1782846227943265300,0.948265380859375,-0.000804182724095881,0.00027672178111970425,0.00040176656330004334
1782846227953270300,0.958270263671875,-0.0012705022236332297,-0.0019097335170954466,0.001180474879220128
1782846227963275300,0.968275146484375,-0.0015094594564288855,0.0013640474062412977,-0.003844107734039426
1782846227973280300,0.9782802734375,0.0026469361037015915,-0.0002556871622800827,-0.0018874832894653082
1782846227983285200,0.98828515625,0.00027088727802038193,-0.001451276708394289,0.0033373699989169836
1782846227993290200,0.998290283203125,-0.0017880024388432503,0.00014022807590663433,0.001324020093306899
1782846228003295200,1.008295166015625,-0.0012284856056794524,-0.001888406928628683,0.0026143649592995644
1782846228013300500,1.018300537109375,-0.0009403316071256995,-0.001169087365269661,-0.0022528283298015594
1782846228023305500,1.028305419921875,-0.00002838042564690113,0.00012110499665141106,-0.00043870683293789625
1782846228033310500,1.038310546875,0.001533297123387456,-0.00037530832923948765,-0.0003452299861237407
1782846228043315500,1.0483154296875,0.003539709374308586,-0.00014623277820646763,-0.000725076999515295
1782846228053320400,1.058320556640625,0.0008139642886817455,0.00023007183335721493,0.0005191517993807793
1782846228063325400,1.068325439453125,-0.0004959171637892723,-0.0013935640454292297,-0.0019309485796838999
1782846228073330400,1.078330322265625,0.00047214189544320107,-0.001380781177431345,-0.0010766065679490566
1782846228083335400,1.08833544921875,-0.0010850763646885753,0.0009959759190678596,0.002892741933465004
1782846228093340400,1.09834033203125,0.0018372100312262774,0.00015841168351471424,0.0011718071764335036
1782846228103345400,1.108345458984375,-0.00112593499943614,-0.00344865582883358,0.002302490873262286
1782846228113350400,1.118350341796875,0.0003278846852481365,0.002063554711639881,0.0005336193135008216
1782846228123354000,1.12835400390625,0.0008349043782800436,-0.002217436209321022,0.0024093100801110268
1782846228133359000,1.138359130859375,-0.0020229339133948088,0.00109633500687778,-0.0018349695019423962
1782846228143364000,1.148364013671875,-0.0007736234692856669,0.0012405198067426682,0.0008616837440058589
1782846228153369000,1.158369140625,-0.00025057862512767315,-0.0006593791767954826,0.00040175579488277435
1782846228163374000,1.1683740234375,0.002111904788762331,0.0007614004425704479,0.0013883364154025912
1782846228173379000,1.178379150390625,-0.0007488630944862962,0.002147842198610306,0.0002977719414047897
1782846228183384300,1.18838427734375,0.00212899805046618,0.00013676146045327187,0.0010899086482822895
1782846228193389300,1.198389404296875,0.0006642595399171114,-0.00027363188564777374,0.0008470283355563879
1782846228203394300,1.208394287109375,0.00046874559484422207,-0.0014266460202634335,0.0002777372137643397
1782846228213399300,1.2183994140625,0.0012626340612769127,-0.00034247315488755703,0.0009160969057120383
1782846228223404300,1.228404296875,0.0012229166459292173,0.002293060999363661,0.00008696934673935175
1782846228233409300,1.2384091796875,0.001724922563880682,0.0008682697080075741,0.002339204540476203
1782846228243414500,1.24841455078125,-0.0018803768325597048,0.0012932135723531246,-0.0002549877390265465
1782846228253419500,1.25841943359375,0.00043843756429851055,-0.000781388720497489,0.0013029614929109812
1782846228263424500,1.268424560546875,0.0001668245531618595,-0.0034232616890221834,-0.00046570668928325176
1782846228273429500,1.278429443359375,-0.0005088193574920297,0.000950447516515851,0.0005311145214363933
1782846228283434500,1.2884345703125,-0.00034451810643076897,0.0014171636430546641,-0.00027909327764064074
1782846228293439500,1.298439453125,-0.0018926134798675776,-0.0007330728694796562,0.00002477335510775447
1782846228303444500,1.308444580078125,0.0008943027351051569,0.0015537489671260118,-0.0016659190878272057
1782846228313449500,1.318449462890625,0.0005361076910048723,0.0004131169989705086,-0.001014776062220335
1782846228323453200,1.328453125,-0.00008369982242584229,-0.00022382219322025776,0.004120066296309233
1782846228333458200,1.338458251953125,-0.0003098021261394024,-0.00010291463695466518,-0.0013098526978865266
1782846228343463400,1.34846337890625,-0.0007016480667516589,0.00048826844431459904,-0.001826381660066545
1782846228353468400,1.358468505859375,-0.0007391985272988677,0.00045684329234063625,0.00181788788177073
1782846228363473400,1.368473388671875,-0.0016966222319751978,-0.0002889479510486126,0.001851680688560009
1782846228373478400,1.378478515625,0.0017934502102434635,0.0019177473150193691,-0.002441068645566702
1782846228383483400,1.3884833984375,0.0004674037918448448,-0.0003649864811450243,0.00048371314187534153
1782846228393488400,1.39848828125,0.0016908599063754082,0.0005343630909919739,0.000495431013405323
1782846228403493400,1.408493408203125,0.00077388109639287,-0.0003813996445387602,-0.0005278295138850808
1782846228413498400,1.418498291015625,-0.001998735824599862,0.00032780016772449017,-0.00010332174133509398
1782846228423503400,1.42850341796875,0.0007301473524421453,0.00019415770657360554,-0.0016893999418243766
1782846228433508400,1.43850830078125,-0.0007772019598633051,0.00007191859185695648,-0.0004662099527195096
1782846228443513300,1.448513427734375,0.0008288472890853882,-0.0012191892601549625,0.0024099531583487988
1782846228453518300,1.458518310546875,-0.0015719924122095108,-0.0011182553134858608,0.001776653341948986
1782846228463523300,1.4685234375,0.0009876408148556948,0.00015255529433488846,-0.0032786987721920013
1782846228473528300,1.4785283203125,0.0020047021098434925,-0.0001510449219495058,0.0005964667070657015
1782846228483533300,1.488533203125,0.000836928840726614,-0.0011285641230642796,0.0012036606203764677
1782846228493538300,1.498538330078125,0.0015993919223546982,-0.00263458164408803,-0.0009433799423277378
1782846228503543300,1.508543212890625,-0.0009329826571047306,-0.0016344150062650442,0.0034574749879539013
1782846228513547500,1.518547607421875,0.0008726404048502445,0.0013928000116720796,0.0006912495591677725
1782846228523552500,1.528552490234375,-0.0014221544843167067,-0.0006500326562672853,-0.00007676251698285341
1782846228533557500,1.5385576171875,-0.00025382568128407,-0.0016623002011328936,-0.0011129984632134438
1782846228543561500,1.5485615234375,-0.0007669725455343723,-0.0014237796422094107,-0.0002167210914194584
1782846228553566500,1.55856640625,-0.000207176199182868,-0.0009273665491491556,-0.0005626657512038946
1782846228563571500,1.568571533203125,-0.0002945999149233103,-0.0000668142456561327,0.0012625076342374086
1782846228573576400,1.578576416015625,0.0008313844446092844,0.003216064302250743,-0.0007066336693242192
1782846228583581400,1.58858154296875,0.0011755847372114658,0.0007106272969394922,0.0001073107123374939
1782846228593586400,1.59858642578125,-0.0009394977241754532,-0.0005133615341037512,-0.00139817432500422
1782846228603591400,1.60859130859375,-0.0004684682935476303,-0.0009087109938263893,0.00349266454577446
1782846228613596400,1.618596435546875,-0.00001972564496099949,-0.0006250843871384859,0.0006990085821598768
1782846228623601400,1.628601318359375,0.0011951120104640722,-0.00004498683847486973,0.0021344348788261414
1782846228633606400,1.6386064453125,-0.0018478159327059984,-0.0012287620920687914,0.00006169674452394247
1782846228643611400,1.648611328125,-0.00006769527681171894,0.0013803009642288089,-0.001024021185003221
1782846228653616400,1.658616455078125,0.000025249086320400238,-0.0012064273469150066,0.0009248802089132369
1782846228663621400,1.668621337890625,0.000749159837141633,0.0004902107175439596,-0.0002550603821873665
1782846228673626400,1.67862646484375,-0.001648484030738473,-0.002484007505699992,0.00003841996658593416
1782846228683631400,1.68863134765625,-0.0014847861602902412,-0.0008128790650516748,0.000505675096064806
1782846228693636400,1.69863623046875,0.0010785064660012722,0.0012955456040799618,0.00047851086128503084
1782846228703641300,1.708641357421875,0.0023166839964687824,0.00212272466160357,0.0013782972237095237
1782846228713646300,1.718646240234375,-0.000017576618120074272,-0.000560676446184516,0.0005884036654606462
1782846228723651300,1.7286513671875,-0.0009024135069921613,0.0010790468659251928,0.0008859705412760377
1782846228733656300,1.73865625,-0.00006618094630539417,-0.0025851966347545385,0.002178136259317398
1782846228743661300,1.748661376953125,-0.0002036446239799261,-0.00007482664659619331,0.0012824700679630041
1782846228753665500,1.75866552734375,0.00018704100511968136,-0.0013795089907944202,0.0021218983456492424
1782846228763670500,1.76867041015625,-0.0018582253251224756,0.0006116537842899561,-0.002462265081703663
1782846228773675500,1.778675537109375,-0.0014512942871078849,0.001834577415138483,-0.00029525067657232285
1782846228783680500,1.788680419921875,0.0003628171980381012,-0.0013355656992644072,-0.0019724301528185606
1782846228793685500,1.798685546875,-0.0007048441329970956,-0.000020763138309121132,0.0024782447144389153
1782846228803690500,1.8086904296875,-0.001228711917065084,-0.0011222341563552618,0.0036788969300687313
1782846228813695500,1.818695556640625,-0.001249484601430595,-0.000029006507247686386,-0.0012418256374076009
1782846228823700500,1.828700439453125,-0.0008132915245369077,-0.001496477285400033,-0.00045516667887568474
1782846228833705500,1.83870556640625,0.0031886405777186155,0.0014487126609310508,-0.0015193657018244267
1782846228843710500,1.84871044921875,0.002257782267406583,0.0016220415709540248,-0.0008267585653811693
1782846228853715500,1.858715576171875,0.0020572461653500795,0.00045957183465361595,0.00006247090641409159
1782846228863720400,1.868720458984375,-0.000853997771628201,-0.0006481632590293884,-0.0009689163416624069
1782846228873725400,1.878725341796875,-0.001692627090960741,-0.00208627013489604,0.00004628079477697611
1782846228883730400,1.88873046875,0.0008376645855605602,-0.0011461228132247925,-0.002004387089982629
1782846228893735400,1.8987353515625,-0.001129346084780991,-0.00040310085751116276,-0.0019814837723970413
1782846228903740400,1.908740478515625,0.001556014409288764,0.0013390613021329045,-0.00010767101775854826
1782846228913745400,1.918745361328125,0.00015306100249290466,0.00011906726285815239,0.002323795109987259
1782846228923750400,1.92875048828125,0.0006326984148472548,0.0015021600993350148,0.0002332877484150231
1782846228933755400,1.93875537109375,-0.0004384247586131096,-0.0025509046390652657,0.0024924473837018013
1782846228943760400,1.948760498046875,0.0005110716447234154,0.0014365696115419269,-0.00015310535673052073
1782846228953765400,1.958765380859375,0.0004884346853941679,-0.0012436357792466879,0.000503363786265254
1782846228963770400,1.968770263671875,-0.0037986631505191326,-0.0018837354145944118,0.0007246335735544562
1782846228973774300,1.9787744140625,0.00006851321086287498,0.000838547945022583,-0.002989410888403654
1782846228983779300,1.988779296875,0.000787853030487895,-0.00141656375490129,0.001200558734126389
1782846228993784300,1.998784423828125,0.0010861270129680634,-0.0008498432580381632,0.0006117337616160512
1782846229003789300,2.008789306640625,0.00321057322435081,0.00014269561506807804,-0.002147295977920294
1782846229013794300,2.018794189453125,-0.0011255857534706593,0.0016907912213355303,-0.0008756365859881043
1782846229023799300,2.02879931640625,0.0012194982264190912,0.0021096740383654833,-0.002222531009465456
1782846229033804500,2.038804443359375,-0.0026804348453879356,0.00199249479919672,-0.0006672448944300413
1782846229043809500,2.0488095703125,0.00019193836487829685,0.0013594521442428231,0.002025823574513197
1782846229053814500,2.058814453125,-0.0016853238921612501,-0.0019519221968948841,0.0024170419201254845
1782846229063819500,2.068819580078125,0.0000342298299074173,0.0005144781898707151,-0.002474494045600295
1782846229073824500,2.078824462890625,0.0010776561684906483,0.0001898389309644699,0.0005271548288874328
1782846229083829500,2.08882958984375,0.0008618629071861506,0.002017881954088807,-0.0013307469198480248
1782846229093834500,2.09883447265625,-0.0013450987171381712,0.0013329170178622007,0.0004373256815597415
1782846229103839500,2.108839599609375,-0.0010773319518193603,0.0020068660378456116,0.0010608622105792165
1782846229113844500,2.118844482421875,0.0005354783497750759,-0.0008064969442784786,0.0014100027037784457
1782846229123849500,2.128849365234375,-0.001733892597258091,0.0003138200845569372,0.00018871144857257605
1782846229133854500,2.1388544921875,-0.0012199025368317962,0.0005505750887095928,-0.0003710850141942501
1782846229143859500,2.148859375,-0.0010336897103115916,-0.0005560095887631178,-0.0012506648199632764
1782846229153864400,2.158864501953125,0.001098437001928687,0.002286648377776146,0.00012991781113669276
1782846229163869400,2.168869384765625,0.00048330798745155334,0.0017521532718092203,0.002301580971106887
1782846229173874400,2.17887451171875,-0.0007990041049197316,-0.0001179184764623642,-0.00016530510038137436
1782846229183878400,2.18887841796875,-0.0005795485340058804,-0.000135303707793355,0.000740975490771234
1782846229193883400,2.19888330078125,-0.0014184443280100822,-0.00013770046643912792,-0.0009975360007956624
1782846229203888400,2.208888427734375,0.0019207648001611233,0.0003649389836937189,-0.0005429737502709031
1782846229213893400,2.218893310546875,-0.00040577282197773457,0.00034869369119405746,-0.0012002418516203761
1782846229223898400,2.2288984375,-0.0008087034802883863,-0.001447693444788456,-0.001611544517800212
1782846229233903400,2.2389033203125,0.0008706860244274139,-0.0006018737331032753,-0.001986251212656498
1782846229243908400,2.248908447265625,0.0006346153095364571,0.001033994136378169,0.0009041797602549195
1782846229253913300,2.258913330078125,-0.002117761643603444,0.00009469711221754551,0.0019444104982540011
1782846229263918300,2.26891845703125,0.00029476522468030453,0.0004162713885307312,0.0013314624084159732
1782846229273923300,2.27892333984375,0.0016939898487180471,-0.00015204725787043571,-0.0013684502337127924
1782846229283928300,2.28892822265625,0.0007405816577374935,-0.00017113657668232918,-0.00015219871420413256
1782846229293933300,2.298933349609375,-0.0006301474059000611,-0.0001484996173530817,0.00008668680675327778
1782846229303938300,2.308938232421875,0.00006217299960553646,-0.0010655755177140236,-0.0020942948758602142
1782846229313943300,2.318943359375,-0.0023810111451894045,0.00028438051231205463,0.0009843191364780068
1782846229323948300,2.3289482421875,0.00020196381956338882,0.0008368557319045067,-0.0018593946006149054
1782846229333953300,2.338953369140625,-0.001353588537313044,-0.0006124365609139204,0.0012024417519569397
1782846229343958300,2.348958251953125,-0.0022245401050895452,0.0007572218310087919,0.002939729019999504
1782846229353963300,2.35896337890625,0.0008404918480664492,-0.00044226599857211113,-0.00045473629143089056
1782846229363968300,2.36896826171875,-0.0019391371170058846,0.00014061713591217995,0.0011508158640936017
1782846229373973200,2.37897314453125,0.0000843326561152935,-0.00004234211519360542,0.0030626992229372263
1782846229383978200,2.388978271484375,-0.0008593895472586155,-0.00029509933665394783,0.0010934914462268353
1782846229393983500,2.3989833984375,-0.001551012508571148,-0.00028684339486062527,-0.0018405129667371511
1782846229403987500,2.408987548828125,-0.0023460974916815758,-0.0014842776581645012,0.000710969849023968
1782846229413992400,2.418992431640625,-0.00028108246624469757,-0.0014621736481785774,-0.0017676340648904443
1782846229423997400,2.42899755859375,0.0017719336319714785,-0.0012574861757457256,-0.0024017037358134985
1782846229434002400,2.43900244140625,0.0005729785189032555,0.00017928937450051308,-0.001347624696791172
1782846229444007400,2.44900732421875,0.0007474634330719709,-0.0014880411326885223,0.0010688931215554476
1782846229454012400,2.459012451171875,0.001828707056120038,0.002146641258150339,-0.003276853123679757
1782846229464017400,2.469017333984375,0.0017553712241351604,0.00045318552292883396,-0.0019292783690616488
1782846229474022400,2.4790224609375,0.0006498931907117367,-0.0015460492577403784,-0.0003034184919670224
1782846229484027400,2.48902734375,0.000006617512553930283,0.002263312693685293,-0.001390445395372808
1782846229494032400,2.499032470703125,-0.002802751027047634,-0.0006528487429022789,-0.0004910959396511316
1782846229504037400,2.509037353515625,-0.00022391206584870815,0.0001777892466634512,-0.001113482634536922
1782846229514043000,2.51904296875,0.001663470407947898,0.0012198841432109475,-0.0006002915324643254
1782846229524048000,2.5290478515625,-0.0007843015482649207,-0.002237908076494932,0.00007927510887384415
1782846229534052900,2.539052978515625,-0.0005619276780635118,-0.0008488032035529613,-0.000402756966650486
1782846229544057900,2.549057861328125,-0.0007544743129983544,0.0020990786142647266,-0.0019777314737439156
1782846229554062800,2.559062744140625,0.0011361036449670792,-0.00048418762162327766,0.0017158067785203457
1782846229564067800,2.56906787109375,-0.0005846039857715368,0.001359163667075336,-0.001130161457695067
1782846229574072800,2.57907275390625,-0.0015484020113945007,0.0008078892715275288,0.002551392186433077
1782846229584077800,2.589077880859375,-0.00272543728351593,-0.0015713917091488838,-0.001379472785629332
1782846229594082800,2.599082763671875,-0.000735257170163095,-0.002675804775208235,0.0011662428732961416
1782846229604087800,2.609087890625,-0.0025201612152159214,-0.0003389886114746332,0.0018755714409053326
1782846229614091800,2.619091796875,-0.002435738919302821,-0.0023779047187417746,-0.0023559252731502056
1782846229624096800,2.6290966796875,-0.0018252560403198004,0.0017036651261150837,0.001408756710588932
1782846229634101800,2.639101806640625,0.0008991577196866274,0.0014402784872800112,-0.0014821046497672796
1782846229644106800,2.649106689453125,0.0023367200046777725,-0.0003746035508811474,-0.0009299630764871836
1782846229654111700,2.65911181640625,0.0005031335167586803,0.0028853719122707844,-0.0011534021468833089
1782846229664116700,2.66911669921875,-0.000914803589694202,0.0018587439553812146,0.0025316905230283737
1782846229674122000,2.6791220703125,0.0005422118119895458,0.0006840236019343138,0.00026880239602178335
1782846229684127000,2.689126953125,-0.0016631769249215722,-0.001262914389371872,-0.0019130229484289885
1782846229694132000,2.699132080078125,-0.0008583696326240897,0.0014338025357574224,-0.0012858484406024218
1782846229704137000,2.709136962890625,-0.0006591117708012462,0.0005759173072874546,-0.002716267015784979
1782846229714142000,2.719141845703125,0.00002638576552271843,0.001323200180195272,-0.0014928106684237719
1782846229724147000,2.72914697265625,0.0008227217476814985,-0.0015963087789714336,0.001343927695415914
1782846229734152000,2.73915185546875,-0.000586356851272285,0.0006759003736078739,0.0003018327406607568
1782846229744157000,2.749156982421875,0.0011933906935155392,-0.000672448193654418,0.0004445535596460104
1782846229754162000,2.759161865234375,-0.0016218367964029312,-0.0012234561145305634,0.0000988752581179142
1782846229764167000,2.7691669921875,0.0001009753905236721,0.000844326801598072,0.000802450580522418
1782846229774172000,2.779171875,0.0019886239897459745,-0.001378081040456891,-0.0021717678755521774
1782846229784177000,2.789177001953125,-0.0037794653326272964,-0.0005723803769797087,-0.001047775847837329
1782846229794182000,2.799181884765625,-0.0009716944769024849,0.0009533443953841925,-0.0008823936805129051
1782846229804187000,2.809186767578125,-0.00001702830195426941,0.0006295077037066221,-0.0015797584783285856
1782846229814191900,2.81919189453125,-0.00038481084629893303,0.0010047468822449446,-0.00005137035623192787
1782846229824195800,2.82919580078125,-0.0018987536896020174,0.0002061536069959402,0.001247724867425859
1782846229834200800,2.839200927734375,0.0005569471977651119,-0.0005206230562180281,-0.0024862932041287422
1782846229844205800,2.849205810546875,0.00012973672710359097,-0.0004767805803567171,0.0003214887692593038
1782846229854210800,2.8592109375,0.001073028426617384,0.002078522462397814,-0.0015171575360000134
1782846229864215800,2.8692158203125,-0.0004992102039977908,-0.000623263418674469,0.0010940254433080554
1782846229874220800,2.879220703125,-0.0026284074410796165,-0.0013199462555348873,-0.00086819170974195
1782846229884225800,2.889225830078125,-0.0009665722027420998,-0.0002141892910003662,0.00006495509296655655
1782846229894230800,2.899230712890625,-0.0006557812448590994,-0.00035533681511878967,0.000037790858186781406
1782846229904235800,2.90923583984375,0.0004778585862368345,0.00153691740706563,-0.0007377275614999235
1782846229914240800,2.91924072265625,0.0015039746649563313,0.0015076226554811,-0.002215515822172165
1782846229924245800,2.929245849609375,0.001075149979442358,-0.003471566364169121,0.0012950632954016328
1782846229934250800,2.939250732421875,0.000014945631846785545,-0.00032956874929368496,0.0004321991582401097
1782846229944255700,2.949255859375,0.0009117403533309698,-0.0005633893888443708,0.002261014422401786
1782846229954260700,2.9592607421875,0.0012379775289446115,-0.0000011960510164499283,-0.003682361915707588
1782846229964265700,2.969265625,-0.00002468307502567768,0.0005721175111830235,0.0001400299370288849
1782846229974270700,2.979270751953125,0.0007135451305657625,0.00208452669903636,0.0008510939660482109
1782846229984275700,2.989275634765625,-0.00002492195926606655,-0.0012567215599119663,0.001282964483834803
1782846229994280700,2.99928076171875,0.0002475192304700613,0.0005004322156310081,-0.0019735489040613174
1782846230004285700,3.00928564453125,-0.0016643108101561666,-0.0009006175678223372,-0.0006232564919628203
1782846230014290700,3.019290771484375,-0.00017134263180196285,-0.00022816937416791916,0.0012321678223088384
1782846230024296000,3.0292958984375,0.00007520546205341816,0.00048326142132282257,-0.0014657963765785098
1782846230034300000,3.0392998046875,-0.00187689159065485,-0.0026049399748444557,-0.00029107602313160896
1782846230044305000,3.049304931640625,0.00011025648564100266,-0.0009279258083552122,-0.001279371790587902
1782846230054310000,3.059309814453125,-0.002382196020334959,0.0022385725751519203,0.0010844500502571464
1782846230064315000,3.06931494140625,0.002188925864174962,-0.0015029723290354013,-0.0027330892626196146
1782846230074320000,3.07931982421875,0.00023762788623571396,-0.0025192343164235353,-0.004773336928337812
1782846230084324900,3.089324951171875,0.001938369357958436,0.001005746191367507,0.002347768284380436
1782846230094329900,3.099329833984375,-0.00030987104400992393,0.0011972275096923113,-0.004177775699645281
1782846230104334800,3.1093349609375,0.001188353169709444,-0.0011220278684049845,0.001781495870091021
1782846230114339800,3.11933984375,-0.0005576151888817549,0.0014109044568613172,0.0015010649804025888
1782846230124344800,3.1293447265625,-0.0003668838180601597,-0.0024270315188914537,-0.00013656419469043612
1782846230134349800,3.139349853515625,-0.00009737187065184116,0.0014345517847687006,0.0005606513586826622
1782846230144354800,3.149354736328125,-0.0008357961196452379,0.0007806206122040749,-0.0013477044412866235
1782846230154359800,3.15935986328125,0.0006350676994770765,-0.0009530971292406321,0.0012952166143804789
1782846230164364800,3.16936474609375,-0.0013991084415465593,0.00014514452777802944,0.00019144202815368772
1782846230174369800,3.179369873046875,0.000008372124284505844,0.00023063202388584614,-0.0004828703822568059
1782846230184374800,3.189374755859375,-0.00039305305108428,0.002376893535256386,0.00007877644384279847
1782846230194380000,3.199380126953125,0.000047433655709028244,0.00014569726772606373,-0.0013574662152677774
1782846230204385000,3.209385009765625,0.00043125683441758156,-0.00024776766076684,-0.00002923957072198391
1782846230214390000,3.21939013671875,0.0006411138456314802,-0.0031572713050991297,0.00047143473057076335
1782846230224395000,3.22939501953125,-0.001464684959501028,0.0015878084814175963,-0.0017502446426078677
1782846230234398700,3.239398681640625,0.0009542643092572689,-0.0003251400776207447,0.0016178551595658064
1782846230244403700,3.24940380859375,0.0017473828047513962,-0.0008846262935549021,0.00019062438514083624
1782846230254409000,3.259408935546875,-0.0027954373508691788,0.0016206094296649098,-0.00012096541468054056
1782846230264414000,3.2694140625,-0.0016767026390880346,-0.0015032559167593718,0.000005599518772214651
1782846230274419000,3.2794189453125,-0.001668446697294712,0.0008855995256453753,-0.0020527576562017202
1782846230284424000,3.289423828125,0.0002981459256261587,0.0002696895971894264,-0.0014609717763960361
1782846230294429000,3.299428955078125,0.0013519588392227888,-0.0014349997509270906,-0.002143007470294833
1782846230304434000,3.309433837890625,-0.0012029064819216728,0.0012255304027348757,-0.002147390739992261
1782846230314439000,3.31943896484375,0.0002983175218105316,-0.0022642756812274456,0.00011496455408632755
1782846230324444000,3.32944384765625,0.0021200506016612053,-0.0017040257807821035,-0.002130109118297696
1782846230334449000,3.339448974609375,0.001870245672762394,0.00043289479799568653,-0.0007607117877341807
1782846230344454000,3.349453857421875,-0.000165499746799469,-0.0008428937289863825,-0.0011372370645403862
1782846230354459000,3.359458984375,-0.0001481892541050911,-0.00066233123652637,-0.0005968817858956754
1782846230364464000,3.369464111328125,0.0023129263427108526,0.0032194044906646013,0.000752000545617193
1782846230374469000,3.37946923828125,-0.0018759598024189472,-0.0000600120984017849,-0.00029036065097898245
1782846230384474000,3.38947412109375,0.0004355332348495722,-0.001365035306662321,0.0005910389591008425
1782846230394479000,3.39947900390625,0.00035803508944809437,0.0012089097872376442,-0.0002851411118172109
1782846230404484000,3.409484130859375,-0.00024270592257380486,-0.0003826587926596403,-0.0010460112243890762
1782846230414489000,3.419489013671875,0.000708841485902667,0.0011523873545229435,0.0003958242596127093
1782846230424494000,3.429494140625,0.0021617214661091566,0.001733248122036457,-0.0030300915241241455
1782846230434499000,3.4394990234375,-0.00004444108344614506,-0.0016106171533465385,0.00022349244682118297
1782846230444502800,3.449502685546875,-0.000018523307517170906,0.0009492237586528063,0.0011793301673606038
1782846230454507800,3.4595078125,-0.00046486908104270697,0.0005436243955045938,0.001950315316207707
1782846230464512800,3.4695126953125,0.0012550214305520058,0.000011435477063059807,0.00008278439054265618
1782846230474517800,3.479517822265625,-0.001115724560804665,-0.0006024229805916548,0.0010364623740315437
1782846230484522800,3.489522705078125,-0.0012260919902473688,-0.0007107208948582411,0.0010298587149009109
1782846230494527700,3.49952783203125,0.0017441313248127699,-0.002924074186012149,0.0005619412986561656
1782846230504532700,3.50953271484375,-0.00005124695599079132,-0.0012460504658520222,-0.0015981504693627357
1782846230514537700,3.519537841796875,-0.0005127727054059505,0.002458672970533371,-0.000931827409658581
1782846230524542700,3.529542724609375,-0.00026998179964721203,0.0010076900944113731,0.0028930697590112686
1782846230534547700,3.539547607421875,-0.00043509784154593945,0.0011086238082498312,-0.0002481287228874862
1782846230544552700,3.549552734375,0.00018695765174925327,-0.0005251804832369089,0.0018388902535662055
1782846230554557700,3.5595576171875,-0.001384307281114161,0.0026783361099660397,0.0012372821802273393
1782846230564562700,3.569562744140625,0.002383476821705699,-0.0005886047147214413,0.0013140934752300382
1782846230574567700,3.579567626953125,-0.00142803939525038,0.0005783925298601389,-0.0006273509934544563
1782846230584572700,3.58957275390625,0.002376093529164791,-0.0023868163116276264,-0.00039437151281163096
1782846230594577700,3.59957763671875,0.0011206793133169413,-0.0009620250202715397,0.0010051196441054344
1782846230604583000,3.6095830078125,-0.000028860289603471756,0.0005908678285777569,0.0013036298332735896
1782846230614588000,3.619587890625,0.0018425430171191692,0.001769582973793149,-0.0003046531928703189
1782846230624593000,3.629593017578125,0.001795012503862381,0.002403242513537407,0.002307260874658823
1782846230634598000,3.639597900390625,-0.0015935937408357859,0.0015289266593754292,0.00007633090717718005
1782846230644603000,3.649602783203125,0.0011391306761652231,0.0003621035721153021,0.0005389162106439471
1782846230654606800,3.65960693359375,-0.00034904375206679106,-0.0007494997698813677,0.001047047320753336
1782846230664611800,3.66961181640625,-0.00016802852042019367,0.000724071403965354,-0.0015240274369716644
1782846230674616800,3.679616943359375,0.0008943064603954554,-0.0000024389009922742844,0.00005789025453850627
1782846230684621800,3.689621826171875,0.0010421876795589924,-0.0023873287718743086,0.0019254048820585012
1782846230694626800,3.699626708984375,-0.0027173967100679874,-0.000260794535279274,0.0006084716878831387
1782846230704631800,3.7096318359375,0.0003985818475484848,0.00044220732524991035,0.0003795723314397037
1782846230714636800,3.71963671875,-0.0005963750882074237,-0.0010925724636763334,0.00027597538428381085
1782846230724641800,3.729641845703125,-0.0014081827830523252,0.00004002428613603115,-0.0013110555009916425
1782846230734646800,3.739646728515625,0.00054151751101017,-0.0013647933956235647,-0.0005422008689492941
1782846230744651800,3.74965185546875,0.0013417403679341078,-0.00020683929324150085,-0.0031481138430535793
1782846230754656800,3.75965673828125,0.00004238402470946312,-0.0025288492906838655,0.0009395718807354569
1782846230764661800,3.769661865234375,0.00016755028627812862,-0.0005432905163615942,-0.0004900753265246749
1782846230774666800,3.779666748046875,0.000855444697663188,0.0026602260768413544,0.0006588123505935073
1782846230784671700,3.789671630859375,0.00003282912075519562,-0.0014400039799511433,0.0014064148999750614
1782846230794676700,3.7996767578125,-0.0005392179591581225,-0.0010839393362402916,-0.002191515639424324
1782846230804681700,3.809681640625,-0.0015333116753026843,0.00015202281065285206,0.00333976442925632
1782846230814686700,3.819686767578125,-0.0003276986535638571,0.0011475125793367624,-0.00014817772898823023
1782846230824691700,3.829691650390625,-0.0003147043753415346,0.00038819946348667145,0.0009596843156032264
1782846230834696700,3.83969677734375,0.000174784567207098,0.0006230901926755905,0.0013349237851798534
1782846230844701000,3.849700927734375,0.002020107815042138,0.00046831765212118626,0.0005633460823446512
1782846230854706000,3.859705810546875,-0.00007686507888138294,0.0013937660260125995,-0.002248951932415366
1782846230864711000,3.8697109375,-0.0013734237290918827,0.0007306844927370548,0.002568937372416258
1782846230874716000,3.8797158203125,0.0005302038043737411,0.0012404134031385183,0.0003630411229096353
1782846230884721000,3.889720947265625,0.0009374544024467468,-0.0009289679583162069,-0.0010040218476206064
1782846230894726000,3.899725830078125,-0.0008870771853253245,-0.0023505634162575006,0.0005240999744273722
1782846230904731000,3.90973095703125,-0.0008820999646559358,0.0011742806527763605,0.0013875578297302127
1782846230914735900,3.91973583984375,0.0009341759141534567,-0.0004422580823302269,-0.00040075485594570637
1782846230924740900,3.929740966796875,-0.0019972319714725018,0.0016590673476457596,0.0009709120495244861
1782846230934745900,3.939745849609375,-0.0012749825837090611,-0.0019319390412420034,0.000500597816426307
1782846230944750800,3.949750732421875,0.0004491813015192747,-0.0006414470262825489,0.0017356472089886665
1782846230954755800,3.959755859375,-0.0008786707185208797,-0.0002720663323998451,0.0015220616478472948
1782846230964760800,3.9697607421875,-0.0002601963933557272,0.0000182280782610178,-0.0001269452041015029
1782846230974765800,3.979765869140625,0.00036458135582506657,-0.0009919090662151575,-0.0011924759019166231
1782846230984770800,3.989770751953125,-0.0013202904956415296,0.0005753056611865759,0.00003368803299963474
1782846230994775800,3.99977587890625,0.002467256970703602,-0.00020766351372003555,0.0013370390515774488
1782846231004780800,4.00978076171875,0.001649345736950636,-0.000751179177314043,0.0010089762508869171
1782846231014785800,4.019785888671875,0.001108990516513586,0.0008698871824890375,-0.0008325997041538358
1782846231024790800,4.029790771484375,0.00044767046347260475,-0.003601988311856985,0.0015115889254957438
1782846231034795800,4.039795654296875,0.0006649843417108059,0.000601544976234436,0.0014292971463873982
1782846231044800800,4.04980078125,-0.0017168500926345587,0.0005535667296499014,0.000709479907527566
1782846231054804700,4.0598046875,0.0008730741683393717,-0.0011005224660038948,-0.0008221040479838848
1782846231064809700,4.069809814453125,-0.0005592608358711004,-0.0020259367302060127,0.0010467662941664457
1782846231074814700,4.079814697265625,-0.00008122343569993973,-0.000023239292204380035,0.000058733567129820585
1782846231084819700,4.08981982421875,-0.00023666652850806713,-0.0004020330961793661,0.0021326192654669285
1782846231094824700,4.09982470703125,-0.0005975248059257865,0.0019540656358003616,0.0021422067657113075
1782846231104829700,4.10982958984375,-0.0005915032234042883,-0.000280371168628335,-0.0004280944122001529
1782846231114834700,4.119834716796875,0.0014274390414357185,0.0008581301663070917,-0.0025580907240509987
1782846231124839700,4.129839599609375,0.0010076917242258787,0.001608466263860464,-0.002451207721605897
1782846231134844700,4.1398447265625,-0.0017793062143027782,-0.0008475009817630053,0.001065496471710503
1782846231144849700,4.149849609375,0.00025410926900804043,0.0005284107755869627,-0.0035521206445991993
1782846231154854700,4.159854736328125,-0.000696372939273715,-0.002511054975911975,0.000398678588680923
1782846231164859600,4.169859619140625,-0.00121396838221699,-0.0010546112898737192,0.0003733860212378204
1782846231174865000,4.179864990234375,0.0013168335426598787,0.0005709822289645672,0.0003965555224567652
1782846231184870000,4.189869873046875,0.0008628577925264835,-0.0006344367284327745,-0.0015530410455539823
1782846231194875000,4.199875,0.0009480791632086039,0.002019935753196478,-0.0009274644544348121
1782846231204880000,4.2098798828125,0.0005111047066748142,0.001360601163469255,0.00033321918454021215
1782846231214884900,4.219884765625,-0.0012279395014047623,0.0007347583305090666,-0.00030087947379797697
1782846231224889900,4.229889892578125,0.0013804370537400246,0.0003382624126970768,-0.0023009295109659433
1782846231234894800,4.239894775390625,0.0011908200103789568,-0.0005459070671349764,0.0013196378713473678
1782846231244898800,4.24989892578125,-0.0003643609816208482,0.0009046036284416914,0.0006679784855805337
1782846231254903800,4.25990380859375,-0.0006605044472962618,-0.00044748326763510704,0.0012008770136162639
1782846231264908800,4.26990869140625,0.0015415842644870281,0.0016357478452846408,-0.0013667831663042307
1782846231274913800,4.279913818359375,-0.0005343497032299638,-0.00030969129875302315,0.0009568248642608523
1782846231284918800,4.289918701171875,0.0030723498202860355,-8.309725672006607e-7,-0.0002880231477320194
1782846231294923800,4.299923828125,0.002958633005619049,0.0019126503029838204,-0.001301355892792344
1782846231304928800,4.3099287109375,0.0008704462088644505,0.00006234599277377129,0.0003158578183501959
1782846231314933800,4.319933837890625,-0.0003069373778998852,0.0015382698038592935,0.0037598577328026295
1782846231324938800,4.329938720703125,0.0011460769455879927,0.0004978340584784746,-0.00004563049878925085
1782846231334943700,4.33994384765625,-0.0006302515976130962,-0.0016691801138222218,-0.000057082041166722775
1782846231344948700,4.34994873046875,0.0018452606163918972,-0.0007951324805617332,-0.0003827486652880907
1782846231354953700,4.35995361328125,-0.0003952567931264639,-0.0009376117959618568,0.0033182462211698294
1782846231364958700,4.369958740234375,-0.001635139575228095,0.002546690171584487,-0.0008226996287703514
1782846231374963700,4.379963623046875,0.00020750169642269611,0.0008680997416377068,0.0021674977615475655
1782846231384968700,4.38996875,-0.0006689345464110374,-0.0005831103771924973,0.0019712522625923157
1782846231394973700,4.3999736328125,0.002150820568203926,0.001087490702047944,-0.0004969652509316802
1782846231404978700,4.409978759765625,-0.00020391796715557575,-0.00008502090349793434,-0.00045111135113984346
1782846231414983700,4.419983642578125,0.0010445720981806517,-0.0010789127554744482,0.0017262891633436084
1782846231424988700,4.42998876953125,0.00006841192953288555,0.0004158725496381521,0.0022598395589739084
1782846231434993000,4.439992919921875,-0.0007289386121556163,-0.0011450061574578285,0.0002430276363156736
1782846231444998000,4.449997802734375,-0.00040198047645390034,0.0008728138636797667,-0.0015116252470761538
1782846231455003000,4.4600029296875,-0.0018576643196865916,-0.0006531772669404745,0.002388574182987213
1782846231465007900,4.4700078125,-0.0014714484568685293,0.0003655345644801855,-0.0006783974822610617
1782846231475012900,4.480012939453125,0.000019921688362956047,0.0006680695805698633,0.0003394625964574516
1782846231485017900,4.490017822265625,-0.001002797856926918,0.00017625768668949604,0.0012814744841307402
1782846231495022800,4.50002294921875,0.001380464993417263,-0.0009931360837072134,0.000030321476515382528
1782846231505027800,4.51002783203125,-0.001795120071619749,-0.0013042783830314875,-0.0013342445017769933
1782846231515032600,4.520032470703125,-0.000497894361615181,0.00020946236327290535,0.0009811078198254108
1782846231525037600,4.53003759765625,0.002256065607070923,-0.0008141619618982077,0.001343574607744813
1782846231535042600,4.54004248046875,0.0010808124206960201,-0.002154797548428178,-0.0018934976542368531
1782846231545047600,4.550047607421875,0.0022519382182508707,-0.00026374426670372486,-0.0011721565388143063
1782846231555052500,4.560052490234375,0.0007714871317148209,0.0012915418483316898,-0.0005652219988405704
1782846231565057500,4.5700576171875,-0.00020369421690702438,-0.0019003106281161308,-0.0011685510398820043
1782846231575062500,4.5800625,-0.0005421818932518363,-0.0011964375153183937,0.0008237597648985684
1782846231585067500,4.590067626953125,-0.0011224016780033708,-0.002519415458664298,0.0013014031574130058
1782846231595072500,4.600072509765625,-0.0016244075959548354,0.0011440287344157696,-0.0019212879706174135
1782846231605077500,4.610077392578125,0.0005104937590658665,-0.0014675878919661045,-0.0016424435889348388
1782846231615082500,4.62008251953125,-0.0005124264862388372,-0.0013988781720399857,-0.00037477887235581875
1782846231625086500,4.63008642578125,-0.0001736166886985302,-0.0015485379844903946,0.0006331525510177016
1782846231635091500,4.640091552734375,-0.0013525981921702623,-0.0006337424274533987,-0.00012132094707340002
1782846231645096400,4.650096435546875,0.000985343474894762,-0.001922067953273654,0.0008437455398961902
1782846231655101400,4.660101318359375,-0.0020956676453351974,0.0021914506796747446,0.0027987719513475895
1782846231665106400,4.6701064453125,-0.002285537775605917,-0.0028189215809106827,0.00002666644286364317
1782846231675111400,4.680111328125,-0.0008956340607255697,-0.001135271042585373,0.002201403956860304
1782846231685116400,4.690116455078125,-0.00016244570724666119,-0.0009111026301980019,-0.0005201729945838451
1782846231695121400,4.700121337890625,-0.00030678906477987766,-0.0004160210955888033,0.003018102841451764
1782846231705126400,4.71012646484375,-0.0017415478359907866,0.000058632344007492065,-0.001557859475724399
1782846231715131600,4.720131591796875,-0.0016616529319435358,0.0010661061387509108,-0.003876407165080309
1782846231725136600,4.73013671875,-0.0014395166654139757,0.00005240715108811855,0.0008332692086696625
1782846231735141600,4.7401416015625,-0.00002617691643536091,-0.00014040572568774223,0.0011009168811142445
1782846231745146600,4.750146728515625,-0.0009333965135738254,-0.0012913225218653679,-0.002377049531787634
1782846231755151600,4.760151611328125,-0.0016386015340685844,0.0020735813304781914,-0.0022633327171206474
1782846231765156600,4.770156494140625,0.0013156768400222063,0.002198856556788087,-0.0037725726142525673
1782846231775161600,4.78016162109375,-0.0000406710896641016,0.0017690223176032305,-0.0019600249361246824
1782846231785166600,4.79016650390625,0.001441244501620531,-0.00038099801167845726,-0.0010697225807234645
1782846231795171600,4.800171630859375,0.00009927758947014809,-0.00015862402506172657,-0.004212785512208939
1782846231805176600,4.810176513671875,-0.0029403609223663807,0.000557976309210062,0.0003575057489797473
1782846231815180500,4.8201806640625,0.0007049739360809326,0.00015450757928192616,0.0017828295240178704
1782846231825185500,4.830185546875,0.0019575445912778378,0.001345954486168921,-0.0009398228721693158
1782846231835190500,4.8401904296875,-0.00006912089884281158,0.0006295640487223864,0.0016192086040973663
1782846231845195500,4.850195556640625,-0.0003158890176564455,-0.00142126833088696,-0.00017563533037900925
1782846231855200500,4.860200439453125,0.00040928972885012627,0.0005247036460787058,-0.0025309352204203606
1782846231865205500,4.87020556640625,-0.0016481097554787993,-0.0034438632428646088,0.00014144170563668013
1782846231875210500,4.88021044921875,-0.0014475737698376179,0.0002163853496313095,0.0004410473629832268
1782846231885215500,4.890215576171875,-0.0016421086620539427,0.0008938021492213011,-0.0013166022254154086
1782846231895220500,4.900220458984375,-0.0017512983176857233,-0.0013120940420776606,-0.00010646181181073189
1782846231905225500,4.9102255859375,-0.0010374498087912798,0.0010543202515691519,0.000024009263142943382
1782846231915230500,4.92023046875,-0.003820453304797411,-0.0014144298620522022,0.00046236556954681873
1782846231925235500,4.9302353515625,0.0011886097490787506,-0.00241434620693326,0.0011054800124838948
1782846231935240400,4.940240478515625,0.0003843351732939482,-0.001312862616032362,0.0016745975008234382
1782846231945245400,4.950245361328125,-0.0006285767303779721,0.00047253305092453957,0.002253682352602482
1782846231955250400,4.96025048828125,-0.00037850579246878624,-0.000573023920878768,0.0004890719428658485
1782846231965255400,4.97025537109375,0.0016578682698309422,-0.0019440758042037487,-0.0008939516264945269
1782846231975260400,4.980260498046875,-0.0006071500247344375,0.0007435863371938467,0.00020833074813708663
1782846231985265400,4.990265380859375,0.001144698355346918,-0.0005143452435731888,-0.0006824807496741414
1782846231995270400,5.0002705078125,0.00007970025762915611,-0.002428625710308552,0.0014919902896508574
1782846232005274600,5.010274658203125,0.0007583664264529943,0.000942667480558157,-0.0007460258202627301
1782846232015279600,5.020279541015625,-0.0019215724896639585,0.0014462713152170181,0.0014721211045980453
1782846232025284600,5.03028466796875,-0.0014342389767989516,-0.0036405627615749836,0.0005894940695725381
1782846232035289600,5.04028955078125,0.0014140116982161999,-0.00056461151689291,-0.002633197233080864
1782846232045294600,5.050294677734375,0.0004139617085456848,0.0008539003320038319,0.0007163243717513978
1782846232055299600,5.060299560546875,-0.0007647534366697073,0.0020288871601223946,-0.0024562994949519634
1782846232065304600,5.0703046875,0.002997052390128374,-0.0017855654004961252,0.00024159828899428248
1782846232075309600,5.0803095703125,0.001088897231966257,0.000456283800303936,-0.002471896354109049
1782846232085314600,5.090314453125,-0.00016761175356805325,-0.0004174241330474615,0.002852960489690304
1782846232095319600,5.100319580078125,-0.0006709491135552526,0.0004142811521887779,-0.0001912988955155015
1782846232105324500,5.110324462890625,0.0016071167774498463,-0.0015291743911802769,0.001618766225874424
1782846232115329500,5.12032958984375,0.0024057989940047264,-0.00029027205891907215,0.0006704145926050842
1782846232125334500,5.13033447265625,-0.00109771394636482,0.0010845689103007317,0.00017217727145180106
1782846232135339500,5.140339599609375,-0.00041168369352817535,-0.0015959024894982576,-0.0007934849709272385
1782846232145344500,5.150344482421875,-0.0026944398414343596,0.000592799624428153,-0.001327958656474948
1782846232155349500,5.160349609375,0.0006398377008736134,0.0005757552571594715,0.0005261340411379933
1782846232165354500,5.1703544921875,-0.0015460967551916838,0.0013826517388224602,0.0023746672086417675
1782846232175359500,5.180359375,0.0008241166360676289,-0.000697277020663023,0.001970399171113968
1782846232185363500,5.190363525390625,-0.0038281732704490423,-0.0004845045041292906,0.0010966244153678417
1782846232195368400,5.200368408203125,-0.0010315878316760063,0.0004284272436052561,0.0024598967283964157
1782846232205373400,5.21037353515625,0.0011993711814284325,0.0003810983616858721,-0.001597509253770113
1782846232215378400,5.22037841796875,0.00023424159735441208,0.00042450777254998684,0.00012715382035821676
1782846232225383400,5.230383544921875,-0.0010348543291911483,0.0008210651576519012,0.0010085180401802063
1782846232235388400,5.240388427734375,-0.0005605453625321388,0.0010951043805107474,0.0004077088669873774
1782846232245393400,5.250393310546875,0.002208523917943239,0.0009976106230169535,-0.0002228589728474617
1782846232255398400,5.2603984375,-0.000659966841340065,-0.0017555651720613241,0.0008197685237973928
1782846232265403400,5.2704033203125,0.002749677048996091,-0.0013365964405238628,-0.001610776875168085
1782846232275408400,5.280408447265625,0.0003091564867645502,0.002801955910399556,0.003860687604174018
1782846232285413400,5.290413330078125,-0.0004945785040035844,-0.0010040935594588518,0.00028705247677862644
1782846232295418600,5.300418701171875,-0.00006554322317242622,-0.0025391399394720793,-0.002034424804151058
1782846232305423600,5.310423583984375,0.0023191135842353106,0.002404347527772188,-0.0025525535456836224
1782846232315428600,5.3204287109375,0.0008495813235640526,0.00013666576705873013,-0.000644398620352149
1782846232325433600,5.33043359375,0.0005482961423695087,0.0018181221093982458,-0.0012114098062738776
1782846232335438600,5.3404384765625,-0.00029565952718257904,0.003148371120914817,-0.0009384359000250697
1782846232345443600,5.350443603515625,0.0008740520570427179,0.0012353954371064901,-0.0010266811586916447
1782846232355448600,5.360448486328125,-0.0007629931205883622,0.0001237918622791767,0.0011411318555474281
1782846232365452500,5.37045263671875,-0.003544911276549101,-0.002522961935028434,0.0032185085583478212
1782846232375457500,5.38045751953125,-0.001040741102769971,-0.002767440164461732,0.004494961351156235
1782846232385462500,5.390462646484375,0.0015979786403477192,-0.0010111022274941206,0.0013349957298487425
1782846232395467500,5.400467529296875,0.00036786473356187344,-0.00033252849243581295,0.0014204831095412374
1782846232405472500,5.410472412109375,-0.0003834419185295701,0.00029511447064578533,0.0013910901034250855
1782846232415477500,5.4204775390625,0.000047191279008984566,-0.0024519360158592463,-0.003394876839593053
1782846232425482500,5.430482421875,-0.0014112796634435654,0.00007294025272130966,0.0005908535677008331
1782846232435487500,5.440487548828125,-0.0011193972313776612,-0.0009150924161076546,0.0013482565991580486
1782846232445492500,5.450492431640625,-0.0016416044672951102,-0.0020735436119139194,0.0019745328463613987
1782846232455497500,5.46049755859375,-0.00027913134545087814,-0.0005763145163655281,0.00010179809760302305
1782846232465502500,5.47050244140625,0.001380200032144785,-0.0008597339037805796,0.0020401794463396072
1782846232475507500,5.480507568359375,0.0005769906565546989,-0.0010930269490927458,-0.0015937037533149123
1782846232485512400,5.490512451171875,0.0005755573511123657,-0.0015998666640371084,0.0014073780039325356
1782846232495517400,5.500517333984375,-0.0009230034193024039,0.001298717805184424,0.0007386582437902689
1782846232505522400,5.5105224609375,0.0004542926326394081,-0.001472874078899622,0.0013583502732217312
1782846232515528200,5.520528076171875,0.0014713536947965622,-0.001435589510947466,0.0009964266791939735
1782846232525533200,5.530533203125,-0.0003471025265753269,-0.0013730726204812527,0.0009255792247131467
1782846232535538200,5.5405380859375,0.0011477298103272915,-0.0006257893983274698,-0.0010920314816758037
1782846232545542100,5.550542236328125,0.0010373874101787806,0.0006473062094300985,0.0004511871375143528
1782846232555547100,5.560547119140625,0.0006658765487372875,-0.0005636331625282764,-0.0032266383059322834
1782846232565552000,5.57055224609375,-0.0002881756518036127,-0.002735995454713702,0.0014672441175207496
1782846232575557000,5.58055712890625,-0.001485532964579761,-0.0007815016433596611,0.0004107680870220065
1782846232585562000,5.59056201171875,0.0011343469377607107,0.00000756443478167057,-0.0007610846078023314
1782846232595567000,5.600567138671875,0.0012914733961224556,-0.000490446574985981,0.001265847240574658
1782846232605572000,5.610572021484375,0.0010146722197532654,0.0008949371986091137,-0.0006971837719902396
1782846232615577300,5.620577392578125,-0.0014287781668826938,0.00011889194138348103,0.0020312247797846794
1782846232625582300,5.630582275390625,0.0005814570467919111,0.001055624452419579,-0.00010643212590366602
1782846232635587300,5.64058740234375,0.001404906390234828,-0.001235492993146181,-0.0005389294819906354
1782846232645592300,5.65059228515625,0.00023888330906629562,0.0018112730467692018,0.0012635891325771809
1782846232655597300,5.660597412109375,-0.0005547386826947331,0.001073577324859798,-0.0014887877041473985
1782846232665602300,5.670602294921875,-0.0006619313498958945,-0.0016230640467256308,0.00027051358483731747
1782846232675607300,5.680607177734375,-0.00030932878144085407,0.0021176121663302183,0.0025608320720493793
1782846232685612300,5.6906123046875,0.00003221677616238594,0.0018229667330160737,0.000806886819191277
1782846232695617300,5.7006171875,0.0014005489647388458,-0.0015158383175730705,-0.0009915458504110575
1782846232705622300,5.710622314453125,0.0018263033125549555,-0.003291685599833727,-0.002639605663716793
1782846232715627300,5.720627197265625,0.0008862074464559555,0.0006716307252645493,0.0012006725883111358
1782846232725631200,5.73063134765625,0.0012876868713647127,0.0005031097680330276,0.0006627741968259215
1782846232735636200,5.74063623046875,-0.002275622682645917,-0.00046974304132163525,0.00027342006796970963
1782846232745641200,5.75064111328125,0.001597571186721325,0.0000675753690302372,0.0014360048808157444
1782846232755646200,5.760646240234375,0.0012657414190471172,0.0011663954937830567,-0.0007717557018622756
1782846232765651200,5.770651123046875,-0.00004103104583919048,0.0018341480754315853,-0.0014919533859938383
1782846232775656200,5.78065625,0.0006990614347159863,0.00008791335858404636,0.0022801479790359735
1782846232785661200,5.7906611328125,-0.002076447242870927,0.0009865686297416687,-0.002157073002308607
1782846232795666200,5.800666259765625,0.00031134276650846004,-0.00033356016501784325,-0.000687540858052671
1782846232805671200,5.810671142578125,0.0006813171785324812,0.0022224178537726402,0.0011299229227006435
1782846232815676200,5.82067626953125,-0.0010721079306676984,-0.0015094697009772062,0.0004875684389844537
1782846232825681200,5.83068115234375,0.0008606603369116783,0.0015695480396971107,-0.0011982275173068047
1782846232835686100,5.84068603515625,-0.0008104731095954776,-0.0003681678790599108,0.0009610634297132492
1782846232845691100,5.850691162109375,0.0008529701735824347,-0.0009970415849238634,-0.000942697050049901
1782846232855696100,5.860696044921875,0.000907565001398325,-0.0012508409563452005,0.004208655096590519
1782846232865701000,5.870701171875,-0.0012774241622537374,-0.002335131634026766,0.0010713450610637665
1782846232875706000,5.8807060546875,0.0010973166208714247,0.0019331166986376047,0.0014396603219211102
1782846232885711000,5.890711181640625,-0.00020379130728542805,-0.0010891880374401808,0.0011352390283718705
1782846232895715300,5.90071533203125,-0.001422986388206482,-0.0009219413623213768,-0.004309593699872494
1782846232905720300,5.91072021484375,-0.0011555039091035724,-0.0005886245053261518,-0.0007186534348875284
1782846232915725300,5.920725341796875,-0.0007003697101026773,-0.0005907551385462284,0.0016635442152619362
1782846232925730300,5.930730224609375,-0.00047181639820337296,-0.0027886112220585346,0.0004144024569541216
1782846232935735300,5.9407353515625,0.0007569659501314163,0.0020735219586640596,0.0025121744256466627
1782846232945740300,5.950740234375,-0.0006234862376004457,0.0012637083418667316,0.0011780677596107125
1782846232955745300,5.960745361328125,0.00047267088666558266,-0.0004545631818473339,-0.0010179749224334955
1782846232965750300,5.970750244140625,0.001390072051435709,0.0012333306949585676,-0.000038161640986800194
1782846232975755300,5.98075537109375,0.0013852785341441631,-0.000740870600566268,-0.0001849017571657896
1782846232985760300,5.99076025390625,0.0003134775906801224,-0.002469245344400406,-0.0007783119799569249
1782846232995765200,6.00076513671875,-0.0009278218494728208,-0.0005826621782034636,0.000043805805034935474
1782846233005770200,6.010770263671875,0.0007174257189035416,-0.0007662053685635328,-0.0016798319993540645
1782846233015775200,6.020775146484375,-0.001771831070072949,-0.0016178842633962631,0.0011295366566628218
1782846233025780200,6.0307802734375,0.0008247541263699532,0.0010969128925353289,-0.004211337771266699
1782846233035785200,6.04078515625,0.0006311424076557159,0.0008313958533108234,-0.00008849822916090488
1782846233045790200,6.050790283203125,0.0011372510343790054,0.003380248788744211,-0.002335895551368594
1782846233055795200,6.060795166015625,0.0009143443312495947,0.0007562362588942051,-0.00043280061800032854
1782846233065800200,6.07080029296875,-0.0005169898504391313,0.0003097772132605314,0.001362842507660389
1782846233075804200,6.08080419921875,-0.00012443982996046543,-0.0008407083805650473,0.0008512493222951889
1782846233085809200,6.09080908203125,-0.0013618082739412785,-0.0011632877867668867,0.003158226143568754
1782846233095814100,6.100814208984375,0.0020896485075354576,-0.0028559931088238955,-0.002006974769756198
1782846233105819100,6.110819091796875,0.0021138417068868876,0.0005453135818243027,0.0015396364033222198
1782846233115824000,6.12082421875,0.002449665917083621,0.0017477307701483369,-0.002482535783201456
1782846233125829000,6.1308291015625,-0.0013503627851605415,-0.00009946152567863464,0.000191468745470047
1782846233135834000,6.140834228515625,-0.0014960377011448145,0.0004432906862348318,-0.002502584829926491
1782846233145839000,6.150839111328125,0.0009826289024204016,0.00048327725380659103,-0.003692853031679988
1782846233155844000,6.160843994140625,0.0004103155806660652,-0.0012440490536391735,0.001776746939867735
1782846233165849000,6.17084912109375,-0.0015772914048284292,-0.0006809663027524948,0.001268767868168652
1782846233175854000,6.18085400390625,-0.0015466650947928429,-0.00033395644277334213,-0.0005278005264699459
1782846233185859300,6.190859375,-0.0006900889566168189,-0.0002666208893060684,-0.001019668416120112
1782846233195864300,6.2008642578125,0.0010225898586213589,-0.00025463663041591644,-0.0011882464168593287
1782846233205869300,6.210869384765625,-0.0026991062331944704,-0.0011888134758919477,0.0005716232117265463
1782846233215874300,6.220874267578125,0.0004258470144122839,0.00002212589606642723,0.0012784262653440237
1782846233225879300,6.23087939453125,-0.00037537061143666506,0.00024876417592167854,0.002488115569576621
1782846233235884300,6.24088427734375,-0.0011351704597473145,0.0001510262954980135,0.001214858260937035
1782846233245888300,6.25088818359375,0.0008153829257935286,-0.0011126187164336443,-0.0007290925132110715
1782846233255893200,6.260893310546875,-0.00042298692278563976,0.0004911371506750584,0.00009382423013448715
1782846233265898200,6.270898193359375,0.0018918425776064396,-0.0012825417798012495,-0.001698167878203094
1782846233275903200,6.2809033203125,-0.0015995616558939219,-0.000982403289526701,-0.00006911240052431822
1782846233285908200,6.290908203125,-0.000618942198343575,0.0006881318986415863,-0.000833221129141748
1782846233295913200,6.300913330078125,-0.0010810006642714143,-0.00005542254075407982,0.002213701605796814
1782846233305918200,6.310918212890625,0.00035505276173353195,0.0014462670078501105,-0.0005507724126800895
1782846233315923200,6.320923095703125,-0.00018796580843627453,0.0030859753023833036,0.00012487161438912153
1782846233325928200,6.33092822265625,-0.0013966504484415054,-0.0021468843333423138,0.0012771200854331255
1782846233335933200,6.34093310546875,0.0011466683354228735,0.0002805872354656458,0.001043560914695263
1782846233345938200,6.350938232421875,0.0008256398141384125,0.0004846164956688881,-0.0023697882425040007
1782846233355943200,6.360943115234375,-0.0012838500551879406,-0.0004256521351635456,-0.001627032645046711
1782846233365948200,6.3709482421875,0.0009941826574504375,-0.0008196504786610603,-0.00016387517098337412
1782846233375953200,6.380953125,-0.00020770193077623844,0.00017264322377741337,0.0006563784554600716
1782846233385958100,6.390958251953125,0.002838617190718651,0.00109430484008044,0.002429855987429619
1782846233395963100,6.400963134765625,0.0007775966078042984,0.003063712501898408,-0.0016197467921301723
1782846233405967400,6.41096728515625,0.00026495312340557575,0.0012600349728018045,0.0008916412480175495
1782846233415972400,6.420972412109375,0.0001504372339695692,-0.00006994768045842648,0.0008953696815297008
1782846233425977300,6.430977294921875,-0.00031812151428312063,-0.0027683922089636326,0.002968178130686283
1782846233435982300,6.440982421875,-0.0014060228131711483,-0.001585149671882391,0.0014467141591012478
1782846233445987300,6.4509873046875,0.00010805390775203705,-0.00015251664444804192,0.0012195502640679479
1782846233455992300,6.460992431640625,-0.0008754514856263995,-0.0008675754070281982,-0.0010270923376083374
1782846233465997300,6.470997314453125,0.0010950590949505568,0.0018043660093098879,0.0006392195355147123
1782846233476002300,6.481002197265625,0.00023405905812978745,0.0006871698424220085,-0.0015730684390291572
1782846233486007300,6.49100732421875,0.0019923574291169643,0.002098857657983899,-0.00021678279154002666
1782846233496012300,6.50101220703125,-0.0007957059424370527,0.002125222934409976,0.0009661933872848749
1782846233506017300,6.511017333984375,0.00038269744254648685,-0.001897087786346674,-0.00016040459740906954
1782846233516022300,6.521022216796875,0.0022852595429867506,-0.00014233076944947243,-0.00002405070699751377
1782846233526027300,6.53102734375,-0.0016447678208351135,-0.0016823839396238327,0.00021459144772961736
1782846233536032300,6.5410322265625,0.0017257288563996553,-0.0018339180387556553,-0.00035665661562234163
1782846233546037200,6.551037353515625,0.002433846704661846,0.0010913731530308723,0.0007479384075850248
1782846233556042200,6.561042236328125,0.00033261231146752834,0.0006695284973829985,-0.0036353585310280323
1782846233566047200,6.571047119140625,-0.0015748555306345224,-0.0015592142008244991,0.0022381190210580826
1782846233576052200,6.58105224609375,-0.00022063800133764744,-0.00014853780157864094,0.0018447700422257185
1782846233586056200,6.59105615234375,-0.0011947279563173652,0.000782480463385582,-0.0014872127212584019
1782846233596061200,6.601061279296875,0.0013475255109369755,-0.0015461877919733524,0.0010603670962154865
1782846233606066200,6.611066162109375,0.0011136494576931,0.00122512795496732,0.0007092320593073964
1782846233616071200,6.6210712890625,-0.0013899883488193154,0.0011942352866753936,0.000621880404651165
1782846233626076200,6.631076171875,-0.0007947575068101287,0.00010255025699734688,-0.0000927759101614356
1782846233636081200,6.6410810546875,0.0004524008836597204,0.0010929799173027277,0.0030920985154807568
1782846233646086100,6.651086181640625,-0.0014432716416195035,-0.0016959740314632654,0.0013765973271802068
1782846233656091100,6.661091064453125,0.00008298596367239952,-0.00009940913878381252,-0.00035685417242348194
1782846233666096000,6.67109619140625,0.001425445545464754,-0.00026811822317540646,0.0017992143984884024
1782846233676101000,6.68110107421875,-0.002285136841237545,-0.0014367133844643831,0.002026648260653019
1782846233686106000,6.691106201171875,0.00023251189850270748,0.0024784484412521124,-0.0022933250293135643
1782846233696111000,6.701111083984375,-0.00017335382290184498,-0.0007309268694370985,0.0016316418768838048
1782846233706116000,6.7111162109375,0.0020479094237089157,0.0005559332203119993,-0.002302885055541992
1782846233716121000,6.72112109375,-0.00048342510126531124,0.0007159891538321972,0.00039436458609998226
1782846233726126000,6.7311259765625,0.0011770210694521666,0.0016455126460641623,0.0003151323180645704
1782846233736131000,6.741131103515625,0.0011706294026225805,0.0019413898698985577,-0.0005506613524630666
1782846233746135300,6.75113525390625,0.000516724307090044,0.0010589227313175797,-0.0025328865740448236
1782846233756140300,6.761140380859375,-0.00019860081374645233,-0.002780290087684989,0.0012850211933255196
1782846233766145300,6.771145263671875,0.0012204030063003302,-0.0028358406852930784,0.0016675174701958895
1782846233776150300,6.781150390625,0.00008589634671807289,-0.00004644552245736122,-0.0007120168302208185
1782846233786155300,6.7911552734375,-0.00035588908940553665,-0.0008279003668576479,-0.0038013490848243237
1782846233796160300,6.80116015625,-0.0001777235884219408,-0.001857212046161294,0.001371308695524931
1782846233806165200,6.811165283203125,0.0023188460618257523,-0.0024701720103621483,0.001255682436749339
1782846233816170200,6.821170166015625,0.0022954102605581284,0.0008459963137283921,0.0002652528346516192
1782846233826175200,6.83117529296875,0.0003174315206706524,-0.0008596137631684542,-0.0014575079549103975
1782846233836180200,6.84118017578125,0.0022069441620260477,-0.0013714733067899942,0.00223736185580492
1782846233846185200,6.851185302734375,0.00042389496229588985,-0.00040850997902452946,-0.001191142713651061
1782846233856190200,6.861190185546875,-0.0016397885046899319,0.00021253922022879124,0.001612367108464241
1782846233866195200,6.8711953125,-0.0006883598398417234,0.00239283568225801,-0.001818981720134616
1782846233876200200,6.8812001953125,0.00007969583384692669,-0.0013760700821876526,0.0014673591358587146
1782846233886205200,6.891205078125,0.0009918012656271458,-0.00024940120056271553,0.0008027768926694989
1782846233896210200,6.901210205078125,-0.0013768142089247704,0.000826782314106822,-0.0013210941106081009
1782846233906215200,6.911215087890625,0.0007481439970433712,0.002237888053059578,-0.0004707759362645447
1782846233916219100,6.92121923828125,0.0001952718012034893,-0.0004894554149359465,0.002633937168866396
1782846233926224100,6.93122412109375,0.002017283346503973,-0.00020277849398553371,0.0000024950713850557804
1782846233936229000,6.94122900390625,0.0008939618710428476,-0.00005231006070971489,0.0009678909555077553
1782846233946234000,6.951234130859375,-0.0003261998062953353,-0.001657381420955062,0.0006368239410221577
1782846233956239000,6.961239013671875,0.0008061763364821672,0.00047660968266427517,-0.00006065797060728073
1782846233966244000,6.971244140625,0.002515033120289445,0.0014183210441842675,0.00001485086977481842
1782846233976249300,6.981249267578125,0.0011568211484700441,-0.0018299364019185305,0.0014020914677530527
1782846233986254300,6.99125439453125,-0.0006619507912546396,0.00024483073502779007,0.0006765071302652359
1782846233996259300,7.00125927734375,-0.0009192121215164661,-0.004106774460524321,0.0004120551748201251
1782846234006264300,7.011264404296875,-0.0002298897597938776,-0.0008953048381954432,0.00044645299203693867
1782846234016269300,7.021269287109375,-0.0006642512744292617,-0.0019784122705459595,0.0002475148648954928
1782846234026274300,7.0312744140625,0.0005317609757184982,-0.0019523990340530872,-0.0000327732996083796
1782846234036279300,7.041279296875,0.0006223083473742008,0.0006654881872236729,0.00076031603384763
1782846234046284300,7.0512841796875,0.0006679629441350698,-0.0002848783042281866,-0.0004516505869105458
1782846234056289300,7.061289306640625,-0.0005467049777507782,-0.00023214775137603283,0.001612032880075276
1782846234066294300,7.071294189453125,0.0019040366169065237,0.0020534724462777376,-0.002712843008339405
1782846234076298200,7.08129833984375,0.000054737553000450134,-0.0004672096110880375,0.0015583346830680966
1782846234086303200,7.09130322265625,-0.00015724613331258297,0.0004078808706253767,-0.0001742290914990008
1782846234096308200,7.10130810546875,0.0008433035109192133,0.0001777836587280035,0.000524318078532815
1782846234106313200,7.111313232421875,-0.0003849243512377143,-0.0012989507522433996,-0.0007527651614509523
1782846234116318200,7.121318115234375,-0.0036947010084986687,0.00028749415650963783,0.0005670974496752024
1782846234126323200,7.1313232421875,-0.0002939581172540784,-0.0011763833463191986,0.0020558442920446396
1782846234136328200,7.141328125,0.0009057959541678429,0.0010814444394782186,-0.0005982620059512556
1782846234146333200,7.151333251953125,0.0007541030645370483,-0.002742138924077153,0.00023790239356458187
1782846234156338200,7.161338134765625,-0.001692543039098382,0.0006957356818020344,-0.001561861950904131
1782846234166343200,7.17134326171875,0.001478784717619419,0.00026466697454452515,0.0007658922113478184
1782846234176348200,7.18134814453125,-0.0013636071234941483,0.0005237925797700882,0.0004721455043181777
1782846234186353200,7.191353271484375,0.0004690850619226694,-0.001348104327917099,-0.002004717942327261
1782846234196358100,7.201358154296875,0.00039584795013070107,0.0014375620521605015,0.0017154515953734517
1782846234206363100,7.211363037109375,0.0017004753462970257,0.00003648223355412483,0.0008504338329657912
1782846234216368000,7.2213681640625,0.0022155307233333588,-0.001845307182520628,-0.0003202918451279402
1782846234226372400,7.231372314453125,-0.0003542102640494704,-0.0008800823707133532,0.0012730148155242205
1782846234236377300,7.24137744140625,0.002148628467693925,0.0003649455029517412,-0.0007557811914011836
1782846234246382300,7.25138232421875,0.000640286598354578,-0.0007384936325252056,0.000422708282712847
1782846234256387300,7.26138720703125,0.0001726355403661728,-0.0022378533612936735,0.0011878344230353832
1782846234266392300,7.271392333984375,0.0006650220602750778,0.0009537065634503961,-0.0030957097187638283
1782846234276397300,7.281397216796875,0.0014647694770246744,-0.00030783284455537796,0.001040179398842156
1782846234286402300,7.29140234375,0.0009145217482000589,0.00009276485070586205,0.0012460770085453987
1782846234296407300,7.3014072265625,0.001453279284760356,-0.0022753176745027304,0.0025821849703788757
1782846234306412300,7.311412353515625,0.0017743634525686502,0.0007800220046192408,-0.003590791719034314
1782846234316417300,7.321417236328125,0.0012574440333992243,0.001958204433321953,-0.0008192399400286376
1782846234326422300,7.33142236328125,-0.00030132767278701067,0.0008311660494655371,0.0003810038324445486
1782846234336427300,7.34142724609375,0.0006459588184952736,-0.0018450443167239428,0.0013171050231903791
1782846234346432300,7.351432373046875,0.003456787671893835,-0.00007428298704326153,0.00001024582888931036
1782846234356437200,7.361437255859375,0.0015283925458788872,-0.0002836075145751238,0.0007404845673590899
1782846234366442200,7.371442138671875,0.00015934905968606472,0.0003493712283670902,-0.00005574082024395466
1782846234376447200,7.381447265625,-0.002579712076112628,-0.00037074764259159565,0.00013600679812952876
1782846234386452200,7.3914521484375,-0.0026265846099704504,-0.0008674848359078169,0.0025802641175687313
1782846234396456200,7.401456298828125,-0.0010939354542642832,-0.0007590940222144127,-0.00020620122086256742
1782846234406461200,7.411461181640625,-0.0007357446011155844,-0.00005732499994337559,0.0008293231367133558
1782846234416466200,7.421466064453125,-0.0012832905631512403,-0.00028262846171855927,0.0012415804667398334
1782846234426471200,7.43147119140625,0.002185436198487878,-0.0003750692121684551,-0.0008329229895025492
1782846234436476200,7.44147607421875,-0.00048385001718997955,0.0001690145581960678,-0.00036234245635569096
1782846234446481200,7.451481201171875,-0.0013283458538353443,-0.000529612647369504,0.0003443039022386074
1782846234456486100,7.461486083984375,0.004939669743180275,-0.000015089986845850945,-0.001753734308294952
1782846234466491100,7.4714912109375,0.0024573919363319874,0.00036396970972418785,0.0003585784579627216
1782846234476496100,7.48149609375,-0.0016292287036776543,-0.0017055727075785398,-0.00012025795876979828
1782846234486501000,7.491501220703125,-0.0004454455338418484,-0.0011094417423009872,-0.0012154506985098124
1782846234496506000,7.501506103515625,0.0006541737820953131,-0.0003259396180510521,0.0011640838347375393
1782846234506511000,7.511510986328125,0.0011905834544450045,-0.002932206029072404,0.002292865188792348
1782846234516516000,7.52151611328125,-0.001346343895420432,-0.0008501464035362005,-0.001140215783379972
1782846234526521000,7.53152099609375,-0.0008937318343669176,-0.0010471534915268421,-0.0012026133481413126
1782846234536526000,7.541526123046875,0.0008354587480425835,0.0008745836094021797,-0.002769084647297859
1782846234546530300,7.5515302734375,-0.0009613214060664177,-0.0021611577831208706,0.000639150501228869
1782846234556535300,7.561535400390625,0.00017717992886900902,-0.00041545601561665535,0.00024313840549439192
1782846234566540300,7.571540283203125,-0.0014720603358000517,-5.075708031654358e-8,0.0006009185453876853
1782846234576545300,7.581545166015625,-0.00038202840369194746,-0.0017737161833792925,0.0015327585861086845
1782846234586550300,7.59155029296875,0.0006015070248395205,-0.0010081399232149124,0.0012080782325938344
1782846234596555300,7.60155517578125,-0.0010967906564474106,-0.0016211995389312506,-0.0016976967453956604
1782846234606560300,7.611560302734375,-0.00005256710574030876,-0.0009894995018839836,-0.000988790183328092
1782846234616565200,7.621565185546875,-0.00020649796351790428,0.0010773797985166311,-0.0013323378516361117
1782846234626570200,7.6315703125,-0.00036055734381079674,-0.001753288321197033,-0.002454104833304882
1782846234636575200,7.6415751953125,-0.001312903710640967,-0.0005575290415436029,0.0006093292031437159
1782846234646580200,7.651580322265625,-0.0014499593526124954,0.0006039997097104788,0.0008892632322385907
1782846234656585200,7.661585205078125,-0.0012060138396918774,-0.002833874663338065,0.0002956446260213852
1782846234666590200,7.671590087890625,-0.000895140809006989,-0.0018294344190508127,-0.0008793130982667208
1782846234676595200,7.68159521484375,0.0009941055905073881,0.0008936477825045586,-0.000558668514713645
1782846234686600200,7.69160009765625,-0.00009448477067053318,-0.0001853201538324356,-0.0012408150359988213
1782846234696605200,7.701605224609375,0.0020821166690438986,0.0011957951355725527,-0.000829623022582382
1782846234706609200,7.711609130859375,0.0016298643313348293,0.0012248317943885922,0.0009927254868671298
1782846234716614100,7.7216142578125,0.0022035089787095785,-0.00079304538667202,-0.0013412690022960305
1782846234726619100,7.731619140625,0.00022839452140033245,-0.0018895284738391638,-0.0014086884912103415
1782846234736624000,7.7416240234375,-0.00014764373190701008,-0.00183653156273067,0.0017689953092485666
1782846234746629000,7.751629150390625,-0.000501205213367939,-0.0009764740243554115,0.0013897849712520838
1782846234756634000,7.761634033203125,0.0011174639221280813,0.0014842867385596037,-0.00045418785884976387
1782846234766639400,7.771639404296875,0.0020716944709420204,0.0011715807486325502,0.002718153176829219
1782846234776644400,7.781644287109375,-0.0008178353309631348,-0.00017118500545620918,0.0008131941431201994
1782846234786649300,7.7916494140625,-0.0005056451773270965,-0.0010171656031161547,0.0002902982523664832
1782846234796654300,7.801654296875,0.001069614663720131,-0.0016283611766994,0.000979790580458939
1782846234806659300,7.811659423828125,0.002483964432030916,-0.0002357647754251957,0.0019196838838979602
1782846234816664300,7.821664306640625,0.0009718216024339199,-0.0015532304532825947,-0.0014193874085322022
1782846234826669300,7.83166943359375,-0.000449718558229506,-0.00033011031337082386,-0.0005327735561877489
1782846234836674300,7.84167431640625,-0.0013749008066952229,-0.0009415720123797655,-0.00223240302875638
1782846234846679300,7.85167919921875,-0.0013850692193955183,0.0006033899262547493,-0.00027917465195059776
1782846234856683300,7.861683349609375,0.0012863476295024157,-0.001058689085766673,0.0006404148880392313
1782846234866688300,7.871688232421875,-0.000519811175763607,-0.0010263812728226185,0.00004920549690723419
1782846234876693200,7.881693359375,-0.0000476327259093523,-0.0004822972696274519,0.0015770610189065337
1782846234886698200,7.8916982421875,0.0008623481262475252,0.0011919487733393908,0.0009836680255830288
1782846234896703200,7.901703125,-0.0007531252922490239,-0.0010187411680817604,0.0002877840888686478
1782846234906708200,7.911708251953125,-0.0006443288875743747,-0.0018834301736205816,-0.001275605522096157
1782846234916713200,7.921713134765625,-0.0017090607434511185,0.000923275132663548,0.002151882741600275
1782846234926718200,7.93171826171875,-0.00027130404487252235,-0.00025948137044906616,0.001407071715220809
1782846234936723200,7.94172314453125,0.0024677570909261703,-0.00034203939139842987,-0.0009434341918677092
1782846234946728200,7.951728271484375,0.0025018153246492147,-0.00010637333616614342,0.0008384826360270381
1782846234956733200,7.961733154296875,0.00026422739028930664,0.00008963537402451038,-0.00045261788181960583
1782846234966738200,7.97173828125,0.0014077562373131514,0.0012627167161554098,0.0008856672211550176
1782846234976743200,7.9817431640625,0.0015036300756037235,-0.0025706375017762184,-0.0012504542246460915
1782846234986748200,7.991748046875,0.00032656104303896427,0.0016477730823680758,0.0004891613498330116
1782846234996753200,8.001753173828124,0.001890369225293398,0.00016732187941670418,-0.00006956985453143716
1782846235006758100,8.011758056640625,-0.0005599784199148417,0.0006663142703473568,0.002025772351771593
1782846235016762400,8.021762451171876,-0.0024657363537698984,0.0017148008337244391,0.0021631913259625435
1782846235026767400,8.031767333984375,-0.0014695250429213047,-0.0011875019408762455,0.0009188607800751925
1782846235036772400,8.0417724609375,0.0005568740889430046,-0.0005986769683659077,-0.001218325924128294
1782846235046777300,8.05177734375,0.00004559964872896671,-0.0004164166748523712,-0.00007510674186050892
1782846235056782300,8.0617822265625,0.0002844852861016989,-0.00034637562930583954,0.0008950828923843801
1782846235066787300,8.071787353515624,-0.00029723416082561016,-0.00032871682196855545,-0.0007341802702285349
1782846235076792300,8.081792236328125,-0.00008364859968423843,-0.0005550854839384556,-0.0048833852633833885
1782846235086797300,8.09179736328125,0.00026172492653131485,0.0012582597555592656,0.0011007149005308747
1782846235096802300,8.10180224609375,0.00006837933324277401,0.00025904178619384766,-0.0011073120404034853
1782846235106807300,8.111807373046876,-0.0012129503302276134,0.00007651746273040771,0.0007765003829263151
1782846235116812300,8.121812255859375,-0.0013018997851759195,-0.001639357302337885,-0.0006267192075029016
1782846235126817300,8.1318173828125,-0.0012888957280665636,-0.0009484000038355589,0.00008014088962227106
1782846235136822300,8.141822265625,0.0011814525350928307,0.0008769307751208544,-0.0011297331657260656
1782846235146827300,8.1518271484375,-0.0019390572560951114,-0.0018915277905762196,0.0005434596678242087
1782846235156832300,8.161832275390625,0.0002971992362290621,0.0003923990298062563,0.000350913149304688
1782846235166836200,8.171836181640625,0.001399788074195385,0.0013154748594388366,0.0001824187347665429
1782846235176841200,8.18184130859375,-0.0013408709783107042,0.00021958420984447002,-0.003018168266862631
1782846235186846200,8.19184619140625,0.001896139234304428,-0.0006422603037208319,-0.001374303363263607
1782846235196851200,8.201851318359376,0.003495633602142334,0.000053357332944869995,-0.0011878821533173323
1782846235206856200,8.211856201171875,-0.0004647632595151663,-0.0008399845100939274,0.0021126538049429655
1782846235216861200,8.221861083984376,0.0010878597386181355,-0.0010136226192116737,-0.00039071758510544896
1782846235226866200,8.2318662109375,-0.000146583653986454,0.0002446277067065239,-0.0031055354047566652
1782846235236871200,8.24187109375,0.0014366654213517904,-0.0009378157556056976,0.0020186530891805887
1782846235246876200,8.251876220703124,0.0034001984167844057,-0.0017956227529793978,0.0012674836907535791
1782846235256881200,8.261881103515625,-0.0014235851122066379,0.0009365142323076725,-0.00039379624649882317
1782846235266886100,8.27188623046875,-0.0012968853116035461,-0.00279423245228827,-0.0013978071510791779
1782846235276891100,8.28189111328125,0.0020887914579361677,0.00023244996555149555,-0.00012321845861151814
1782846235286896000,8.291896240234376,0.0009394427761435509,0.0016774655086919665,-0.0035990355536341667
1782846235296901000,8.301901123046875,0.002245989628136158,0.00016532279551029205,-0.00155053217895329
1782846235306906000,8.311906005859376,-0.0020395885221660137,-0.0021607852540910244,0.0014710715040564537
1782846235316910300,8.321910400390625,-0.0009191965218633413,0.0006291426252573729,0.001377328298985958
1782846235326915300,8.331915283203125,-0.000423458288423717,0.0006560147739946842,0.0015868679620325565
1782846235336920300,8.34192041015625,0.0002460605464875698,0.000026177149266004562,0.00011254206765443087
1782846235346925300,8.35192529296875,0.001045495504513383,-0.0007188909221440554,-0.00213585514575243
1782846235356930300,8.361930419921874,-0.000884763547219336,-0.0016717698890715837,0.0021723404061049223
1782846235366935300,8.371935302734375,0.0005520854610949755,-0.001536827301606536,-0.002348872134461999
1782846235376940300,8.381940185546876,-0.0004873463185504079,0.0003401683643460274,-0.00026548118330538273
1782846235386945300,8.3919453125,-0.0010659984545782208,0.0006830035708844662,-0.0010148438159376383
1782846235396950300,8.4019501953125,-0.0010593405459076166,0.00036662002094089985,0.002378023462370038
1782846235406955300,8.411955322265625,0.0016126479022204876,0.0001920708455145359,-0.0009903954342007637
1782846235416960300,8.421960205078125,0.00001102290116250515,0.0008935474324971437,0.0002335933386348188
1782846235426965200,8.43196533203125,0.00235396483913064,-0.0008021818939596415,-0.00042754708556458354
1782846235436970200,8.44197021484375,-0.0007254481315612793,-0.000013353535905480385,0.0018744893604889512
1782846235446975200,8.451975341796874,-0.0002793908352032304,-0.001290435204282403,0.0001291058142669499
1782846235456980200,8.461980224609375,0.0000953159760683775,-0.001260075019672513,0.0003834376693703234
1782846235466984200,8.471984130859376,0.0011857692152261734,-0.001206784276291728,-0.00009522528853267431
1782846235476989200,8.4819892578125,-0.0015666077379137278,0.00041960831731557846,0.0025663378182798624
1782846235486994200,8.491994140625,0.0001046271063387394,0.000037693651393055916,0.0004980161320418119
1782846235496999200,8.501999267578125,0.00016641244292259216,0.00045554363168776035,-0.00418488634750247
1782846235507004200,8.512004150390625,0.0005980334244668484,0.00007525808177888393,-0.0007442111382260919
1782846235517009400,8.522009521484375,-0.000015026191249489784,0.0009090937674045563,0.0013463703216984868
1782846235527014400,8.532014404296875,-0.000238315318711102,-0.0003021627198904753,-0.00010206777369603515
1782846235537019400,8.542019287109374,0.00016914820298552513,-0.00045103346928954124,0.0012090064119547606
1782846235547024400,8.5520244140625,-0.000772481900639832,0.0007804441265761852,-0.0013968367129564285
1782846235557029400,8.562029296875,0.0006565703079104424,0.00028216675855219364,0.0005193075630813837
1782846235567034400,8.572034423828125,0.0006395236123353243,0.0023787824902683496,-0.0004553740145638585
1782846235577039400,8.582039306640626,0.0014738920144736767,0.0011151126818731427,-0.0015691079897806048
1782846235587044400,8.59204443359375,-0.00002680160105228424,0.10218077152967453,0.03699059784412384
1782846235597049600,8.602049560546876,0.0018539226148277521,-0.04055667296051979,0.006314177066087723
1782846235607054600,8.6120546875,-0.006855139974504709,0.02768758125603199,0.0031561595387756824
1782846235617058600,8.62205859375,0.007325127720832825,-0.03228653967380524,-0.002988285617902875
1782846235627063600,8.6320634765625,-0.00009580864571034908,0.01030590571463108,0.001223789993673563
1782846235637068500,8.642068603515625,-0.00043482903856784105,-0.027475828304886818,-0.006855974439531565
1782846235647073500,8.652073486328124,-0.0015302980318665504,0.008243228308856487,-0.0025535777676850557
1782846235657078500,8.66207861328125,0.003088954836130142,-0.008000455796718597,-0.0026664959732443094
