time,seconds_elapsed,z,y,x
1782846034651000800,0.060000732421875,-0.98095703125,-0.156890869140625,0.077728271484375
1782846034661005800,0.070005859375,-0.9825286865234375,-0.1551513671875,0.079345703125
1782846034671011800,0.08001171875,-0.979339599609375,-0.1539459228515625,0.079071044921875
1782846034681016800,0.090016845703125,-0.9772186279296875,-0.1527862548828125,0.0835418701171875
1782846034691021800,0.100021728515625,-0.97637939453125,-0.152069091796875,0.087371826171875
1782846034701026800,0.11002685546875,-0.97503662109375,-0.1528472900390625,0.0875701904296875
1782846034711032800,0.12003271484375,-0.9747161865234375,-0.1527862548828125,0.086395263671875
1782846034721037800,0.130037841796875,-0.9728851318359375,-0.1511383056640625,0.08660888671875
1782846034731042800,0.140042724609375,-0.969482421875,-0.15130615234375,0.0845947265625
1782846034741047800,0.1500478515625,-0.9689483642578125,-0.1504974365234375,0.085205078125
1782846034751053800,0.1600537109375,-0.9691619873046875,-0.1513671875,0.0849609375
1782846034761058800,0.170058837890625,-0.9715728759765625,-0.1531524658203125,0.0842437744140625
1782846034771063800,0.180063720703125,-0.9730682373046875,-0.1528778076171875,0.087005615234375
1782846034781068800,0.19006884765625,-0.97332763671875,-0.1538238525390625,0.089447021484375
1782846034791074800,0.20007470703125,-0.9774017333984375,-0.154571533203125,0.0919036865234375
1782846034801079800,0.210079833984375,-0.9792327880859375,-0.1540679931640625,0.0899658203125
1782846034811084800,0.220084716796875,-0.9769744873046875,-0.15338134765625,0.08935546875
1782846034821089800,0.23008984375,-0.977142333984375,-0.1527252197265625,0.08819580078125
1782846034831095800,0.240095703125,-0.9788665771484375,-0.1519012451171875,0.087249755859375
1782846034841101000,0.25010107421875,-0.9793701171875,-0.150299072265625,0.0839385986328125
1782846034851106000,0.26010595703125,-0.979461669921875,-0.148345947265625,0.083038330078125
1782846034861111000,0.270111083984375,-0.9732513427734375,-0.148590087890625,0.0803375244140625
1782846034871116800,0.28011669921875,-0.968536376953125,-0.1512298583984375,0.081298828125
1782846034881121800,0.290121826171875,-0.9714202880859375,-0.1495513916015625,0.08526611328125
1782846034891126800,0.300126708984375,-0.9721221923828125,-0.150482177734375,0.08984375
1782846034901131800,0.3101318359375,-0.9728546142578125,-0.1514129638671875,0.0897369384765625
1782846034911137800,0.3201376953125,-0.9794921875,-0.1516571044921875,0.0897979736328125
1782846034921142800,0.330142822265625,-0.9852447509765625,-0.1529388427734375,0.088958740234375
1782846034931147800,0.340147705078125,-0.9896240234375,-0.1514129638671875,0.092620849609375
1782846034941152800,0.35015283203125,-0.983978271484375,-0.1517791748046875,0.0928955078125
1782846034951158800,0.36015869140625,-0.97821044921875,-0.1525115966796875,0.09063720703125
1782846034961163800,0.370163818359375,-0.970672607421875,-0.15478515625,0.0878143310546875
1782846034971168800,0.380168701171875,-0.9694671630859375,-0.1534576416015625,0.087158203125
1782846034981173800,0.390173828125,-0.9662017822265625,-0.1517181396484375,0.089630126953125
1782846034991179800,0.4001796875,-0.964599609375,-0.153106689453125,0.086090087890625
1782846035001185000,0.41018505859375,-0.9638671875,-0.14990234375,0.086700439453125
1782846035011190000,0.42018994140625,-0.9643096923828125,-0.1481475830078125,0.0850067138671875
1782846035021195000,0.430195068359375,-0.9688568115234375,-0.14715576171875,0.0850677490234375
1782846035031200800,0.44020068359375,-0.975738525390625,-0.1469268798828125,0.0888214111328125
1782846035041205800,0.450205810546875,-0.9818878173828125,-0.1474151611328125,0.0847625732421875
1782846035051211000,0.4602109375,-0.9850921630859375,-0.1512298583984375,0.083648681640625
1782846035061216800,0.470216796875,-0.9848480224609375,-0.1533355712890625,0.08392333984375
1782846035071221800,0.4802216796875,-0.9839324951171875,-0.1540679931640625,0.083587646484375
1782846035081226800,0.490226806640625,-0.982391357421875,-0.1545867919921875,0.08319091796875
1782846035091231700,0.500231689453125,-0.977874755859375,-0.1560516357421875,0.083404541015625
1782846035101236700,0.51023681640625,-0.975677490234375,-0.1565704345703125,0.0843658447265625
1782846035111242800,0.52024267578125,-0.971588134765625,-0.15777587890625,0.083984375
1782846035121247700,0.530247802734375,-0.9706268310546875,-0.15765380859375,0.084381103515625
1782846035131252700,0.540252685546875,-0.96875,-0.154815673828125,0.0828094482421875
1782846035141257700,0.5502578125,-0.966949462890625,-0.1518707275390625,0.0864410400390625
1782846035151263700,0.560263671875,-0.9672393798828125,-0.1519012451171875,0.084716796875
1782846035161268700,0.570268798828125,-0.967041015625,-0.1539459228515625,0.0848541259765625
1782846035171273700,0.580273681640625,-0.969085693359375,-0.15338134765625,0.0829925537109375
1782846035181280000,0.590280029296875,-0.9745330810546875,-0.1527862548828125,0.0810394287109375
1782846035191285000,0.600284912109375,-0.9790496826171875,-0.1526031494140625,0.077972412109375
1782846035201290000,0.6102900390625,-0.9857330322265625,-0.1514892578125,0.0790252685546875
1782846035211295000,0.620294921875,-0.98846435546875,-0.151519775390625,0.0797119140625
1782846035221300700,0.63030078125,-0.985992431640625,-0.15301513671875,0.081878662109375
1782846035231305700,0.6403056640625,-0.984405517578125,-0.153717041015625,0.0811004638671875
1782846035241310700,0.650310791015625,-0.98651123046875,-0.153961181640625,0.08416748046875
1782846035251315700,0.660315673828125,-0.980224609375,-0.1533203125,0.0800323486328125
1782846035261321700,0.67032177734375,-0.9739227294921875,-0.1529541015625,0.07843017578125
1782846035271326700,0.68032666015625,-0.97222900390625,-0.1524658203125,0.0791015625
1782846035281331700,0.690331787109375,-0.9720916748046875,-0.1514434814453125,0.0782623291015625
1782846035291336700,0.700336669921875,-0.9693145751953125,-0.1488494873046875,0.0757904052734375
1782846035301342700,0.7103427734375,-0.96429443359375,-0.1507110595703125,0.07855224609375
1782846035311347700,0.72034765625,-0.964447021484375,-0.15191650390625,0.0795135498046875
1782846035321352700,0.730352783203125,-0.972198486328125,-0.1497955322265625,0.078521728515625
1782846035331357700,0.740357666015625,-0.9805145263671875,-0.1503143310546875,0.0793609619140625
1782846035341364000,0.750364013671875,-0.988037109375,-0.1491851806640625,0.081268310546875
1782846035351369000,0.760368896484375,-0.987060546875,-0.150390625,0.0821380615234375
1782846035361374000,0.7703740234375,-0.985931396484375,-0.1488494873046875,0.086456298828125
1782846035371379000,0.78037890625,-0.981658935546875,-0.147796630859375,0.0882110595703125
1782846035381385000,0.790385009765625,-0.9792633056640625,-0.1469879150390625,0.0921478271484375
1782846035391390000,0.800389892578125,-0.97332763671875,-0.1455841064453125,0.0953369140625
1782846035401395000,0.81039501953125,-0.9631195068359375,-0.1447601318359375,0.0959625244140625
1782846035411400000,0.82039990234375,-0.961395263671875,-0.1448974609375,0.09368896484375
1782846035421405700,0.83040576171875,-0.9630279541015625,-0.1446685791015625,0.0913543701171875
1782846035431410700,0.84041064453125,-0.9618988037109375,-0.147003173828125,0.0902252197265625
1782846035441415700,0.850415771484375,-0.96240234375,-0.1488189697265625,0.0902252197265625
1782846035451420700,0.860420654296875,-0.9680328369140625,-0.1517333984375,0.095703125
1782846035461426700,0.8704267578125,-0.9750213623046875,-0.14892578125,0.0955810546875
1782846035471431700,0.880431640625,-0.9794921875,-0.1494903564453125,0.096527099609375
1782846035481436700,0.890436767578125,-0.981842041015625,-0.1501312255859375,0.0978851318359375
1782846035491441700,0.900441650390625,-0.9847259521484375,-0.151763916015625,0.0939178466796875
1782846035501448000,0.910447998046875,-0.98681640625,-0.1500701904296875,0.089141845703125
1782846035511453000,0.920452880859375,-0.9882965087890625,-0.14990234375,0.08709716796875
1782846035521458000,0.9304580078125,-0.98504638671875,-0.1518707275390625,0.0860595703125
1782846035531463000,0.940462890625,-0.980865478515625,-0.1517791748046875,0.08404541015625
1782846035541469000,0.950468994140625,-0.9810943603515625,-0.1514892578125,0.085479736328125
1782846035551474000,0.960473876953125,-0.9783477783203125,-0.1510772705078125,0.08660888671875
1782846035561479000,0.97047900390625,-0.9764404296875,-0.153106689453125,0.0870361328125
1782846035571484000,0.98048388671875,-0.9739990234375,-0.1552886962890625,0.08465576171875
1782846035581490000,0.990489990234375,-0.9739532470703125,-0.1529998779296875,0.084991455078125
1782846035591495000,1.000494873046875,-0.9746856689453125,-0.1506805419921875,0.085693359375
1782846035601500000,1.0105,-0.976409912109375,-0.1522369384765625,0.083221435546875
1782846035611505000,1.0205048828125,-0.9756011962890625,-0.1494903564453125,0.08197021484375
1782846035621510700,1.0305107421875,-0.97259521484375,-0.150054931640625,0.0802001953125
1782846035631515600,1.040515625,-0.9722900390625,-0.150238037109375,0.0799102783203125
1782846035641520600,1.050520751953125,-0.9760894775390625,-0.1503448486328125,0.08294677734375
1782846035651525600,1.060525634765625,-0.978729248046875,-0.1505889892578125,0.0845794677734375
1782846035661532000,1.070531982421875,-0.978424072265625,-0.152984619140625,0.0839385986328125
1782846035671537000,1.080536865234375,-0.9781646728515625,-0.1541900634765625,0.08880615234375
1782846035681542000,1.0905419921875,-0.9755706787109375,-0.1551513671875,0.0882110595703125
1782846035691547000,1.100546875,-0.9713592529296875,-0.1554107666015625,0.0870208740234375
1782846035701553000,1.110552978515625,-0.9733123779296875,-0.1533355712890625,0.084228515625
1782846035711558000,1.120557861328125,-0.980194091796875,-0.15283203125,0.0812530517578125
1782846035721563000,1.13056298828125,-0.9820098876953125,-0.15277099609375,0.0829925537109375
1782846035731567900,1.14056787109375,-0.98004150390625,-0.1527557373046875,0.08306884765625
1782846035741574000,1.150573974609375,-0.9794158935546875,-0.152496337890625,0.0823974609375
1782846035751579000,1.160578857421875,-0.980072021484375,-0.1508026123046875,0.0828857421875
1782846035761583900,1.170583984375,-0.98193359375,-0.15185546875,0.0817108154296875
1782846035771588900,1.1805888671875,-0.9822540283203125,-0.150604248046875,0.08331298828125
1782846035781595000,1.190594970703125,-0.9814605712890625,-0.151580810546875,0.0837554931640625
1782846035791599900,1.200599853515625,-0.980438232421875,-0.1505126953125,0.08251953125
1782846035801604900,1.21060498046875,-0.9758453369140625,-0.151397705078125,0.0807342529296875
1782846035811609900,1.22060986328125,-0.9691619873046875,-0.1523284912109375,0.07904052734375
1782846035821615900,1.230615966796875,-0.96466064453125,-0.152557373046875,0.0774078369140625
1782846035831620900,1.240620849609375,-0.963165283203125,-0.153564453125,0.07781982421875
1782846035841625900,1.2506259765625,-0.9633941650390625,-0.15374755859375,0.07806396484375
1782846035851631900,1.2606318359375,-0.9636383056640625,-0.1530914306640625,0.0785980224609375
1782846035861636900,1.270636962890625,-0.9647216796875,-0.1525726318359375,0.079010009765625
1782846035871641900,1.280641845703125,-0.9720306396484375,-0.1516876220703125,0.0785980224609375
1782846035881646800,1.290646728515625,-0.977264404296875,-0.151214599609375,0.0771942138671875
1782846035891652900,1.30065283203125,-0.9781036376953125,-0.154510498046875,0.0771331787109375
1782846035901657900,1.310657958984375,-0.983306884765625,-0.1559600830078125,0.078399658203125
1782846035911662800,1.320662841796875,-0.9885711669921875,-0.156951904296875,0.08184814453125
1782846035921667800,1.330667724609375,-0.9889373779296875,-0.1561126708984375,0.08038330078125
1782846035931673900,1.340673828125,-0.98724365234375,-0.158477783203125,0.076995849609375
1782846035941678800,1.350678955078125,-0.9841156005859375,-0.1578369140625,0.0784149169921875
1782846035951683800,1.360683837890625,-0.9823455810546875,-0.156005859375,0.075653076171875
1782846035961688800,1.370688720703125,-0.9781494140625,-0.1562957763671875,0.0778656005859375
1782846035971694600,1.380694580078125,-0.9708404541015625,-0.1559295654296875,0.0767669677734375
1782846035981699600,1.390699462890625,-0.96575927734375,-0.157623291015625,0.0800018310546875
1782846035991704600,1.40070458984375,-0.9650421142578125,-0.1593017578125,0.0800018310546875
1782846036001709800,1.410709716796875,-0.961395263671875,-0.1565093994140625,0.0809478759765625
1782846036011715800,1.4207158203125,-0.9588775634765625,-0.1556396484375,0.078765869140625
1782846036021720800,1.430720947265625,-0.9645843505859375,-0.157135009765625,0.0760040283203125
1782846036031725800,1.440725830078125,-0.9719696044921875,-0.1588592529296875,0.079376220703125
1782846036041730800,1.450730712890625,-0.97705078125,-0.157470703125,0.079345703125
1782846036051736800,1.46073681640625,-0.981170654296875,-0.157257080078125,0.0790863037109375
1782846036061741800,1.470741943359375,-0.979705810546875,-0.1591644287109375,0.079925537109375
1782846036071746800,1.480746826171875,-0.97918701171875,-0.1575927734375,0.079559326171875
1782846036081751800,1.490751708984375,-0.978118896484375,-0.1582794189453125,0.0792236328125
1782846036091757800,1.5007578125,-0.9760894775390625,-0.1570281982421875,0.0811920166015625
1782846036101762800,1.5107626953125,-0.9752044677734375,-0.1568756103515625,0.079742431640625
1782846036111767800,1.520767822265625,-0.9708099365234375,-0.1570892333984375,0.0804901123046875
1782846036121772800,1.530772705078125,-0.9716644287109375,-0.1563873291015625,0.081451416015625
1782846036131778800,1.54077880859375,-0.973663330078125,-0.15576171875,0.079498291015625
1782846036141783800,1.55078369140625,-0.9791412353515625,-0.1555633544921875,0.0798492431640625
1782846036151788800,1.560788818359375,-0.9818115234375,-0.156829833984375,0.0842437744140625
1782846036161793800,1.570793701171875,-0.982757568359375,-0.1563873291015625,0.087738037109375
1782846036171799800,1.5807998046875,-0.9822998046875,-0.1550140380859375,0.0842132568359375
1782846036181804800,1.5908046875,-0.976837158203125,-0.1572418212890625,0.0796661376953125
1782846036191809800,1.600809814453125,-0.9705352783203125,-0.1563568115234375,0.082275390625
1782846036201814800,1.610814697265625,-0.9674530029296875,-0.1558380126953125,0.0816497802734375
1782846036211820800,1.62082080078125,-0.9645233154296875,-0.154754638671875,0.0792388916015625
1782846036221825800,1.63082568359375,-0.9676971435546875,-0.15423583984375,0.07965087890625
1782846036231830800,1.640830810546875,-0.97088623046875,-0.1512298583984375,0.08172607421875
1782846036241836800,1.6508369140625,-0.97247314453125,-0.15093994140625,0.08294677734375
1782846036251841800,1.660841796875,-0.9764556884765625,-0.15118408203125,0.0851898193359375
1782846036261846800,1.6708466796875,-0.982177734375,-0.150421142578125,0.08740234375
1782846036271851800,1.680851806640625,-0.983551025390625,-0.1514129638671875,0.0872650146484375
1782846036281857800,1.69085791015625,-0.9784393310546875,-0.1533660888671875,0.086456298828125
1782846036291862800,1.70086279296875,-0.97613525390625,-0.1522369384765625,0.082366943359375
1782846036301867800,1.71086767578125,-0.9748992919921875,-0.1539459228515625,0.0853729248046875
1782846036311872800,1.720872802734375,-0.97027587890625,-0.1566314697265625,0.0845947265625
1782846036321878800,1.730878662109375,-0.970947265625,-0.1572113037109375,0.081939697265625
1782846036331883500,1.740883544921875,-0.974517822265625,-0.15692138671875,0.08050537109375
1782846036341888500,1.750888427734375,-0.9812774658203125,-0.15692138671875,0.0831146240234375
1782846036351893500,1.7608935546875,-0.9839630126953125,-0.1580352783203125,0.083160400390625
1782846036361899300,1.770899169921875,-0.9820404052734375,-0.1566619873046875,0.08404541015625
1782846036371904300,1.780904296875,-0.979736328125,-0.157623291015625,0.0811767578125
1782846036381909200,1.7909091796875,-0.9747467041015625,-0.1574554443359375,0.0769195556640625
1782846036391914500,1.80091455078125,-0.9723052978515625,-0.157623291015625,0.0780792236328125
1782846036401920500,1.81092041015625,-0.971954345703125,-0.156158447265625,0.078765869140625
1782846036411925500,1.820925537109375,-0.9745941162109375,-0.15625,0.0749359130859375
1782846036421930500,1.830930419921875,-0.9751739501953125,-0.1553955078125,0.0735931396484375
1782846036431935500,1.840935546875,-0.976104736328125,-0.154052734375,0.0765228271484375
1782846036441941500,1.85094140625,-0.9767913818359375,-0.1553192138671875,0.0801239013671875
1782846036451946500,1.860946533203125,-0.9764556884765625,-0.1562042236328125,0.0803680419921875
1782846036461951500,1.870951416015625,-0.9754638671875,-0.157562255859375,0.0818328857421875
1782846036471956500,1.88095654296875,-0.974365234375,-0.160369873046875,0.082611083984375
1782846036481962500,1.89096240234375,-0.973541259765625,-0.157867431640625,0.0821075439453125
1782846036491967500,1.900967529296875,-0.9730224609375,-0.156768798828125,0.080291748046875
1782846036501972500,1.910972412109375,-0.9765777587890625,-0.1561737060546875,0.0833892822265625
1782846036511977500,1.9209775390625,-0.981201171875,-0.1556243896484375,0.0829620361328125
1782846036521983500,1.9309833984375,-0.980926513671875,-0.1566925048828125,0.081207275390625
1782846036531988500,1.940988525390625,-0.981231689453125,-0.1570587158203125,0.0824127197265625
1782846036541993500,1.950993408203125,-0.9793701171875,-0.1566162109375,0.08465576171875
1782846036551998500,1.96099853515625,-0.976531982421875,-0.1545867919921875,0.0848236083984375
1782846036562004500,1.97100439453125,-0.9736175537109375,-0.156036376953125,0.08428955078125
1782846036572009500,1.981009521484375,-0.9718017578125,-0.1562042236328125,0.0830535888671875
1782846036582014500,1.991014404296875,-0.970703125,-0.15435791015625,0.0825042724609375
1782846036592019500,2.00101953125,-0.9737396240234375,-0.156341552734375,0.0783843994140625
1782846036602025500,2.011025390625,-0.97503662109375,-0.158721923828125,0.0809783935546875
1782846036612030500,2.021030517578125,-0.9741973876953125,-0.158447265625,0.0796966552734375
1782846036622035500,2.031035400390625,-0.976531982421875,-0.1582794189453125,0.07940673828125
1782846036632041500,2.04104150390625,-0.9760894775390625,-0.1601104736328125,0.0792083740234375
1782846036642046500,2.05104638671875,-0.972808837890625,-0.15936279296875,0.0791473388671875
1782846036652051500,2.061051513671875,-0.9727783203125,-0.1578521728515625,0.08050537109375
1782846036662056400,2.071056396484375,-0.974884033203125,-0.1564788818359375,0.08221435546875
1782846036672062500,2.0810625,-0.9788970947265625,-0.1555938720703125,0.0843048095703125
1782846036682067500,2.0910673828125,-0.97857666015625,-0.154052734375,0.0845794677734375
1782846036692072400,2.101072509765625,-0.9748382568359375,-0.1549072265625,0.085540771484375
1782846036702077400,2.111077392578125,-0.97052001953125,-0.15411376953125,0.085845947265625
1782846036712083500,2.12108349609375,-0.97161865234375,-0.15447998046875,0.0849151611328125
1782846036722088400,2.13108837890625,-0.9666595458984375,-0.1551055908203125,0.084625244140625
1782846036732093700,2.14109375,-0.9667205810546875,-0.153106689453125,0.086456298828125
1782846036742098700,2.1510986328125,-0.97088623046875,-0.1536102294921875,0.0841827392578125
1782846036752104400,2.1611044921875,-0.973663330078125,-0.1549072265625,0.082611083984375
1782846036762109400,2.171109375,-0.976715087890625,-0.1578216552734375,0.0848846435546875
1782846036772114400,2.181114501953125,-0.978302001953125,-0.155731201171875,0.0851898193359375
1782846036782119400,2.191119384765625,-0.979156494140625,-0.1544342041015625,0.083740234375
1782846036792125400,2.20112548828125,-0.974456787109375,-0.15625,0.0831298828125
1782846036802130400,2.21113037109375,-0.9704742431640625,-0.1566314697265625,0.0831146240234375
1782846036812135400,2.221135498046875,-0.9694976806640625,-0.1535797119140625,0.083160400390625
1782846036822140400,2.231140380859375,-0.968170166015625,-0.154022216796875,0.0849761962890625
1782846036832146400,2.241146484375,-0.968597412109375,-0.155242919921875,0.0836334228515625
1782846036842151400,2.2511513671875,-0.97186279296875,-0.1518707275390625,0.0902862548828125
1782846036852156400,2.261156494140625,-0.9768524169921875,-0.1495361328125,0.0904083251953125
1782846036862161400,2.271161376953125,-0.98345947265625,-0.1501007080078125,0.093109130859375
1782846036872167700,2.281167724609375,-0.9884033203125,-0.1490020751953125,0.0938873291015625
1782846036882172700,2.291172607421875,-0.987762451171875,-0.150238037109375,0.0909271240234375
1782846036892177700,2.301177734375,-0.9835968017578125,-0.1547393798828125,0.093048095703125
1782846036902182700,2.3111826171875,-0.977325439453125,-0.155426025390625,0.095550537109375
1782846036912188400,2.3211884765625,-0.9722442626953125,-0.1555023193359375,0.0910491943359375
1782846036922193400,2.331193359375,-0.9691314697265625,-0.1557159423828125,0.087677001953125
1782846036932198400,2.341198486328125,-0.96295166015625,-0.153289794921875,0.0883941650390625
1782846036942203600,2.35120361328125,-0.9628448486328125,-0.15374755859375,0.087554931640625
1782846036952209400,2.36120947265625,-0.9641571044921875,-0.1536712646484375,0.086151123046875
1782846036962214400,2.37121435546875,-0.9711456298828125,-0.155792236328125,0.0863800048828125
1782846036972219400,2.381219482421875,-0.98077392578125,-0.155181884765625,0.0870361328125
1782846036982225400,2.391225341796875,-0.9893951416015625,-0.1556396484375,0.08856201171875
1782846036992230400,2.40123046875,-0.9918670654296875,-0.1551666259765625,0.0872802734375
1782846037002235400,2.4112353515625,-0.991302490234375,-0.1546783447265625,0.090179443359375
1782846037012240400,2.421240478515625,-0.9833526611328125,-0.154266357421875,0.0905303955078125
1782846037022246700,2.43124658203125,-0.973541259765625,-0.1540985107421875,0.0873260498046875
1782846037032251600,2.441251708984375,-0.9647216796875,-0.1545867919921875,0.0899658203125
1782846037042256600,2.451256591796875,-0.9600067138671875,-0.1557769775390625,0.0885009765625
1782846037052261600,2.46126171875,-0.9626617431640625,-0.156158447265625,0.0878448486328125
1782846037062267600,2.471267578125,-0.968475341796875,-0.1551055908203125,0.090667724609375
1782846037072272600,2.481272705078125,-0.97613525390625,-0.1565093994140625,0.0921783447265625
1782846037082277600,2.491277587890625,-0.983123779296875,-0.1548004150390625,0.090911865234375
1782846037092282600,2.50128271484375,-0.990264892578125,-0.15380859375,0.0885009765625
1782846037102288400,2.511288330078125,-0.9938201904296875,-0.1539306640625,0.0909881591796875
1782846037112293400,2.52129345703125,-0.990081787109375,-0.1547698974609375,0.0914459228515625
1782846037122298400,2.53129833984375,-0.9825592041015625,-0.154022216796875,0.090087890625
1782846037132303400,2.541303466796875,-0.9734039306640625,-0.1543121337890625,0.0901947021484375
1782846037142309400,2.551309326171875,-0.9655303955078125,-0.15594482421875,0.090789794921875
1782846037152314400,2.561314453125,-0.9546356201171875,-0.1582183837890625,0.09051513671875
1782846037162319400,2.5713193359375,-0.951690673828125,-0.157135009765625,0.091033935546875
1782846037172324400,2.581324462890625,-0.95672607421875,-0.1587371826171875,0.088836669921875
1782846037182330400,2.591330322265625,-0.9647979736328125,-0.15625,0.0870361328125
1782846037192335600,2.601335693359375,-0.972503662109375,-0.1567535400390625,0.0886383056640625
1782846037202340600,2.611340576171875,-0.9824371337890625,-0.1591796875,0.0885162353515625
1782846037212345600,2.621345703125,-0.992889404296875,-0.157135009765625,0.0864715576171875
1782846037222351600,2.6313515625,-0.995849609375,-0.1556549072265625,0.089019775390625
1782846037232356600,2.641356689453125,-0.9928436279296875,-0.15692138671875,0.089569091796875
1782846037242361600,2.651361572265625,-0.986175537109375,-0.158416748046875,0.086517333984375
1782846037252366600,2.66136669921875,-0.97698974609375,-0.1594696044921875,0.086273193359375
1782846037262372600,2.67137255859375,-0.969451904296875,-0.1591644287109375,0.084625244140625
1782846037272377600,2.681377685546875,-0.9648284912109375,-0.1578521728515625,0.08673095703125
1782846037282382600,2.691382568359375,-0.963653564453125,-0.157318115234375,0.088409423828125
1782846037292387600,2.7013876953125,-0.966796875,-0.157806396484375,0.0881195068359375
1782846037302393300,2.711393310546875,-0.973358154296875,-0.156829833984375,0.087860107421875
1782846037312398300,2.7213984375,-0.9768218994140625,-0.1564788818359375,0.0904693603515625
1782846037322403300,2.7314033203125,-0.97900390625,-0.15753173828125,0.091522216796875
1782846037332408300,2.741408203125,-0.975677490234375,-0.1588287353515625,0.0912933349609375
1782846037342414300,2.751414306640625,-0.969757080078125,-0.16015625,0.0890960693359375
1782846037352419300,2.76141943359375,-0.9642333984375,-0.1596527099609375,0.08709716796875
1782846037362424300,2.77142431640625,-0.96466064453125,-0.159637451171875,0.085205078125
1782846037372430600,2.7814306640625,-0.96832275390625,-0.158843994140625,0.08380126953125
1782846037382435600,2.791435546875,-0.97149658203125,-0.1597442626953125,0.0828704833984375
1782846037392440600,2.801440673828125,-0.9738006591796875,-0.1613311767578125,0.082275390625
1782846037402445600,2.811445556640625,-0.97662353515625,-0.16033935546875,0.08251953125
1782846037412451600,2.82145166015625,-0.978759765625,-0.156585693359375,0.0818023681640625
1782846037422456600,2.83145654296875,-0.977264404296875,-0.1563873291015625,0.080596923828125
1782846037432461600,2.841461669921875,-0.9810638427734375,-0.157958984375,0.082733154296875
1782846037442466600,2.851466552734375,-0.980926513671875,-0.15814208984375,0.0852508544921875
1782846037452472600,2.86147265625,-0.9740447998046875,-0.1579437255859375,0.086883544921875
1782846037462477600,2.8714775390625,-0.968109130859375,-0.1578369140625,0.08612060546875
1782846037472482600,2.881482666015625,-0.962890625,-0.1611328125,0.08697509765625
1782846037482487600,2.891487548828125,-0.9623870849609375,-0.1616363525390625,0.0878448486328125
1782846037492493300,2.901493408203125,-0.966461181640625,-0.1605987548828125,0.08685302734375
1782846037502498300,2.911498291015625,-0.97259521484375,-0.1602783203125,0.08612060546875
1782846037512503300,2.92150341796875,-0.9808807373046875,-0.159149169921875,0.08758544921875
1782846037522508300,2.93150830078125,-0.9913177490234375,-0.160400390625,0.08642578125
1782846037532514300,2.941514404296875,-0.99176025390625,-0.158966064453125,0.0836639404296875
1782846037542519300,2.951519287109375,-0.987579345703125,-0.1585540771484375,0.083587646484375
1782846037552524300,2.961524169921875,-0.979827880859375,-0.1594085693359375,0.0870513916015625
1782846037562529500,2.971529541015625,-0.9746856689453125,-0.158660888671875,0.0893402099609375
1782846037572535600,2.98153564453125,-0.9657440185546875,-0.1599273681640625,0.0865325927734375
1782846037582540500,2.99154052734375,-0.9607696533203125,-0.1619415283203125,0.09039306640625
1782846037592545500,3.001545654296875,-0.9616546630859375,-0.159393310546875,0.0907745361328125
1782846037602550500,3.011550537109375,-0.96649169921875,-0.1586151123046875,0.0890045166015625
1782846037612556500,3.021556640625,-0.9697113037109375,-0.157440185546875,0.088287353515625
1782846037622561500,3.0315615234375,-0.972991943359375,-0.1555328369140625,0.0908203125
1782846037632566500,3.04156640625,-0.9746551513671875,-0.15625,0.0899200439453125
1782846037642571500,3.051571533203125,-0.9743194580078125,-0.159088134765625,0.0905609130859375
1782846037652577300,3.061577392578125,-0.974761962890625,-0.160675048828125,0.0925445556640625
1782846037662582300,3.071582275390625,-0.972320556640625,-0.1602630615234375,0.093292236328125
1782846037672587500,3.08158740234375,-0.97723388671875,-0.158660888671875,0.0898590087890625
1782846037682592500,3.091592529296875,-0.9777069091796875,-0.15924072265625,0.0890350341796875
1782846037692598300,3.101598388671875,-0.9770965576171875,-0.1565704345703125,0.0892181396484375
1782846037702603300,3.111603271484375,-0.9818115234375,-0.157989501953125,0.089599609375
1782846037712608300,3.121608154296875,-0.985321044921875,-0.154388427734375,0.087890625
1782846037722613200,3.13161328125,-0.982666015625,-0.153045654296875,0.0868988037109375
1782846037732619500,3.14161962890625,-0.977142333984375,-0.153289794921875,0.0857391357421875
1782846037742624500,3.15162451171875,-0.9696044921875,-0.15655517578125,0.0858612060546875
1782846037752629500,3.16162939453125,-0.9608612060546875,-0.1583099365234375,0.0853424072265625
1782846037762635500,3.171635498046875,-0.95965576171875,-0.1594390869140625,0.0851898193359375
1782846037772640500,3.181640625,-0.9600372314453125,-0.1621246337890625,0.08685302734375
1782846037782645500,3.1916455078125,-0.9664154052734375,-0.161712646484375,0.087432861328125
1782846037792650500,3.201650390625,-0.9743804931640625,-0.1617431640625,0.0885162353515625
1782846037802656500,3.211656494140625,-0.9854888916015625,-0.1614837646484375,0.09228515625
1782846037812661500,3.22166162109375,-0.99127197265625,-0.1612396240234375,0.095947265625
1782846037822666500,3.23166650390625,-0.993896484375,-0.1600494384765625,0.0952911376953125
1782846037832671500,3.24167138671875,-0.9922637939453125,-0.1588134765625,0.091644287109375
1782846037842677200,3.25167724609375,-0.9842681884765625,-0.1577301025390625,0.0893707275390625
1782846037852682200,3.26168212890625,-0.976409912109375,-0.159423828125,0.0891571044921875
1782846037862687200,3.271687255859375,-0.968505859375,-0.159637451171875,0.088104248046875
1782846037872692200,3.281692138671875,-0.95880126953125,-0.1592559814453125,0.084747314453125
1782846037882698500,3.291698486328125,-0.949310302734375,-0.1595916748046875,0.0808563232421875
1782846037892703500,3.301703369140625,-0.9464874267578125,-0.1599884033203125,0.0816192626953125
1782846037902708500,3.31170849609375,-0.951751708984375,-0.160614013671875,0.0897064208984375
1782846037912713500,3.32171337890625,-0.9619293212890625,-0.162872314453125,0.0916900634765625
1782846037922719500,3.331719482421875,-0.9755859375,-0.1641693115234375,0.094024658203125
1782846037932724500,3.341724365234375,-0.986175537109375,-0.1645965576171875,0.0934906005859375
1782846037942729500,3.3517294921875,-0.9965057373046875,-0.163055419921875,0.091033935546875
1782846037952734500,3.361734375,-1.001800537109375,-0.1610565185546875,0.086761474609375
1782846037962740500,3.371740478515625,-0.9972686767578125,-0.1626739501953125,0.082489013671875
1782846037972745500,3.381745361328125,-0.9852447509765625,-0.1637420654296875,0.079071044921875
1782846037982750500,3.39175048828125,-0.969970703125,-0.1631011962890625,0.0766754150390625
1782846037992755500,3.40175537109375,-0.957916259765625,-0.166015625,0.0757293701171875
1782846038002761500,3.411761474609375,-0.9519805908203125,-0.164459228515625,0.076934814453125
1782846038012766500,3.421766357421875,-0.9525299072265625,-0.1640167236328125,0.0773162841796875
1782846038022771500,3.431771484375,-0.9612579345703125,-0.1639251708984375,0.08197021484375
1782846038032776400,3.4417763671875,-0.977935791015625,-0.1645965576171875,0.0841522216796875
1782846038042782500,3.451782470703125,-0.9930419921875,-0.163421630859375,0.082305908203125
1782846038052787500,3.461787353515625,-1.000274658203125,-0.1605224609375,0.079498291015625
1782846038062792400,3.47179248046875,-0.994842529296875,-0.1609039306640625,0.0789794921875
1782846038072797400,3.48179736328125,-0.9857025146484375,-0.163604736328125,0.0815582275390625
1782846038082803500,3.491803466796875,-0.9732666015625,-0.1631622314453125,0.083099365234375
1782846038092808400,3.501808349609375,-0.9598846435546875,-0.1628265380859375,0.0852203369140625
1782846038102813400,3.5118134765625,-0.952362060546875,-0.1625518798828125,0.0860748291015625
1782846038112818400,3.521818359375,-0.95184326171875,-0.161834716796875,0.0873565673828125
1782846038122824400,3.531824462890625,-0.960968017578125,-0.1605987548828125,0.0862884521484375
1782846038132829400,3.541829345703125,-0.973968505859375,-0.15875244140625,0.0873565673828125
1782846038142834400,3.55183447265625,-0.9855194091796875,-0.1573333740234375,0.089385986328125
1782846038152839400,3.56183935546875,-0.9945068359375,-0.15704345703125,0.0913543701171875
1782846038162845400,3.571845458984375,-0.99176025390625,-0.1580047607421875,0.0901641845703125
1782846038172850400,3.581850341796875,-0.9895477294921875,-0.1597442626953125,0.089691162109375
1782846038182855400,3.59185546875,-0.9829559326171875,-0.1601104736328125,0.0853729248046875
1782846038192860400,3.6018603515625,-0.9715576171875,-0.1601409912109375,0.082244873046875
1782846038202866400,3.611866455078125,-0.957916259765625,-0.16064453125,0.079681396484375
1782846038212871400,3.621871337890625,-0.946197509765625,-0.1608428955078125,0.0756988525390625
1782846038222876700,3.631876708984375,-0.9442901611328125,-0.1608734130859375,0.074493408203125
1782846038232881700,3.641881591796875,-0.9429779052734375,-0.1618499755859375,0.07525634765625
1782846038242887400,3.651887451171875,-0.9535675048828125,-0.158538818359375,0.076507568359375
1782846038252892400,3.661892333984375,-0.9648895263671875,-0.1596221923828125,0.082489013671875
1782846038262897400,3.6718974609375,-0.97711181640625,-0.1605682373046875,0.0836334228515625
1782846038272902400,3.68190234375,-0.9895782470703125,-0.1599578857421875,0.08599853515625
1782846038282908400,3.691908447265625,-0.99530029296875,-0.1611785888671875,0.0890960693359375
1782846038292913400,3.701913330078125,-0.991973876953125,-0.1609649658203125,0.090362548828125
1782846038302918400,3.71191845703125,-0.9864959716796875,-0.1628570556640625,0.0883331298828125
1782846038312923400,3.72192333984375,-0.9818572998046875,-0.161773681640625,0.0829620361328125
1782846038322929400,3.731929443359375,-0.978118896484375,-0.1611328125,0.081268310546875
1782846038332934400,3.741934326171875,-0.9775238037109375,-0.157745361328125,0.0817413330078125
1782846038342939400,3.751939453125,-0.97784423828125,-0.156890869140625,0.08160400390625
1782846038352944400,3.7619443359375,-0.97760009765625,-0.1575469970703125,0.08148193359375
1782846038362950400,3.771950439453125,-0.979400634765625,-0.1578216552734375,0.080322265625
1782846038372955400,3.781955322265625,-0.98211669921875,-0.1571807861328125,0.08001708984375
1782846038382960400,3.79196044921875,-0.980560302734375,-0.1578826904296875,0.0811614990234375
1782846038392965400,3.80196533203125,-0.97711181640625,-0.1598358154296875,0.0827484130859375
1782846038402971400,3.811971435546875,-0.973236083984375,-0.159759521484375,0.079071044921875
1782846038412976400,3.821976318359375,-0.971160888671875,-0.15997314453125,0.0770721435546875
1782846038422981400,3.8319814453125,-0.9677734375,-0.16253662109375,0.0802154541015625
1782846038432986400,3.841986328125,-0.9640655517578125,-0.161712646484375,0.0796356201171875
1782846038442992400,3.851992431640625,-0.964324951171875,-0.159759521484375,0.078369140625
1782846038452997400,3.861997314453125,-0.9601287841796875,-0.1590118408203125,0.077850341796875
1782846038463002400,3.87200244140625,-0.962890625,-0.15850830078125,0.0809326171875
1782846038473007400,3.88200732421875,-0.9682464599609375,-0.1576690673828125,0.080718994140625
1782846038483013400,3.892013427734375,-0.973846435546875,-0.15496826171875,0.0801239013671875
1782846038493018400,3.902018310546875,-0.97637939453125,-0.155609130859375,0.0828094482421875
1782846038503023400,3.9120234375,-0.9775238037109375,-0.1529388427734375,0.0883026123046875
1782846038513028400,3.9220283203125,-0.9743194580078125,-0.155548095703125,0.0879364013671875
1782846038523034400,3.932034423828125,-0.9716644287109375,-0.1580657958984375,0.0868988037109375
1782846038533039400,3.942039306640625,-0.9736785888671875,-0.159423828125,0.088470458984375
1782846038543044400,3.95204443359375,-0.977691650390625,-0.160369873046875,0.0877838134765625
1782846038553049300,3.96204931640625,-0.98162841796875,-0.16046142578125,0.0844879150390625
1782846038563055400,3.972055419921875,-0.9850006103515625,-0.1622161865234375,0.0829620361328125
1782846038573060400,3.982060302734375,-0.993896484375,-0.1616668701171875,0.0821075439453125
1782846038583065300,3.9920654296875,-0.9979248046875,-0.161102294921875,0.07928466796875
1782846038593070300,4.0020703125,-0.993682861328125,-0.1585845947265625,0.078948974609375
1782846038603076400,4.012076416015625,-0.9876251220703125,-0.158172607421875,0.079315185546875
1782846038613081300,4.022081298828125,-0.9805755615234375,-0.1593780517578125,0.0784912109375
1782846038623086300,4.03208642578125,-0.97344970703125,-0.1605987548828125,0.0789031982421875
1782846038633091300,4.04209130859375,-0.962066650390625,-0.158111572265625,0.0775909423828125
1782846038643097300,4.052097412109375,-0.9532470703125,-0.1576690673828125,0.0811767578125
1782846038653102300,4.062102294921875,-0.954315185546875,-0.1575775146484375,0.082427978515625
1782846038663107300,4.072107421875,-0.960723876953125,-0.15484619140625,0.08538818359375
1782846038673112300,4.0821123046875,-0.97021484375,-0.15411376953125,0.0905609130859375
1782846038683118300,4.092118408203125,-0.9744110107421875,-0.156707763671875,0.0892333984375
1782846038693123300,4.102123291015625,-0.9761505126953125,-0.1549530029296875,0.087371826171875
1782846038703128300,4.11212841796875,-0.979278564453125,-0.1556243896484375,0.0864105224609375
1782846038713133300,4.12213330078125,-0.9799652099609375,-0.1546173095703125,0.0865020751953125
1782846038723139300,4.132139404296875,-0.9769134521484375,-0.1562957763671875,0.0851287841796875
1782846038733144300,4.142144287109375,-0.9697113037109375,-0.1593170166015625,0.0862884521484375
1782846038743149300,4.1521494140625,-0.9651641845703125,-0.1584014892578125,0.0862884521484375
1782846038753154300,4.162154296875,-0.96722412109375,-0.158355712890625,0.086639404296875
1782846038763160600,4.17216064453125,-0.9702301025390625,-0.1574554443359375,0.08953857421875
1782846038773165600,4.18216552734375,-0.9770660400390625,-0.1584625244140625,0.085662841796875
1782846038783170600,4.192170654296875,-0.987335205078125,-0.1585540771484375,0.0850982666015625
1782846038793175600,4.202175537109375,-0.996612548828125,-0.15802001953125,0.086151123046875
1782846038803181300,4.212181396484375,-1.0001373291015625,-0.158111572265625,0.084075927734375
1782846038813186300,4.222186279296875,-0.996673583984375,-0.1577301025390625,0.0821075439453125
1782846038823191300,4.23219140625,-0.9898529052734375,-0.1583404541015625,0.0784912109375
1782846038833196300,4.2421962890625,-0.975311279296875,-0.16058349609375,0.0814361572265625
1782846038843202300,4.252202392578125,-0.964019775390625,-0.16168212890625,0.082489013671875
1782846038853207300,4.262207275390625,-0.957244873046875,-0.1627960205078125,0.0801239013671875
1782846038863212300,4.27221240234375,-0.95489501953125,-0.1624908447265625,0.08197021484375
1782846038873217300,4.28221728515625,-0.9566650390625,-0.1606597900390625,0.08367919921875
1782846038883223300,4.292223388671875,-0.9622955322265625,-0.1584625244140625,0.0842742919921875
1782846038893228300,4.302228271484375,-0.9700469970703125,-0.15386962890625,0.0849151611328125
1782846038903233300,4.3122333984375,-0.980682373046875,-0.1552581787109375,0.0843048095703125
1782846038913238300,4.32223828125,-0.9853668212890625,-0.155548095703125,0.08319091796875
1782846038923244500,4.33224462890625,-0.9865570068359375,-0.15350341796875,0.080841064453125
1782846038933249500,4.34224951171875,-0.986419677734375,-0.1554107666015625,0.08160400390625
1782846038943254500,4.352254638671875,-0.9842529296875,-0.1571807861328125,0.0829010009765625
1782846038953259500,4.362259521484375,-0.981536865234375,-0.1599884033203125,0.0796661376953125
1782846038963265500,4.372265625,-0.975830078125,-0.16131591796875,0.07720947265625
1782846038973270500,4.3822705078125,-0.971710205078125,-0.1619873046875,0.076812744140625
1782846038983275500,4.392275634765625,-0.9686126708984375,-0.160675048828125,0.07684326171875
1782846038993280500,4.402280517578125,-0.9676971435546875,-0.1598358154296875,0.0797576904296875
1782846039003286300,4.412286376953125,-0.9705810546875,-0.161895751953125,0.0814208984375
1782846039013291300,4.422291259765625,-0.974151611328125,-0.162689208984375,0.08453369140625
1782846039023296300,4.432296142578125,-0.9765167236328125,-0.1600189208984375,0.08184814453125
1782846039033301200,4.44230126953125,-0.973236083984375,-0.15966796875,0.0836181640625
1782846039043307300,4.452307373046875,-0.9720611572265625,-0.1623382568359375,0.08282470703125
1782846039053312300,4.462312255859375,-0.97161865234375,-0.1613006591796875,0.082244873046875
1782846039063317200,4.472317138671875,-0.966766357421875,-0.1609954833984375,0.082183837890625
1782846039073322200,4.482322265625,-0.964447021484375,-0.1609039306640625,0.0821685791015625
1782846039083328300,4.492328369140625,-0.9644775390625,-0.1595001220703125,0.0830841064453125
1782846039093333200,4.502333251953125,-0.967742919921875,-0.158050537109375,0.0833587646484375
1782846039103338500,4.51233837890625,-0.96942138671875,-0.15643310546875,0.0850982666015625
1782846039113343500,4.522343505859375,-0.9710693359375,-0.1573028564453125,0.0873870849609375
1782846039123349500,4.532349609375,-0.9744873046875,-0.156280517578125,0.0894927978515625
1782846039133354500,4.5423544921875,-0.9780731201171875,-0.1598052978515625,0.08935546875
1782846039143359500,4.552359375,-0.97552490234375,-0.1620941162109375,0.088165283203125
1782846039153364500,4.562364501953125,-0.9744415283203125,-0.1590576171875,0.08966064453125
1782846039163370500,4.57237060546875,-0.974822998046875,-0.1593170166015625,0.0878143310546875
1782846039173375500,4.58237548828125,-0.9710540771484375,-0.161590576171875,0.0863494873046875
1782846039183380500,4.59238037109375,-0.9662933349609375,-0.1591033935546875,0.0865325927734375
1782846039193385500,4.602385498046875,-0.965240478515625,-0.1580963134765625,0.0900115966796875
1782846039203391200,4.61239111328125,-0.9655303955078125,-0.1571502685546875,0.0921173095703125
1782846039213396200,4.622396240234375,-0.965850830078125,-0.1592864990234375,0.092315673828125
1782846039223401200,4.632401123046875,-0.9695892333984375,-0.1579437255859375,0.0938873291015625
1782846039233406200,4.64240625,-0.97686767578125,-0.1558837890625,0.0949554443359375
1782846039243412200,4.652412109375,-0.9821624755859375,-0.155059814453125,0.0904693603515625
1782846039253417200,4.662417236328125,-0.9871673583984375,-0.156158447265625,0.0875244140625
1782846039263422200,4.672422119140625,-0.98321533203125,-0.1571807861328125,0.0885162353515625
1782846039273427200,4.68242724609375,-0.9788360595703125,-0.1562042236328125,0.08740234375
1782846039283433500,4.69243359375,-0.97528076171875,-0.16009521484375,0.088226318359375
1782846039293438500,4.7024384765625,-0.9693145751953125,-0.16162109375,0.0876922607421875
1782846039303443500,4.712443359375,-0.9663848876953125,-0.1605072021484375,0.084625244140625
1782846039313448400,4.722448486328125,-0.9653167724609375,-0.16021728515625,0.0848846435546875
1782846039323454500,4.732454345703125,-0.9648590087890625,-0.1580047607421875,0.0823211669921875
1782846039333460000,4.7424599609375,-0.9718475341796875,-0.1556243896484375,0.0813751220703125
1782846039343465200,4.75246533203125,-0.9805908203125,-0.155975341796875,0.0818328857421875
1782846039353470200,4.76247021484375,-0.985076904296875,-0.1568145751953125,0.084869384765625
1782846039363476000,4.77247607421875,-0.985015869140625,-0.15618896484375,0.0880279541015625
1782846039373481000,4.78248095703125,-0.9863433837890625,-0.15716552734375,0.0865631103515625
1782846039383486000,4.79248583984375,-0.9867401123046875,-0.157318115234375,0.08709716796875
1782846039393491000,4.802490966796875,-0.990966796875,-0.158447265625,0.087890625
1782846039403497000,4.8124970703125,-0.9902191162109375,-0.1586456298828125,0.089691162109375
1782846039413502000,4.822501953125,-0.982269287109375,-0.1570892333984375,0.08819580078125
1782846039423507000,4.8325068359375,-0.9747161865234375,-0.15814208984375,0.0876007080078125
1782846039433512000,4.842511962890625,-0.9645233154296875,-0.157806396484375,0.08642578125
1782846039443518200,4.852518310546875,-0.9602203369140625,-0.15924072265625,0.0839996337890625
1782846039453523200,4.862523193359375,-0.9584197998046875,-0.1586456298828125,0.0826263427734375
1782846039463528200,4.872528076171875,-0.95977783203125,-0.1587066650390625,0.0818634033203125
1782846039473533200,4.882533203125,-0.9647674560546875,-0.1587677001953125,0.0807342529296875
1782846039483538200,4.8925380859375,-0.9713134765625,-0.156646728515625,0.08392333984375
1782846039493544200,4.902544189453125,-0.9788818359375,-0.155242919921875,0.0830535888671875
1782846039503549200,4.912549072265625,-0.9849853515625,-0.156585693359375,0.08349609375
1782846039513554200,4.92255419921875,-0.9863433837890625,-0.1595458984375,0.08538818359375
1782846039523559200,4.93255908203125,-0.9866943359375,-0.1591644287109375,0.083526611328125
1782846039533565000,4.94256494140625,-0.9878387451171875,-0.1591033935546875,0.083282470703125
1782846039543570000,4.95256982421875,-0.9835357666015625,-0.157684326171875,0.0810394287109375
1782846039553575000,4.962574951171875,-0.97412109375,-0.1560821533203125,0.0787200927734375
1782846039563580200,4.972580078125,-0.9715576171875,-0.1575164794921875,0.0778045654296875
1782846039573586000,4.9825859375,-0.9716644287109375,-0.1551361083984375,0.07977294921875
1782846039583591000,4.9925908203125,-0.9725341796875,-0.154754638671875,0.08111572265625
1782846039593596000,5.002595947265625,-0.9775390625,-0.1540679931640625,0.0822296142578125
1782846039603601000,5.012600830078125,-0.9832916259765625,-0.154541015625,0.0832366943359375
1782846039613607200,5.022607177734375,-0.9878082275390625,-0.155517578125,0.0839691162109375
1782846039623612200,5.032612060546875,-0.9852447509765625,-0.155426025390625,0.082916259765625
1782846039633617200,5.0426171875,-0.9823150634765625,-0.1564788818359375,0.078765869140625
1782846039643622100,5.0526220703125,-0.9765625,-0.1566619873046875,0.07855224609375
1782846039653628200,5.062628173828125,-0.9709625244140625,-0.15655517578125,0.08026123046875
1782846039663633200,5.072633056640625,-0.965118408203125,-0.1556396484375,0.080963134765625
1782846039673638100,5.08263818359375,-0.96075439453125,-0.1544189453125,0.08184814453125
1782846039683643100,5.09264306640625,-0.9600372314453125,-0.155853271484375,0.08416748046875
1782846039693649200,5.102649169921875,-0.9608154296875,-0.1561737060546875,0.0825653076171875
1782846039703654100,5.112654052734375,-0.964141845703125,-0.1558074951171875,0.08197021484375
1782846039713659100,5.1226591796875,-0.9730224609375,-0.156341552734375,0.0842132568359375
1782846039723664100,5.1326640625,-0.9801177978515625,-0.155670166015625,0.0853729248046875
1782846039733670000,5.142669921875,-0.9846038818359375,-0.154388427734375,0.0865478515625
1782846039743675000,5.1526748046875,-0.987457275390625,-0.15216064453125,0.0874786376953125
1782846039753680000,5.162679931640625,-0.9872894287109375,-0.15057373046875,0.09332275390625
1782846039763684900,5.172684814453125,-0.982086181640625,-0.1519317626953125,0.0918426513671875
1782846039773691100,5.182691162109375,-0.9748687744140625,-0.1542510986328125,0.0842132568359375
1782846039783696100,5.192696044921875,-0.968048095703125,-0.1534271240234375,0.0843505859375
1782846039793701000,5.202701171875,-0.964691162109375,-0.153350830078125,0.0827178955078125
1782846039803706000,5.2127060546875,-0.969573974609375,-0.15582275390625,0.0842742919921875
1782846039813711000,5.222711181640625,-0.9701995849609375,-0.158477783203125,0.08416748046875
1782846039823717000,5.232717041015625,-0.96856689453125,-0.160369873046875,0.0817413330078125
1782846039833722000,5.24272216796875,-0.9726409912109375,-0.1609954833984375,0.081390380859375
1782846039843727000,5.25272705078125,-0.9758148193359375,-0.1605224609375,0.08160400390625
1782846039853732000,5.262732177734375,-0.9766998291015625,-0.1587371826171875,0.08428955078125
1782846039863738000,5.272738037109375,-0.9758148193359375,-0.1600494384765625,0.0865936279296875
1782846039873743000,5.2827431640625,-0.9713592529296875,-0.1596832275390625,0.0848236083984375
1782846039883748000,5.292748046875,-0.970916748046875,-0.15972900390625,0.084716796875
1782846039893753000,5.302753173828125,-0.977325439453125,-0.157806396484375,0.083892822265625
1782846039903759000,5.312759033203125,-0.980621337890625,-0.157012939453125,0.084930419921875
1782846039913764000,5.32276416015625,-0.9849853515625,-0.1560211181640625,0.0833892822265625
1782846039923769000,5.33276904296875,-0.9835968017578125,-0.1559906005859375,0.0809478759765625
1782846039933774000,5.342774169921875,-0.980316162109375,-0.155426025390625,0.0815277099609375
1782846039943780000,5.352780029296875,-0.97845458984375,-0.1572265625,0.0856781005859375
1782846039953785000,5.36278515625,-0.974639892578125,-0.1583404541015625,0.088592529296875
1782846039963790000,5.3727900390625,-0.9724884033203125,-0.159942626953125,0.0884857177734375
1782846039973795000,5.382795166015625,-0.9724578857421875,-0.160980224609375,0.09088134765625
1782846039983801000,5.392801025390625,-0.9709320068359375,-0.1608123779296875,0.09112548828125
1782846039993806000,5.40280615234375,-0.971893310546875,-0.1605224609375,0.0937652587890625
1782846040003811000,5.41281103515625,-0.9719085693359375,-0.159820556640625,0.0925140380859375
1782846040013816000,5.422816162109375,-0.976470947265625,-0.1608428955078125,0.089324951171875
1782846040023822000,5.432822021484375,-0.9797210693359375,-0.1573638916015625,0.087799072265625
1782846040033827000,5.4428271484375,-0.98065185546875,-0.1560821533203125,0.086334228515625
1782846040043832000,5.45283203125,-0.979461669921875,-0.157745361328125,0.0844879150390625
1782846040053837000,5.462837158203125,-0.9767608642578125,-0.157318115234375,0.084197998046875
1782846040063843000,5.472843017578125,-0.9746246337890625,-0.1561737060546875,0.083526611328125
1782846040073848000,5.48284814453125,-0.96942138671875,-0.156951904296875,0.0847320556640625
1782846040083853000,5.49285302734375,-0.9639129638671875,-0.1580810546875,0.0856475830078125
1782846040093858000,5.502858154296875,-0.9623565673828125,-0.1574249267578125,0.0849456787109375
1782846040103864000,5.512864013671875,-0.965667724609375,-0.159027099609375,0.084197998046875
1782846040113869300,5.522869384765625,-0.9704437255859375,-0.156280517578125,0.0876617431640625
1782846040123874300,5.532874267578125,-0.977935791015625,-0.154052734375,0.08856201171875
1782846040133879300,5.54287939453125,-0.98443603515625,-0.154571533203125,0.0872344970703125
1782846040143884300,5.55288427734375,-0.9880218505859375,-0.15521240234375,0.08746337890625
1782846040153890000,5.56289013671875,-0.9922027587890625,-0.1575164794921875,0.089447021484375
1782846040163895000,5.57289501953125,-0.9882659912109375,-0.157318115234375,0.0910186767578125
1782846040173900000,5.582900146484375,-0.978546142578125,-0.15667724609375,0.090545654296875
1782846040183905000,5.592905029296875,-0.9659576416015625,-0.157745361328125,0.09295654296875
1782846040193911000,5.6029111328125,-0.9586334228515625,-0.1597900390625,0.0930328369140625
1782846040203916000,5.612916015625,-0.951080322265625,-0.157958984375,0.09356689453125
1782846040213921000,5.622921142578125,-0.950286865234375,-0.1569366455078125,0.090118408203125
1782846040223926000,5.632926025390625,-0.955810546875,-0.1578521728515625,0.08880615234375
1782846040233932000,5.64293212890625,-0.96600341796875,-0.15728759765625,0.08648681640625
1782846040243937000,5.65293701171875,-0.9763946533203125,-0.158935546875,0.087249755859375
1782846040253942000,5.66294189453125,-0.9835052490234375,-0.1617584228515625,0.0885467529296875
1782846040263947000,5.672947021484375,-0.98651123046875,-0.1610870361328125,0.088348388671875
1782846040273953000,5.682953125,-0.9861907958984375,-0.163818359375,0.0891876220703125
1782846040283958000,5.6929580078125,-0.9817962646484375,-0.163818359375,0.0895843505859375
1782846040293963000,5.702962890625,-0.9771881103515625,-0.1610260009765625,0.0867919921875
1782846040303968000,5.712968017578125,-0.9735107421875,-0.159576416015625,0.0872802734375
1782846040313974000,5.72297412109375,-0.9720916748046875,-0.158599853515625,0.0887298583984375
1782846040323979300,5.732979248046875,-0.9708099365234375,-0.1569366455078125,0.088958740234375
1782846040333984000,5.74298388671875,-0.97454833984375,-0.155029296875,0.089447021484375
1782846040343989000,5.752989013671875,-0.9736480712890625,-0.156036376953125,0.0896453857421875
1782846040353994000,5.762993896484375,-0.9738616943359375,-0.15850830078125,0.0919189453125
1782846040363999700,5.772999755859375,-0.9788818359375,-0.1570587158203125,0.0924224853515625
1782846040374004700,5.783004638671875,-0.9835052490234375,-0.158050537109375,0.0950775146484375
1782846040384009700,5.793009765625,-0.98382568359375,-0.1592254638671875,0.09228515625
1782846040394014700,5.8030146484375,-0.982086181640625,-0.15985107421875,0.092620849609375
1782846040404021000,5.81302099609375,-0.9787750244140625,-0.1607513427734375,0.092071533203125
1782846040414026000,5.82302587890625,-0.976226806640625,-0.162445068359375,0.0883941650390625
1782846040424031000,5.833031005859375,-0.973175048828125,-0.1628875732421875,0.085357666015625
1782846040434036000,5.843035888671875,-0.9738616943359375,-0.1628265380859375,0.0863037109375
1782846040444042000,5.8530419921875,-0.9713287353515625,-0.16339111328125,0.084991455078125
1782846040454047000,5.863046875,-0.96954345703125,-0.16168212890625,0.0821685791015625
1782846040464052000,5.873052001953125,-0.96881103515625,-0.161956787109375,0.0800933837890625
1782846040474057000,5.883056884765625,-0.9676971435546875,-0.160797119140625,0.0829620361328125
1782846040484063000,5.89306298828125,-0.9628753662109375,-0.16131591796875,0.084259033203125
1782846040494068000,5.90306787109375,-0.9586181640625,-0.1578369140625,0.085479736328125
1782846040504073000,5.913072998046875,-0.954376220703125,-0.1568756103515625,0.0861358642578125
1782846040514078000,5.923077880859375,-0.95196533203125,-0.156707763671875,0.08697509765625
1782846040524084000,5.933083984375,-0.95501708984375,-0.15380859375,0.0865478515625
1782846040534089000,5.9430888671875,-0.967987060546875,-0.1537933349609375,0.0882415771484375
1782846040544094000,5.953093994140625,-0.9839324951171875,-0.1529388427734375,0.0919952392578125
1782846040554099000,5.963098876953125,-0.99639892578125,-0.1544036865234375,0.095855712890625
1782846040564104000,5.97310400390625,-1.0023345947265625,-0.156005859375,0.0960845947265625
1782846040574110000,5.98310986328125,-1.0024871826171875,-0.156097412109375,0.098358154296875
1782846040584115000,5.993114990234375,-0.9955596923828125,-0.1566314697265625,0.1013031005859375
1782846040594120000,6.003119873046875,-0.98681640625,-0.157379150390625,0.1026153564453125
1782846040604125000,6.013125,-0.9762725830078125,-0.156890869140625,0.1000518798828125
1782846040614131000,6.023130859375,-0.9698028564453125,-0.1556243896484375,0.0961761474609375
1782846040624136000,6.033135986328125,-0.9671478271484375,-0.15374755859375,0.09503173828125
1782846040634141000,6.043140869140625,-0.9646148681640625,-0.1536102294921875,0.094696044921875
1782846040644146000,6.05314599609375,-0.965850830078125,-0.152374267578125,0.093505859375
1782846040654152000,6.06315185546875,-0.9680328369140625,-0.1525115966796875,0.0937042236328125
1782846040664157000,6.073156982421875,-0.971771240234375,-0.1544952392578125,0.0933990478515625
1782846040674162000,6.083161865234375,-0.9749298095703125,-0.156341552734375,0.0917510986328125
1782846040684167000,6.0931669921875,-0.9766845703125,-0.1580047607421875,0.0894775390625
1782846040694173000,6.1031728515625,-0.978363037109375,-0.1587982177734375,0.090423583984375
1782846040704178000,6.113177978515625,-0.9774169921875,-0.1586151123046875,0.09002685546875
1782846040714183000,6.123182861328125,-0.976470947265625,-0.1600189208984375,0.0901641845703125
1782846040724188000,6.13318798828125,-0.9714813232421875,-0.1588287353515625,0.089385986328125
1782846040734194000,6.14319384765625,-0.970489501953125,-0.1582183837890625,0.0919036865234375
1782846040744199000,6.153198974609375,-0.974700927734375,-0.1582183837890625,0.0935821533203125
1782846040754204200,6.1632041015625,-0.97613525390625,-0.157562255859375,0.09619140625
1782846040764209200,6.173209228515625,-0.9724578857421875,-0.157623291015625,0.0941162109375
1782846040774214100,6.183214111328125,-0.968536376953125,-0.1566009521484375,0.0943603515625
1782846040784220000,6.193219970703125,-0.96630859375,-0.1568145751953125,0.0948638916015625
1782846040794225000,6.203224853515625,-0.968017578125,-0.156585693359375,0.0933380126953125
1782846040804230000,6.21322998046875,-0.97149658203125,-0.156463623046875,0.090362548828125
1782846040814235000,6.22323486328125,-0.972503662109375,-0.1561737060546875,0.089935302734375
1782846040824241000,6.233240966796875,-0.9729461669921875,-0.1566619873046875,0.089813232421875
1782846040834246000,6.243245849609375,-0.9766845703125,-0.1605377197265625,0.0899505615234375
1782846040844251000,6.2532509765625,-0.976165771484375,-0.158935546875,0.0922088623046875
1782846040854255900,6.263255859375,-0.979827880859375,-0.1590118408203125,0.0965423583984375
1782846040864262000,6.273261962890625,-0.9809417724609375,-0.159759521484375,0.0969085693359375
1782846040874267000,6.283266845703125,-0.9800262451171875,-0.158935546875,0.0977783203125
1782846040884271900,6.29327197265625,-0.9809722900390625,-0.15826416015625,0.0957794189453125
1782846040894276900,6.30327685546875,-0.9821319580078125,-0.1584930419921875,0.097076416015625
1782846040904283100,6.313283203125,-0.9792938232421875,-0.157867431640625,0.0969085693359375
1782846040914288000,6.3232880859375,-0.9754180908203125,-0.1573333740234375,0.1007537841796875
1782846040924293000,6.333293212890625,-0.974578857421875,-0.1561737060546875,0.1006622314453125
1782846040934298000,6.343298095703125,-0.969390869140625,-0.158050537109375,0.103240966796875
1782846040944303000,6.35330322265625,-0.9682769775390625,-0.159942626953125,0.10137939453125
1782846040954308900,6.363308837890625,-0.9684906005859375,-0.156707763671875,0.101531982421875
1782846040964313900,6.37331396484375,-0.96990966796875,-0.157470703125,0.100006103515625
1782846040974319000,6.383319091796875,-0.9689483642578125,-0.1579437255859375,0.0972900390625
1782846040984324000,6.393323974609375,-0.968719482421875,-0.156982421875,0.096771240234375
1782846040994329900,6.403329833984375,-0.968994140625,-0.159576416015625,0.092803955078125
1782846041004334800,6.4133349609375,-0.9677581787109375,-0.1597900390625,0.08984375
1782846041014339800,6.42333984375,-0.9676055908203125,-0.1605682373046875,0.08917236328125
1782846041024344800,6.4333447265625,-0.96856689453125,-0.161376953125,0.0894317626953125
1782846041034350800,6.443350830078125,-0.9733428955078125,-0.1612091064453125,0.088348388671875
1782846041044355800,6.45335595703125,-0.9767608642578125,-0.1611785888671875,0.0887603759765625
1782846041054360800,6.46336083984375,-0.980560302734375,-0.1629791259765625,0.0905609130859375
1782846041064365800,6.47336572265625,-0.9816436767578125,-0.1621551513671875,0.094207763671875
1782846041074370800,6.483370849609375,-0.9835968017578125,-0.1597900390625,0.09747314453125
1782846041084377000,6.493377197265625,-0.9834442138671875,-0.159942626953125,0.098236083984375
1782846041094382000,6.503382080078125,-0.9799041748046875,-0.1583099365234375,0.0982666015625
1782846041104387000,6.513386962890625,-0.97259521484375,-0.1593017578125,0.0949859619140625
1782846041114392000,6.52339208984375,-0.969085693359375,-0.15869140625,0.0946197509765625
1782846041124398000,6.533398193359375,-0.9669189453125,-0.1598968505859375,0.0934600830078125
1782846041134403000,6.543403076171875,-0.969024658203125,-0.1593017578125,0.09765625
1782846041144408000,6.553407958984375,-0.9734039306640625,-0.1581573486328125,0.0988922119140625
1782846041154413000,6.5634130859375,-0.97821044921875,-0.1590576171875,0.0995330810546875
1782846041164418800,6.573418701171875,-0.9766387939453125,-0.1576080322265625,0.1000823974609375
1782846041174423800,6.583423828125,-0.9703216552734375,-0.157806396484375,0.1000518798828125
1782846041184429000,6.593428955078125,-0.966705322265625,-0.1615753173828125,0.1009979248046875
1782846041194434000,6.60343408203125,-0.9667510986328125,-0.1622772216796875,0.0969696044921875
1782846041204439800,6.613439697265625,-0.96673583984375,-0.16107177734375,0.097442626953125
1782846041214444800,6.62344482421875,-0.96649169921875,-0.15948486328125,0.0964508056640625
1782846041224449800,6.63344970703125,-0.9727935791015625,-0.1585540771484375,0.0936279296875
1782846041234454800,6.643454833984375,-0.9790802001953125,-0.160247802734375,0.09368896484375
1782846041244459800,6.653459716796875,-0.982818603515625,-0.15960693359375,0.0972900390625
1782846041254466000,6.663466064453125,-0.9857330322265625,-0.16064453125,0.09619140625
1782846041264471000,6.673470947265625,-0.9837799072265625,-0.16015625,0.095733642578125
1782846041274476000,6.68347607421875,-0.9766845703125,-0.159271240234375,0.0970916748046875
1782846041284481000,6.69348095703125,-0.9694671630859375,-0.1585235595703125,0.095794677734375
1782846041294487000,6.703487060546875,-0.96392822265625,-0.15692138671875,0.095703125
1782846041304492000,6.713491943359375,-0.958221435546875,-0.1544036865234375,0.0957183837890625
1782846041314497000,6.7234970703125,-0.9537811279296875,-0.156341552734375,0.096527099609375
1782846041324502000,6.733501953125,-0.956939697265625,-0.158905029296875,0.0978240966796875
1782846041334508000,6.743508056640625,-0.9668731689453125,-0.1584320068359375,0.1007537841796875
1782846041344513000,6.753512939453125,-0.97882080078125,-0.1572418212890625,0.0996551513671875
1782846041354518000,6.76351806640625,-0.9849395751953125,-0.1580352783203125,0.1041107177734375
1782846041364523000,6.77352294921875,-0.9921875,-0.16156005859375,0.1063385009765625
1782846041374528000,6.783528076171875,-0.991668701171875,-0.1610260009765625,0.1039886474609375
1782846041384533800,6.79353369140625,-0.9849853515625,-0.161163330078125,0.0999603271484375
1782846041394538800,6.803538818359375,-0.9752197265625,-0.1618194580078125,0.099884033203125
1782846041404544000,6.8135439453125,-0.9631195068359375,-0.162933349609375,0.0959320068359375
1782846041414549000,6.823549072265625,-0.9556884765625,-0.1634674072265625,0.0924072265625
1782846041424555000,6.833554931640625,-0.9510040283203125,-0.1612701416015625,0.09075927734375
1782846041434560000,6.84356005859375,-0.950103759765625,-0.1629638671875,0.09033203125
1782846041444565000,6.85356494140625,-0.9532012939453125,-0.1617584228515625,0.089630126953125
1782846041454570000,6.863570068359375,-0.96405029296875,-0.1597900390625,0.0904541015625
1782846041464576000,6.873575927734375,-0.9727020263671875,-0.1586761474609375,0.0914764404296875
1782846041474581000,6.8835810546875,-0.9794921875,-0.1591796875,0.096771240234375
1782846041484586000,6.8935859375,-0.989593505859375,-0.1587371826171875,0.0987701416015625
1782846041494591000,6.903591064453125,-0.99493408203125,-0.1592864990234375,0.099395751953125
1782846041504596000,6.913595947265625,-0.9946746826171875,-0.15814208984375,0.09814453125
1782846041514602000,6.92360205078125,-0.9904022216796875,-0.1584014892578125,0.0985107421875
1782846041524607000,6.93360693359375,-0.9842376708984375,-0.1616973876953125,0.0973968505859375
1782846041534612000,6.943612060546875,-0.9750213623046875,-0.16119384765625,0.093719482421875
1782846041544617000,6.953616943359375,-0.96893310546875,-0.1624603271484375,0.0903778076171875
1782846041554623000,6.963623046875,-0.967529296875,-0.161468505859375,0.090911865234375
1782846041564628000,6.9736279296875,-0.9640655517578125,-0.15887451171875,0.0888671875
1782846041574633000,6.983633056640625,-0.9620819091796875,-0.1605987548828125,0.0887451171875
1782846041584638000,6.993637939453125,-0.9659576416015625,-0.15887451171875,0.0923919677734375
1782846041594643700,7.003643798828125,-0.96966552734375,-0.1580810546875,0.0936737060546875
1782846041604648700,7.013648681640625,-0.9774169921875,-0.159576416015625,0.0950775146484375
1782846041614654000,7.023654052734375,-0.98443603515625,-0.1592864990234375,0.094757080078125
1782846041624659000,7.033658935546875,-0.985443115234375,-0.1598052978515625,0.0919036865234375
1782846041634664000,7.043663818359375,-0.9857940673828125,-0.160308837890625,0.09112548828125
1782846041644670000,7.053669921875,-0.9843902587890625,-0.158447265625,0.0894317626953125
1782846041654675000,7.063675048828125,-0.9808807373046875,-0.1596832275390625,0.0910797119140625
1782846041664680000,7.073679931640625,-0.9730377197265625,-0.16046142578125,0.092803955078125
1782846041674685000,7.083684814453125,-0.961395263671875,-0.158111572265625,0.0926513671875
1782846041684691000,7.09369091796875,-0.958343505859375,-0.15899658203125,0.092864990234375
1782846041694696000,7.103696044921875,-0.96356201171875,-0.1586761474609375,0.0943603515625
1782846041704701000,7.113700927734375,-0.969207763671875,-0.158355712890625,0.0949249267578125
1782846041714706000,7.123705810546875,-0.975067138671875,-0.1608123779296875,0.0951080322265625
1782846041724712000,7.1337119140625,-0.9836578369140625,-0.158660888671875,0.094085693359375
1782846041734717000,7.143717041015625,-0.9875946044921875,-0.15826416015625,0.0959014892578125
1782846041744722000,7.153721923828125,-0.9869842529296875,-0.1564483642578125,0.093597412109375
1782846041754727000,7.163726806640625,-0.9834747314453125,-0.157318115234375,0.0925750732421875
1782846041764732000,7.17373193359375,-0.97509765625,-0.1587982177734375,0.0909423828125
1782846041774738000,7.183738037109375,-0.9670867919921875,-0.15948486328125,0.0918426513671875
1782846041784743000,7.193742919921875,-0.9655609130859375,-0.159027099609375,0.0930023193359375
1782846041794748000,7.203747802734375,-0.965240478515625,-0.15814208984375,0.0909423828125
1782846041804753200,7.213753173828125,-0.9647369384765625,-0.1591644287109375,0.09161376953125
1782846041814759000,7.223759033203125,-0.96234130859375,-0.158905029296875,0.09259033203125
1782846041824764000,7.233763916015625,-0.963653564453125,-0.1590118408203125,0.0933074951171875
1782846041834769000,7.243768798828125,-0.9716949462890625,-0.16143798828125,0.094573974609375
1782846041844774000,7.25377392578125,-0.978424072265625,-0.1616973876953125,0.0966033935546875
1782846041854780000,7.26377978515625,-0.9829864501953125,-0.159576416015625,0.093597412109375
1782846041864785000,7.273784912109375,-0.9883880615234375,-0.1583099365234375,0.0924835205078125
1782846041874790000,7.283789794921875,-0.988189697265625,-0.1601104736328125,0.0944671630859375
1782846041884795000,7.293794921875,-0.98480224609375,-0.1583404541015625,0.091339111328125
1782846041894800000,7.3037998046875,-0.9781036376953125,-0.1591796875,0.089019775390625
1782846041904806000,7.313805908203125,-0.9689788818359375,-0.1599578857421875,0.0872955322265625
1782846041914811000,7.323810791015625,-0.9637298583984375,-0.1607666015625,0.0882720947265625
1782846041924816000,7.33381591796875,-0.96051025390625,-0.1592864990234375,0.0877838134765625
1782846041934820900,7.34382080078125,-0.9608917236328125,-0.157379150390625,0.08892822265625
1782846041944827000,7.353826904296875,-0.9672698974609375,-0.1593017578125,0.0906982421875
1782846041954832000,7.363831787109375,-0.9758453369140625,-0.159912109375,0.09222412109375
1782846041964836900,7.3738369140625,-0.975250244140625,-0.1610107421875,0.091766357421875
1782846041974841900,7.383841796875,-0.9736785888671875,-0.1636962890625,0.0899810791015625
1782846041984846800,7.393846923828125,-0.9752044677734375,-0.16552734375,0.090179443359375
1782846041994853000,7.40385302734375,-0.9776763916015625,-0.1642913818359375,0.08929443359375
1782846042004858000,7.413858154296875,-0.9798583984375,-0.16375732421875,0.08905029296875
1782846042014863000,7.423863037109375,-0.9769134521484375,-0.1645050048828125,0.0919647216796875
1782846042024868000,7.4338681640625,-0.9728240966796875,-0.16290283203125,0.093292236328125
1782846042034873900,7.443873779296875,-0.969329833984375,-0.163970947265625,0.0949249267578125
1782846042044878800,7.45387890625,-0.9633026123046875,-0.16461181640625,0.0942535400390625
1782846042054883800,7.4638837890625,-0.9635772705078125,-0.1638946533203125,0.0931396484375
1782846042064888800,7.473888916015625,-0.96771240234375,-0.1648406982421875,0.0902557373046875
1782846042074894800,7.483894775390625,-0.9751129150390625,-0.1631317138671875,0.0910797119140625
1782846042084899800,7.49389990234375,-0.9790191650390625,-0.1617584228515625,0.088714599609375
1782846042094904800,7.50390478515625,-0.9817047119140625,-0.1596832275390625,0.08807373046875
1782846042104909800,7.513909912109375,-0.9884796142578125,-0.15985107421875,0.08843994140625
1782846042114914800,7.523914794921875,-0.9892120361328125,-0.1601715087890625,0.0896148681640625
1782846042124920800,7.5339208984375,-0.9845428466796875,-0.16204833984375,0.090972900390625
1782846042134925800,7.54392578125,-0.977264404296875,-0.166015625,0.09136962890625
1782846042144930800,7.553930908203125,-0.9678802490234375,-0.1646575927734375,0.093017578125
1782846042154935800,7.563935791015625,-0.96063232421875,-0.16864013671875,0.09381103515625
1782846042164942000,7.573942138671875,-0.955230712890625,-0.1687164306640625,0.0909271240234375
1782846042174947000,7.583947021484375,-0.9580535888671875,-0.165313720703125,0.092498779296875
1782846042184952000,7.5939521484375,-0.9611968994140625,-0.164306640625,0.0930328369140625
1782846042194957000,7.60395703125,-0.96728515625,-0.16485595703125,0.090423583984375
1782846042204963000,7.613963134765625,-0.9700469970703125,-0.1632843017578125,0.09014892578125
1782846042214968000,7.623968017578125,-0.9718780517578125,-0.1613311767578125,0.0914154052734375
1782846042224973000,7.63397314453125,-0.97705078125,-0.1613311767578125,0.0912933349609375
1782846042234978000,7.64397802734375,-0.98248291015625,-0.1610107421875,0.0904083251953125
1782846042244983000,7.653983154296875,-0.9878997802734375,-0.1624603271484375,0.09222412109375
1782846042254988800,7.66398876953125,-0.9872894287109375,-0.1613616943359375,0.0907135009765625
1782846042264993800,7.673993896484375,-0.980804443359375,-0.15924072265625,0.089508056640625
1782846042274998800,7.683998779296875,-0.97174072265625,-0.16021728515625,0.0878753662109375
1782846042285003800,7.694003662109375,-0.9648284912109375,-0.158782958984375,0.0890960693359375
1782846042295009800,7.704009765625,-0.9624176025390625,-0.159637451171875,0.089874267578125
1782846042305014800,7.714014892578125,-0.9632415771484375,-0.1616363525390625,0.0883331298828125
1782846042315019800,7.724019775390625,-0.96826171875,-0.16259765625,0.090545654296875
1782846042325024800,7.734024658203125,-0.97698974609375,-0.163421630859375,0.092864990234375
1782846042335030300,7.7440302734375,-0.9839019775390625,-0.1646575927734375,0.0949249267578125
1782846042345036300,7.754036376953125,-0.9831695556640625,-0.163818359375,0.0946044921875
1782846042355041300,7.764041259765625,-0.978485107421875,-0.1649932861328125,0.0943603515625
1782846042365046300,7.77404638671875,-0.974609375,-0.164703369140625,0.094757080078125
1782846042375051300,7.78405126953125,-0.9724273681640625,-0.1636810302734375,0.0935821533203125
1782846042385057300,7.794057373046875,-0.9706878662109375,-0.163482666015625,0.0890045166015625
1782846042395062300,7.804062255859375,-0.9639129638671875,-0.16424560546875,0.0887603759765625
1782846042405067300,7.8140673828125,-0.9593505859375,-0.1638336181640625,0.087799072265625
1782846042415072300,7.824072265625,-0.9595947265625,-0.1633758544921875,0.08648681640625
1782846042425077200,7.8340771484375,-0.96185302734375,-0.16265869140625,0.08612060546875
1782846042435083300,7.844083251953125,-0.963958740234375,-0.1614837646484375,0.0861663818359375
1782846042445088300,7.854088134765625,-0.9694366455078125,-0.1651611328125,0.088287353515625
1782846042455093200,7.86409326171875,-0.974456787109375,-0.1641693115234375,0.0880126953125
1782846042465098200,7.87409814453125,-0.9778594970703125,-0.1653900146484375,0.0860137939453125
1782846042475104300,7.884104248046875,-0.979644775390625,-0.1643829345703125,0.0875701904296875
1782846042485109200,7.894109130859375,-0.9817962646484375,-0.1602783203125,0.08966064453125
1782846042495114200,7.9041142578125,-0.9817962646484375,-0.1621551513671875,0.092681884765625
1782846042505119200,7.914119140625,-0.9827880859375,-0.1629638671875,0.09320068359375
1782846042515125200,7.924125244140625,-0.9836883544921875,-0.1613006591796875,0.0955963134765625
1782846042525130200,7.934130126953125,-0.9851531982421875,-0.1622467041015625,0.097930908203125
1782846042535135200,7.94413525390625,-0.9827423095703125,-0.164459228515625,0.0996246337890625
1782846042545140200,7.95414013671875,-0.9803619384765625,-0.1646728515625,0.0969696044921875
1782846042555145200,7.964145263671875,-0.974090576171875,-0.1663665771484375,0.0937347412109375
1782846042565151200,7.974151123046875,-0.967376708984375,-0.1664886474609375,0.0886688232421875
1782846042575156200,7.98415625,-0.963104248046875,-0.165130615234375,0.0865936279296875
1782846042585161200,7.9941611328125,-0.96136474609375,-0.16656494140625,0.08831787109375
1782846042595166200,8.004166259765626,-0.9617156982421875,-0.16497802734375,0.0897369384765625
1782846042605172200,8.014172119140625,-0.9655303955078125,-0.1631622314453125,0.0922088623046875
1782846042615177200,8.02417724609375,-0.970703125,-0.163665771484375,0.09619140625
1782846042625182200,8.03418212890625,-0.9785308837890625,-0.1615753173828125,0.09564208984375
1782846042635187200,8.044187255859375,-0.9847564697265625,-0.162506103515625,0.0949249267578125
1782846042645192200,8.054192138671874,-0.988189697265625,-0.1622772216796875,0.0950927734375
1782846042655198200,8.0641982421875,-0.9850616455078125,-0.1629486083984375,0.092010498046875
1782846042665203500,8.074203369140625,-0.9768829345703125,-0.1633148193359375,0.0875091552734375
1782846042675208400,8.08420849609375,-0.9709930419921875,-0.1628875732421875,0.0876312255859375
1782846042685213400,8.09421337890625,-0.9659881591796875,-0.16314697265625,0.0893402099609375
1782846042695219200,8.10421923828125,-0.9594573974609375,-0.162322998046875,0.0902252197265625
1782846042705224200,8.11422412109375,-0.9619903564453125,-0.1631317138671875,0.0906219482421875
1782846042715229200,8.124229248046875,-0.9689788818359375,-0.1632232666015625,0.0946044921875
1782846042725234200,8.134234130859374,-0.9761505126953125,-0.160430908203125,0.0967559814453125
1782846042735239200,8.1442392578125,-0.984039306640625,-0.1628570556640625,0.095123291015625
1782846042745245200,8.1542451171875,-0.98870849609375,-0.164337158203125,0.0971527099609375
1782846042755250200,8.164250244140625,-0.98736572265625,-0.1631927490234375,0.09857177734375
1782846042765255200,8.174255126953126,-0.98077392578125,-0.164306640625,0.0963134765625
1782846042775260200,8.18426025390625,-0.9728851318359375,-0.1633453369140625,0.092681884765625
1782846042785266200,8.19426611328125,-0.9661712646484375,-0.160186767578125,0.0918426513671875
1782846042795271200,8.204271240234375,-0.9627227783203125,-0.159393310546875,0.0901031494140625
1782846042805276200,8.214276123046876,-0.9596405029296875,-0.1614990234375,0.0880279541015625
1782846042815281200,8.22428125,-0.9622955322265625,-0.1620941162109375,0.091827392578125
1782846042825286100,8.2342861328125,-0.967529296875,-0.161163330078125,0.0951080322265625
1782846042835292400,8.24429248046875,-0.972900390625,-0.1609344482421875,0.0995330810546875
1782846042845297400,8.25429736328125,-0.9759368896484375,-0.1605987548828125,0.0997314453125
1782846042855302400,8.264302490234375,-0.97686767578125,-0.1589202880859375,0.1023406982421875
1782846042865307400,8.274307373046875,-0.97344970703125,-0.1588897705078125,0.10137939453125
1782846042875313400,8.2843134765625,-0.9691619873046875,-0.1593780517578125,0.09954833984375
1782846042885318400,8.294318359375,-0.9700775146484375,-0.160797119140625,0.098419189453125
1782846042895323400,8.304323486328125,-0.9706878662109375,-0.1628570556640625,0.09796142578125
1782846042905328400,8.314328369140625,-0.96875,-0.165374755859375,0.0980682373046875
1782846042915333400,8.32433349609375,-0.967620849609375,-0.1682281494140625,0.09503173828125
1782846042925339100,8.334339111328125,-0.9640350341796875,-0.16607666015625,0.0977325439453125
1782846042935344000,8.34434423828125,-0.9674072265625,-0.16290283203125,0.0974578857421875
1782846042945349000,8.35434912109375,-0.9747161865234375,-0.162628173828125,0.09600830078125
1782846042955354000,8.36435400390625,-0.9757537841796875,-0.1614837646484375,0.09869384765625
1782846042965360000,8.374360107421875,-0.9778900146484375,-0.1613922119140625,0.100616455078125
1782846042975365000,8.384365234375,-0.9815826416015625,-0.16058349609375,0.0993499755859375
1782846042985370000,8.3943701171875,-0.9809112548828125,-0.1603546142578125,0.0976104736328125
1782846042995375000,8.404375,-0.9766998291015625,-0.16009521484375,0.0989990234375
1782846043005380000,8.414380126953125,-0.96600341796875,-0.1609344482421875,0.0964202880859375
1782846043015386400,8.424386474609374,-0.96173095703125,-0.1648712158203125,0.094696044921875
1782846043025391400,8.434391357421875,-0.9612579345703125,-0.1645660400390625,0.0941925048828125
1782846043035396400,8.444396240234376,-0.9652557373046875,-0.163787841796875,0.095367431640625
1782846043045401300,8.4544013671875,-0.9667816162109375,-0.1644744873046875,0.0947418212890625
1782846043055407400,8.464407470703126,-0.96923828125,-0.1650543212890625,0.093841552734375
1782846043065412400,8.474412353515625,-0.97186279296875,-0.165252685546875,0.0941925048828125
1782846043075417300,8.484417236328126,-0.975799560546875,-0.16412353515625,0.094024658203125
1782846043085422300,8.49442236328125,-0.980194091796875,-0.1637420654296875,0.0997772216796875
1782846043095427300,8.50442724609375,-0.986846923828125,-0.1629486083984375,0.103668212890625
1782846043105433300,8.514433349609375,-0.9844207763671875,-0.1622467041015625,0.100372314453125
1782846043115438300,8.524438232421875,-0.9820709228515625,-0.1603851318359375,0.0982818603515625
1782846043125443300,8.534443359375,-0.97808837890625,-0.162078857421875,0.09954833984375
1782846043135448300,8.5444482421875,-0.96527099609375,-0.1655120849609375,0.09625244140625
1782846043145454000,8.5544541015625,-0.9633331298828125,-0.16485595703125,0.097412109375
1782846043155459000,8.564458984375,-0.971527099609375,-0.1674346923828125,0.0948638916015625
1782846043165464000,8.574464111328124,-0.9705047607421875,-0.167572021484375,0.09039306640625
1782846043175469000,8.584468994140625,-0.985107421875,-0.1729278564453125,0.078369140625
1782846043185474000,8.59447412109375,-0.9537811279296875,-0.160247802734375,0.0900421142578125
1782846043195480300,8.604480224609375,-1.0114288330078125,-0.1543426513671875,0.1089019775390625
1782846043205485300,8.6144853515625,-1.0047607421875,-0.1785736083984375,0.0832672119140625
1782846043215490300,8.624490234375,-0.988922119140625,-0.1806182861328125,0.097137451171875
1782846043225495300,8.634495361328124,-0.9908905029296875,-0.173248291015625,0.0923309326171875
1782846043235501300,8.644501220703125,-0.9812469482421875,-0.1611785888671875,0.0700225830078125
1782846043245506300,8.65450634765625,-0.9719085693359375,-0.1608734130859375,0.061065673828125
1782846043255511300,8.66451123046875,-0.961822509765625,-0.163604736328125,0.0691986083984375
1782846043265516300,8.674516357421876,-0.94134521484375,-0.1534881591796875,0.0835113525390625
