time,seconds_elapsed,z,y,x
1782846034656003800,0.06500390625,-0.029269738122820854,0.006465356331318617,0.014214888215065002
1782846034666008800,0.0750087890625,-0.027005784213542938,0.009720804169774055,0.013219664804637432
1782846034676013800,0.085013916015625,-0.028024177998304367,0.009008408524096012,0.007142331451177597
1782846034686018800,0.095018798828125,-0.022937806323170662,-0.0031257520895451307,0.007481618318706751
1782846034696024800,0.10502490234375,-0.02147519774734974,-0.010236125439405441,0.007538077421486378
1782846034706029800,0.11502978515625,-0.021441375836730003,-0.014511298388242722,0.007443268783390522
1782846034716034800,0.125034912109375,-0.023749005049467087,-0.01920405402779579,0.010926417075097561
1782846034726039800,0.135039794921875,-0.02581774815917015,-0.01744956336915493,0.009967146441340446
1782846034736045800,0.1450458984375,-0.026623088866472244,-0.009947173297405243,0.003213636577129364
1782846034746050800,0.15505078125,-0.026460636407136917,-0.0019033611752092838,0.000990695902146399
1782846034756055800,0.165055908203125,-0.02371651493012905,0.008680840022861958,-0.002406965009868145
1782846034766061800,0.175061767578125,-0.02088291198015213,0.008288289420306683,-0.006827545817941427
1782846034776066800,0.18506689453125,-0.02034575119614601,0.007227286696434021,-0.010735468938946724
1782846034786071800,0.19507177734375,-0.014027135446667671,0.0008410262526012957,-0.01113121397793293
1782846034796076800,0.205076904296875,-0.012960273772478104,-0.0021949773654341698,-0.010399910621345043
1782846034806082800,0.215082763671875,-0.008106661960482597,-0.008884837850928307,-0.009241967462003231
1782846034816087800,0.225087890625,-0.011305385269224644,-0.00878869742155075,-0.003031476167961955
1782846034826092800,0.2350927734375,-0.011380486190319061,-0.01056342851370573,0.002805107505992055
1782846034836097800,0.245097900390625,-0.017480457201600075,-0.007047256920486689,0.00395772373303771
1782846034846103800,0.255103759765625,-0.01534806378185749,-0.004313788376748562,0.010067547671496868
1782846034856108800,0.26510888671875,-0.016929980367422104,0.002487392397597432,0.0072928001172840595
1782846034866113800,0.27511376953125,-0.014387194998562336,0.004734567832201719,-0.00005352953667170368
1782846034876118800,0.285118896484375,-0.013787184841930866,0.0054424358531832695,-0.0073410035111010075
1782846034886124800,0.295124755859375,-0.009272061288356781,-0.0015355786308646202,-0.010717093013226986
1782846034896129800,0.3051298828125,-0.00532578956335783,0.006338323466479778,-0.015750734135508537
1782846034906134800,0.315134765625,-0.0016399745363742113,0.01441036444157362,-0.012552809901535511
1782846034916139800,0.325139892578125,0.0017001620726659894,0.023960992693901062,-0.009223326109349728
1782846034926145800,0.335145751953125,0.0031854070257395506,0.018865566700696945,0.004444282967597246
1782846034936150800,0.34515087890625,0.005774798337370157,0.016821058467030525,0.012093680910766125
1782846034946155800,0.35515576171875,0.0039012646302580833,0.012502741999924183,0.011681423522531986
1782846034956160800,0.365160888671875,0.0014602112350985408,0.011149057187139988,0.008141017518937588
1782846034966166800,0.375166748046875,-0.0022778017446398735,0.009336509741842747,0.0033968619536608458
1782846034976171800,0.385171875,-0.000251402409048751,0.003451456781476736,-0.002231196267530322
1782846034986176800,0.3951767578125,-0.002469815546646714,0.0003731088654603809,-0.009532518684864044
1782846034996181800,0.405181640625,-0.002228799508884549,-0.0006388923502527177,-0.016754211857914925
1782846035006188000,0.41518798828125,0.001070857048034668,-0.002941727638244629,-0.021342040970921516
1782846035016193000,0.425193115234375,0.004739361349493265,0.0012942962348461151,-0.024889104068279266
1782846035026198000,0.435197998046875,0.010320015251636505,0.006584665738046169,-0.025858229026198387
1782846035036203000,0.445203125,0.012263324111700058,0.007182545494288206,-0.019687950611114502
1782846035046208800,0.455208740234375,0.014021010138094425,0.011722702533006668,-0.012982111424207687
1782846035056213800,0.4652138671875,0.015718242153525352,0.01396029070019722,0.0003379551344551146
1782846035066218800,0.47521875,0.012499546632170677,0.007670436520129442,0.0006183860241435468
1782846035076223700,0.4852236328125,0.009341037832200527,0.0026695525739341974,0.002666090615093708
1782846035086229800,0.495229736328125,0.006383064668625593,0.001958222361281514,0.006357498001307249
1782846035096234800,0.50523486328125,0.005104214418679476,0.004887433256953955,0.0031646343413740396
1782846035106239700,0.51523974609375,0.004492220003157854,0.013209811411798,0.005400890484452248
1782846035116244700,0.52524462890625,0.004472246393561363,0.017946776002645493,0.0008780442294664681
1782846035126250800,0.535250732421875,0.008081096224486828,0.019375029951334,-0.00552339619025588
1782846035136255700,0.545255859375,0.006867759861052036,0.012586099095642567,-0.009830259718000889
1782846035146260700,0.5552607421875,0.01053386740386486,0.006112487055361271,-0.0135656101629138
1782846035156265700,0.565265625,0.009751697070896626,-0.005869873333722353,-0.013109143823385239
1782846035166272000,0.57527197265625,0.01408465951681137,-0.015018098056316376,-0.018135061487555504
1782846035176277000,0.585277099609375,0.011519769206643105,-0.015732090920209885,-0.02154603786766529
1782846035186282000,0.595281982421875,0.008363391272723675,-0.010271280072629452,-0.018093250691890717
1782846035196287000,0.605286865234375,0.0026343988720327616,-0.009150088764727116,-0.014118216000497341
1782846035206293000,0.61529296875,0.0033270870335400105,-0.010407899506390095,-0.0033835461363196373
1782846035216298000,0.625298095703125,0.0018210695125162601,-0.007753793615847826,0.003740143496543169
1782846035226303000,0.635302978515625,0.0017712684348225594,-0.005650961305946112,0.009860087186098099
1782846035236308000,0.645307861328125,0.0073356772772967815,-0.005459746345877647,0.01252005249261856
1782846035246313700,0.655313720703125,0.008559399284422398,-0.006208893842995167,0.011566108092665672
1782846035256318700,0.665318603515625,0.008826514706015587,-0.0062941149808466434,0.011291003786027431
1782846035266323700,0.67532373046875,0.00595562718808651,-0.00472444761544466,0.015597068704664707
1782846035276328700,0.68532861328125,0.004348942078649998,-0.006585731171071529,0.01750921830534935
1782846035286334700,0.695334716796875,0.0005227785441093147,-0.008557535707950592,0.015063904225826263
1782846035296339700,0.705339599609375,-0.005077582783997059,-0.014054033905267715,0.007171093951910734
1782846035306344700,0.7153447265625,-0.006932208314538002,-0.01606019213795662,-0.0005382248782552779
1782846035316349700,0.725349609375,-0.011485414579510689,-0.018815232440829277,-0.0029646309558302164
1782846035326356000,0.73535595703125,-0.015267103910446167,-0.020856812596321106,-0.0012426309986039996
1782846035336361000,0.74536083984375,-0.019269302487373352,-0.01872042380273342,0.0011456918437033892
1782846035346366000,0.755365966796875,-0.019832028076052666,-0.008443552069365978,0.008163920603692532
1782846035356371000,0.765370849609375,-0.019841082394123077,0.0018104169284924865,0.018553975969552994
1782846035366377000,0.775376953125,-0.018146513029932976,0.006835002917796373,0.026084864512085915
1782846035376382000,0.7853818359375,-0.017110276967287064,0.006344715133309364,0.03190813213586807
1782846035386387000,0.795386962890625,-0.01540372334420681,0.0025715483352541924,0.032339565455913544
1782846035396392000,0.805391845703125,-0.010878213681280613,-0.003612045431509614,0.026457440108060837
1782846035406397700,0.815397705078125,-0.009134642779827118,-0.010686200112104416,0.016514794901013374
1782846035416403000,0.82540283203125,-0.00660543842241168,-0.011353588663041592,0.002630936913192272
1782846035426408000,0.835407958984375,-0.005102350376546383,-0.011027883738279343,-0.012763465754687786
1782846035436413700,0.84541357421875,-0.000877511571161449,-0.008145544677972794,-0.023986825719475746
1782846035446418700,0.855418701171875,0.007247526664286852,-0.006090649403631687,-0.02851499803364277
1782846035456423700,0.865423583984375,0.013020460493862629,-0.012226305902004242,-0.029871346428990364
1782846035466428700,0.8754287109375,0.016984043642878532,-0.020314060151576996,-0.02592640556395054
1782846035476434700,0.8854345703125,0.02510109171271324,-0.025480326265096664,-0.019537482410669327
1782846035486439700,0.895439697265625,0.031154191121459007,-0.024823857471346855,-0.014007428660988808
1782846035496444700,0.905444580078125,0.03166951239109039,-0.015425828285515308,-0.00691969133913517
1782846035506450000,0.915449951171875,0.03266313672065735,-0.01017034612596035,0.005666407756507397
1782846035516456000,0.9254560546875,0.03129826858639717,-0.006600112188607454,0.009401757270097733
1782846035526461000,0.9354609375,0.029811425134539604,0.0037268276792019606,0.006811034400016069
1782846035536466000,0.9454658203125,0.029752835631370544,0.00740332156419754,0.007440605666488409
1782846035546471000,0.955470947265625,0.029141373932361603,0.004553472623229027,0.00560968229547143
1782846035556477000,0.965476806640625,0.03068041428923607,-0.0015089471125975251,0.005943376570940018
1782846035566482000,0.97548193359375,0.02827930822968483,-0.0067910607904195786,0.004849616438150406
1782846035576487000,0.98548681640625,0.028312331065535545,-0.00938977301120758,0.0022716764360666275
1782846035586492000,0.995491943359375,0.024196682497859,-0.01738058775663376,0.004874117206782103
1782846035596497700,1.00549755859375,0.01811295747756958,-0.017119331285357475,0.009163937531411648
1782846035606502700,1.015502685546875,0.01600373350083828,-0.013206616044044495,0.008036354556679726
1782846035616507600,1.025507568359375,0.011118697002530098,-0.003936418332159519,0.009081645868718624
1782846035626512600,1.0355126953125,0.009375392459332943,0.005631254054605961,0.0039145806804299355
1782846035636518700,1.0455185546875,0.008509598672389984,0.009135175496339798,0.0013680658303201199
1782846035646523600,1.055523681640625,0.007339139468967915,0.011023090220987797,0.004145476501435041
1782846035656528600,1.065528564453125,0.007535147946327925,0.003728425595909357,0.008787366561591625
1782846035666533600,1.07553369140625,0.010897388681769371,-0.003623230615630746,0.00352868833579123
1782846035676540000,1.085539794921875,0.014598916284739971,-0.013582121580839157,0.001276186783798039
1782846035686545000,1.095544921875,0.020205402746796608,-0.020806478336453438,-0.006394782569259405
1782846035696550000,1.1055498046875,0.01854039542376995,-0.016748353838920593,-0.004101534374058247
1782846035706555000,1.115554931640625,0.014901451766490936,-0.0073258234187960625,-0.0014213290996849537
1782846035716561000,1.125560791015625,0.01128008496016264,-0.001969141187146306,0.006868558935821056
1782846035726566000,1.13556591796875,0.009444101713597775,0.007367635145783424,0.00845553632825613
1782846035736571000,1.14557080078125,0.009473130106925964,0.015423431061208248,0.003965713083744049
1782846035746576000,1.155575927734375,0.013816745951771736,0.013579990714788437,0.006167348474264145
1782846035756582000,1.165581787109375,0.015336345881223679,0.013795707374811172,0.008292551152408123
1782846035766587000,1.1755869140625,0.01564686931669712,0.009814547374844551,0.010705641470849514
1782846035776592000,1.185591796875,0.018315358087420464,0.005558283533900976,0.02058836631476879
1782846035786596900,1.195596923828125,0.01960725709795952,0.0028796761762350798,0.022705845534801483
1782846035796602600,1.2056025390625,0.014926751144230366,-0.002030926523730159,0.02761724591255188
1782846035806607600,1.215607666015625,0.01347559504210949,-0.0011017497163265944,0.026971695944666862
1782846035816612600,1.225612548828125,0.012527509592473507,-0.0006998787284828722,0.016623185947537422
1782846035826617600,1.23561767578125,0.01107582077383995,0.0016817862633615732,0.007844607345759869
1782846035836624000,1.245623779296875,0.00929283443838358,0.002520682057365775,0.0006378270918503404
1782846035846628900,1.25562890625,0.01191285252571106,0.0014828480780124664,-0.01107289083302021
1782846035856633900,1.2656337890625,0.009379386901855469,-0.0014972290955483913,-0.019295932725071907
1782846035866638800,1.275638916015625,0.010936270467936993,-0.00971441250294447,-0.020601946860551834
1782846035876644900,1.285644775390625,0.007413441315293312,-0.022758841514587402,-0.013369867578148842
1782846035886649900,1.29564990234375,0.0073479278944432735,-0.022702649235725403,-0.011028416454792023
1782846035896654800,1.30565478515625,0.007408914156258106,-0.019835224375128746,-0.004960403777658939
1782846035906659800,1.315659912109375,0.008885903283953667,-0.016956346109509468,0.004346811678260565
1782846035916665900,1.325665771484375,0.007920507341623306,-0.014736069366335869,0.012446283362805843
1782846035926670800,1.3356708984375,0.006361759267747402,-0.008423046208918095,0.0217745378613472
1782846035936675800,1.34567578125,0.007794539909809828,-0.0003861583536490798,0.02221156284213066
1782846035946680800,1.355680908203125,0.008826781064271927,0.004424309358000755,0.0243679229170084
1782846035956686800,1.365686767578125,0.007482950109988451,0.006142580881714821,0.02365472912788391
1782846035966691800,1.37569189453125,0.006567088887095451,0.004382231738418341,0.024775654077529907
1782846035976696800,1.38569677734375,0.007102384231984615,-0.005151352379471064,0.01830097660422325
1782846035986701800,1.395701904296875,0.006602775305509567,-0.0117900799959898,0.012385562993586063
1782846035996707800,1.405707763671875,0.00800226628780365,-0.016833575442433357,0.010093114338815212
1782846036006712800,1.415712890625,0.0025827335193753242,-0.024472320452332497,-0.000029294771593413316
1782846036016717800,1.4257177734375,-0.002840527566149831,-0.023806795477867126,-0.006500776391476393
1782846036026723800,1.435723876953125,-0.004269579891115427,-0.022050973027944565,-0.011118431575596333
1782846036036728800,1.445728759765625,-0.007708519697189331,-0.022578811272978783,-0.008352472446858883
1782846036046733800,1.45573388671875,-0.009315737523138523,-0.02040061354637146,-0.004598213825374842
1782846036056738800,1.46573876953125,-0.008904545567929745,-0.016448481008410454,0.0007597998483106494
1782846036066744800,1.475744873046875,-0.00632021389901638,-0.013729927130043507,-0.0015305186389014125
1782846036076749800,1.485749755859375,-0.00042557314736768603,-0.011353055946528912,0.0031252196058630943
1782846036086754800,1.4957548828125,-0.003472229465842247,-0.01236425805836916,0.005240035708993673
1782846036096759800,1.505759765625,-0.0017534252256155014,-0.016291089355945587,0.004966529086232185
1782846036106765800,1.515765869140625,-0.00424401368945837,-0.01655740477144718,0.0032977922819554806
1782846036116770800,1.525770751953125,-0.0060083577409386635,-0.021146297454833984,0.0005371595616452396
1782846036126775800,1.53577587890625,-0.008362592197954655,-0.018269285559654236,-0.0014146711910143495
1782846036136780800,1.54578076171875,-0.009735185652971268,-0.015108644962310791,0.00038775624125264585
1782846036146786800,1.555786865234375,-0.006930344272404909,-0.015425295569002628,0.005134041886776686
1782846036156791800,1.565791748046875,-0.002621882129460573,-0.012259596027433872,0.006050169467926025
1782846036166796800,1.575796875,0.0026493126060813665,-0.004905542824417353,0.007525826804339886
1782846036176801800,1.5858017578125,-0.0008013451588340104,-0.004541222471743822,0.0076360818929970264
1782846036186807800,1.595807861328125,0.0019571571610867977,-0.004781705792993307,0.008282696828246117
1782846036196812800,1.605812744140625,-0.0005576659459620714,-0.002606169320642948,0.0020535634830594063
1782846036206817800,1.61581787109375,0.00040480049210600555,-0.0018671422731131315,0.0004857605672441423
1782846036216822800,1.62582275390625,-0.0029856697656214237,-0.008702144958078861,-0.002897519152611494
1782846036226828800,1.635828857421875,-0.005942311137914658,-0.009913616813719273,-0.006893858779221773
1782846036236833800,1.645833740234375,-0.00782436691224575,-0.009810020215809345,-0.009966081008315086
1782846036246838800,1.6558388671875,-0.007863782346248627,-0.007891212590038776,-0.01215706393122673
1782846036256843800,1.66584375,-0.004794222768396139,-0.006158560048788786,-0.0070371367037296295
1782846036266849800,1.675849853515625,0.002138784620910883,-0.0065460498444736,-0.0018900453578680754
1782846036276854800,1.685854736328125,0.008941829204559326,-0.0020623519085347652,-0.001151284552179277
1782846036286859800,1.69585986328125,0.013941648416221142,-0.0027180220931768417,-0.003008040366694331
1782846036296864800,1.70586474609375,0.01167290098965168,-0.005252552684396505,-0.0010671286145225167
1782846036306871000,1.71587109375,0.010582070797681808,-0.0020730046089738607,-0.008358864113688469
1782846036316876000,1.7258759765625,0.008703210391104221,0.0017893778858706355,-0.013668141327798367
1782846036326880500,1.735880615234375,0.010236924514174461,0.010291253216564655,-0.01642291620373726
1782846036336885500,1.745885498046875,0.006984938867390156,0.012510998174548149,-0.014067082665860653
1782846036346891500,1.7558916015625,0.00717695290222764,0.01191072165966034,-0.0062584285624325275
1782846036356896500,1.765896484375,0.00923184771090746,0.01080045010894537,-0.0014234596164897084
1782846036366901500,1.775901611328125,0.006481068674474955,0.009679791517555714,-0.0034698324743658304
1782846036376906500,1.785906494140625,0.006342850625514984,0.006964965257793665,-0.001184574095532298
1782846036386912500,1.79591259765625,0.004653607495129108,0.008200671523809433,-0.004187554586678743
1782846036396917500,1.80591748046875,0.005136438645422459,0.01525938045233488,-0.008553273975849152
1782846036406922500,1.815922607421875,0.003065032185986638,0.022163892164826393,-0.005928196478635073
1782846036416927500,1.825927490234375,-0.000984570593573153,0.02292528934776783,-0.005950034596025944
1782846036426933500,1.83593359375,0.0012636699248105288,0.029558690264821053,-0.001900964416563511
1782846036436938500,1.8459384765625,0.000006125270374468528,0.02588273026049137,0.0014389059506356716
1782846036446943500,1.855943603515625,-0.0006625944515690207,0.02040940150618553,0.0015273229219019413
1782846036456949500,1.865949462890625,-0.0028482507914304733,0.01679975353181362,0.0041611893102526665
1782846036466954500,1.87595458984375,-0.001603222917765379,0.016893496736884117,-0.00026045716367661953
1782846036476959500,1.88595947265625,-0.0006519418093375862,0.01462581381201744,-0.0010005496442317963
1782846036486964500,1.895964599609375,-0.002281796419993043,0.010598049499094486,-0.007545800413936377
1782846036496970500,1.905970458984375,-0.0018940401496365666,0.011002317070960999,-0.009548231028020382
1782846036506975500,1.9159755859375,-0.0016700683627277613,0.016145946457982063,-0.0033305492252111435
1782846036516980500,1.92598046875,0.0016642092959955335,0.021160412579774857,0.0011624698527157307
1782846036526985500,1.9359853515625,0.000949150591623038,0.024568991735577583,0.009288839064538479
1782846036536991500,1.945991455078125,0.0031065773218870163,0.018638132140040398,0.013880928047001362
1782846036546996500,1.95599658203125,0.0019771307706832886,0.013725665397942066,0.016802415251731873
1782846036557001500,1.96600146484375,0.0044168527238070965,0.008044610731303692,0.013883325271308422
1782846036567006500,1.97600634765625,0.0020295949652791023,0.0075966669246554375,0.010297112166881561
1782846036577012500,1.986012451171875,-0.0013946974650025368,0.01076582819223404,0.006393450777977705
1782846036587017500,1.996017578125,-0.0015795208746567369,0.013430321589112282,0.003096457337960601
1782846036597022500,2.0060224609375,0.004682902246713638,0.01613529399037361,-0.0005049353349022567
1782846036607027500,2.01602734375,0.00740278884768486,0.01836196333169937,-0.0013853764394298196
1782846036617033500,2.026033447265625,0.0023872575256973505,0.01347373053431511,0.007670969236642122
1782846036627038500,2.03603857421875,-0.0004324973560869694,0.008143413811922073,0.010696319863200188
1782846036637043500,2.04604345703125,-0.007817177101969719,0.00788508728146553,0.01056502666324377
1782846036647048400,2.05604833984375,-0.007832623086869717,0.008961270563304424,0.006684534251689911
1782846036657054500,2.066054443359375,-0.01116556953638792,0.008105331100523472,0.006795321591198444
1782846036667059500,2.0760595703125,-0.013020726852118969,0.006256830412894487,0.010904845781624317
1782846036677064400,2.086064453125,-0.012780509889125824,0.005775863770395517,0.012200740166008472
1782846036687069400,2.0960693359375,-0.012921124696731567,0.008640360087156296,0.009913084097206593
1782846036697075700,2.10607568359375,-0.00993066094815731,0.007267766632139683,0.004033357370644808
1782846036707080700,2.116080810546875,-0.00481446273624897,0.0008852347382344306,0.0017251957906410098
1782846036717085700,2.126085693359375,-0.005541771650314331,-0.0018021611031144857,0.001517202821560204
1782846036727090700,2.136090576171875,0.0000977380113909021,-0.004035221878439188,-0.0031457259319722652
1782846036737096400,2.146096435546875,-0.0019568908028304577,-0.005431250669062138,-0.004107393324375153
1782846036747101400,2.156101318359375,-0.0029622339643538,-0.004188353195786476,-0.00392816262319684
1782846036757106400,2.1661064453125,-0.007837949320673943,-0.006895989179611206,0.001383512164466083
1782846036767111400,2.176111328125,-0.00836898386478424,-0.002273274352774024,0.0015994944842532277
1782846036777117400,2.186117431640625,-0.011267035268247128,-0.0018162758788093925,0.004988899454474449
1782846036787122400,2.196122314453125,-0.01635820046067238,-0.0037380128633230925,0.0028551749419420958
1782846036797127400,2.20612744140625,-0.017591776326298714,-0.0027118970174342394,0.0014168017078191042
1782846036807133400,2.216133544921875,-0.01465564128011465,-0.0057649449445307255,-0.011904063634574413
1782846036817138400,2.226138427734375,-0.015299594029784203,-0.00878124125301838,-0.016814399510622025
1782846036827143400,2.236143310546875,-0.016202671453356743,-0.009890447370707989,-0.024115456268191338
1782846036837148400,2.2461484375,-0.010420150123536587,-0.010884605348110199,-0.02911287732422352
1782846036847154400,2.256154541015625,-0.00791624654084444,-0.00845367182046175,-0.0244361013174057
1782846036857159400,2.266159423828125,-0.002472478663548827,-0.004671450704336166,-0.01726527325809002
1782846036867164400,2.276164306640625,0.000013582121027866378,0.00012090751260984689,-0.006047506351023912
1782846036877169400,2.28616943359375,0.002606169320642948,0.0026101642288267612,0.007635282818228006
1782846036887175700,2.29617578125,0.00646562222391367,0.0007792409160174429,0.0140758715569973
1782846036897180700,2.3061806640625,0.00996155384927988,-0.0012966931099072099,0.015170164406299591
1782846036907185700,2.316185546875,0.011489409022033215,-0.003925499506294727,0.010941597633063793
1782846036917190700,2.326190673828125,0.012909140437841415,-0.005842176266014576,0.003065032185986638
1782846036927196400,2.336196533203125,0.010848119854927063,-0.006176669616252184,-0.004210990387946367
1782846036937201400,2.346201416015625,0.011532286182045937,-0.0051928977482020855,-0.015561915002763271
1782846036947206400,2.356206298828125,0.007699464913457632,-0.006869890261441469,-0.021859226748347282
1782846036957211400,2.36621142578125,0.008305867202579975,-0.003090332029387355,-0.0226826760917902
1782846036967217400,2.376217529296875,0.003811782458797097,0.0033750240691006184,-0.017605358734726906
1782846036977222400,2.386222412109375,0.004147873260080814,0.0072957295924425125,-0.007261374965310097
1782846036987227400,2.396227294921875,0.002317482838407159,0.009839581325650215,0.005783054046332836
1782846036997232400,2.406232421875,0.0038184402510523796,0.00720464950427413,0.017723603174090385
1782846037007238400,2.41623828125,0.00845713447779417,0.005649097263813019,0.020062124356627464
1782846037017243400,2.426243408203125,0.007379353046417236,0.00301656243391335,0.018689531832933426
1782846037027248400,2.436248291015625,0.006530603393912315,-0.001469798618927598,0.014574681408703327
1782846037037253400,2.44625341796875,0.006815827917307615,-0.0032594427466392517,0.000990962260402739
1782846037047259600,2.456259765625,0.004597681108862162,-0.005172657780349255,-0.0072957295924425125
1782846037057264600,2.4662646484375,0.0052086105570197105,-0.008131429553031921,-0.014599449001252651
1782846037067269600,2.47626953125,0.0046477485448122025,-0.008992163464426994,-0.008520783856511116
1782846037077274600,2.486274658203125,0.0020501012913882732,-0.005933256354182959,-0.004601409658789635
1782846037087280400,2.4962802734375,0.004406199790537357,0.0004386226355563849,0.0019286612514406443
1782846037097285600,2.50628564453125,0.006936735473573208,0.007644071243703365,0.015661250799894333
1782846037107290600,2.51629052734375,0.006061621010303497,0.01200845930725336,0.027576500549912453
1782846037117295600,2.526295654296875,0.006018743850290775,0.01739523559808731,0.03142769634723663
1782846037127301400,2.53630126953125,0.010705108754336834,0.01804398186504841,0.030362432822585106
1782846037137306400,2.546306396484375,0.010104565881192684,0.01600106991827488,0.02257455140352249
1782846037147311400,2.556311279296875,0.007586014457046986,0.006925550289452076,0.008697085082530975
1782846037157316400,2.56631640625,0.007222226355224848,-0.005268531385809183,-0.006925283931195736
1782846037167322400,2.576322265625,0.010893127880990505,-0.008014783263206482,-0.020616861060261726
1782846037177327400,2.586327392578125,0.009320531040430069,-0.013639645650982857,-0.02460414543747902
1782846037187332400,2.596332275390625,0.007668838836252689,-0.013130183331668377,-0.02713601291179657
1782846037197338600,2.606338623046875,0.009863816201686859,-0.0014820491196587682,-0.019339876249432564
1782846037207343600,2.616343505859375,0.009768474847078323,0.008093879558146,-0.0060048955492675304
1782846037217348600,2.6263486328125,0.007993478327989578,0.013169597834348679,0.018618958070874214
1782846037227353600,2.636353515625,0.00827816966921091,0.01666073501110077,0.022957513108849525
1782846037237359600,2.646359619140625,0.004025900736451149,0.012171978130936623,0.032885778695344925
1782846037247364600,2.656364501953125,0.001413073274306953,0.009722935035824776,0.03267645463347435
1782846037257369600,2.66636962890625,0.00018349179299548268,0.003579554846510291,0.023975640535354614
1782846037267374600,2.67637451171875,-0.0015795208746567369,0.0011377023765817285,0.017178453505039215
1782846037277380400,2.68638037109375,-0.0025864620693027973,0.0016112125013023615,0.009755691513419151
1782846037287385300,2.69638525390625,-0.005104480776935816,0.005733785685151815,0.007510113995522261
1782846037297390300,2.706390380859375,-0.003861583536490798,0.014349112287163734,0.005213137716054916
1782846037307395600,2.7163955078125,-0.004172907210886478,0.016153402626514435,0.010387660004198551
1782846037317401300,2.7264013671875,-0.0017180051654577255,0.014432734809815884,0.01655767112970352
1782846037327406300,2.73640625,0.0026644926983863115,0.010624414309859276,0.018640529364347458
1782846037337411300,2.746411376953125,0.003180346917361021,-0.001472728094086051,0.014495053328573704
1782846037347416300,2.756416259765625,0.00364746549166739,-0.006541789043694735,0.007348194252699614
1782846037357422300,2.76642236328125,0.0031350732315331697,-0.014671354554593563,0.0037880802992731333
1782846037367427300,2.77642724609375,0.0006018743733875453,-0.020549749955534935,0.0004575310740619898
1782846037377432300,2.786432373046875,-0.002651443239301443,-0.019535617902874947,-0.00558065390214324
1782846037387437300,2.796437255859375,-0.005209941882640123,-0.015242602676153183,0.0000673779723001644
1782846037397443600,2.806443603515625,-0.007230748422443867,-0.01034531556069851,-0.0003861583536490798
1782846037407448600,2.816448486328125,-0.01041455753147602,-0.004099137615412474,0.006127400789409876
1782846037417453600,2.82645361328125,-0.013167466968297958,0.001538241864182055,0.0051779840141534805
1782846037427458600,2.83645849609375,-0.01435150858014822,0.0067636300809681416,0.010280867107212543
1782846037437464600,2.846464599609375,-0.011264638975262642,0.0008199872681871057,0.014958709478378296
1782846037447469600,2.856469482421875,-0.01386894378811121,-0.006652043666690588,0.01636352762579918
1782846037457474600,2.866474609375,-0.01315335277467966,-0.012761601246893406,0.008501076139509678
1782846037467479600,2.8764794921875,-0.012961071915924549,-0.025622805580496788,-0.00035420042695477605
1782846037477485300,2.8864853515625,-0.010044644586741924,-0.035720180720090866,-0.007926899008452892
1782846037487490300,2.896490234375,-0.013219931162893772,-0.03586985170841217,-0.014703311957418919
1782846037497495300,2.906495361328125,-0.01549134124070406,-0.03207617625594139,-0.014652712270617485
1782846037507500300,2.916500244140625,-0.015529957599937916,-0.020678646862506866,-0.005176652688533068
1782846037517506300,2.92650634765625,-0.016320116817951202,-0.010243582539260387,0.0046847667545080185
1782846037527511300,2.93651123046875,-0.014789598993957043,0.0005909554311074317,0.01738857664167881
1782846037537516300,2.946516357421875,-0.01375203114002943,0.009394566528499126,0.023981232196092606
1782846037547522600,2.9565224609375,-0.009619603864848614,0.007216900121420622,0.026554912328720093
1782846037557527600,2.966527587890625,-0.009192166849970818,-0.00033103092573583126,0.02431119792163372
1782846037567532500,2.976532470703125,-0.010431068949401379,-0.01131230965256691,0.018390990793704987
1782846037577537500,2.98653759765625,-0.007124488707631826,-0.02160516008734703,0.008827580139040947
1782846037587543600,2.99654345703125,-0.004691957030445337,-0.026399383321404457,0.0034820830915123224
1782846037597548500,3.006548583984375,-0.005659217480570078,-0.022158831357955933,-0.002108957152813673
1782846037607553500,3.016553466796875,-0.0033840788528323174,-0.017404822632670403,-0.0017632789677008986
1782846037617558500,3.02655859375,-0.0010151970200240612,-0.010457168333232403,-0.0002639192680362612
1782846037627564500,3.036564453125,0.0013787185307592154,-0.009230249561369419,0.0008934905636124313
1782846037637569500,3.046569580078125,0.0023523701820522547,-0.005826463922858238,0.0000021305288555595325
1782846037647574500,3.056574462890625,0.007933557033538818,-0.004349208436906338,-0.00023995080846361816
1782846037657579500,3.06657958984375,0.0073138391599059105,-0.012506204657256603,-0.007758587133139372
1782846037667585300,3.076585205078125,0.005958823021501303,-0.01733424887061119,-0.0072776200249791145
1782846037677590300,3.08659033203125,0.0073532541282474995,-0.024052072316408157,-0.007772435434162617
1782846037687595300,3.09659521484375,0.007227553054690361,-0.027247067540884018,-0.007571367081254721
1782846037697600300,3.106600341796875,0.0084877610206604,-0.028488898649811745,-0.001350488979369402
1782846037707606500,3.1166064453125,0.009542904794216156,-0.023855797946453094,0.011420433409512043
1782846037717611500,3.126611572265625,0.008319182321429253,-0.012350675649940968,0.018030133098363876
1782846037727616500,3.136616455078125,0.01064944826066494,-0.006308495998382568,0.022456306964159012
1782846037737621500,3.14662158203125,0.007764978799968958,-0.005811017472296953,0.021885856986045837
1782846037747627500,3.15662744140625,0.0054213968105614185,-0.0062424493953585625,0.014581073075532913
1782846037757632500,3.166632568359375,0.006077599711716175,-0.005154814571142197,-0.0013976269401609898
1782846037767637500,3.176637451171875,0.006473079323768616,-0.00669465446844697,-0.015558719635009766
1782846037777642500,3.186642578125,0.0017936390358954668,-0.009958358481526375,-0.02960343286395073
1782846037787648500,3.1966484375,0.0011906992876902223,-0.012288624420762062,-0.029154423624277115
1782846037797653500,3.206653564453125,0.005707953125238419,-0.018100973218679428,-0.01872015744447708
1782846037807658500,3.216658447265625,0.0070310113951563835,-0.021026188507676125,-0.003897003596648574
1782846037817663500,3.22666357421875,0.010031594894826412,-0.013906494714319706,0.008981510996818542
1782846037827669500,3.23666943359375,0.013963219709694386,-0.003099653171375394,0.022062957286834717
1782846037837674500,3.246674560546875,0.01715129055082798,0.005680522415786982,0.03158961609005928
1782846037847679500,3.256679443359375,0.020787037909030914,0.012597550638020039,0.03490951284766197
1782846037857684500,3.2666845703125,0.024540763348340988,0.01575898937880993,0.0324210561811924
1782846037867690500,3.2766904296875,0.02491120807826519,0.010058759711682796,0.021034445613622665
1782846037877695500,3.286695556640625,0.01914386637508869,0.010723218321800232,0.002207760466262698
1782846037887700500,3.296700439453125,0.018788069486618042,0.010966630652546883,-0.021497035399079323
1782846037897705500,3.30670556640625,0.016332101076841354,-0.00047697214176878333,-0.03490844741463661
1782846037907711500,3.31671142578125,0.01913001947104931,-0.008153533563017845,-0.039443545043468475
1782846037917716500,3.326716552734375,0.02322516217827797,-0.014133661985397339,-0.04288488253951073
1782846037927721500,3.336721435546875,0.025796176865696907,-0.011067830957472324,-0.03545839339494705
1782846037937726500,3.3467265625,0.02791871689260006,-0.006917827297002077,-0.017555823549628258
1782846037947732500,3.356732421875,0.029440712183713913,-0.002496180823072791,0.008757805451750755
1782846037957737500,3.366737548828125,0.031436219811439514,0.008041680790483952,0.023855265229940414
1782846037967742500,3.376742431640625,0.0304521806538105,0.014208496548235416,0.03452042490243912
1782846037977747500,3.38674755859375,0.026222283020615578,0.01665993593633175,0.026583673432469368
1782846037987753500,3.39675341796875,0.019784623757004738,0.012347213923931122,0.01564234308898449
1782846037997758500,3.406758544921875,0.013279053382575512,0.009888583794236183,-0.007754858583211899
1782846038007763500,3.416763427734375,0.008529571816325188,-0.00245090713724494,-0.020791564136743546
1782846038017769200,3.426769287109375,0.0078102522529661655,-0.00945049338042736,-0.026745326817035675
1782846038027774200,3.436774169921875,0.005564142484217882,-0.012167716398835182,-0.02359853684902191
1782846038037779500,3.446779541015625,0.0013262542197480798,-0.011689146980643272,-0.008161789737641811
1782846038047784400,3.456784423828125,-0.006140983197838068,-0.004811799619346857,0.013217002153396606
1782846038057790500,3.46679052734375,-0.007084541022777557,0.01119299978017807,0.027104854583740234
1782846038067795500,3.47679541015625,-0.007759918924421072,0.02310957945883274,0.03828001022338867
1782846038077800400,3.486800537109375,-0.005853361915796995,0.02677089348435402,0.03577983379364014
1782846038087805400,3.496805419921875,-0.004238420631736517,0.014854580163955688,0.02569630928337574
1782846038097811500,3.5068115234375,0.0024546354543417692,0.002722017001360655,0.0019025622168555856
1782846038107816400,3.51681640625,0.0019374496769160032,-0.012654808349907398,-0.015457785688340664
1782846038117821400,3.526821533203125,0.0041340249590575695,-0.020199278369545937,-0.026554912328720093
1782846038127826400,3.536826416015625,0.004267449490725994,-0.02196175791323185,-0.026449451223015785
1782846038137832400,3.54683251953125,0.0018317222129553556,-0.016207465901970863,-0.017377391457557678
1782846038147837400,3.55683740234375,0.001973402453586459,-0.006302637048065662,0.0004577973741106689
1782846038157842400,3.566842529296875,0.0018706043483689427,-0.0007323693134821951,0.015480156056582928
1782846038167847400,3.576847412109375,0.009895507246255875,0.00424374733120203,0.027995148673653603
1782846038177853400,3.586853515625,0.011424162425100803,-0.0021853898651897907,0.0344913974404335
1782846038187858400,3.5968583984375,0.012442555278539658,-0.015545936301350594,0.04079776257276535
1782846038197863400,3.606863525390625,0.009647035039961338,-0.024749554693698883,0.027216972783207893
1782846038207868400,3.616868408203125,0.009105081669986248,-0.021020863205194473,0.0062914518639445305
1782846038217874400,3.62687451171875,0.0026069683954119682,-0.015681225806474686,-0.01497894898056984
1782846038227879400,3.63687939453125,0.00045593318645842373,-0.009279518388211727,-0.03135126456618309
1782846038237884400,3.646884521484375,0.0008018778171390295,-0.0038282941095530987,-0.05059899389743805
1782846038247889400,3.656889404296875,0.0020623519085347652,-0.0036253612488508224,-0.05536578595638275
1782846038257895400,3.6668955078125,0.004024036228656769,-0.0033398703671991825,-0.052448295056819916
1782846038267900400,3.676900390625,0.004063451196998358,-0.007748466916382313,-0.03927656635642052
1782846038277905400,3.686905517578125,0.007929561659693718,-0.011979963630437851,-0.021097028627991676
1782846038287910400,3.696910400390625,0.012937103398144245,-0.02165602706372738,-0.008046741597354412
1782846038297916400,3.70691650390625,0.010115484707057476,-0.02695731446146965,-0.0024176177103072405
1782846038307921400,3.71692138671875,0.007450992241501808,-0.026824690401554108,0.0005635248962789774
1782846038317926400,3.726926513671875,0.008160191588103771,-0.019777433946728706,0.0006977482116781175
1782846038327931400,3.736931396484375,0.012289688922464848,-0.011670504696667194,-0.0044019389897584915
1782846038337937400,3.7469375,0.010567689314484596,-0.006306099239736795,-0.008102401159703732
1782846038347942400,3.7569423828125,0.012654808349907398,-0.006327670533210039,-0.0038096518255770206
1782846038357947400,3.766947509765625,0.015793077647686005,-0.0065287393517792225,0.00036991306114941835
1782846038367952400,3.776952392578125,0.016761669889092445,-0.007742342073470354,0.004538026638329029
1782846038377958400,3.78695849609375,0.014888135716319084,-0.010525078512728214,0.01606525294482708
1782846038387963400,3.79696337890625,0.01369370799511671,-0.007537278346717358,0.016532903537154198
1782846038397968400,3.806968505859375,0.00884861871600151,-0.0031364047899842262,0.019951071590185165
1782846038407973400,3.816973388671875,0.004685565363615751,0.00017017599020618945,0.013776798732578754
1782846038417979400,3.8269794921875,0.001532382913865149,-0.001960885478183627,0.011516573838889599
1782846038427984400,3.836984375,0.0006226470577530563,-0.004798217210918665,0.0019473034190014005
1782846038437989400,3.8469892578125,-0.0013193299528211355,-0.008942628279328346,-0.005680522415786982
1782846038447994400,3.856994384765625,-0.0032117723021656275,-0.011118963360786438,-0.01625194028019905
1782846038458000400,3.86700048828125,-0.003838680451735854,-0.012253204360604286,-0.020019780844449997
1782846038468005400,3.87700537109375,-0.007029680069535971,-0.01281513087451458,-0.02286084182560444
1782846038478010400,3.88701025390625,-0.00806165486574173,-0.008038219064474106,-0.02075081877410412
1782846038488015400,3.897015380859375,-0.009168198332190514,-0.005938583053648472,-0.01560878660529852
1782846038498021400,3.907021484375,-0.007739412598311901,-0.010742126032710075,-0.01555099617689848
1782846038508026400,3.9170263671875,-0.006833404768258333,-0.015150456689298153,-0.021207017824053764
1782846038518031400,3.92703125,-0.0030000510159879923,-0.017170198261737823,-0.02574504353106022
1782846038528036400,3.937036376953125,0.00015100123709999025,-0.021694377064704895,-0.028478778898715973
1782846038538042400,3.94704248046875,0.003556119045242667,-0.024880582466721535,-0.030345922335982323
1782846038548047400,3.95704736328125,0.0013440974289551377,-0.023687219247221947,-0.028137894347310066
1782846038558052400,3.96705224609375,-0.0017084177816286683,-0.023212645202875137,-0.01769164577126503
1782846038568057300,3.977057373046875,-0.003094060579314828,-0.01677791401743889,-0.00768881244584918
1782846038578063400,3.9870634765625,-0.002290584845468402,-0.008599081076681614,0.00887684803456068
1782846038588068400,3.997068359375,-0.007601726800203323,-0.0041617220267653465,0.024836640805006027
1782846038598073300,4.0070732421875,-0.007392402272671461,0.0043590618297457695,0.03274942561984062
1782846038608078600,4.01707861328125,-0.00944916158914566,0.01167742908000946,0.04013543576002121
1782846038618084400,4.02708447265625,-0.010478739626705647,0.0114590497687459,0.035470377653837204
1782846038628089300,4.03708935546875,-0.01050190906971693,0.013128052465617657,0.024100009351968765
1782846038638094300,4.04709423828125,-0.015717709437012672,0.0031079088803380728,0.008189219981431961
1782846038648099300,4.057099365234375,-0.017137974500656128,-0.005718073341995478,-0.006612362805753946
1782846038658105300,4.067105224609375,-0.021373998373746872,-0.010352506302297115,-0.011474495753645897
1782846038668110300,4.0771103515625,-0.019539879634976387,-0.012030031532049179,-0.012721654027700424
1782846038678115300,4.087115234375,-0.0181752759963274,-0.013977068476378918,-0.016450611874461174
1782846038688120300,4.097120361328125,-0.013459882698953152,-0.011092332191765308,-0.007614510133862495
1782846038698126300,4.107126220703125,-0.010745055973529816,0.00037204360705800354,-0.0029800771735608578
1782846038708131300,4.11713134765625,-0.007895739749073982,0.002813629573211074,-0.002388855442404747
1782846038718136300,4.12713623046875,-0.0054701329208910465,0.0017741979099810123,0.0007997472421266139
1782846038728141300,4.137141357421875,-0.004748682491481304,0.0002798982313834131,-0.01148914359509945
1782846038738147300,4.147147216796875,-0.00025300029665231705,-0.005093295592814684,-0.022407304495573044
1782846038748152300,4.15715234375,0.0024016385432332754,-0.010761301033198833,-0.027589550241827965
1782846038758157300,4.1671572265625,0.005961486138403416,-0.016559535637497902,-0.031555529683828354
1782846038768162300,4.177162353515625,0.009469668380916119,-0.014813833869993687,-0.035652536898851395
1782846038778168300,4.187168212890625,0.00842704065144062,-0.014157364144921303,-0.029375731945037842
1782846038788173300,4.19717333984375,0.01131284236907959,-0.00475320965051651,-0.01435417216271162
1782846038798178600,4.207178466796875,0.014032461680471897,0.006872553378343582,0.006877081003040075
1782846038808183600,4.21718359375,0.015115036629140377,0.012569321319460869,0.02901380881667137
1782846038818189300,4.227189208984375,0.011960788629949093,0.02033749595284462,0.04301777482032776
1782846038828194300,4.2371943359375,0.013162407092750072,0.017604559659957886,0.04633234441280365
1782846038838199300,4.24719921875,0.012090484611690044,0.022458171471953392,0.03345303237438202
1782846038848204300,4.257204345703125,0.009794574230909348,0.02304992452263832,0.020663732662796974
1782846038858210300,4.267210205078125,0.011859855614602566,0.016703879460692406,0.004704740364104509
1782846038868215300,4.27721533203125,0.01170272845774889,0.009575129486620426,-0.012773052789270878
1782846038878220300,4.28722021484375,0.011385812424123287,0.005389971658587456,-0.016656475141644478
1782846038888225300,4.297225341796875,0.013288108631968498,-0.0024703482631593943,-0.0180588960647583
1782846038898231300,4.307231201171875,0.016031963750720024,0.00045060686534270644,-0.012036156840622425
1782846038908236300,4.317236328125,0.017837585881352425,0.006154032424092293,-0.0038075214251875877
1782846038918241300,4.3272412109375,0.013249758630990982,0.007677094545215368,0.007217166479676962
1782846038928246300,4.337246337890625,0.010236125439405441,0.006662163883447647,0.018977951258420944
1782846038938252500,4.34725244140625,0.009705624543130398,0.0049532135017216206,0.024825988337397575
1782846038948257500,4.357257568359375,0.007470166776329279,0.010438526049256325,0.02587553858757019
1782846038958262500,4.367262451171875,0.006558034103363752,0.018066884949803352,0.022242454811930656
1782846038968267500,4.377267578125,0.0073327478021383286,0.020786771550774574,0.018004033714532852
1782846038978273300,4.387273193359375,0.00569889834150672,0.023454459384083748,0.013369068503379822
1782846038988278300,4.3972783203125,0.007814513519406319,0.021974807605147362,0.012892895378172398
1782846038998283300,4.407283203125,0.007881625555455685,0.017364609986543655,0.011463843286037445
1782846039008288300,4.417288330078125,0.009502158500254154,0.008011587895452976,0.01563914678990841
1782846039018294300,4.427294189453125,0.007669637445360422,0.0020580908749252558,0.02346963994204998
1782846039028299300,4.43729931640625,0.003111104713752866,-0.006231264211237431,0.025484587997198105
1782846039038304300,4.44730419921875,-0.0030125677585601807,-0.0054272557608783245,0.0266563780605793
1782846039048309200,4.457309326171875,-0.008652877062559128,-0.006174805108457804,0.021993981674313545
1782846039058315300,4.467315185546875,-0.012469985522329807,-0.00580835435539484,0.01924959383904934
1782846039068320300,4.4773203125,-0.008563128300011158,0.0005422196118161082,0.011834555305540562
1782846039078325200,4.4873251953125,-0.007421697489917278,0.005320196971297264,0.0028032432310283184
1782846039088330200,4.497330322265625,-0.007948203943669796,0.0020516992080956697,-0.0021606225054711103
1782846039098336500,4.50733642578125,-0.005051750224083662,0.0030133668333292007,-0.0073652383871376514
1782846039108341500,4.517341552734375,-0.008154865354299545,-0.0020413128659129143,-0.007644071243703365
1782846039118346500,4.527346435546875,-0.008740228600800037,-0.013171995058655739,-0.0076304893009364605
1782846039128351500,4.5373515625,-0.008233961649239063,-0.023560985922813416,0.002049568807706237
1782846039138356500,4.5473564453125,-0.009245163761079311,-0.028074776753783226,-0.001645300886593759
1782846039148362500,4.557362548828125,-0.011322695761919022,-0.02941967360675335,-0.002828809665516019
1782846039158367500,4.567367431640625,-0.013680125586688519,-0.028860144317150116,0.00045833003241568804
1782846039168372500,4.57737255859375,-0.015031680464744568,-0.017829330638051033,-0.0036096484400331974
1782846039178378200,4.587378173828125,-0.014541658572852612,-0.014447915367782116,-0.011862518265843391
1782846039188383200,4.59738330078125,-0.010464625433087349,-0.009241169318556786,-0.0193697027862072
1782846039198388200,4.60738818359375,-0.00532605592161417,-0.01059192419052124,-0.024535968899726868
1782846039208393200,4.617393310546875,-0.0007552724564447999,-0.016934774816036224,-0.027833761647343636
1782846039218398200,4.627398193359375,0.0030186930671334267,-0.02034814842045307,-0.03664163500070572
1782846039228404200,4.637404296875,0.007649663835763931,-0.020147079601883888,-0.03110918402671814
1782846039238409200,4.6474091796875,0.008644620887935162,-0.01636485755443573,-0.026629479601979256
1782846039248414200,4.657414306640625,0.009371929802000523,-0.01468493603169918,-0.01786448433995247
1782846039258419200,4.667419189453125,0.009103483520448208,-0.01594381220638752,-0.011488344520330429
1782846039268425500,4.677425537109375,0.007742607966065407,-0.015425561927258968,-0.006440855097025633
1782846039278430500,4.687430419921875,0.006581203546375036,-0.0215337872505188,-0.006208361126482487
1782846039288435500,4.697435546875,0.005368133541196585,-0.02485608123242855,-0.01128088403493166
1782846039298440400,4.7074404296875,0.004102333448827267,-0.025253690779209137,-0.019511915743350983
1782846039308446500,4.717446533203125,0.00603498937562108,-0.023151924833655357,-0.02852858044207096
1782846039318451500,4.727451416015625,0.006610231939703226,-0.012590093538165092,-0.031853269785642624
1782846039328456400,4.73745654296875,-0.001437041675671935,-0.0004713795206043869,-0.0376746729016304
1782846039338462200,4.747462158203125,0.0016450346447527409,0.00768721429631114,-0.03164953738451004
1782846039348468000,4.757468017578125,-0.0016615461790934205,0.004296211525797844,-0.023743679746985435
1782846039358473000,4.767472900390625,-0.004171575419604778,0.005230714567005634,-0.014876151457428932
1782846039368478000,4.77747802734375,0.0008900284301489592,0.010239055380225182,-0.018077271059155464
1782846039378483000,4.78748291015625,0.0016935041639953852,0.015382418408989906,-0.013969345018267632
1782846039388489000,4.797489013671875,0.0018050905782729387,0.013145629316568375,-0.005529521498829126
1782846039398494000,4.807493896484375,0.003203782718628645,0.011170096695423126,0.007647000718861818
1782846039408499000,4.8174990234375,0.004592621233314276,0.008585498668253422,0.014036723412573338
1782846039418504000,4.82750390625,0.004624579101800919,0.00481472909450531,0.013949903659522533
1782846039428510200,4.83751025390625,0.011414840817451477,0.0034613104071468115,0.008768990635871887
1782846039438515200,4.84751513671875,0.012468920089304447,-0.0011640676530078053,-0.0011142665753141046
1782846039448520200,4.857520263671875,0.012133361771702766,-0.004195011220872402,-0.007463242392987013
1782846039458525200,4.867525146484375,0.013170396909117699,-0.0003355582884978503,-0.016945160925388336
1782846039468531200,4.87753125,0.012602077797055244,0.000702009245287627,-0.022458970546722412
1782846039478536200,4.8875361328125,0.010247045196592808,0.0057383133098483086,-0.02407710626721382
1782846039488541200,4.897541259765625,0.011661183089017868,0.006371879018843174,-0.023451263085007668
1782846039498546200,4.907546142578125,0.012487296015024185,0.008884038776159286,-0.014319018460810184
1782846039508552200,4.91755224609375,0.011208978481590748,0.005083708092570305,-0.009593239054083824
1782846039518557200,4.92755712890625,0.01720135658979416,0.0013313142117112875,-0.005556685384362936
1782846039528562200,4.937562255859375,0.015471900813281536,-0.0060238041914999485,-0.0007411577389575541
1782846039538567200,4.947567138671875,0.014025803655385971,-0.012583968229591846,0.008291752077639103
1782846039548573000,4.957572998046875,0.012679043225944042,-0.009351690299808979,0.009612945839762688
1782846039558578000,4.967577880859375,0.009348227642476559,0.0015600797487422824,0.004671184346079826
1782846039568583000,4.9775830078125,0.006330866366624832,0.005309810396283865,0.0029198897536844015
1782846039578588000,4.987587890625,0.005124454386532307,0.00854235514998436,-0.0014351775171235204
1782846039588594000,4.997593994140625,0.007189469411969185,0.014316088519990444,-0.0016767261549830437
1782846039598599000,5.007598876953125,0.0027979169972240925,0.013251356780529022,0.006214486435055733
1782846039608604000,5.01760400390625,0.006570018362253904,0.007547931279987097,0.01432461105287075
1782846039618609200,5.027609130859375,0.006894657853990793,0.006080795545130968,0.02274712361395359
1782846039628615200,5.037615234375,0.00812130980193615,0.010372479446232319,0.020913803949952126
1782846039638620200,5.0476201171875,0.009355152025818825,0.012316054664552212,0.025987658649683
1782846039648625200,5.057625244140625,0.009777262806892395,0.017075922340154648,0.026065422222018242
1782846039658630100,5.067630126953125,0.005540973041206598,0.021096229553222656,0.021650167182087898
1782846039668635100,5.07763525390625,0.0024655545130372047,0.01732892356812954,0.017189105972647667
1782846039678641200,5.08764111328125,0.00039254993316717446,0.013017265126109123,0.007214769721031189
1782846039688646100,5.097646240234375,-0.0032527849543839693,0.007163370493799448,-0.0031166973058134317
1782846039698651100,5.107651123046875,-0.005407548509538174,0.004733236040920019,-0.01203855313360691
1782846039708656000,5.11765625,-0.004047205671668053,0.0034708979073911905,-0.016750484704971313
1782846039718662100,5.127662109375,-0.0021204089280217886,-0.0035143073182553053,-0.013969345018267632
1782846039728667100,5.137667236328125,-0.0009645969257690012,-0.00023515711654908955,-0.010307764634490013
1782846039738672000,5.147672119140625,0.0027656927704811096,0.004195277579128742,-0.008378837257623672
1782846039748677000,5.157677001953125,0.008565790951251984,0.003940413240343332,0.003338538808748126
1782846039758683000,5.167682861328125,0.010214554145932198,0.00035926041891798377,0.010918693616986275
1782846039768687900,5.17768798828125,0.011798602528870106,0.004801945760846138,0.01309103425592184
1782846039778692900,5.18769287109375,0.012250008061528206,-0.00009906959166983142,0.010542389005422592
1782846039788697900,5.19769775390625,0.0107107013463974,-0.005270662251859903,0.0023097596131265163
1782846039798704000,5.2077041015625,0.00893996562808752,-0.011986088939011097,-0.00043835630640387535
1782846039808709000,5.217709228515625,0.005535646807402372,-0.008619853295385838,-0.004589958116412163
1782846039818714000,5.227714111328125,0.003555586328729987,-0.0033449302427470684,-0.012143747881054878
1782846039828719000,5.237718994140625,0.0004767058417201042,0.00492098880931735,-0.011768775060772896
1782846039838725000,5.24772509765625,0.0012836436508223414,0.007870440371334553,-0.0140143521130085
1782846039848730000,5.257730224609375,-0.003775563556700945,0.004998753312975168,-0.009849701076745987
1782846039858735000,5.267735107421875,-0.0020873856265097857,-0.00028762139845639467,-0.010089385323226452
1782846039868740000,5.277739990234375,-0.0016468988033011556,-0.00771730812266469,-0.00957060232758522
1782846039878746000,5.28774609375,-0.0032706281635910273,-0.00920495018362999,-0.012410596944391727
1782846039888751000,5.297751220703125,-0.005319131538271904,-0.012027634307742119,-0.011363442055881023
1782846039898756000,5.307756103515625,-0.00509942090138793,-0.01131071150302887,-0.004232029430568218
1782846039908761000,5.317760986328125,-0.00959696713835001,-0.003795803524553776,-0.0003557983145583421
1782846039918766800,5.327766845703125,-0.014125672169029713,0.0068326061591506,0.008943160995841026
1782846039928772000,5.337772216796875,-0.013371732085943222,0.010629741474986076,0.010719755664467812
1782846039938777000,5.347777099609375,-0.014004765078425407,0.010067014954984188,0.011848137713968754
1782846039948782000,5.357781982421875,-0.007013700902462006,0.01110484916716814,0.008769523352384567
1782846039958788000,5.3677880859375,-0.0037862160243093967,0.009342901408672333,0.0032261533197015524
1782846039968793000,5.37779296875,-0.0016884441720321774,0.005869074258953333,-0.00012144014181103557
1782846039978798000,5.387798095703125,0.001076715998351574,-0.0010961571242660284,-0.004609931726008654
1782846039988803000,5.397802978515625,0.003891677362844348,-0.009810286574065685,-0.002773682354018092
1782846039998808000,5.40780810546875,0.0029635655228048563,-0.014846856705844402,0.0003741741238627583
1782846040008814000,5.41781396484375,0.0051987566985189915,-0.01369210984557867,0.003114833263680339
1782846040018819000,5.427819091796875,0.0006298375665210187,-0.017469005659222603,0.012034292332828045
1782846040028824000,5.437823974609375,0.00004234426160110161,-0.009824667125940323,0.01643463410437107
1782846040038829000,5.4478291015625,0.0009600695921108127,0.0006311691831797361,0.013514210470020771
1782846040048835000,5.4578349609375,0.002353968098759651,0.011984490789473057,0.01679815538227558
1782846040058840000,5.467840087890625,0.0046392264775931835,0.013527526520192623,0.019092468544840813
1782846040068845000,5.477844970703125,0.0068240840919315815,0.008075503632426262,0.017062339931726456
1782846040078850000,5.48785009765625,0.0006119944155216217,0.002782470779493451,0.007643005810678005
1782846040088856000,5.49785595703125,0.0009558085002936423,-0.0016881778137758374,0.0013749900972470641
1782846040098861000,5.507861083984375,-0.00384400668554008,-0.009081912226974964,-0.0027379959356039762
1782846040108866000,5.517865966796875,-0.007056311704218388,-0.012856676243245602,-0.007102384231984615
1782846040118871000,5.52787109375,-0.009576461277902126,-0.009818808175623417,-0.006186256650835276
1782846040128877000,5.537876953125,-0.011486213654279709,-0.0009408948244526982,0.001386707997880876
1782846040138882000,5.547882080078125,-0.012448679655790329,0.010616958141326904,0.006984139792621136
1782846040148887000,5.557886962890625,-0.010866229422390461,0.02057664841413498,0.01565432734787464
1782846040158892000,5.56789208984375,-0.008186024613678455,0.0208850409835577,0.02594131976366043
1782846040168898000,5.57789794921875,-0.010848652571439743,0.017343036830425262,0.02888224832713604
1782846040178903000,5.587903076171875,-0.007396663539111614,0.008893094025552273,0.021016601473093033
1782846040188908000,5.597907958984375,-0.005561745725572109,0.0009305084822699428,0.013954964466392994
1782846040198913000,5.6079130859375,-0.007210508454591036,-0.012031895108520985,0.0008751147543080151
1782846040208919000,5.6179189453125,-0.006968959700316191,-0.012569587677717209,-0.010952250100672245
1782846040218924000,5.627924072265625,-0.008476309478282928,-0.009037436917424202,-0.02105255424976349
1782846040228929000,5.637928955078125,-0.0062307314947247505,-0.0012873720843344927,-0.028975192457437515
1782846040238934000,5.64793408203125,-0.007877896539866924,0.007284810766577721,-0.024331439286470413
1782846040248939000,5.65793896484375,-0.009836651384830475,0.011319233104586601,-0.015121161937713623
1782846040258945000,5.667945068359375,-0.010824684053659439,0.012909673154354095,-0.006384662352502346
1782846040268950000,5.677949951171875,-0.009438242763280869,0.01221565343439579,-0.002930542454123497
1782846040278955000,5.687955078125,-0.011121094226837158,0.006980943959206343,-0.0013086773687973619
1782846040288960000,5.6979599609375,-0.007477623876184225,0.010824684053659439,-0.00012010856153210625
1782846040298966300,5.70796630859375,-0.010938934050500393,0.00902758352458477,-0.0026671558152884245
1782846040308971300,5.71797119140625,-0.01381248515099287,0.010774350725114346,-0.0028064390644431114
1782846040318976300,5.727976318359375,-0.014506504870951176,0.016743293032050133,-0.002401372417807579
1782846040328981200,5.737981201171875,-0.0173246618360281,0.02105788141489029,-0.001692705205641687
1782846040338986800,5.74798681640625,-0.012516324408352375,0.023545006290078163,-0.0015456987312063575
1782846040348991700,5.75799169921875,-0.010971956886351109,0.0158841572701931,-0.0012202603975310922
1782846040358997000,5.7679970703125,-0.005490372888743877,0.012688364833593369,-0.0006418218254111707
1782846040369002000,5.778001953125,-0.003549461020156741,0.0075689698569476604,-0.00019520970818120986
1782846040379008000,5.788008056640625,0.00006578007742064074,-0.0009038768475875258,0.006308762356638908
1782846040389013000,5.798012939453125,0.0032778186723589897,-0.0006918892613612115,0.008009190671145916
1782846040399018000,5.80801806640625,0.005352687556296587,0.0029435919132083654,0.00839854497462511
1782846040409023000,5.81802294921875,0.006387858185917139,0.007795871235430241,0.010280600748956203
1782846040419029000,5.828029052734375,0.0019291938515380025,0.01392646785825491,0.011598599143326283
1782846040429034000,5.838033935546875,-0.0024549018125981092,0.016288159415125847,0.014610101468861103
1782846040439039000,5.8480390625,-0.005686647724360228,0.017654627561569214,0.011577825993299484
1782846040449044000,5.8580439453125,-0.008500011637806892,0.014021542854607105,0.01200020406395197
1782846040459049000,5.868049072265625,-0.013458018191158772,0.006089583970606327,0.01079911831766367
1782846040469055000,5.878054931640625,-0.0183438528329134,-0.0012205267557874322,0.009379919618368149
1782846040479060000,5.88806005859375,-0.0202818363904953,-0.008491222746670246,0.004054130055010319
1782846040489065000,5.89806494140625,-0.02292475663125515,-0.014513695612549782,-0.004717523697763681
1782846040499070000,5.908070068359375,-0.027002323418855667,-0.022657642140984535,-0.02262701466679573
1782846040509076000,5.918075927734375,-0.028489964082837105,-0.023381222039461136,-0.038362301886081696
1782846040519081000,5.9280810546875,-0.030109699815511703,-0.018514828756451607,-0.04627189040184021
1782846040529086000,5.9380859375,-0.03370097279548645,-0.009349559433758259,-0.05046743527054787
1782846040539091000,5.948091064453125,-0.03478248044848442,0.001567802974022925,-0.04258953779935837
1782846040549097000,5.958096923828125,-0.02719273790717125,0.00384453940205276,-0.026315227150917053
1782846040559102000,5.96810205078125,-0.0268944650888443,0.009849701076745987,-0.0052048820070922375
1782846040569107000,5.97810693359375,-0.02636103332042694,0.014066816307604313,0.009847038425505161
1782846040579112000,5.98811181640625,-0.0230531208217144,0.008520783856511116,0.020907413214445114
1782846040589118000,5.998117919921875,-0.015438344329595566,0.0060182115994393826,0.025722673162817955
1782846040599123000,6.008123046875,-0.011710451915860176,0.0011118697002530098,0.024661138653755188
1782846040609128000,6.0181279296875,-0.006706106010824442,0.004449876025319099,0.01257997378706932
1782846040619133000,6.0281328125,-0.00009614011651137844,0.004245078656822443,0.0060091568157076836
1782846040629139000,6.038138916015625,0.003528155852109194,0.0017638115677982569,0.00449781259521842
1782846040639144000,6.04814404296875,0.007755657657980919,0.007535680662840605,-0.000931041082367301
1782846040649149000,6.05814892578125,0.010500578209757805,0.007279484532773495,-0.00042530681821517646
1782846040659154000,6.06815380859375,0.015299327671527863,0.0032658344134688377,-0.00048629322554916143
1782846040669159000,6.078158935546875,0.012354670092463493,0.004505536053329706,0.004342284053564072
1782846040679165000,6.0881650390625,0.008870190940797329,0.005416336935013533,0.006735134404152632
1782846040689170000,6.098169921875,0.006849117577075958,0.007648066151887178,0.007380152121186256
1782846040699175000,6.1081748046875,0.001356347929686308,0.007252320181578398,0.00839694682508707
1782846040709180000,6.118179931640625,-0.0021222729701548815,0.006609433330595493,0.008982841856777668
1782846040719186000,6.12818603515625,-0.006449110805988312,0.01019671093672514,0.005226986017078161
1782846040729191200,6.138191162109375,-0.003150519449263811,0.013588779605925083,-0.0009451558580622077
1782846040739196200,6.148196044921875,-0.0033308155834674835,0.012071310542523861,-0.0005856291390955448
1782846040749201200,6.158201171875,-0.002223206916823983,0.006427273154258728,0.0013052152935415506
1782846040759207000,6.16820703125,0.00005965480886516161,-0.0007568703731521964,0.006443251855671406
1782846040769212000,6.1782119140625,-0.0000476705827168189,-0.007274158298969269,0.0038248319178819656
1782846040779217000,6.188216796875,-0.004346012603491545,-0.006204099860042334,0.0024343954864889383
1782846040789222000,6.198221923828125,-0.005791842471808195,-0.011749333702027798,-0.005389438942074776
1782846040799228000,6.208227783203125,-0.007814247161149979,-0.006714894436299801,-0.007862450554966927
1782846040809233000,6.21823291015625,-0.009273126721382141,-0.0052442969754338264,-0.005259210709482431
1782846040819238000,6.22823779296875,-0.012002866715192795,0.0007619303651154041,-0.012174907140433788
1782846040829243000,6.238242919921875,-0.013611682690680027,0.010700048878788948,-0.0106531772762537
1782846040839248000,6.248247802734375,-0.012444152496755123,0.006737264804542065,-0.008765261620283127
1782846040849254000,6.25825390625,-0.013775200583040714,-0.0013339773286134005,-0.0028067054226994514
1782846040859259000,6.2682587890625,-0.009282448329031467,-0.0049409628845751286,0.0029965888243168592
1782846040869264000,6.278263916015625,-0.0076006618328392506,-0.002858637133613229,0.004220045171678066
1782846040879268900,6.288268798828125,-0.006941529456526041,-0.001329982653260231,0.012133361771702766
1782846040889275000,6.29827490234375,-0.007601460441946983,0.005003280472010374,0.01654701866209507
1782846040899280000,6.30827978515625,-0.00905900914222002,0.015308648347854614,0.021818213164806366
1782846040909284900,6.318284912109375,-0.006323409732431173,0.02280997484922409,0.021022727712988853
1782846040919289900,6.328289794921875,-0.006091448478400707,0.023391874507069588,0.018978217616677284
1782846040929296100,6.338296142578125,0.0025800704024732113,0.01775103434920311,0.01056209672242403
1782846040939301000,6.348301025390625,0.005809952039271593,0.010053965263068676,0.0033222935162484646
1782846040949306000,6.35830615234375,0.011389806866645813,0.00079735042527318,-0.0005313006113283336
1782846040959311000,6.36831103515625,0.018497250974178314,-0.003515905234962702,0.0015504923649132252
1782846040969316900,6.37831689453125,0.01631106249988079,-0.005868807900696993,0.0021939121652394533
1782846040979321900,6.38832177734375,0.020192885771393776,-0.0006857639527879655,0.0032477248460054398
1782846040989326800,6.398326904296875,0.017304155975580215,0.0043595945462584496,0.0021912488155066967
1782846040999331800,6.408331787109375,0.015452725812792778,0.0068051754496991634,0.0022032330743968487
1782846041009336800,6.4183369140625,0.005994509439915419,0.0031939290929585695,-0.001927862293086946
1782846041019342800,6.4283427734375,0.00361790438182652,0.004366518929600716,-0.006746585946530104
1782846041029347800,6.438347900390625,-0.002623746171593666,0.0011267834343016148,-0.008804410696029663
1782846041039352800,6.448352783203125,-0.006368417292833328,-0.0005006743012927473,-0.012838833034038544
1782846041049357800,6.45835791015625,-0.01173095777630806,-0.005690109916031361,-0.009426791220903397
1782846041059363800,6.46836376953125,-0.007257380057126284,-0.002612294629216194,-0.0032866070978343487
1782846041069368800,6.478368896484375,-0.008567921817302704,0.002520149340853095,0.001865011639893055
1782846041079373800,6.488373779296875,-0.005723133217543364,0.005090099759399891,0.01079592201858759
1782846041089378800,6.49837890625,-0.005148689262568951,0.005438175052404404,0.016870593652129173
1782846041099385000,6.508385009765625,-0.004612861201167107,0.005585980135947466,0.019169433042407036
1782846041109390000,6.51839013671875,-0.0034320156555622816,0.005652825813740492,0.017420003190636635
1782846041119395000,6.52839501953125,-0.005802495405077934,0.010143447667360306,0.01218689139932394
1782846041129400000,6.538400146484375,-0.004532699938863516,0.014514493755996227,0.0044410875998437405
1782846041139406000,6.548406005859375,-0.004009388852864504,0.016644490882754326,0.0023494407068938017
1782846041149411000,6.5584111328125,-0.001874332781881094,0.01763997972011566,0.0060112872160971165
1782846041159416000,6.568416015625,0.002238120650872588,0.0073133064433932304,0.011492871679365635
1782846041169421000,6.578421142578125,0.004236556589603424,-0.00021651499264407903,0.008097874000668526
1782846041179426000,6.588426025390625,0.006566289812326431,-0.0065106297843158245,0.0024794030468910933
1782846041189431800,6.598431884765625,0.003955593332648277,-0.016019180417060852,-0.0004822984628845006
1782846041199436800,6.608436767578125,0.005391569808125496,-0.020596887916326523,-0.0044256411492824554
1782846041209441800,6.61844189453125,0.00595615990459919,-0.024926388636231422,-0.007267766632139683
1782846041219446800,6.62844677734375,0.0028900622855871916,-0.014904647134244442,-0.008364723064005375
1782846041229452800,6.638452880859375,0.0034562505315989256,-0.005392102058976889,-0.005501824431121349
1782846041239457800,6.648457763671875,0.000966727442573756,0.0032692966051399708,0.0036709012929350138
1782846041249462800,6.658462890625,0.0019835224375128746,0.008768457919359207,0.011635883711278439
1782846041259467800,6.6684677734375,0.0019401127938181162,0.013610350899398327,0.01985945925116539
1782846041269474000,6.67847412109375,0.004229898564517498,0.011172759346663952,0.023437149822711945
1782846041279479000,6.68847900390625,0.0070496536791324615,0.0041673146188259125,0.02070288173854351
1782846041289484000,6.698484130859375,-0.001210406655445695,-0.004506068304181099,0.015173093415796757
1782846041299489000,6.708489013671875,-0.0015395734226331115,-0.014958709478378296,0.01091683004051447
1782846041309494000,6.718493896484375,-0.00358754419721663,-0.019992616027593613,-0.006962035782635212
1782846041319500000,6.7285,-0.008583900518715382,-0.017195232212543488,-0.01996944658458233
1782846041329505000,6.738505126953125,-0.006607302464544773,-0.007736749015748501,-0.026675285771489143
1782846041339510000,6.748510009765625,-0.004868258256465197,-0.0006729807937517762,-0.02250397764146328
1782846041349515000,6.758514892578125,-0.0011643340112641454,0.004823783412575722,-0.010731473565101624
1782846041359521000,6.76852099609375,0.005584116093814373,0.0015994944842532277,0.0003499393642414361
1782846041369526000,6.778526123046875,0.008568188175559044,-0.005829127039760351,0.009191367775201797
1782846041379531000,6.788531005859375,0.015379222109913826,-0.012288890779018402,0.01679202914237976
1782846041389536000,6.798535888671875,0.014073207974433899,-0.014882010407745838,0.020503677427768707
1782846041399541800,6.808541748046875,0.01569453999400139,-0.017113206908106804,0.017702830955386162
1782846041409546800,6.818546630859375,0.015543007291853428,-0.02003336325287819,0.009524528868496418
1782846041419551700,6.8285517578125,0.008478439413011074,-0.020082099363207817,-0.0017158746486529708
1782846041429556700,6.838556640625,0.004367051646113396,-0.023393206298351288,-0.015895608812570572
1782846041439561700,6.848561767578125,-0.0014500912511721253,-0.021689049899578094,-0.030652184039354324
1782846041449568000,6.858568115234375,-0.0029790119733661413,-0.023972976952791214,-0.037347905337810516
1782846041459573000,6.868572998046875,-0.0062576294876635075,-0.026186063885688782,-0.038009967654943466
1782846041469578000,6.878577880859375,-0.0011859056539833546,-0.024713868275284767,-0.04062226042151451
1782846041479583000,6.8885830078125,0.0009859022684395313,-0.015562714077532291,-0.029630862176418304
1782846041489589000,6.898589111328125,0.004038683604449034,-0.011324293911457062,-0.018969163298606873
1782846041499594000,6.908593994140625,0.00854635052382946,-0.010685667395591736,-0.0018887137994170189
1782846041509599000,6.918598876953125,0.008407599292695522,-0.012288890779018402,0.011833489872515202
1782846041519604000,6.92860400390625,0.009037436917424202,-0.013978665694594383,0.016233298927545547
1782846041529610000,6.93860986328125,0.00498011102899909,-0.019770508632063866,0.016806943342089653
1782846041539615000,6.948614990234375,0.003278617514297366,-0.019295932725071907,0.014915565960109234
1782846041549620000,6.958619873046875,-0.000639691308606416,-0.02094975672662258,0.005735383834689856
1782846041559625000,6.968625,-0.005856557283550501,-0.020245350897312164,0.0046424223110079765
1782846041569630000,6.9786298828125,-0.0065194182097911835,-0.01564367488026619,-0.006563093978911638
1782846041579636000,6.988635986328125,-0.00481419637799263,-0.012713930569589138,-0.012969594448804855
1782846041589641000,6.998640869140625,-0.005143363028764725,-0.016331035643815994,-0.016805078834295273
1782846041599646000,7.00864599609375,-0.00407623453065753,-0.013623400591313839,-0.012377574108541012
1782846041609651000,7.01865087890625,0.003512975759804249,-0.015102786011993885,-0.0017646105261519551
1782846041619657000,7.028656982421875,0.006822485942393541,-0.011261442676186562,0.009965016506612301
1782846041629662000,7.038661865234375,0.00324852392077446,-0.004832838196307421,0.01600160263478756
1782846041639667000,7.0486669921875,0.004211789462715387,0.00469621829688549,0.02346085198223591
1782846041649672000,7.058671875,0.0005430185701698065,0.005614209920167923,0.028006866574287415
1782846041659678000,7.068677978515625,-0.0044046021066606045,0.008097874000668526,0.02502572536468506
1782846041669683000,7.078682861328125,-0.004029096569865942,0.0031198931392282248,0.014694790355861187
1782846041679688000,7.08868798828125,-0.006395048461854458,-0.0029883331153541803,0.003406715579330921
1782846041689693000,7.09869287109375,-0.002374740783125162,-0.010477142408490181,-0.0033071134239435196
1782846041699698000,7.108697998046875,-0.002629871480166912,-0.010903780348598957,-0.007625695317983627
1782846041709704000,7.118703857421875,-0.00007882956560933962,-0.0029699571896344423,-0.008115184493362904
1782846041719709000,7.128708984375,-0.000322775129461661,-0.0015217302134260535,-0.0013800500892102718
1782846041729714000,7.1387138671875,0.0017542241839691997,0.001097755040973425,0.013050287961959839
1782846041739719000,7.148718994140625,0.007367635145783424,0.00267754215747118,0.019522834569215775
1782846041749725000,7.158724853515625,0.005371862091124058,0.003981692250818014,0.02480122074484825
1782846041759730000,7.16872998046875,0.002843989757820964,0.002335858531296253,0.025772474706172943
1782846041769735000,7.17873486328125,0.0023486416321247816,-0.003662378992885351,0.02292502298951149
1782846041779740000,7.188739990234375,-0.0004122573300264776,-0.0018245317041873932,0.01555339340120554
1782846041789746000,7.198745849609375,0.002284193178638816,-0.006676012184470892,0.0070730894804000854
1782846041799751200,7.208751220703125,0.0025039040483534336,-0.009897371754050255,-0.001555552356876433
1782846041809756200,7.218756103515625,0.004637628793716431,-0.006322344299405813,-0.008221444673836231
1782846041819761200,7.22876123046875,0.002226136391982436,-0.005791842471808195,-0.013113405555486679
1782846041829766100,7.23876611328125,0.005604888778179884,-0.008592423051595688,-0.01375283021479845
1782846041839772000,7.24877197265625,0.009399360977113247,-0.008229168131947517,-0.011116567067801952
1782846041849777000,7.25877685546875,0.012163455598056316,-0.010717892087996006,0.001582982949912548
1782846041859782000,7.268781982421875,0.013195430859923363,-0.00549197057262063,0.009035306982696056
1782846041869787000,7.278786865234375,0.013143764808773994,-0.0036583843175321817,0.022344453260302544
1782846041879793000,7.28879296875,0.009037436917424202,-0.0011848403373733163,0.027058249339461327
1782846041889798000,7.2987978515625,0.004539091605693102,-0.003822701284661889,0.03008865937590599
1782846041899803000,7.308802978515625,0.003439738880842924,-0.0018865832826122642,0.020954018458724022
1782846041909807900,7.318807861328125,0.002351038623601198,-0.004811000544577837,0.011272095143795013
1782846041919814000,7.32881396484375,0.005405418109148741,-0.0030104373581707478,0.005500758998095989
1782846041929819000,7.33881884765625,0.006445648614317179,-0.007166566327214241,-0.006256564520299435
1782846041939823900,7.348823974609375,0.009916014038026333,-0.007637146860361099,-0.012323245406150818
1782846041949828900,7.358828857421875,0.01326786819845438,-0.014842862263321877,-0.008934373036026955
1782846041959833900,7.368833740234375,0.008955677971243858,-0.01776008866727352,-0.0028519791085273027
1782846041969840000,7.378840087890625,0.010030795820057392,-0.012797554023563862,-0.0011768508702516556
1782846041979845000,7.38884521484375,0.00660650385543704,-0.0060091568157076836,-0.0024746092967689037
1782846041989850000,7.39885009765625,0.006256830412894487,-0.006068544927984476,0.006277336739003658
1782846041999855000,7.408855224609375,0.0023329290561378,-0.0049585397355258465,0.009414007887244225
1782846042009861000,7.418861083984375,0.001645567244850099,0.001919073867611587,0.010045177303254604
1782846042019866000,7.4288662109375,-0.0004878911131527275,0.0009534116834402084,0.01074159424751997
1782846042029871000,7.43887109375,0.0018602180061861873,-0.005593703594058752,0.006173473782837391
1782846042039876000,7.4488759765625,0.005283178761601448,-0.009218798018991947,-0.0036157737486064434
1782846042049881000,7.458881103515625,0.009309878572821617,-0.010424677282571793,-0.013311278074979782
1782846042059886800,7.468886962890625,0.009584450162947178,-0.014740596525371075,-0.01170539204031229
1782846042069891800,7.478891845703125,0.009579123929142952,-0.018908176571130753,-0.007464041467756033
1782846042079896800,7.488896728515625,0.012072375044226646,-0.014030331745743752,-0.0060182115994393826
1782846042089901800,7.49890185546875,0.010435330681502819,-0.010841729119420052,0.0009456885163672268
1782846042099907800,7.508907958984375,0.008609467186033726,-0.0025779400020837784,0.011980762705206871
1782846042109912800,7.518912841796875,0.012076903134584427,0.006316485349088907,0.021771607920527458
1782846042119917800,7.528917724609375,0.013578925281763077,0.011270764283835888,0.026382338255643845
1782846042129922800,7.5389228515625,0.014390923082828522,0.010243049822747707,0.02744733728468418
1782846042139929000,7.54892919921875,0.015964319929480553,0.012146145105361938,0.02461772784590721
1782846042149934000,7.55893408203125,0.016378706321120262,0.005676527973264456,0.01480797491967678
1782846042159939000,7.56893896484375,0.01925918273627758,-0.005785983521491289,0.004548146389424801
1782846042169944000,7.578944091796875,0.01763944700360298,-0.012683837674558163,-0.006133259739726782
1782846042179949000,7.588948974609375,0.017196564003825188,-0.019273029640316963,-0.011385279707610607
1782846042189955000,7.598955078125,0.013946175575256348,-0.017298562452197075,-0.01290168333798647
1782846042199960000,7.6089599609375,0.012858008034527302,-0.012329104356467724,-0.014537663199007511
1782846042209965000,7.618965087890625,0.00980549305677414,-0.008837433531880379,-0.017228521406650543
1782846042219970000,7.628969970703125,0.004334028344601393,-0.007506119552999735,-0.013425793498754501
1782846042229976000,7.63897607421875,0.005775863770395517,-0.002581934677436948,-0.009336776100099087
1782846042239981000,7.64898095703125,0.007979895919561386,-0.0011837751371785998,-0.004613393917679787
1782846042249986000,7.658986083984375,0.008743956685066223,0.002319879597052932,0.008460329845547676
1782846042259991000,7.668990966796875,0.0073266224935650826,0.0036157737486064434,0.009712016209959984
1782846042269996000,7.67899609375,0.008961536921560764,0.004612328484654427,0.006415288895368576
1782846042280001800,7.689001708984375,0.007486412301659584,0.0007805725326761603,0.002977147698402405
1782846042290006800,7.6990068359375,0.0049532135017216206,0.0028935244772583246,-0.001216798322275281
1782846042300011800,7.70901171875,0.007152185309678316,0.00697987899184227,-0.007697334513068199
1782846042310016800,7.719016845703125,0.0024647556710988283,0.006677343975752592,-0.010310428217053413
1782846042320023000,7.72902294921875,0.0016442356863990426,0.0031555795576423407,-0.0059958407655358315
1782846042330028000,7.739028076171875,0.003817375050857663,-0.0002335592289455235,-0.0026666230987757444
1782846042340033300,7.749033203125,0.003697799053043127,-0.00899855513125658,0.005534315016120672
1782846042350038300,7.759038330078125,0.004244279582053423,-0.008327704854309559,0.004817392211407423
1782846042360044300,7.769044189453125,0.007456584833562374,-0.008407066576182842,0.00686216726899147
1782846042370049300,7.77904931640625,0.004905010107904673,-0.0051928977482020855,0.004024302586913109
1782846042380054300,7.78905419921875,0.008246744982898235,-0.0038754320703446865,0.006735667120665312
1782846042390059300,7.799059326171875,0.009010006673634052,-0.0004676510870922357,0.005093295592814684
1782846042400064300,7.809064208984375,0.008855276741087437,0.0002993392990902066,-0.0035862126387655735
1782846042410070300,7.8190703125,0.005036037415266037,-0.004826979245990515,-0.010363425128161907
1782846042420075300,7.8290751953125,0.003194727934896946,-0.008592423051595688,-0.015540343709290028
1782846042430080300,7.839080322265625,-0.00031638352083973587,-0.016564860939979553,-0.020055467262864113
1782846042440085200,7.849085205078125,-0.0033036512322723866,-0.02070075087249279,-0.02683774009346962
1782846042450091000,7.859091064453125,-0.007001450285315514,-0.020389162003993988,-0.024694694206118584
1782846042460096000,7.869095947265625,-0.011302988044917583,-0.013466806150972843,-0.023182017728686333
1782846042470101200,7.879101318359375,-0.01432567648589611,-0.007991613820195198,-0.02177746780216694
1782846042480106200,7.889106201171875,-0.011519502848386765,-0.003594202222302556,-0.018251175060868263
1782846042490111200,7.899111328125,-0.007641940843313932,0.005705822724848986,-0.01398878637701273
1782846042500117200,7.9091171875,-0.005628324579447508,0.012190885841846466,-0.008174839429557323
1782846042510122200,7.919122314453125,-0.004185956437140703,0.01107475534081459,0.0016974988393485546
1782846042520127200,7.929127197265625,0.0025126924738287926,0.0073021212592720985,0.013130982406437397
1782846042530132200,7.93913232421875,0.004485561978071928,-0.0018112158868461847,0.01714729517698288
1782846042540138200,7.94913818359375,0.010422014631330967,-0.007044061087071896,0.0213612150400877
1782846042550143200,7.959143310546875,0.008746087551116943,-0.00881133507937193,0.02593625895678997
1782846042560148200,7.969148193359375,0.005503954831510782,-0.00152332813013345,0.021412881091237068
1782846042570153200,7.9791533203125,0.0028969866689294577,0.00986514799296856,0.014315822161734104
1782846042580158200,7.989158203125,0.002344646956771612,0.017114005982875824,0.006159092765301466
1782846042590164200,7.999164306640625,0.0009645969257690012,0.01842108555138111,-0.005146292503923178
1782846042600169200,8.009169189453125,-0.00033103092573583126,0.013110475614666939,-0.010729876346886158
1782846042610174200,8.01917431640625,0.0004037352045997977,0.012436163611710072,-0.007953263819217682
1782846042620179200,8.02917919921875,0.0036666402593255043,0.01059405505657196,-0.004295146092772484
1782846042630185200,8.039185302734374,0.00047936898772604764,0.0019286612514406443,0.007994011044502258
1782846042640190200,8.049190185546875,-0.0013310478534549475,0.0038631814531981945,0.018733739852905273
1782846042650195200,8.0591953125,-0.0022892532870173454,0.0023132218047976494,0.025539182126522064
1782846042660200200,8.0692001953125,-0.000922519015148282,0.0012178635224699974,0.02780633047223091
1782846042670206200,8.079206298828124,-0.0028932581190019846,0.002686064224690199,0.02321770414710045
1782846042680211200,8.089211181640625,-0.008758071810007095,0.005638444796204567,0.015034343115985394
1782846042690216200,8.09921630859375,-0.012297678738832474,0.006113552488386631,0.003944940399378538
1782846042700221200,8.10922119140625,-0.016339292749762535,0.004917260725051165,-0.0017470336752012372
1782846042710226200,8.11922607421875,-0.016438094899058342,0.0036245621740818024,-0.007004113402217627
1782846042720232200,8.129232177734375,-0.018669825047254562,0.0015491608064621687,-0.004163586068898439
1782846042730237200,8.1392373046875,-0.017407486215233803,-0.0034171019215136766,0.004454935900866985
1782846042740242200,8.1492421875,-0.01595127023756504,-0.0111019192263484,0.018788335844874382
1782846042750247200,8.1592470703125,-0.014058294706046581,-0.015626629814505577,0.02827318385243416
1782846042760252200,8.169252197265624,-0.009602559730410576,-0.017198428511619568,0.03405064344406128
1782846042770258200,8.179258056640625,-0.01261033397167921,-0.011284878477454185,0.03677825257182121
1782846042780263200,8.18926318359375,-0.0135067543014884,-0.005283711478114128,0.026386333629488945
1782846042790268200,8.19926806640625,-0.015453524887561798,0.003239202778786421,0.017833326011896133
1782846042800273200,8.209273193359374,-0.013794641941785812,0.006586796138435602,0.006032059900462627
1782846042810279200,8.219279052734375,-0.016561133787035942,0.006502640433609486,-0.001350488979369402
1782846042820284200,8.2292841796875,-0.013353089801967144,0.008501608856022358,-0.006626211106777191
1782846042830289200,8.2392890625,-0.01296426821500063,0.002383529208600521,-0.004638161510229111
1782846042840294100,8.249294189453124,-0.01025743130594492,-0.00140987744089216,0.0023193468805402517
1782846042850300400,8.259300537109375,-0.007248059380799532,-0.009810020215809345,0.008587096817791462
1782846042860305400,8.269305419921874,-0.0025425199419260025,-0.00797536876052618,0.01221778430044651
1782846042870310400,8.279310302734375,0.0003414172388147563,-0.0003834952076431364,0.011913384310901165
1782846042880315400,8.2893154296875,0.0018559569725766778,0.009869408793747425,0.002968359272927046
1782846042890320400,8.2993203125,0.00526613462716341,0.00771784083917737,0.0032767534721642733
1782846042900326100,8.309326171875,0.00367116741836071,0.004637628793716431,0.0034876756835728884
1782846042910331100,8.3193310546875,0.004761199466884136,-0.0005438174703158438,-0.004364122170954943
1782846042920336100,8.329336181640626,0.005827528890222311,-0.002918291836977005,-0.010152769275009632
1782846042930341000,8.339341064453125,0.004876248072832823,-0.001907089608721435,-0.01492328941822052
1782846042940347100,8.34934716796875,0.008647283539175987,0.0015752597246319056,-0.013142167590558529
1782846042950352100,8.35935205078125,0.00884915143251419,0.005730323493480682,-0.008167115971446037
1782846042960357000,8.369357177734376,0.009443568997085094,0.008114651776850224,-0.00072597770486027
1782846042970362000,8.379362060546875,0.012488361448049545,0.010295514017343521,0.004519384354352951
1782846042980367000,8.3893671875,0.01449798233807087,0.007201986387372017,0.013656689785420895
1782846042990373000,8.399373046875,0.016211725771427155,0.0014514228096231818,0.015117966569960117
1782846043000378000,8.409378173828125,0.016040485352277756,-0.0024612934794276953,0.011995410546660423
1782846043010383000,8.419383056640624,0.020730046555399895,-0.002403236459940672,-0.0036131106317043304
1782846043020388000,8.42938818359375,0.02220091037452221,-0.001984587637707591,-0.012895292602479458
1782846043030394400,8.439394287109375,0.024661138653755188,-0.0043931505642831326,-0.014277473092079163
1782846043040399400,8.4493994140625,0.02365100011229515,-0.009409214369952679,-0.01859419047832489
1782846043050404400,8.459404296875,0.022997727617621422,-0.007288272958248854,-0.019845077767968178
1782846043060409300,8.469409423828125,0.023722639307379723,0.010807107202708721,-0.021323930472135544
1782846043070414300,8.479414306640624,0.02455194853246212,0.021706627681851387,-0.020024042576551437
1782846043080420400,8.48942041015625,0.027222299948334694,0.025773007422685623,-0.015506255440413952
1782846043090425300,8.49942529296875,0.03493934124708176,0.030714502558112144,0.00020666129421442747
1782846043100430300,8.509430419921875,0.03672712296247482,0.02058437094092369,0.00839508231729269
1782846043110435300,8.519435302734376,0.03837641701102257,0.0024370586033910513,0.014271880500018597
1782846043120441000,8.529441162109375,0.0397343635559082,-0.007258711848407984,0.01005236804485321
1782846043130446000,8.539446044921876,0.0389934703707695,-0.014227138832211494,0.0035744947381317616
1782846043140451000,8.549451171875,0.0399511456489563,-0.016596021130681038,-0.008218514733016491
1782846043150456000,8.5594560546875,0.038297321647405624,-0.007281348574906588,-0.0006506102508865297
1782846043160461300,8.56946142578125,0.04123691841959953,0.016331035643815994,0.006340187508612871
1782846043170467000,8.579467041015626,0.021046163514256477,0.11000613123178482,0.08878153562545776
1782846043180472000,8.58947216796875,0.0035571842454373837,0.03250255063176155,0.06034430116415024
1782846043190477000,8.59947705078125,0.0010908307740464807,-0.015597335062921047,0.04844876006245613
1782846043200482000,8.60948193359375,0.010657171718776226,-0.06028437986969948,0.03193289786577225
1782846043210488300,8.61948828125,0.03334703668951988,-0.10146057605743408,-0.0062341936863958836
1782846043220493300,8.629493408203125,0.03032355010509491,-0.09497018903493881,-0.011660384014248848
1782846043230498300,8.639498291015625,0.00842597521841526,-0.05747048184275627,0.004610997159034014
1782846043240503300,8.64950341796875,-0.007819573394954205,-0.007162039168179035,0.037460554391145706
1782846043250508300,8.65950830078125,-0.017358483746647835,0.05079633370041847,0.0749426856637001
1782846043260514300,8.669514404296875,-0.014616493135690689,0.05017874762415886,0.07013648003339767
1782846043270519300,8.679519287109375,-0.020791830494999886,0.04795287922024727,0.04068644344806671
