time,seconds_elapsed,z,y,x
1782846034668508700,0.0775087890625,-0.030171584337949753,0.012409798800945282,0.009734134189784527
1782846034678513700,0.087513671875,-0.029397401958703995,0.008370316587388515,0.006537808571010828
1782846034688518700,0.0975185546875,-0.023360848426818848,-0.0010303000453859568,0.008337016217410564
1782846034698524700,0.107524658203125,-0.02318667806684971,-0.0063654109835624695,0.007052307017147541
1782846034708529700,0.11752978515625,-0.02228795737028122,-0.016582822427153587,0.010508951731026173
1782846034718534700,0.12753466796875,-0.02476522885262966,-0.014604893513023853,0.011011756956577301
1782846034728539600,0.13753955078125,-0.027642732486128807,-0.011433384381234646,0.0074441516771912575
1782846034738546000,0.1475458984375,-0.026417411863803864,-0.0008550421334803104,0.004064599983394146
1782846034748551000,0.157551025390625,-0.026349129155278206,0.007296583615243435,0.0027802372351288795
1782846034758556000,0.167555908203125,-0.02589799091219902,0.010835392400622368,-0.000821954570710659
1782846034768562000,0.17756201171875,-0.023145856335759163,0.013268619775772095,-0.005261627491563559
1782846034778567000,0.18756689453125,-0.02294718287885189,0.010632622987031937,-0.009166354313492775
1782846034788572000,0.197572021484375,-0.01567859947681427,0.006692529655992985,-0.01104959286749363
1782846034798577000,0.207576904296875,-0.01480534952133894,-0.0013102691154927015,-0.010165689513087273
1782846034808582700,0.217582763671875,-0.010964813642203808,-0.005629410967230797,-0.004021718166768551
1782846034818588000,0.227587890625,-0.014747833833098412,-0.00956050306558609,-0.0003351045888848603
1782846034828593000,0.237593017578125,-0.014114895835518837,-0.0057614329271018505,0.0038736166898161173
1782846034838598000,0.247597900390625,-0.015524772927165031,-0.004088967572897673,0.005140748340636492
1782846034848603600,0.257603759765625,-0.01825983077287674,0.002090392168611288,0.010301896370947361
1782846034858608600,0.267608642578125,-0.018941333517432213,0.007628701627254486,0.006081318482756615
1782846034868613600,0.277613525390625,-0.01751679554581642,0.007244011852890253,-0.001382315531373024
1782846034878618600,0.28761865234375,-0.01332950685173273,0.008389171212911606,-0.007062572054564953
1782846034888625000,0.297625,-0.011858337558805943,0.003987339790910482,-0.014246150851249695
1782846034898630000,0.3076298828125,-0.007888363674283028,0.011969897896051407,-0.015448302030563354
1782846034908635000,0.317634765625,-0.003923288080841303,0.02057727798819542,-0.011159360408782959
1782846034918639900,0.327639892578125,-0.00039246934466063976,0.024215422570705414,-0.0025501593481749296
1782846034928646000,0.33764599609375,0.0024146074429154396,0.022592715919017792,0.004504634067416191
1782846034938651000,0.34765087890625,0.0009661142248660326,0.019352447241544724,0.012705838307738304
1782846034948655900,0.35765576171875,0.0021217786706984043,0.015048605389893055,0.013223512098193169
1782846034958660900,0.367660888671875,-0.0006114237476140261,0.0148360850289464,0.01013211440294981
1782846034968667000,0.3776669921875,-0.00407117884606123,0.010532732121646404,0.0025080516934394836
1782846034978671900,0.387671875,-0.003570504952222109,0.005226916633546352,-0.002210004488006234
1782846034988676900,0.3976767578125,-0.004484544508159161,-0.00030708336271345615,-0.008218593895435333
1782846034998681900,0.407681884765625,-0.005562858190387487,0.001716652768664062,-0.017549244686961174
1782846035008687600,0.4176875,-0.0027136707212775946,0.0022350503131747246,-0.021284490823745728
1782846035018692600,0.427692626953125,0.002761255716904998,0.008003457449376583,-0.02701987326145172
1782846035028697900,0.43769775390625,0.007982715964317322,0.008187063969671726,-0.022904710844159126
1782846035038702800,0.447702880859375,0.012281323783099651,0.009871779941022396,-0.014644117094576359
1782846035048708900,0.457708984375,0.012324785813689232,0.01516186073422432,-0.009642527438700199
1782846035058713900,0.4677138671875,0.012778055854141712,0.015369055792689323,-0.0005662083858624101
1782846035068718800,0.47771875,0.01022226270288229,0.012990803457796574,0.006325218826532364
1782846035078723800,0.487723876953125,0.0058091385290026665,0.006992831826210022,0.0028015905991196632
1782846035088729900,0.497729736328125,0.003753174329176545,0.005072316154837608,0.005951643455773592
1782846035098734800,0.50773486328125,0.004120690748095512,0.009060666896402836,0.006492531392723322
1782846035108739800,0.51773974609375,0.003285760758444667,0.017472978681325912,0.0034306051675230265
1782846035118744800,0.527744873046875,0.0035944210831075907,0.022949237376451492,-0.0013971731532365084
1782846035128750800,0.537750732421875,0.006315500475466251,0.022472918033599854,-0.004731288179755211
1782846035138755800,0.547755859375,0.004245691932737827,0.015612347982823849,-0.009043745696544647
1782846035148760800,0.5577607421875,0.008888646960258484,0.0037967015523463488,-0.010893044993281364
1782846035158765800,0.567765869140625,0.006948800757527351,-0.007323061116039753,-0.01465609110891819
1782846035168771800,0.577771728515625,0.008976627141237259,-0.012403111904859543,-0.0179888978600502
1782846035178776800,0.58777685546875,0.010094622150063515,-0.01060973946005106,-0.021382296457886696
1782846035188781800,0.59778173828125,0.003420740133151412,-0.009591346606612206,-0.01786186546087265
1782846035198786800,0.607786865234375,0.0002710195258259773,-0.007999308407306671,-0.008996735326945782
1782846035208792800,0.617792724609375,0.0017795623280107975,-0.007215687073767185,-0.0014060308458283544
1782846035218797800,0.6277978515625,-0.0016375395935028791,-0.005006329156458378,0.006217800080776215
1782846035228802800,0.637802734375,0.0013641947880387306,-0.003434895072132349,0.009013784117996693
1782846035238807800,0.647807861328125,0.005324847996234894,-0.0024284864775836468,0.011773351579904556
1782846035248813800,0.657813720703125,0.0057756355963647366,-0.004081146791577339,0.01743876375257969
1782846035258818800,0.66781884765625,0.006743694189935923,-0.0022017539013177156,0.00911239068955183
1782846035268823800,0.67782373046875,0.005305706523358822,-0.00198115105740726,0.015730831772089005
1782846035278828800,0.687828857421875,0.0018177640158683062,-0.0024496011901646852,0.01595054380595684
1782846035288834800,0.697834716796875,-0.004252178594470024,-0.010046916082501411,0.011080372147262096
1782846035298839800,0.70783984375,-0.010342561639845371,-0.014040857553482056,0.007594827562570572
1782846035308844800,0.7178447265625,-0.010958265513181686,-0.015115656889975071,0.0005799439386464655
1782846035318849800,0.727849853515625,-0.013958849012851715,-0.01651647873222828,-0.0035559453535825014
1782846035328855800,0.737855712890625,-0.017747342586517334,-0.020282095298171043,-0.0013596812495961785
1782846035338860800,0.74786083984375,-0.02127230353653431,-0.013419928960502148,0.00404919870197773
1782846035348865800,0.75786572265625,-0.02365807816386223,-0.0026258535217493773,0.010584840551018715
1782846035358870800,0.767870849609375,-0.0216258205473423,0.007441162131726742,0.021233756095170975
1782846035368877000,0.777876953125,-0.018780874088406563,0.008157219737768173,0.02594061568379402
1782846035378882000,0.787882080078125,-0.01906316913664341,0.007125244475901127,0.033527158200740814
1782846035388887000,0.797886962890625,-0.013357769697904587,0.006247000303119421,0.02921977825462818
1782846035398892000,0.80789208984375,-0.01638498529791832,-0.0028274545911699533,0.02204469032585621
1782846035408897800,0.817897705078125,-0.010608131065964699,-0.00444546714425087,0.01176037173718214
1782846035418902800,0.82790283203125,-0.008392647840082645,-0.006001818925142288,0.0014605957549065351
1782846035428907800,0.83790771484375,-0.006564154289662838,-0.005882699508219957,-0.015256356447935104
1782846035438913800,0.847913818359375,-0.001579249743372202,-0.00571465352550149,-0.025901542976498604
1782846035448918800,0.857918701171875,0.0069459001533687115,-0.0041839126497507095,-0.03126853331923485
1782846035458923800,0.867923828125,0.014458144083619118,-0.012312413193285465,-0.027802161872386932
1782846035468928800,0.8779287109375,0.017531104385852814,-0.017471494153141975,-0.025020338594913483
1782846035478934800,0.887934814453125,0.02570168301463127,-0.020766889676451683,-0.019840490072965622
1782846035488939800,0.897939697265625,0.028367815539240837,-0.02056480385363102,-0.011389516294002533
1782846035498944800,0.90794482421875,0.028532398864626884,-0.015237683430314064,-0.0018010707572102547
1782846035508949800,0.91794970703125,0.03166285902261734,-0.006576452869921923,0.0034909655805677176
1782846035518955800,0.927955810546875,0.028218593448400497,0.001116087893024087,0.009642069227993488
1782846035528960800,0.937960693359375,0.027526533231139183,0.0049051628448069096,0.010262190364301205
1782846035538965800,0.9479658203125,0.02871004119515419,0.009806977584958076,0.008858971297740936
1782846035548971000,0.957970947265625,0.029979752376675606,0.006550028920173645,0.006602544337511063
1782846035558976800,0.967976806640625,0.02625851519405842,0.0018727192655205727,0.005874968599528074
1782846035568981800,0.977981689453125,0.025153199210762978,-0.003926536999642849,0.005832278169691563
1782846035578987000,0.987987060546875,0.023085255175828934,-0.010931449010968208,0.005640264600515366
1782846035588992000,0.997991943359375,0.020567383617162704,-0.011963516473770142,0.0048102024011313915
1782846035598997800,1.007997802734375,0.0171782448887825,-0.013055679388344288,0.011774102225899696
1782846035609002800,1.018002685546875,0.01053602620959282,-0.007979508489370346,0.00952523946762085
1782846035619007700,1.0280078125,0.008021735586225986,0.0015950882807374,0.007124132476747036
1782846035629012700,1.0380126953125,0.007786726579070091,0.010668651200830936,0.007294619921594858
1782846035639018800,1.048018798828125,0.005487353540956974,0.01177599374204874,0.0022479300387203693
1782846035649023700,1.058023681640625,0.005193839780986309,0.016009431332349777,0.006639191880822182
1782846035659028700,1.06802880859375,0.007469244301319122,0.008029534481465816,0.00659817922860384
1782846035669033700,1.07803369140625,0.00968226883560419,-0.006357931531965733,0.004319997038692236
1782846035679039700,1.088039794921875,0.016282115131616592,-0.01542812492698431,0.0016259434632956982
1782846035689044700,1.098044677734375,0.018691685050725937,-0.01616431213915348,-0.0030384238343685865
1782846035699049700,1.1080498046875,0.015533977188169956,-0.011588468216359615,-0.002486084122210741
1782846035709054700,1.1180546875,0.012104732915759087,-0.0005589204374700785,-0.0013851197436451912
1782846035719061000,1.12806103515625,0.009253819473087788,0.005502966698259115,0.00660755904391408
1782846035729066000,1.13806591796875,0.009434904903173447,0.014907626435160637,0.006999635137617588
1782846035739071000,1.148071044921875,0.010931069031357765,0.017367854714393616,0.008456118404865265
1782846035749076000,1.158075927734375,0.010378343984484673,0.018042873591184616,0.011900429613888264
1782846035759081700,1.168081787109375,0.013120600953698158,0.017327815294265747,0.013376619666814804
1782846035769086700,1.178086669921875,0.01518126018345356,0.011193560436367989,0.015757082030177116
1782846035779091700,1.188091796875,0.013240613974630833,0.005233139730989933,0.0240914449095726
1782846035789097000,1.198096923828125,0.014235133305191994,0.004407488740980625,0.02430596575140953
1782846035799102700,1.208102783203125,0.011241740547120571,-0.0015484048053622246,0.03062218613922596
1782846035809107700,1.218107666015625,0.012694142758846283,-0.00021459581330418587,0.027273595333099365
1782846035819112700,1.22811279296875,0.009149209596216679,0.004613715223968029,0.01826918125152588
1782846035829117700,1.23811767578125,0.007489070761948824,0.00433795340359211,0.0065507302060723305
1782846035839123700,1.248123779296875,0.0072866701520979404,0.0030053076334297657,-0.0040728859603405
1782846035849128700,1.258128662109375,0.006703713908791542,0.003159797750413418,-0.012899724766612053
1782846035859133700,1.2681337890625,0.0073314206674695015,-0.0025327089242637157,-0.0172840878367424
1782846035869138700,1.278138671875,0.007044512778520584,-0.010488538071513176,-0.01933172345161438
1782846035879145000,1.28814501953125,0.0061201294884085655,-0.020301487296819687,-0.013758259825408459
1782846035889150000,1.29814990234375,0.002809235593304038,-0.017527783289551735,-0.007769249379634857
1782846035899155000,1.308155029296875,0.0029570411425083876,-0.012270970270037651,-0.001947046723216772
1782846035909160000,1.318159912109375,0.007238976191729307,-0.015128852799534798,0.008573850616812706
1782846035919166000,1.328166015625,0.006800353992730379,-0.013008709996938705,0.015207252465188503
1782846035929171000,1.3381708984375,0.006576862186193466,-0.004223718773573637,0.022022373974323273
1782846035939176000,1.348176025390625,0.008108978159725666,0.005673387087881565,0.022567523643374443
1782846035949181000,1.358180908203125,0.005439531058073044,0.007954340428113937,0.0257644634693861
1782846035959186700,1.368186767578125,0.004910361021757126,0.009100298397243023,0.025317052379250526
1782846035969191700,1.378191650390625,0.002319617895409465,0.003976855427026749,0.020661696791648865
1782846035979196700,1.38819677734375,0.003175025573000312,-0.004578815773129463,0.01756151020526886
1782846035989201700,1.39820166015625,0.0006423690356314182,-0.01068914495408535,0.014645557850599289
1782846035999207700,1.408207763671875,0.0018626293167471886,-0.018960123881697655,0.006644621957093477
1782846036009212700,1.418212646484375,-0.003254292532801628,-0.019738690927624702,0.00033505060127936304
1782846036019217700,1.4282177734375,-0.0055275666527450085,-0.0207365769892931,-0.006989441346377134
1782846036029224000,1.438223876953125,-0.009761184453964233,-0.019277937710285187,-0.00640387088060379
1782846036039229000,1.44822900390625,-0.01030846405774355,-0.017837168648838997,-0.006956476718187332
1782846036049234000,1.45823388671875,-0.009593542665243149,-0.01598615013062954,0.001081372145563364
1782846036059239000,1.468239013671875,-0.010101674124598503,-0.011259039863944054,-0.0023328005336225033
1782846036069245000,1.478244873046875,-0.006527988240122795,-0.009873424656689167,0.002207149052992463
1782846036079250000,1.48825,-0.005058721639215946,-0.007677914574742317,0.003994662780314684
1782846036089255000,1.4982548828125,-0.003049005288630724,-0.012182721868157387,0.006236117333173752
1782846036099260000,1.508260009765625,-0.004323327913880348,-0.015972133725881577,0.005901358090341091
1782846036109266000,1.518265869140625,-0.006449125241488218,-0.016020342707633972,0.004567265976220369
1782846036119271000,1.52827099609375,-0.007389221340417862,-0.015731923282146454,0.0028207653667777777
1782846036129276000,1.53827587890625,-0.012901198118925095,-0.014263644814491272,0.0007245672168210149
1782846036139281000,1.548281005859375,-0.011952579952776432,-0.012349098920822144,0.0003993952414020896
1782846036149286700,1.55828662109375,-0.008178691379725933,-0.012132725678384304,0.0043608578853309155
1782846036159291600,1.568291748046875,-0.003069150261580944,-0.007364069111645222,0.009832588024437428
1782846036169296600,1.578296630859375,-0.0022990689612925053,-0.002682454651221633,0.011803514324128628
1782846036179301600,1.588301513671875,-0.004475137684494257,0.0003138680476695299,0.010500163771212101
1782846036189308000,1.598307861328125,-0.001043644966557622,0.0008481254335492849,0.008593548089265823
1782846036199313000,1.60831298828125,-0.0021046483889222145,-0.0006131508853286505,0.0029084975831210613
1782846036209318000,1.61831787109375,-0.003204291220754385,-0.00243252026848495,-0.0028804983012378216
1782846036219323000,1.628322998046875,-0.006168922409415245,-0.00499874260276556,-0.0025081883650273085
1782846036229329000,1.638328857421875,-0.007720327936112881,-0.005740948021411896,-0.007001494988799095
1782846036239334000,1.648333984375,-0.009267091751098633,-0.0057867541909217834,-0.011598643846809864
1782846036249339000,1.6583388671875,-0.009889291599392891,-0.005527531262487173,-0.009894950315356255
1782846036259344000,1.66834375,-0.0041645606979727745,-0.005233518313616514,-0.004600053187459707
1782846036269350000,1.678349853515625,0.0015879622660577297,0.0001851445995271206,-0.0018792294431477785
1782846036279355000,1.68835498046875,0.007071411237120628,0.0012109942035749555,-0.003982061520218849
1782846036289360000,1.69835986328125,0.012914343737065792,0.0007319403812289238,-0.0023644226603209972
1782846036299364900,1.70836474609375,0.010849595069885254,-0.0006031021475791931,-0.004943694453686476
1782846036309371000,1.718370849609375,0.007722044363617897,0.002018362283706665,-0.007826518267393112
1782846036319376000,1.7283759765625,0.00789408478885889,0.007564661558717489,-0.015500948764383793
1782846036329380600,1.738380615234375,0.007049030624330044,0.01340105477720499,-0.01744800992310047
1782846036339385600,1.748385498046875,0.003650837345048785,0.01303460355848074,-0.008164763450622559
1782846036349391400,1.758391357421875,0.004774082452058792,0.013359634205698967,-0.002380367135629058
1782846036359396400,1.768396240234375,0.0065639931708574295,0.011047211475670338,0.00012034107930958271
1782846036369401300,1.7784013671875,0.004345889203250408,0.011857295408844948,-0.0019186094868928194
1782846036379406300,1.78840625,0.002899792743846774,0.009804797358810902,-0.0014259247109293938
1782846036389412400,1.798412353515625,0.00042496947571635246,0.010781357064843178,-0.004856436047703028
1782846036399417300,1.808417236328125,0.0017581479623913765,0.018840881064534187,-0.007456745952367783
1782846036409422300,1.81842236328125,0.0010820047464221716,0.027968524023890495,-0.006549383047968149
1782846036419427300,1.82842724609375,0.00008944445289671421,0.030422627925872803,-0.005083313211798668
1782846036429433600,1.83843359375,-0.002523553790524602,0.03154641017317772,0.0011632695095613599
1782846036439438600,1.8484384765625,-0.0029808185063302517,0.028020385652780533,0.0027667589019984007
1782846036449443600,1.858443603515625,-0.00436593871563673,0.02474546805024147,0.006440115626901388
1782846036459449600,1.86844970703125,-0.005739330314099789,0.02059999108314514,0.002012876560911536
1782846036469454600,1.87845458984375,-0.00488851685076952,0.01706293225288391,-0.0003643092350102961
1782846036479459600,1.88845947265625,-0.004286909010261297,0.01620779186487198,-0.0019409006927162409
1782846036489464600,1.898464599609375,-0.002945950720459223,0.016061939299106598,-0.009173939004540443
1782846036499470600,1.908470703125,-0.003910014871507883,0.014978564344346523,-0.008180047385394573
1782846036509475600,1.9184755859375,-0.001418703468516469,0.021229395642876625,-0.0007191910408437252
1782846036519480600,1.92848046875,-0.00012254295870661736,0.029994923621416092,0.004475570749491453
1782846036529485600,1.938485595703125,0.000234534265473485,0.026759203523397446,0.010570574551820755
1782846036539491300,1.9484912109375,0.0022004798520356417,0.021702926605939865,0.01608172059059143
1782846036549496300,1.958496337890625,0.000029884977266192436,0.015620440244674683,0.01329876109957695
1782846036559501300,1.968501220703125,0.0010093955788761377,0.012090420350432396,0.014687599614262581
1782846036569506300,1.97850634765625,-0.0025434948038309813,0.010427999310195446,0.009211366064846516
1782846036579512600,1.9885126953125,-0.0020444183610379696,0.013863475993275642,0.00530983554199338
1782846036589517600,1.998517578125,-0.00040923745837062597,0.01703876443207264,0.0016599732916802168
1782846036599522600,2.0085224609375,0.0037223908584564924,0.020447343587875366,0.0014863351825624704
1782846036609527600,2.018527587890625,0.0004780520685017109,0.018507888540625572,0.0015529246302321553
1782846036619533600,2.028533447265625,-0.0010977402562275529,0.016766713932156563,0.007078983820974827
1782846036629538600,2.03853857421875,-0.003469275776296854,0.011528301984071732,0.011361820623278618
1782846036639543600,2.04854345703125,-0.008076543919742107,0.00956102553755045,0.011539985425770283
1782846036649548500,2.058548583984375,-0.012969313189387321,0.009853946976363659,0.0074622128158807755
1782846036659554600,2.068554443359375,-0.01308302953839302,0.012064903043210506,0.006886437069624662
1782846036669559600,2.0785595703125,-0.01724678836762905,0.010408345609903336,0.007689518388360739
1782846036679564500,2.088564453125,-0.017031071707606316,0.00962271261960268,0.010148148983716965
1782846036689569500,2.098569580078125,-0.01397689152508974,0.010643883608281612,0.009433138184249401
1782846036699575600,2.108575439453125,-0.008111014030873775,0.010109387338161469,0.0032831006683409214
1782846036709580500,2.11858056640625,-0.00700489804148674,0.0017121306154876947,0.003266136161983013
1782846036719585500,2.12858544921875,-0.0058514829725027084,-0.0016040375921875238,-0.0007935866015031934
1782846036729590500,2.138590576171875,-0.0020407657139003277,-0.0029526620637625456,-0.0037350482307374477
1782846036739596500,2.148596435546875,-0.004885820671916008,-0.0009531609248369932,-0.003900164272636175
1782846036749601500,2.1586015625,-0.005339100491255522,-0.0019015399739146233,-0.003579460782930255
1782846036759606500,2.1686064453125,-0.010010818019509315,-0.0016754376702010632,0.00143367366399616
1782846036769611500,2.178611572265625,-0.012189891189336777,0.0006672036834061146,0.005921376869082451
1782846036779617500,2.188617431640625,-0.016574520617723465,-0.0008161771111190319,0.007729929871857166
1782846036789622500,2.19862255859375,-0.020483922213315964,-0.0023351507261395454,0.006273667793720961
1782846036799627500,2.20862744140625,-0.018980834633111954,-0.0025897491723299026,-0.002878285013139248
1782846036809633500,2.218633544921875,-0.01845809817314148,-0.004014758393168449,-0.009641613811254501
1782846036819638500,2.228638427734375,-0.0162412840873003,-0.0038869264535605907,-0.021677237004041672
1782846036829643500,2.2386435546875,-0.014919441193342209,-0.0059165386483073235,-0.0254724882543087
1782846036839648500,2.2486484375,-0.012653357349336147,-0.005809745751321316,-0.025421354919672012
1782846036849654500,2.258654541015625,-0.008455798029899597,-0.0047708298079669476,-0.023994721472263336
1782846036859659500,2.268659423828125,-0.002999247284606099,0.0005299262702465057,-0.014224381186068058
1782846036869664500,2.27866455078125,-0.00367355952039361,0.0040511577390134335,-0.003115271683782339
1782846036879669500,2.28866943359375,0.0019536998588591814,0.005799256730824709,0.010376568883657455
1782846036889675300,2.29867529296875,0.005482003558427095,0.005774662829935551,0.013486120849847794
1782846036899680300,2.30868017578125,0.0072926864959299564,0.0005873579066246748,0.013977207243442535
1782846036909685200,2.318685302734375,0.009157432243227959,-0.0010390346869826317,0.008936376310884953
1782846036919690500,2.3286904296875,0.010151855647563934,-0.0019013662822544575,0.0032763597555458546
1782846036929696500,2.338696533203125,0.01003231294453144,-0.006424821447581053,-0.00789930485188961
1782846036939701500,2.348701416015625,0.007557171396911144,-0.004911613184958696,-0.014193686656653881
1782846036949706500,2.35870654296875,0.005212895572185516,-0.0036759504582732916,-0.018795015290379524
1782846036959711500,2.36871142578125,0.0034831727389246225,0.0025486561935395002,-0.023274186998605728
1782846036969717500,2.378717529296875,0.002350425347685814,0.01090756431221962,-0.016044849529862404
1782846036979722500,2.388722412109375,0.0012966124340891838,0.009347749873995781,-0.004236393142491579
1782846036989727500,2.3987275390625,0.0010903982911258936,0.013242987915873528,0.009677893482148647
1782846036999732500,2.408732421875,-0.0005783383967354894,0.010409916751086712,0.01760159619152546
1782846037009738500,2.418738525390625,0.004747036844491959,0.009253398515284061,0.024261584505438805
1782846037019743500,2.428743408203125,0.004011205397546291,0.004406712017953396,0.02014034241437912
1782846037029748500,2.43874853515625,0.005452304147183895,0.0021600741893053055,0.010425246320664883
1782846037039753500,2.44875341796875,0.0019537098705768585,-0.0014391879085451365,-0.0017848151037469506
1782846037049759500,2.458759521484375,0.003446986898779869,-0.0024349926970899105,-0.012435097247362137
1782846037059764500,2.468764404296875,0.00346802594140172,-0.005297890864312649,-0.01227051392197609
1782846037069769500,2.47876953125,0.00378930801525712,-0.006418060977011919,-0.009331369772553444
1782846037079774500,2.4887744140625,0.0033695935271680355,-0.001575901173055172,-0.0040604411624372005
1782846037089780500,2.498780517578125,-0.0017929538153111935,0.004816191270947456,0.004546421580016613
1782846037099785500,2.508785400390625,0.001433199504390359,0.011983023956418037,0.01815437525510788
1782846037109790500,2.51879052734375,0.00416279211640358,0.01907990872859955,0.030767060816287994
1782846037119795500,2.52879541015625,0.005148693919181824,0.021938012912869453,0.030764665454626083
1782846037129801500,2.538801513671875,0.006259551737457514,0.020288962870836258,0.02725399285554886
1782846037139806500,2.548806396484375,0.0027843923307955265,0.013666745275259018,0.021758027374744415
1782846037149811500,2.5588115234375,0.0029757157899439335,0.0056381793692708015,0.007221708074212074
1782846037159816400,2.56881640625,0.005743805319070816,-0.0010447567328810692,-0.011267554014921188
1782846037169822500,2.578822509765625,0.006329754367470741,-0.007349813356995583,-0.025145113468170166
1782846037179827500,2.588827392578125,0.005282598547637463,-0.010473168455064297,-0.024296363815665245
1782846037189832400,2.59883251953125,0.005641826428472996,-0.00810714066028595,-0.02324523776769638
1782846037199838500,2.60883837890625,0.003954713698476553,0.00332474522292614,-0.016189992427825928
1782846037209843500,2.618843505859375,0.005325803998857737,0.013997559435665607,0.0031638708896934986
1782846037219848400,2.628848388671875,0.004548694007098675,0.017443155869841576,0.021401463076472282
1782846037229853400,2.638853515625,0.002727400977164507,0.02004528045654297,0.029271602630615234
1782846037239859500,2.648859375,0.0011686526704579592,0.015375429764389992,0.03227538242936134
1782846037249864700,2.65886474609375,-0.000761830247938633,0.008937188424170017,0.03477845340967178
1782846037259869700,2.66886962890625,-0.0016089817509055138,0.007449813187122345,0.022192353382706642
1782846037269874700,2.678874755859375,-0.0006896683480590582,0.004255856852978468,0.016179261729121208
1782846037279880400,2.68888037109375,-0.0047368742525577545,0.003685674164444208,0.011579981073737144
1782846037289885400,2.698885498046875,-0.006858105771243572,0.01269099023193121,0.009298901073634624
1782846037299890400,2.708890380859375,-0.008619786240160465,0.020041581243276596,0.00860727857798338
1782846037309895400,2.7188955078125,-0.005207093432545662,0.017673058435320854,0.01129569485783577
1782846037319901400,2.7289013671875,-0.004069923423230648,0.014813622459769249,0.020413825288414955
1782846037329906400,2.738906494140625,0.0014339888002723455,0.009932363405823708,0.019969912245869637
1782846037339911400,2.748911376953125,0.00024888222105801105,0.0006214191671460867,0.013200954534113407
1782846037349916400,2.75891650390625,0.0012246740516275167,-0.00580955483019352,0.007384285796433687
1782846037359922400,2.76892236328125,0.00047872262075543404,-0.012552945874631405,0.0013871134724467993
1782846037369927400,2.778927490234375,-0.0035139834508299828,-0.019157778471708298,-0.0013803155161440372
1782846037379932400,2.788932373046875,-0.007903671823441982,-0.015145727433264256,-0.001552089350298047
1782846037389937400,2.7989375,-0.009018737822771072,-0.015337475575506687,-0.002917758421972394
1782846037399943400,2.808943359375,-0.011995619162917137,-0.005231844261288643,0.0026106976438313723
1782846037409948400,2.818948486328125,-0.013385137543082237,-0.00033579650335013866,0.005055700428783894
1782846037419953400,2.828953369140625,-0.015847763046622276,0.004755634814500809,0.008177191950380802
1782846037429958400,2.83895849609375,-0.015929898247122765,0.006355329882353544,0.011972715146839619
1782846037439964400,2.84896435546875,-0.013153284788131714,0.001558976829983294,0.015411654487252235
1782846037449969400,2.858969482421875,-0.014349682256579399,-0.004263448528945446,0.01509652379900217
1782846037459974400,2.868974365234375,-0.013126226142048836,-0.012263850308954716,0.006117143668234348
1782846037469979600,2.878979736328125,-0.014077644795179367,-0.025413621217012405,-0.001320636598393321
1782846037479985400,2.8889853515625,-0.01493624784052372,-0.03387022390961647,-0.010023847222328186
1782846037489990400,2.898990478515625,-0.017409326508641243,-0.029596762731671333,-0.01432197168469429
1782846037499995400,2.908995361328125,-0.018622929230332375,-0.025948498398065567,-0.012027392163872719
1782846037510000400,2.91900048828125,-0.016792194917798042,-0.017629707232117653,-0.006021440960466862
1782846037520006400,2.92900634765625,-0.018919529393315315,-0.001963928574696183,0.008236324414610863
1782846037530011400,2.939011474609375,-0.0163826122879982,0.007506245281547308,0.021472027525305748
1782846037540016400,2.949016357421875,-0.014480048790574074,0.014962296932935715,0.02979813516139984
1782846037550022400,2.9590224609375,-0.013587933033704758,0.007020267657935619,0.026525942608714104
1782846037560027400,2.96902734375,-0.011722122319042683,0.0011535901576280594,0.023816708475351334
1782846037570032400,2.979032470703125,-0.01100931316614151,-0.009789697825908661,0.018598288297653198
1782846037580037400,2.989037353515625,-0.006980216130614281,-0.017893165349960327,0.009461251087486744
1782846037590043600,2.999043701171875,-0.00626930920407176,-0.02135067991912365,0.0021428975742310286
1782846037600048600,3.009048583984375,-0.004970485810190439,-0.0182302538305521,-0.0038185887970030308
1782846037610053600,3.0190537109375,-0.0029047285206615925,-0.012706414796411991,-0.0017036129720509052
1782846037620058600,3.02905859375,-0.0020093736238777637,-0.009013941511511803,-0.0009629878331907094
1782846037630064400,3.039064453125,0.0025839318986982107,-0.002226591808721423,0.0012546053621917963
1782846037640069400,3.0490693359375,0.0011338409967720509,-0.0014907608274370432,0.0014388961717486382
1782846037650074400,3.059074462890625,0.0060814619064331055,-0.0046370187774300575,0.0006777647649869323
1782846037660079400,3.069079345703125,0.005082243122160435,-0.011555645614862442,-0.006374019663780928
1782846037670085400,3.07908544921875,0.005059659015387297,-0.019021306186914444,-0.0067908973433077335
1782846037680090400,3.08909033203125,0.006650364957749844,-0.02375400997698307,-0.007110742852091789
1782846037690095400,3.099095458984375,0.003869130974635482,-0.024143826216459274,-0.005437350831925869
1782846037700100400,3.109100341796875,0.006773574277758598,-0.025395510718226433,0.005167356226593256
1782846037710106400,3.1191064453125,0.007836432196199894,-0.016895528882741928,0.01399020105600357
1782846037720111400,3.129111328125,0.007198871113359928,-0.009691677056252956,0.021072611212730408
1782846037730116400,3.139116455078125,0.005988655611872673,-0.003370273392647505,0.026752613484859467
1782846037740121300,3.149121337890625,0.0062730805948376656,-0.0028988937847316265,0.021142929792404175
1782846037750127600,3.159127685546875,0.0027257404290139675,-0.0024762770626693964,0.013205703347921371
1782846037760132600,3.169132568359375,0.0037462636828422546,-0.0004048701375722885,-0.0034499724861234426
1782846037770137600,3.1791376953125,0.0033099623396992683,-0.0033086566254496574,-0.020031068474054337
1782846037780142600,3.189142578125,-0.0019891958218067884,-0.007049864623695612,-0.030391830950975418
1782846037790148600,3.199148681640625,-0.000503936898894608,-0.008113927207887173,-0.028798053041100502
1782846037800153600,3.209153564453125,0.002723015146329999,-0.01624615676701069,-0.012762095779180527
1782846037810158600,3.21915869140625,0.004695904441177845,-0.01683865673840046,-0.0004730562795884907
1782846037820163600,3.22916357421875,0.007990500889718533,-0.009454775601625443,0.014125593937933445
1782846037830169300,3.23916943359375,0.011560031212866306,0.0034140811767429113,0.02873343601822853
1782846037840174300,3.24917431640625,0.0162996593862772,0.010378247126936913,0.035865116864442825
1782846037850179300,3.259179443359375,0.017967553809285164,0.015431378036737442,0.03796771541237831
1782846037860184300,3.269184326171875,0.020792901515960693,0.018163781613111496,0.029375027865171432
1782846037870190300,3.2791904296875,0.022602932527661324,0.013517537154257298,0.01924201101064682
1782846037880195300,3.2891953125,0.01536099798977375,0.016126103699207306,-0.003475286066532135
1782846037890200300,3.299200439453125,0.012226639315485954,0.012126666493713856,-0.025206610560417175
1782846037900205300,3.309205322265625,0.016309531405568123,-0.00002693571150302887,-0.039702728390693665
1782846037910211600,3.319211669921875,0.017112499102950096,-0.007242341060191393,-0.04194502905011177
1782846037920216600,3.329216552734375,0.018602803349494934,-0.014165228232741356,-0.039498914033174515
1782846037930221600,3.3392216796875,0.024267708882689476,-0.007025630678981543,-0.028284205123782158
1782846037940226600,3.3492265625,0.025526585057377815,-0.0037784380838274956,-0.00642497930675745
1782846037950232600,3.359232666015625,0.026319492608308792,0.000997577328234911,0.015139898285269737
1782846037960237600,3.369237548828125,0.025994854047894478,0.012383123859763145,0.02887941338121891
1782846037970242600,3.37924267578125,0.027443062514066696,0.020550984889268875,0.030354920774698257
1782846037980247600,3.38924755859375,0.021231237798929214,0.015440111979842186,0.02471887320280075
1782846037990253600,3.399253662109375,0.015589393675327301,0.014435039833188057,0.009788242168724537
1782846038000258600,3.409258544921875,0.010517669841647148,0.009738023392856121,-0.013594311662018299
1782846038010263600,3.419263671875,0.00580254290252924,-0.0002986316103488207,-0.021235188469290733
1782846038020269300,3.429269287109375,0.0029590860940515995,-0.009927555918693542,-0.02464616484940052
1782846038030274300,3.4392744140625,0.0009983384516090155,-0.010040327906608582,-0.021108318120241165
1782846038040279300,3.449279296875,-0.003903476055711508,-0.008475454524159431,-0.0017066565342247486
1782846038050284300,3.4592841796875,-0.008351601660251617,0.0066569093614816666,0.018910983577370644
1782846038060290300,3.469290283203125,-0.011550857685506344,0.017482392489910126,0.03164595365524292
1782846038070295300,3.47929541015625,-0.011327484622597694,0.0285359937697649,0.03897678479552269
1782846038080300300,3.48930029296875,-0.006000895984470844,0.02884332276880741,0.036120813339948654
1782846038090305300,3.49930517578125,-0.004565599374473095,0.012867646291851997,0.020174026489257812
1782846038100311600,3.5093115234375,0.0017602071166038513,0.003003563266247511,-0.0015248770359903574
1782846038110316500,3.519316650390625,0.002169791143387556,-0.010247820056974888,-0.016852375119924545
1782846038120321500,3.529321533203125,0.0037636933848261833,-0.014905422925949097,-0.026107659563422203
1782846038130326500,3.539326416015625,0.002146831713616848,-0.018019013106822968,-0.024534903466701508
1782846038140332500,3.54933251953125,-0.00036186608485877514,-0.010956842452287674,-0.011325891129672527
1782846038150337500,3.559337646484375,-0.0005019817035645247,-0.002406421350315213,0.004278078675270081
1782846038160342500,3.569342529296875,0.0027683803346008062,0.005384656600654125,0.017556600272655487
1782846038170347500,3.579347412109375,0.007752980105578899,0.005176556296646595,0.02761133387684822
1782846038180353300,3.589353271484375,0.010545304045081139,-0.002598809078335762,0.036901772022247314
1782846038190358500,3.599358642578125,0.010832084342837334,-0.01606130599975586,0.03861980885267258
1782846038200363500,3.609363525390625,0.004151544533669949,-0.02039879560470581,0.023692259564995766
1782846038210368500,3.619368408203125,0.005560119170695543,-0.016376011073589325,0.0017143466975539923
1782846038220374300,3.629374267578125,-0.0000655418261885643,-0.009760718792676926,-0.02034647949039936
1782846038230379300,3.639379150390625,-0.003654009196907282,-0.0054171122610569,-0.03744446858763695
1782846038240384300,3.64938427734375,-0.0009463734459131956,-0.002120119286701083,-0.053674306720495224
1782846038250389200,3.65938916015625,-0.0015308225993067026,-0.001444758614525199,-0.05130327120423317
1782846038260395500,3.6693955078125,0.0035001549404114485,-0.0013182584661990404,-0.0487932413816452
1782846038270400500,3.679400390625,0.002648689551278949,-0.001847672974690795,-0.03580358251929283
1782846038280405500,3.689405517578125,0.005621310323476791,-0.012462234124541283,-0.01996016874909401
1782846038290410500,3.699410400390625,0.009066503494977951,-0.01882094331085682,-0.005078529939055443
1782846038300416500,3.70941650390625,0.008509103208780289,-0.022952305153012276,-0.0011112189386039972
1782846038310421500,3.71942138671875,0.0065695238299667835,-0.023139791563153267,0.003988201729953289
1782846038320426500,3.729426513671875,0.003737784456461668,-0.016221165657043457,-0.0010262640425935388
1782846038330431500,3.739431396484375,0.00755445659160614,-0.007906315848231316,-0.007106388919055462
1782846038340437500,3.7494375,0.01059658546000719,-0.004792281426489353,-0.0033254988957196474
1782846038350442500,3.7594423828125,0.012792745605111122,-0.003711744211614132,-0.002692244481295347
1782846038360447500,3.769447509765625,0.014819412492215633,-0.002801209222525358,0.0007933007436804473
1782846038370452500,3.779452392578125,0.014980457723140717,-0.00570366345345974,0.011061661876738071
1782846038380458200,3.789458251953125,0.011234454810619354,-0.005311380140483379,0.015935512259602547
1782846038390463200,3.799463134765625,0.010022982954978943,-0.002585634822025895,0.01709452085196972
1782846038400468200,3.80946826171875,0.004703851416707039,0.002519644796848297,0.02137608453631401
1782846038410473500,3.819473388671875,-0.0023697810247540474,0.0017158759292215109,0.015036221593618393
1782846038420479200,3.829479248046875,-0.0005180849693715572,0.0005933535285294056,0.008740242570638657
1782846038430484200,3.839484130859375,-0.0034918987657874823,-0.0045831529423594475,0.0021639366168528795
1782846038440489200,3.8494892578125,-0.0019659074023365974,-0.008275358937680721,-0.007128098513931036
1782846038450494200,3.859494140625,-0.005996197462081909,-0.009521039202809334,-0.01434063445776701
1782846038460500500,3.86950048828125,-0.006681428290903568,-0.006980382837355137,-0.02098655141890049
1782846038470505500,3.87950537109375,-0.010788065381348133,-0.006084447726607323,-0.023775380104780197
1782846038480510500,3.889510498046875,-0.009945708326995373,-0.0046921465545892715,-0.021106094121932983
1782846038490515500,3.899515380859375,-0.009484458714723587,-0.005043711047619581,-0.016751766204833984
1782846038500521500,3.909521484375,-0.011322570964694023,-0.007197409402579069,-0.011647019535303116
1782846038510526500,3.9195263671875,-0.008065973408520222,-0.010943775996565819,-0.019404878839850426
1782846038520531500,3.929531494140625,-0.00528643187135458,-0.013875115662813187,-0.0288242120295763
1782846038530536400,3.939536376953125,-0.0009224049281328917,-0.019287388771772385,-0.028226204216480255
1782846038540542500,3.94954248046875,-0.000313872704282403,-0.023058956488966942,-0.030209992080926895
1782846038550547500,3.95954736328125,-0.0012707700952887535,-0.0245377067476511,-0.022767605260014534
1782846038560552400,3.969552490234375,-0.003741118125617504,-0.01840870827436447,-0.015546710230410099
1782846038570557400,3.979557373046875,-0.006689119152724743,-0.012822369113564491,-0.003853348083794117
1782846038580563200,3.989563232421875,-0.004118369426578283,-0.005730904173105955,0.013920056633651257
1782846038590568200,3.999568115234375,-0.009744744747877121,0.0037471887189894915,0.02804912067949772
1782846038600573200,4.0095732421875,-0.008456040173768997,0.011543593369424343,0.0366537980735302
1782846038610578200,4.019578125,-0.012305074371397495,0.016105512157082558,0.036638375371694565
1782846038620584200,4.029584228515625,-0.014303511008620262,0.011858569458127022,0.03155839443206787
1782846038630589200,4.039589111328125,-0.01502508856356144,0.01278682705014944,0.01850075274705887
1782846038640594200,4.04959423828125,-0.01738837920129299,0.0032223504967987537,0.005555392242968082
1782846038650599400,4.059599365234375,-0.02203807607293129,-0.005202993750572205,-0.007243691012263298
1782846038660605400,4.06960546875,-0.02047480270266533,-0.007264547049999237,-0.014193209819495678
1782846038670610400,4.0796103515625,-0.020762188360095024,-0.010746021755039692,-0.01215831283479929
1782846038680615400,4.089615478515625,-0.01664653979241848,-0.007889515720307827,-0.009967329911887646
1782846038690620400,4.099620361328125,-0.014641412533819675,-0.0037028358783572912,-0.007441563531756401
1782846038700626400,4.10962646484375,-0.011437097564339638,0.003453077981248498,-0.0031253783963620663
1782846038710631400,4.11963134765625,-0.011382831260561943,0.006940748542547226,-0.0006703249528072774
1782846038720636400,4.129636474609375,-0.005492717958986759,0.006111706607043743,-0.0038559981621801853
1782846038730641400,4.139641357421875,-0.0036793192848563194,0.0031659621745347977,-0.012145979329943657
1782846038740647400,4.1496474609375,0.0002712139394134283,-0.001560882432386279,-0.024893732741475105
1782846038750652400,4.15965234375,0.0024338485673069954,-0.008322474546730518,-0.02932145819067955
1782846038760657400,4.169657470703125,0.0035313372500240803,-0.012937466613948345,-0.03191963955760002
1782846038770662400,4.179662353515625,0.006660265848040581,-0.0114461500197649,-0.03409292921423912
1782846038780668200,4.189668212890625,0.0055803535506129265,-0.010403256863355637,-0.027360988780856133
1782846038790673200,4.199673095703125,0.006674294359982014,0.0010063562076538801,-0.010058361105620861
1782846038800678100,4.20967822265625,0.011957739479839802,0.010976964607834816,0.01723051816225052
1782846038810683100,4.21968310546875,0.01248878426849842,0.017227698117494583,0.032340701669454575
1782846038820689400,4.229689453125,0.009342792443931103,0.021151065826416016,0.04484344646334648
1782846038830694400,4.2396943359375,0.0070875417441129684,0.021071534603834152,0.0453050397336483
1782846038840699400,4.249699462890625,0.008412997238337994,0.02280924841761589,0.02959425374865532
1782846038850704400,4.259704345703125,0.0071746595203876495,0.024137556552886963,0.015142899937927723
1782846038860710400,4.26971044921875,0.007829531095921993,0.01786714419722557,-0.0011649669613689184
1782846038870715400,4.27971533203125,0.010189867578446865,0.011820007115602493,-0.013618789613246918
1782846038880720400,4.289720458984375,0.011211455799639225,0.007864946499466896,-0.01598900370299816
1782846038890725400,4.299725341796875,0.01296947430819273,0.0019656268414109945,-0.014549516141414642
1782846038900731400,4.3097314453125,0.012597165070474148,0.003611726686358452,-0.008029298856854439
1782846038910736400,4.319736328125,0.011756072752177715,0.008975218050181866,0.0019180921372026205
1782846038920741400,4.329741455078125,0.008944306522607803,0.008978413417935371,0.012398162856698036
1782846038930746400,4.339746337890625,0.006923244334757328,0.008332091383635998,0.019836314022541046
1782846038940752400,4.34975244140625,0.004716016352176666,0.010547308251261711,0.026322709396481514
1782846038950757400,4.35975732421875,0.003386152209714055,0.015084896236658096,0.026635583490133286
1782846038960762400,4.369762451171875,0.002880684332922101,0.020376063883304596,0.02370637282729149
1782846038970767400,4.379767333984375,0.005182020366191864,0.026769021525979042,0.01908479630947113
1782846038980773400,4.3897734375,0.0038288685027509928,0.028604738414287567,0.011836204677820206
1782846038990778400,4.3997783203125,0.007252434268593788,0.025499524548649788,0.013922846876084805
1782846039000783400,4.409783447265625,0.007701443508267403,0.01894468627870083,0.011461819522082806
1782846039010788400,4.419788330078125,0.006429208442568779,0.011723040603101254,0.015274169854819775
1782846039020794400,4.42979443359375,0.000543888658285141,0.0009542829357087612,0.024135839194059372
1782846039030799400,4.43979931640625,-0.0025271307677030563,-0.004506116267293692,0.02521452121436596
1782846039040804400,4.449804443359375,-0.006797509267926216,-0.0023739892058074474,0.028671037405729294
1782846039050809300,4.459809326171875,-0.011128351092338562,-0.003938890062272549,0.02074606344103813
1782846039060815400,4.4698154296875,-0.01469352561980486,-0.000980383949354291,0.01946135424077511
1782846039070820400,4.4798203125,-0.01243569701910019,0.008409655652940273,0.004759905859827995
1782846039080825300,4.489825439453125,-0.008999686688184738,0.009134035557508469,0.0008810118306428194
1782846039090830300,4.499830322265625,-0.008018121123313904,0.007273941766470671,-0.0010540303774178028
1782846039100836400,4.50983642578125,-0.006635408382862806,0.0063506243750452995,-0.0024892077781260014
1782846039110841300,4.51984130859375,-0.011223915964365005,-0.0032750123646110296,-0.008249403908848763
1782846039120846300,4.529846435546875,-0.010900075547397137,-0.011152909137308598,-0.003901527263224125
1782846039130851300,4.539851318359375,-0.011639954522252083,-0.021058781072497368,0.0006594953592866659
1782846039140856300,4.549856201171875,-0.01294969767332077,-0.02498001977801323,0.00027653283905237913
1782846039150862300,4.5598623046875,-0.013705174438655376,-0.026341687887907028,0.00041646341560408473
1782846039160867300,4.569867431640625,-0.016178451478481293,-0.022063586860895157,0.0014865215634927154
1782846039170872600,4.57987255859375,-0.014606972225010395,-0.013769947923719883,-0.003250350011512637
1782846039180878300,4.58987841796875,-0.015444270335137844,-0.00845374632626772,-0.014904076233506203
1782846039190883300,4.59988330078125,-0.011754385195672512,-0.005456483922898769,-0.020671162754297256
1782846039200888300,4.609888427734375,-0.007038992829620838,-0.00883204024285078,-0.025042476132512093
1782846039210893300,4.619893310546875,-0.003132999874651432,-0.010126184672117233,-0.030293211340904236
1782846039220898300,4.629898193359375,0.000887041911482811,-0.018423529341816902,-0.03609677404165268
1782846039230904300,4.639904296875,0.0034501105546951294,-0.017114635556936264,-0.027711311355233192
1782846039240909300,4.649909423828125,0.00995674543082714,-0.011715342290699482,-0.02601700834929943
1782846039250914300,4.659914306640625,0.00957359280437231,-0.01197965256869793,-0.015645870938897133
1782846039260919300,4.669919189453125,0.007050779648125172,-0.014276893809437752,-0.010772285982966423
1782846039270925300,4.67992529296875,0.0073217712342739105,-0.012414639815688133,-0.007138623856008053
1782846039280930300,4.689930419921875,0.003888424253091216,-0.019171876832842827,-0.011536301113665104
1782846039290935300,4.699935302734375,0.003424853552132845,-0.023391488939523697,-0.01129668578505516
1782846039300940300,4.709940185546875,0.0017840797081589699,-0.020416738465428352,-0.019097352400422096
1782846039310946600,4.719946533203125,0.004265656229108572,-0.01956457458436489,-0.025951029732823372
1782846039320951600,4.72995166015625,0.00017291028052568436,-0.008717785589396954,-0.03275620937347412
1782846039330956500,4.73995654296875,-0.0017764907097443938,0.005686378106474876,-0.03659992292523384
1782846039340962000,4.749962158203125,-0.002374370349571109,0.008586560375988483,-0.024129405617713928
1782846039350968000,4.759968017578125,-0.0046636429615318775,0.008861078880727291,-0.020489012822508812
1782846039360973000,4.76997314453125,-0.004437274299561977,0.010545793920755386,-0.017039954662322998
1782846039370978000,4.77997802734375,-0.0031654476188123226,0.015149295330047607,-0.014323600567877293
1782846039380983000,4.789983154296875,-0.002042126376181841,0.01812298223376274,-0.008882495574653149
1782846039390989000,4.799989013671875,-0.0015370527980849147,0.016271164640784264,-0.0007954373140819371
1782846039400994000,4.809994140625,0.006496904883533716,0.013998422771692276,0.009317384101450443
1782846039410999000,4.8199990234375,0.00038124527782201767,0.013093911111354828,0.012665060348808765
1782846039421004000,4.830004150390625,0.004877992905676365,0.009033123031258583,0.014241917990148067
1782846039431010000,4.840010009765625,0.010905320756137371,0.004928664304316044,0.010807620361447334
1782846039441015000,4.85001513671875,0.010109301656484604,0.004223193041980267,-0.0037199235521256924
1782846039451020000,4.86002001953125,0.010576082393527031,0.0019988894928246737,-0.008577585220336914
1782846039461025000,4.87002490234375,0.009448500350117683,0.002041233703494072,-0.015021104365587234
1782846039471031300,4.88003125,0.009866711683571339,0.005819389596581459,-0.020927056670188904
1782846039481036300,4.890036376953125,0.011319199576973915,0.010921207256615162,-0.022250914946198463
1782846039491041300,4.900041259765625,0.009105599485337734,0.01432291604578495,-0.018151627853512764
1782846039501046300,4.91004638671875,0.007980413734912872,0.010907944291830063,-0.012215974740684032
1782846039511052000,4.920052001953125,0.012536764144897461,0.007807780988514423,-0.008223802782595158
1782846039521057000,4.93005712890625,0.012903481721878052,-0.00009701354429125786,-0.0002074220683425665
1782846039531062000,4.94006201171875,0.012956958264112473,-0.005164454225450754,0.003243062412366271
1782846039541067000,4.95006689453125,0.012161205522716045,-0.007603643927723169,0.010498045943677425
1782846039551073000,4.960072998046875,0.009050685912370682,-0.004359935410320759,0.005940219387412071
1782846039561078000,4.970078125,0.007674630731344223,0.006714819930493832,0.002679710742086172
1782846039571083000,4.9800830078125,0.004265422932803631,0.00955861434340477,0.0020231029484421015
1782846039581088000,4.990087890625,0.003259280463680625,0.014595717191696167,0.0007788742077536881
1782846039591094000,5.000093994140625,0.0021085618063807487,0.01870543137192726,0.0014169913483783603
1782846039601099000,5.01009912109375,0.00155941816046834,0.015293389558792114,0.006824273616075516
1782846039611104000,5.02010400390625,0.003457453101873398,0.008211511187255383,0.018855635076761246
1782846039621109000,5.03010888671875,0.004986906424164772,0.010197697207331657,0.02370045892894268
1782846039631115000,5.040114990234375,0.006789609789848328,0.014954661950469017,0.02440826967358589
1782846039641120000,5.0501201171875,0.009443183429539204,0.021132929250597954,0.025982996448874474
1782846039651125000,5.060125,0.003086517099291086,0.02200637198984623,0.024830671027302742
1782846039661130200,5.070130126953125,0.002303814049810171,0.02363649196922779,0.021073749288916588
1782846039671135200,5.08013525390625,-0.0016600580420345068,0.019660228863358498,0.014033067040145397
1782846039681141200,5.090141357421875,-0.002088826848194003,0.016203179955482483,0.003962324000895023
1782846039691146200,5.100146240234375,-0.007161336485296488,0.00834592618048191,-0.004857925232499838
1782846039701151200,5.110151123046875,-0.005097386427223682,0.005742952227592468,-0.009526446461677551
1782846039711156200,5.12015625,-0.00550848338752985,0.0018405512673780322,-0.016123756766319275
1782846039721162000,5.130161865234375,-0.0064224801026284695,0.0001683523878455162,-0.013047539629042149
1782846039731167000,5.1401669921875,-0.0049560051411390305,0.003425012342631817,-0.010817570611834526
1782846039741172000,5.150171875,0.003449463751167059,0.00636247918009758,-0.0028017221484333277
1782846039751177000,5.160177001953125,0.004944847896695137,0.005463982000946999,0.008047346025705338
1782846039761183000,5.170182861328125,0.008533990010619164,0.004893000237643719,0.013938525691628456
1782846039771188000,5.18018798828125,0.008820973336696625,0.004824867472052574,0.012450536713004112
1782846039781193000,5.19019287109375,0.008113372139632702,0.0016503792721778154,0.007250448688864708
1782846039791198000,5.200197998046875,0.0075355516746640205,-0.004723194986581802,0.004583223722875118
1782846039801204000,5.210203857421875,0.002693392336368561,-0.007500339299440384,-0.001145502203144133
1782846039811209000,5.220208984375,0.004976135212928057,-0.010032299906015396,-0.0013060452183708549
1782846039821214000,5.2302138671875,-0.002613607794046402,0.0014589737402275205,-0.008971155621111393
1782846039831219000,5.240218994140625,-0.0034217487554997206,0.008909553289413452,-0.011795807629823685
1782846039841225200,5.25022509765625,-0.003113354789093137,0.012730656191706657,-0.01191831286996603
1782846039851230200,5.260230224609375,-0.005066250450909138,0.006589407101273537,-0.009776066057384014
1782846039861235200,5.270235107421875,-0.0027263974770903587,0.0008465666323900223,-0.009298828430473804
1782846039871240200,5.280240234375,-0.006717091426253319,-0.005907231941819191,-0.00712551549077034
1782846039881246200,5.29024609375,-0.008421515114605427,-0.009180523455142975,-0.015336306765675545
1782846039891251200,5.300251220703125,-0.008650843054056168,-0.009425347670912743,-0.009194616228342056
1782846039901256200,5.310256103515625,-0.010343015193939209,-0.006380822975188494,-0.0038259499706327915
1782846039911261200,5.32026123046875,-0.01202971301972866,0.0028027291409671307,0.0011028076987713575
1782846039921267000,5.330266845703125,-0.014983957633376122,0.012730993330478668,0.007520493119955063
1782846039931272000,5.34027197265625,-0.014831220731139183,0.013345264829695225,0.013865312561392784
1782846039941277000,5.35027685546875,-0.013474873267114162,0.015573265962302685,0.013874633237719536
1782846039951282000,5.360281982421875,-0.008937421254813671,0.015255600214004517,0.006053496152162552
1782846039961288000,5.370287841796875,-0.007239656522870064,0.013198306784033775,0.0025365259498357773
1782846039971293000,5.38029296875,-0.0011930018663406372,0.009883759543299675,-0.0015670459251850843
1782846039981298000,5.3902978515625,-0.000321083003655076,0.0010995888151228428,-0.00004824524512514472
1782846039991303000,5.400302978515625,0.00043859868310391903,-0.009141423739492893,0.0008514161454513669
1782846040001308000,5.410307861328125,0.000840203370898962,-0.01182855386286974,-0.001492698211222887
1782846040011314200,5.420314208984375,0.00012675556354224682,-0.013913404196500778,0.007321440149098635
1782846040021319200,5.430319091796875,-0.0038067332934588194,-0.010843578726053238,0.013338585384190083
1782846040031324200,5.44032421875,-0.0012190911220386624,-0.005863218568265438,0.017511514946818352
1782846040041329200,5.4503291015625,-0.0031943577341735363,0.007808118127286434,0.017969578504562378
1782846040051335200,5.460335205078125,0.0005441023968160152,0.015418198890984058,0.01966182142496109
1782846040061340200,5.470340087890625,0.001260759076103568,0.018694419413805008,0.017581626772880554
1782846040071345200,5.48034521484375,0.003453895216807723,0.01120470929890871,0.013700949028134346
1782846040081350100,5.49035009765625,-0.00281438697129488,0.0064453743398189545,0.006795106455683708
1782846040091356200,5.500356201171875,-0.0045045046135783195,-0.0011913822963833809,0.0010014105355367064
1782846040101361200,5.510361083984375,-0.006685899570584297,-0.00909857451915741,-0.007329755928367376
1782846040111366100,5.5203662109375,-0.008338263258337975,-0.010060654021799564,-0.006249682046473026
1782846040121371100,5.53037109375,-0.011275995522737503,-0.004320476204156876,-0.007291244808584452
1782846040131377000,5.540376953125,-0.01751137338578701,0.00432777963578701,0.0028437268920242786
1782846040141382000,5.5503818359375,-0.011835377663373947,0.018852394074201584,0.011108847334980965
1782846040151387000,5.560386962890625,-0.011169778183102608,0.026111247017979622,0.01936410181224346
1782846040161391900,5.570391845703125,-0.01043740939348936,0.023477913811802864,0.027818573638796806
1782846040171398100,5.580398193359375,-0.012143920175731182,0.020306305959820747,0.026584697887301445
1782846040181403100,5.590403076171875,-0.009013374336063862,0.011613482609391212,0.020559562370181084
1782846040191408000,5.600408203125,-0.008288856595754623,0.00016177003271877766,0.011120356619358063
1782846040201413000,5.6104130859375,-0.007947172969579697,-0.007748617324978113,0.0028499108739197254
1782846040211419100,5.620419189453125,-0.008763132616877556,-0.009926093742251396,-0.010882388800382614
1782846040221424000,5.630424072265625,-0.011308049783110619,-0.0054157632403075695,-0.024728430435061455
1782846040231429000,5.64042919921875,-0.01036258414387703,0.004701536148786545,-0.024642711505293846
1782846040241434000,5.65043408203125,-0.008529530838131905,0.010746645741164684,-0.021996859461069107
1782846040251439000,5.660439208984375,-0.011216117069125175,0.01606021076440811,-0.011288880370557308
1782846040261445000,5.670445068359375,-0.011829975992441177,0.01641121506690979,-0.0035076565109193325
1782846040271450000,5.6804501953125,-0.012439094483852386,0.014055939391255379,-0.001980773638933897
1782846040281455000,5.690455078125,-0.013092899695038795,0.011259619146585464,0.0020848081912845373
1782846040291460000,5.700460205078125,-0.01045942772179842,0.014235848560929298,-0.0031785592436790466
1782846040301466000,5.710466064453125,-0.011457580141723156,0.013158333487808704,-0.0006091415416449308
1782846040311471000,5.72047119140625,-0.015128396451473236,0.017754051834344864,-0.0034966100938618183
1782846040321476000,5.73047607421875,-0.017348939552903175,0.02236664667725563,-0.00027205480728298426
1782846040331481000,5.740481201171875,-0.016392694786190987,0.026974255219101906,-0.003041881136596203
1782846040341486800,5.75048681640625,-0.016499487683176994,0.024929745122790337,-0.004052550531923771
1782846040351491800,5.760491943359375,-0.010967802256345749,0.018187077715992928,-0.0023795294109731913
1782846040361496800,5.770496826171875,-0.006306737661361694,0.01504374947398901,-0.0013499513734132051
1782846040371501800,5.780501708984375,-0.003018832067027688,0.010470910929143429,0.0009105164208449423
1782846040381507800,5.7905078125,-0.0016845882637426257,0.0041269948706030846,0.010795105248689651
1782846040391512800,5.800512939453125,-0.0004468697588890791,0.00014228001236915588,0.00969499908387661
1782846040401517800,5.810517822265625,0.003961460664868355,0.0077155111357569695,0.010021768510341644
1782846040411522800,5.820522705078125,0.0027134083211421967,0.011470372788608074,0.00982668623328209
1782846040421529000,5.830529052734375,-0.0005907757440581918,0.01646699570119381,0.013532474637031555
1782846040431534000,5.8405341796875,-0.0007758422289043665,0.02114686742424965,0.013277426362037659
1782846040441539000,5.8505390625,-0.009195425547659397,0.02259243093430996,0.012919497676193714
1782846040451544000,5.8605439453125,-0.010356002487242222,0.01437106542289257,0.015092994086444378
1782846040461549000,5.870549072265625,-0.01825387217104435,0.0056169889867305756,0.012260456569492817
1782846040471555000,5.88055517578125,-0.020026396960020065,-0.0007976251654326916,0.012507587671279907
1782846040481560000,5.89056005859375,-0.025190265849232674,-0.006917302496731281,0.002553755883127451
1782846040491565000,5.90056494140625,-0.028037695214152336,-0.012772364541888237,-0.010599249042570591
1782846040501570000,5.910570068359375,-0.031215911731123924,-0.01869656704366207,-0.025757694616913795
1782846040511576000,5.920576171875,-0.031127922236919403,-0.01838262379169464,-0.037527721375226974
1782846040521581000,5.9305810546875,-0.03227601200342178,-0.015498688444495201,-0.0483260415494442
1782846040531586000,5.9405859375,-0.03638865426182747,-0.0038078008219599724,-0.04867146536707878
1782846040541591000,5.950591064453125,-0.031973131000995636,0.006086375564336777,-0.03796768933534622
1782846040551596800,5.9605966796875,-0.029837748035788536,0.009990574792027473,-0.022889019921422005
1782846040561601800,5.970601806640625,-0.030060121789574623,0.014112082310020924,0.00027222593780606985
1782846040571606800,5.980606689453125,-0.029250726103782654,0.013846036978065968,0.015273394994437695
1782846040581611800,5.99061181640625,-0.02231665328145027,0.00898763258010149,0.024889802560210228
1782846040591618000,6.0006181640625,-0.01882532238960266,0.003890576772391796,0.026999767869710922
1782846040601623000,6.010623046875,-0.012778613716363907,0.008682668209075928,0.020412705838680267
1782846040611628000,6.0206279296875,-0.00726275984197855,0.007326684892177582,0.013943958096206188
1782846040621633000,6.030633056640625,-0.0029180790297687054,0.008645216003060341,0.006053543649613857
1782846040631639000,6.04063916015625,0.002596889855340123,0.007584674283862114,0.0024187336675822735
1782846040641644000,6.05064404296875,0.008703517727553844,0.010414550080895424,0.004890413489192724
1782846040651649000,6.06064892578125,0.010083387605845928,0.010928974486887455,0.001587758306413889
1782846040661654000,6.070654052734375,0.010508961044251919,0.008457827381789684,0.0035997764207422733
1782846040671659000,6.080658935546875,0.01094765868037939,0.008610834367573261,0.008669358678162098
1782846040681665000,6.0906650390625,0.006328139454126358,0.013165372423827648,0.006723919417709112
1782846040691670000,6.100669921875,0.00252807536162436,0.010655077174305916,0.00816948339343071
1782846040701675000,6.110675048828125,-0.0004975419724360108,0.01149503793567419,0.011026788502931595
1782846040711680000,6.120679931640625,-0.007032163441181183,0.010475682094693184,0.0036646646913141012
1782846040721685800,6.130685791015625,-0.007989304140210152,0.01622571423649788,0.0032753103878349066
1782846040731691000,6.14069091796875,-0.004163968376815319,0.01711992360651493,0.0005910184700042009
1782846040741696000,6.150696044921875,-0.004501657094806433,0.015291661955416203,-0.000759204151108861
1782846040751701000,6.160700927734375,-0.0023862887173891068,0.006589837372303009,0.0038916240446269512
1782846040761706800,6.170706787109375,-0.0019146427512168884,-0.00027259625494480133,0.004123319406062365
1782846040771712000,6.1807119140625,-0.0020399694330990314,-0.004518407396972179,0.0024958732537925243
1782846040781717000,6.190717041015625,-0.005818461999297142,-0.006363445892930031,0.0011765434173867106
1782846040791722000,6.200721923828125,-0.006935647688806057,-0.007011631969362497,-0.004373542033135891
1782846040801728000,6.21072802734375,-0.010321324691176414,-0.005128244403749704,-0.007856424897909164
1782846040811733000,6.22073291015625,-0.017032213509082794,0.0015536529244855046,-0.0072777774184942245
1782846040821738000,6.230738037109375,-0.015915285795927048,0.007348691578954458,-0.011363066732883453
1782846040831743000,6.240742919921875,-0.019098730757832527,0.015176183544099331,-0.0076736509799957275
1782846040841748000,6.250748046875,-0.015119703486561775,0.009165695868432522,-0.0076608676463365555
1782846040851754000,6.26075390625,-0.015331743285059929,0.002232177881523967,-0.0005762336659245193
1782846040861759000,6.270759033203125,-0.01058572344481945,-0.0018073050305247307,0.005342908203601837
1782846040871764000,6.280763916015625,-0.009271753951907158,-0.0036285649985074997,0.007065949961543083
1782846040881769000,6.29076904296875,-0.009520226158201694,0.004536420106887817,0.013692427426576614
1782846040891775000,6.30077490234375,-0.010341959074139595,0.014604327268898487,0.017112677916884422
1782846040901780000,6.310780029296875,-0.011865820735692978,0.021412964910268784,0.025741852819919586
1782846040911785000,6.320784912109375,-0.009553887881338596,0.028284404426813126,0.020032532513141632
1782846040921790000,6.3307900390625,-0.007065962068736553,0.023118138313293457,0.015736322849988937
1782846040931795700,6.340795654296875,0.0001933346502482891,0.01519973948597908,0.012989711947739124
1782846040941801000,6.350801025390625,0.006558556109666824,0.012051350437104702,0.0008211963577196002
1782846040951806000,6.360805908203125,0.008542834781110287,0.003293860238045454,0.004888677038252354
1782846040961811000,6.37081103515625,0.017300106585025787,0.00021684379316866398,0.0021978190634399652
1782846040971817000,6.38081689453125,0.01602623239159584,-0.006266524083912373,0.00539741013199091
1782846040981822000,6.390822021484375,0.01662517711520195,0.00156077288556844,0.002627988811582327
1782846040991827000,6.400826904296875,0.013821550644934177,0.008544930256903172,0.0034455566201359034
1782846041001832000,6.41083203125,0.008804421871900558,0.009397141635417938,0.0018596441950649023
1782846041011837000,6.4208369140625,0.0035694765392690897,0.007752187550067902,-0.0018734829500317574
1782846041021843000,6.430843017578125,-0.0014207547064870596,0.00813222024589777,-0.005224272143095732
1782846041031848000,6.440847900390625,-0.005998643115162849,0.004048431757837534,-0.009459566324949265
1782846041041853000,6.45085302734375,-0.011412316933274269,0.0003839221317321062,-0.011170913465321064
1782846041051858000,6.46085791015625,-0.011540200561285019,0.00019352813251316547,-0.010465881787240505
1782846041061864000,6.470864013671875,-0.011212898418307304,0.000706719234585762,-0.001590099185705185
1782846041071869000,6.480868896484375,-0.009008143097162247,0.0052073197439312935,0.003705075243487954
1782846041081874000,6.4908740234375,-0.007735152263194323,0.009517645463347435,0.014375030063092709
1782846041091879000,6.50087890625,-0.007248645182698965,0.008680636063218117,0.021702544763684273
1782846041101885000,6.510885009765625,-0.008271299302577972,0.009671598672866821,0.022378720343112946
1782846041111890000,6.520889892578125,-0.00826046522706747,0.011776125989854336,0.01698003150522709
1782846041121895000,6.53089501953125,-0.009478595107793808,0.012833134271204472,0.012356782332062721
1782846041131900000,6.54089990234375,-0.007994817569851875,0.019069954752922058,0.008577050641179085
1782846041141906000,6.550906005859375,-0.0068123736418783665,0.02089182287454605,0.007499003317207098
1782846041151911000,6.560910888671875,-0.004294229671359062,0.016787102445960045,0.008989806286990643
1782846041161916000,6.570916015625,-0.00024143117479979992,0.011818976141512394,0.012159234844148159
1782846041171921000,6.5809208984375,0.003294960828498006,0.0013694774825125933,0.008581393398344517
1782846041181926000,6.59092578125,0.0038576864171773195,-0.00720137357711792,0.007236230652779341
1782846041191932000,6.600931884765625,0.0030415330547839403,-0.01203372422605753,0.002174441237002611
1782846041201937000,6.61093701171875,0.0032519225496798754,-0.019316669553518295,-0.003372923005372286
1782846041211942000,6.62094189453125,0.0025722510181367397,-0.014774307608604431,-0.006430787965655327
1782846041221947000,6.63094677734375,0.0013240273110568523,-0.009442925453186035,-0.008157582022249699
1782846041231953000,6.640952880859375,-0.0003120575565844774,-0.00161345349624753,-0.0015476967673748732
1782846041241958000,6.6509580078125,-0.0018955732230097055,0.0072338334284722805,0.005481983534991741
1782846041251963000,6.660962890625,0.00012093968689441681,0.013926432467997074,0.01335879135876894
1782846041261968000,6.6709677734375,-0.0008612340316176414,0.014514192938804626,0.02223191224038601
1782846041271974000,6.680973876953125,0.002375167328864336,0.012601364403963089,0.022251514717936516
1782846041281979000,6.690978759765625,0.00007392978295683861,0.00580897182226181,0.021570011973381042
1782846041291984000,6.70098388671875,-0.001654695370234549,-0.003681811271235347,0.016604039818048477
1782846041301988900,6.71098876953125,-0.0053239986300468445,-0.014343244023621082,0.004441381897777319
1782846041311993900,6.720993896484375,-0.005602959543466568,-0.01940789632499218,-0.008205865509808064
1782846041322000100,6.731000244140625,-0.008400610648095608,-0.010397357866168022,-0.01952296867966652
1782846041332005000,6.741005126953125,-0.009081186726689339,-0.0023819219786673784,-0.02303311787545681
1782846041342010000,6.751010009765625,-0.008023911155760288,0.0022517116740345955,-0.02104959636926651
1782846041352015000,6.76101513671875,-0.0013424146454781294,0.006235734559595585,-0.007626744452863932
1782846041362020900,6.771020751953125,0.00529578048735857,0.007882899604737759,0.0017904595006257296
1782846041372025900,6.78102587890625,0.0076375738717615604,-0.004295327700674534,0.012503812089562416
1782846041382030800,6.79103076171875,0.007099348586052656,-0.014259545132517815,0.019458390772342682
1782846041392035800,6.801035888671875,0.014728442765772343,-0.009540162049233913,0.021544063463807106
1782846041402041900,6.811041748046875,0.012890862300992012,-0.013840899802744389,0.016261950135231018
1782846041412046800,6.821046875,0.011371762491762638,-0.016688808798789978,0.008384296670556068
1782846041422051800,6.8310517578125,0.005816408433020115,-0.019367950037121773,-0.006198374554514885
1782846041432056800,6.841056884765625,-0.0006350036710500717,-0.018247628584504128,-0.01841069385409355
1782846041442061800,6.851061767578125,-0.004995397292077541,-0.01935310661792755,-0.03200053796172142
1782846041452067800,6.86106787109375,-0.007615520153194666,-0.0221195537596941,-0.03791683167219162
1782846041462072800,6.87107275390625,-0.00961156003177166,-0.025044769048690796,-0.036740779876708984
1782846041472077800,6.881077880859375,-0.004454880952835083,-0.019825773313641548,-0.03333166614174843
1782846041482082800,6.891082763671875,0.00030179135501384735,-0.011624302715063095,-0.03015771135687828
1782846041492089000,6.901089111328125,0.002549765631556511,-0.009134780615568161,-0.012495627626776695
1782846041502094000,6.911093994140625,0.0039971936494112015,-0.009042900055646896,0.0005831564194522798
1782846041512099000,6.92109912109375,0.007461229804903269,-0.007425825111567974,0.008742664940655231
1782846041522104000,6.93110400390625,0.006847370881587267,-0.010632803663611412,0.019625673070549965
1782846041532110000,6.941110107421875,0.0015054841060191393,-0.015197554603219032,0.01610395312309265
1782846041542115000,6.951114990234375,0.000042875995859503746,-0.018532365560531616,0.014920179732143879
1782846041552120000,6.9611201171875,-0.001979068387299776,-0.016675109043717384,0.008456096984446049
1782846041562125000,6.971125,-0.00630457466468215,-0.014787458814680576,0.000051959999836981297
1782846041572130000,6.981130126953125,-0.008520005270838737,-0.011320844292640686,-0.0063730087131261826
1782846041582135800,6.9911357421875,-0.007699751760810614,-0.011832970194518566,-0.011938216164708138
1782846041592140800,7.001140869140625,-0.00587913952767849,-0.011619774624705315,-0.013695381581783295
1782846041602145800,7.011145751953125,-0.0029049208387732506,-0.009337712079286575,-0.010701188817620277
1782846041612150800,7.02115087890625,0.003635940607637167,-0.010856899432837963,0.0017135061789304018
1782846041622156800,7.03115673828125,0.003333405125886202,-0.007675753906369209,0.009479816071689129
1782846041632161800,7.041161865234375,0.002110790926963091,0.00002073287032544613,0.020486360415816307
1782846041642166800,7.051166748046875,-0.0015057818964123726,0.009477085433900356,0.023292532190680504
1782846041652171800,7.061171875,-0.001720442553050816,0.010789197869598866,0.02817682735621929
1782846041662178000,7.071177978515625,-0.006676851771771908,0.010090118274092674,0.02625375986099243
1782846041672183000,7.08118310546875,-0.007274037692695856,0.005461322143673897,0.012583140283823013
1782846041682188000,7.09118798828125,-0.00782211683690548,-0.002857860177755356,0.001548331929370761
1782846041692193000,7.101193115234375,-0.0029730978421866894,-0.007353391032665968,-0.005606030113995075
1782846041702198000,7.111197998046875,-0.002305177040398121,-0.005575199145823717,-0.00915655680000782
1782846041712204000,7.1212041015625,-0.0018404882866889238,0.002338459948077798,-0.004785000346601009
1782846041722209000,7.131208984375,0.000598168233409524,0.004336629528552294,0.0037200707010924816
1782846041732214000,7.141214111328125,0.0007050794083625078,0.00276279472745955,0.012132683768868446
1782846041742219000,7.151218994140625,0.0032766277436167,0.00390076357871294,0.02333660237491131
1782846041752225000,7.16122509765625,0.0022279699333012104,0.00696998555213213,0.025273391976952553
1782846041762230000,7.17122998046875,0.0002764055971056223,0.0025238380767405033,0.02302222140133381
1782846041772235000,7.181235107421875,-0.0019859070889651775,-0.0023676385171711445,0.02197609655559063
1782846041782240000,7.191239990234375,0.002255709609016776,-0.0007838569581508636,0.013025480322539806
1782846041792245800,7.201245849609375,-0.0011084279976785183,-0.0015699462965130806,0.007669839076697826
1782846041802250800,7.211250732421875,-0.0022541198413819075,-0.005803840234875679,-0.0006842304719612002
1782846041812255700,7.221255859375,0.0009051219094544649,-0.004831901751458645,-0.008245258592069149
1782846041822260700,7.2312607421875,0.0029781265184283257,-0.002726938808336854,-0.012863712385296822
1782846041832265700,7.241265625,0.005927142687141895,-0.0034880302846431732,-0.015369941480457783
1782846041842272000,7.25127197265625,0.008525589480996132,-0.00650565791875124,-0.0075961751863360405
1782846041852277000,7.261277099609375,0.00990642886608839,-0.004156510345637798,0.0035651905927807093
1782846041862282000,7.271281982421875,0.01255494263023138,-0.001306395512074232,0.010469169355928898
1782846041872287000,7.281286865234375,0.009192264638841152,-0.00038714357651770115,0.022394144907593727
1782846041882293000,7.29129296875,0.006423641927540302,0.0015183482319116592,0.02740275114774704
1782846041892298000,7.301298095703125,0.0008452993351966143,0.0004377353470772505,0.030363457277417183
1782846041902303000,7.311302978515625,0.002299385378137231,0.002856684383004904,0.02077900618314743
1782846041912308000,7.321307861328125,0.0013809467200189829,0.00039449427276849747,0.009530276991426945
1782846041922314000,7.33131396484375,0.0030680594500154257,-0.0013211141340434551,0.005827684421092272
1782846041932319000,7.341319091796875,0.003980192355811596,-0.0041821482591331005,-0.005855070427060127
1782846041942324000,7.351323974609375,0.006312854588031769,-0.00807835254818201,-0.010278847068548203
1782846041952329000,7.361328857421875,0.007142813876271248,-0.013228281401097775,-0.004371469374746084
1782846041962334000,7.371333984375,0.006056244485080242,-0.015915676951408386,-0.0013583693653345108
1782846041972340000,7.381340087890625,0.0052192555740475655,-0.007028224412351847,-0.0005376177723519504
1782846041982345000,7.391344970703125,0.0017022849060595036,-0.004346687346696854,0.0008594765095040202
1782846041992350000,7.401349853515625,0.003236413700506091,-0.002853545593097806,0.008231152780354023
1782846042002355000,7.41135498046875,-0.00019799871370196342,0.002576107159256935,0.010687652975320816
1782846042012361000,7.42136083984375,-0.0049474602565169334,0.006612979806959629,0.010699254460632801
1782846042022366000,7.431365966796875,-0.001974573591724038,0.002855792175978422,0.009184980764985085
1782846042032371000,7.441370849609375,0.0001684422604739666,-0.002090310910716653,0.004682016093283892
1782846042042376000,7.4513759765625,0.004228430800139904,-0.006956438533961773,-0.005367955192923546
1782846042052381000,7.461380859375,0.0057671209797263145,-0.009361973963677883,-0.011128835380077362
1782846042062387000,7.471386962890625,0.007430797442793846,-0.012279466725885868,-0.012521135620772839
1782846042072392000,7.481391845703125,0.00907831359654665,-0.0120790284126997,-0.008281187154352665
1782846042082397000,7.49139697265625,0.009630653075873852,-0.00973890908062458,-0.002577494829893112
1782846042092402000,7.50140185546875,0.008309907279908657,-0.004841790534555912,0.004890344571322203
1782846042102408000,7.511407958984375,0.006870734505355358,0.004414291586726904,0.011167948134243488
1782846042112413000,7.521412841796875,0.00884479470551014,0.009209854528307915,0.023622451350092888
1782846042122418000,7.53141796875,0.012371085584163666,0.013407796621322632,0.029751185327768326
1782846042132423000,7.5414228515625,0.011339433491230011,0.014781275764107704,0.028608793392777443
1782846042142429000,7.551428955078125,0.013929090462625027,0.011180415749549866,0.024177825078368187
1782846042152434000,7.561433837890625,0.015217462554574013,0.0027090520597994328,0.014534206129610538
1782846042162439000,7.57143896484375,0.017401786521077156,-0.0034705467987805605,0.0023683542385697365
1782846042172444000,7.58144384765625,0.01595393382012844,-0.009815994650125504,-0.004394997842609882
1782846042182449000,7.591448974609375,0.01818273402750492,-0.013686100021004677,-0.011855044402182102
1782846042192455200,7.601455078125,0.0124443881213665,-0.013947013765573502,-0.015029288828372955
1782846042202460200,7.611460205078125,0.009532488882541656,-0.006855016574263573,-0.016610408201813698
1782846042212465200,7.621465087890625,0.005053883418440819,-0.0046617123298347,-0.01355520635843277
1782846042222470100,7.63147021484375,0.0031036504078656435,0.0008821901865303516,-0.009660067036747932
1782846042232476000,7.641475830078125,0.004501671530306339,0.0034456022549420595,-0.007671589031815529
1782846042242481000,7.65148095703125,0.0029461190570145845,0.0008618033025413752,-0.00003204558743163943
1782846042252486000,7.66148583984375,0.006108570843935013,0.0033300432842224836,0.008210530504584312
1782846042262491000,7.671490966796875,0.005455562844872475,0.0061471350491046906,0.010145583190023899
1782846042272495900,7.681495849609375,0.005066846963018179,0.005236555822193623,0.009264425374567509
1782846042282502000,7.691501953125,0.004470565356314182,0.008556452579796314,0.001131130731664598
1782846042292507000,7.7015068359375,0.0018591219559311867,0.009807317517697811,-0.0034440062008798122
1782846042302511900,7.711511962890625,0.0009906652849167585,0.009229411371052265,-0.011338148266077042
1782846042312516900,7.721516845703125,-0.00035800226032733917,0.008737840689718723,-0.01009734719991684
1782846042322523000,7.73152294921875,0.000018302351236343384,0.0064999861642718315,-0.006999824196100235
1782846042332527900,7.74152783203125,-0.000006198650225996971,0.00140296237077564,0.0032616015523672104
1782846042342533400,7.751533447265625,-0.0008088754257187247,-0.006728999316692352,0.005752456374466419
1782846042352538400,7.761538330078125,0.004320267587900162,-0.005331328604370356,0.007279964163899422
1782846042362544400,7.77154443359375,0.005202572792768478,-0.004650624468922615,0.004232242703437805
1782846042372549400,7.78154931640625,0.005976093001663685,-0.0033455295488238335,0.0073818014934659
1782846042382554400,7.791554443359375,0.004438383504748344,0.0010385662317276,0.00470053032040596
1782846042392559400,7.801559326171875,0.00614497996866703,0.0015604973305016756,0.0049399142153561115
1782846042402564400,7.811564453125,0.005096226930618286,0.002694204915314913,-0.002511344151571393
1782846042412570000,7.821570068359375,0.0012613935396075249,-0.002246664837002754,-0.013347793370485306
1782846042422575400,7.831575439453125,0.00045179249718785286,-0.007402544375509024,-0.018879445269703865
1782846042432580400,7.841580322265625,-0.004058122634887695,-0.01724887639284134,-0.022237911820411682
1782846042442585300,7.85158544921875,-0.005650426261126995,-0.01953599974513054,-0.020393140614032745
1782846042452591000,7.861591064453125,-0.008701354265213013,-0.014995602890849113,-0.024814995005726814
1782846042462596000,7.87159619140625,-0.013175730593502522,-0.01178809255361557,-0.021256212145090103
1782846042472601000,7.88160107421875,-0.013171672821044922,-0.005813551601022482,-0.022161569446325302
1782846042482606000,7.891606201171875,-0.014406047761440277,0.004479832015931606,-0.01715536043047905
1782846042492611000,7.901611083984375,-0.009749360382556915,0.01209515891969204,-0.011788848787546158
1782846042502617000,7.9116171875,-0.007061964366585016,0.017355700954794884,-0.004709633532911539
1782846042512622300,7.921622314453125,-0.004428643733263016,0.012528584338724613,0.004192376509308815
1782846042522627300,7.93162744140625,0.0005783652886748314,0.00820361077785492,0.016936667263507843
1782846042532632300,7.94163232421875,0.0026205002795904875,-0.0023785624653100967,0.021420711651444435
1782846042542638300,7.951638427734375,0.005579538643360138,-0.004158352967351675,0.02572145126760006
1782846042552643300,7.961643310546875,0.006807992234826088,-0.004434260539710522,0.026655839756131172
1782846042562648300,7.9716484375,0.0027309588622301817,0.0040084924548864365,0.020429901778697968
1782846042572653300,7.9816533203125,0.0015976950526237488,0.01555434800684452,0.01118940394371748
1782846042582658300,7.991658203125,-0.0002947470638900995,0.022809064015746117,0.0022281331475824118
1782846042592664300,8.001664306640626,-0.0032825248781591654,0.020420106127858162,-0.006391373462975025
1782846042602669300,8.01166943359375,-0.0004089740104973316,0.016474900767207146,-0.010580525733530521
1782846042612674300,8.02167431640625,-0.0016896752640604973,0.015124017372727394,-0.006429851055145264
1782846042622679300,8.03167919921875,0.0008608340285718441,0.011388134211301804,-0.002373856958001852
1782846042632685300,8.041685302734376,-0.000644216313958168,0.006028749048709869,0.012435647659003735
1782846042642690300,8.051690185546875,-0.0025494417641311884,0.007339823059737682,0.018408849835395813
1782846042652695300,8.0616953125,-0.0031347947660833597,0.00525406189262867,0.02632077783346176
1782846042662700300,8.0717001953125,-0.005376377608627081,0.005095071159303188,0.03173312172293663
1782846042672706000,8.0817060546875,-0.008521485142409801,0.008010335266590118,0.022968322038650513
1782846042682711000,8.0917109375,-0.013711187057197094,0.010091063566505909,0.013088793493807316
1782846042692716000,8.101716064453125,-0.016006842255592346,0.0074142939411103725,0.002839409513399005
1782846042702721000,8.111720947265624,-0.01848970726132393,0.006864084862172604,-0.00009326345752924681
1782846042712726300,8.121726318359375,-0.017046155408024788,0.005083322059363127,-0.005305116530507803
1782846042722732300,8.131732177734374,-0.021420663222670555,0.004850295372307301,-0.0024195811711251736
1782846042732737300,8.1417373046875,-0.021708842366933823,0.0003062458708882332,0.007371183484792709
1782846042742742300,8.1517421875,-0.017018213868141174,-0.009295248426496983,0.0195359718054533
1782846042752747300,8.161747314453125,-0.015484895557165146,-0.014010760933160782,0.03303217515349388
1782846042762752300,8.171752197265626,-0.011551938951015472,-0.012218188494443893,0.034254565834999084
1782846042772758300,8.18175830078125,-0.012945728376507759,-0.0073408083990216255,0.03377148136496544
1782846042782763300,8.19176318359375,-0.0152136767283082,0.0023315264843404293,0.02619931474328041
1782846042792768300,8.201768310546875,-0.0163922980427742,0.006051358766853809,0.018379347398877144
1782846042802773200,8.211773193359376,-0.01693052053451538,0.0084631172940135,0.0050235954113304615
1782846042812779300,8.221779296875,-0.01722284033894539,0.010377593338489532,-0.003622218267992139
1782846042822784300,8.2317841796875,-0.0165109783411026,0.011098511517047882,-0.004129284061491489
1782846042832789200,8.241789306640625,-0.014974514953792095,0.007911408320069313,-0.0022867126390337944
1782846042842794200,8.251794189453125,-0.01299205794930458,0.0013712173094972968,0.004818867426365614
1782846042852800300,8.26180029296875,-0.01004888117313385,-0.005187256261706352,0.00995978619903326
1782846042862805200,8.27180517578125,-0.0056275008246302605,-0.0017629635985940695,0.012206163257360458
1782846042872810200,8.281810302734375,-0.0007501249201595783,0.004798803478479385,0.009377735666930676
1782846042882815200,8.291815185546875,0.0005953039508312941,0.012509720399975777,0.006553986109793186
1782846042892820200,8.3018203125,0.0027041430585086346,0.01043688878417015,0.003955320455133915
1782846042902826200,8.311826171875,0.0014809533022344112,0.004771279636770487,-0.002104169921949506
1782846042912831200,8.321831298828124,0.002741460455581546,-0.000535676721483469,-0.0053859599865973
1782846042922836200,8.331836181640625,0.0036706372629851103,0.0002973601222038269,-0.011015616357326508
1782846042932841200,8.34184130859375,0.003738781437277794,0.0018849456682801247,-0.014075878076255322
1782846042942847200,8.35184716796875,0.003416005987673998,0.007012063637375832,-0.012612471356987953
1782846042952852200,8.361852294921874,0.006710730493068695,0.007409260608255863,-0.00680288951843977
1782846042962857200,8.371857177734375,0.00839864183217287,0.011221309192478657,0.0010856601875275373
1782846042972862200,8.3818623046875,0.009263669140636921,0.013741383329033852,0.006005873437970877
1782846042982867200,8.3918671875,0.01392153836786747,0.012390893884003162,0.014076316729187965
1782846042992873200,8.401873291015624,0.015164083801209927,0.002630506409332156,0.01571423001587391
1782846043002878200,8.411878173828125,0.01564212143421173,-0.00022972864098846912,0.009662996046245098
1782846043012883200,8.42188330078125,0.020079322159290314,0.0019807617645710707,-0.0034304249566048384
1782846043022888200,8.43188818359375,0.01842736266553402,0.0012731598690152168,-0.011558126658201218
1782846043032894200,8.441894287109376,0.023198308423161507,-0.0027482800651341677,-0.013180001638829708
1782846043042899200,8.451899169921875,0.021501341834664345,-0.009608049876987934,-0.014889484271407127
1782846043052904200,8.461904296875,0.022449279204010963,0.0015935645205900073,-0.0206824392080307
1782846043062909200,8.4719091796875,0.020785870030522346,0.015210573561489582,-0.018175872042775154
1782846043072914200,8.4819140625,0.02047109231352806,0.023525256663560867,-0.01972881890833378
1782846043082920200,8.491920166015625,0.026402218267321587,0.029645200818777084,-0.012325763702392578
1782846043092925200,8.50192529296875,0.032702673226594925,0.03344874829053879,0.0038948431611061096
1782846043102930400,8.511930419921875,0.03567582368850708,0.02100246585905552,0.011685920879244804
1782846043112935400,8.521935302734375,0.035157352685928345,0.0008795710746198893,0.016426846385002136
1782846043122941200,8.531941162109375,0.03893131762742996,-0.00610350351780653,0.013762352988123894
1782846043132946200,8.5419462890625,0.035935550928115845,-0.01095695048570633,-0.0017158595146611333
1782846043142951200,8.551951171875,0.04047570750117302,-0.012352180667221546,-0.005276239477097988
1782846043152956200,8.5619560546875,0.03847280517220497,0.0018134440761059523,0.0021295954938977957
1782846043162961200,8.571961181640624,0.04422683268785477,0.03946468234062195,0.0140818627551198
1782846043172967200,8.58196728515625,0.0029639622662216425,0.09478244185447693,0.08461706340312958
1782846043182972200,8.59197216796875,0.00002969149500131607,0.02046346850693226,0.05893966183066368
1782846043192977200,8.60197705078125,-0.005005685146898031,-0.022580552846193314,0.04628821089863777
1782846043202982100,8.611982177734374,0.016205061227083206,-0.07518384605646133,0.02329474315047264
1782846043212988200,8.62198828125,0.03322478011250496,-0.0972452238202095,-0.01032174751162529
1782846043222993200,8.6319931640625,0.023763101547956467,-0.0844106525182724,-0.009842644445598125
1782846043232998100,8.641998046875,0.00036065978929400444,-0.042693134397268295,0.010586660355329514
1782846043243003100,8.652003173828126,-0.015222294256091118,0.00806085579097271,0.0497329980134964
1782846043253008100,8.662008056640625,-0.019144544377923012,0.055766571313142776,0.07585638016462326
1782846043263014400,8.672014404296876,-0.018211906775832176,0.05132628232240677,0.07372905313968658
1782846043273019400,8.682019287109375,-0.022742286324501038,0.04923289641737938,0.027016419917345047
