time,seconds_elapsed,z,y,x
1782846760231335700,0.072335693359375,-11.93449204928875,-3.8180034599304196,1.1721576005447656
1782846760241340700,0.082340576171875,-12.993245900428294,-4.475202755554021,1.3886936615139245
1782846760251344600,0.0923447265625,-13.579708402788638,-5.347993013316392,1.4753192210435866
1782846760261349600,0.102349609375,-13.696404690933226,-6.240622236275673,1.3812614656865596
1782846760271354600,0.112354736328125,-13.643198001402615,-6.5400979348033665,1.314991588704288
1782846760281358600,0.122358642578125,-13.396958803021906,-5.922956801062822,1.29165630582422
1782846760291363800,0.13236376953125,-13.082635663974285,-4.487865545511245,1.490278012983501
1782846760301368800,0.142368896484375,-12.672394820916653,-2.577175424067676,1.7942475157991051
1782846760311372800,0.152372802734375,-11.704891851019859,-0.5563444274723529,2.239503558136523
1782846760321377800,0.162377685546875,-9.580622984042764,0.9272340878725052,2.3036237097389995
1782846760331382800,0.1723828125,-6.942234966382384,1.6561872448474169,1.634784099073708
1782846760341386800,0.18238671875,-4.029282404088974,1.8707181765392422,0.7989050104055553
1782846760351391700,0.192391845703125,-0.9647557170152664,1.7829092524439096,-0.1444819014970213
1782846760361396700,0.202396728515625,1.7173106988519429,1.3397975286588073,-1.0055322563007474
1782846760371400700,0.212400634765625,3.813754570314288,0.7525918067157268,-1.4151231110170484
1782846760381405700,0.22240576171875,5.972330780562758,0.32642844125255943,-1.3543576766699552
1782846760391410700,0.23241064453125,7.911481565076112,0.2910077299118042,-1.2007929625943303
1782846760401414700,0.24241455078125,9.375580303925275,0.5424713849425316,-0.813339267014712
1782846760411419600,0.252419677734375,10.212708004415035,0.9321377881355584,-0.20256436210414394
1782846760421424600,0.262424560546875,10.881429103267193,1.2537936081588268,0.13653877873914316
1782846760431428600,0.2724287109375,10.847928984725474,1.7523961868889628,0.30039926137970757
1782846760441433600,0.28243359375,10.050267033183575,2.321843110910058,0.12775091225281357
1782846760451438600,0.2924384765625,9.683988665971158,2.6997628160774707,0.005612707048933953
1782846760461442800,0.30244287109375,9.308788156634568,2.8135841333076357,0.02206515334639698
1782846760471447800,0.31244775390625,9.134371500927209,2.7941216002076863,0.1325584586650133
1782846760481452800,0.322452880859375,9.288782310438156,2.730915494710207,0.1300641210986301
1782846760491456800,0.332456787109375,9.464780097857117,2.6538825239121913,0.1338715505575761
1782846760501461800,0.342461669921875,9.65011796055138,2.6582822201758622,0.15246972191315145
1782846760511466800,0.352466796875,9.648632690429688,2.6402970661520957,0.11213807685095817
1782846760521470700,0.362470703125,9.668474870496988,2.599064599792659,0.027049006173573434
1782846760531475700,0.372475830078125,9.751994280704855,2.642396376518905,-0.18139679691828786
1782846760541480700,0.382480712890625,9.726932904684544,2.66856220664978,-0.411681397254765
1782846760551484700,0.392484619140625,9.809270996153353,2.7561890521764756,-0.5979401741862297
1782846760561489700,0.40248974609375,9.927505745911597,2.8140637335181236,-0.8139140712279825
1782846760571495000,0.412494873046875,9.99717607898712,2.739477571350336,-0.8607978413473815
1782846760581498600,0.42249853515625,10.172074380731582,2.608592598855495,-0.7590843836054205
1782846760591503600,0.432503662109375,10.161792640691996,2.5496909125536678,-0.5721579730780795
1782846760601508600,0.442508544921875,9.863557882136107,2.448683776450157,-0.6030004897831007
1782846760611512600,0.4525126953125,9.314850233152509,2.210980497355014,-0.949274947027862
1782846760621517600,0.462517578125,8.082982625597715,1.8377467580467461,-1.3215557695254683
1782846760631522600,0.4725224609375,6.491513059854507,1.0561372389003634,-1.6789318683579564
1782846760641526800,0.48252685546875,4.494333864742517,0.3403665118426084,-1.9194829380996523
1782846760651531800,0.49253173828125,1.7982371699571609,-0.24548370383828877,-1.7988553018555045
1782846760661536800,0.502536865234375,-1.0629641623109578,-1.0646765191867946,-1.2024128188811243
1782846760671540700,0.512540771484375,-3.102114367190003,-1.8808540783673524,-0.47166620261818165
1782846760681545700,0.522545654296875,-5.2036447481364005,-1.7103667249329386,0.940316053089872
1782846760691550700,0.53255078125,-7.57537387972176,-1.1531650961093605,2.014603500382602
1782846760701554700,0.5425546875,-10.234604194402694,-1.9827694153569637,1.77721045628041
1782846760711559700,0.5525595703125,-11.900469368177651,-3.686580727297067,0.8728649304337799
1782846760721564700,0.562564697265625,-11.677008987838029,-3.14134163120687,0.9791858819711953
1782846760731569000,0.57256884765625,-12.958008582830429,-3.0008348438858983,1.4259581010252236
1782846760741574000,0.582573974609375,-15.345710359573363,-1.8747711051918565,2.53714502697438
1782846760751577600,0.59257763671875,-16.322155345338583,1.2826456086337565,3.9255706852018832
1782846760761582600,0.60258251953125,-16.57167254247665,3.4876918936342,4.327141315069794
1782846760771587600,0.612587646484375,-15.814599790954588,3.525288049317896,3.1815105599880216
1782846760781591600,0.622591552734375,-13.615087174683808,1.9042982284493744,1.5303541489146648
1782846760791596500,0.632596435546875,-10.243505293738842,-1.3951348004773259,0.3760949374256655
1782846760801601500,0.6426015625,-5.0802954318434,-5.822172952321171,0.5709043562877922
1782846760811606500,0.6526064453125,0.5982423720031976,-8.707122239923477,2.1869722836494443
1782846760821610800,0.66261083984375,3.3328695807129143,-7.738081977456807,3.349383200879395
1782846760831615700,0.67261572265625,1.8520780657380818,-5.295148142835497,2.5132833821326495
1782846760841619500,0.682619384765625,-0.9855997676014899,-3.2335236558198925,0.8460647479221224
1782846760851624400,0.69262451171875,-2.9479233379095793,-1.1662277721043675,-0.13249390552882104
1782846760861629400,0.70262939453125,-3.809582253065705,0.6320380394253879,-0.7822476709194481
1782846760871633400,0.71263330078125,-3.4795758071959018,1.8858385887816547,-0.8105437180120497
1782846760881638400,0.722638427734375,-2.1716116329103707,2.560746267314255,-0.601616743807122
1782846760891643600,0.7326435546875,-0.5377326659828424,2.831522233319282,-0.6045489978667348
1782846760901647600,0.742647705078125,1.3502356283038854,2.599814541377127,-0.7901129974670708
1782846760911652600,0.752652587890625,3.164631321379542,1.9812403060935437,-1.0325457893021404
1782846760921657600,0.76265771484375,4.842664487332105,1.298960637488216,-1.3977664641551673
1782846760931661600,0.77266162109375,6.14907324886918,0.9738682671450077,-1.6970786426842213
1782846760941666600,0.78266650390625,6.911720585653185,1.0152372193656862,-1.8983884198836982
1782846760951671600,0.792671630859375,7.03153880521059,1.0100514872908593,-2.2206483432799575
1782846760961675500,0.802675537109375,6.891040785717964,0.9106805740870535,-2.4661352619886396
1782846760971680800,0.8126806640625,6.660448069280386,0.8988399141676724,-2.586673612514138
1782846760981685800,0.822685791015625,6.348011182370781,0.8894311575703322,-2.792923038072884
1782846760991689700,0.832689697265625,5.966668517017364,0.8347219545222818,-2.9679177859291435
1782846761001694700,0.84269482421875,5.641401374629139,0.7560628438271582,-2.817020829758048
1782846761011699700,0.85269970703125,5.280754875823855,0.7666374293334781,-2.347242048321664
1782846761021703400,0.862703369140625,4.833860418629646,0.8117449835605919,-1.6867817050755023
1782846761031708400,0.87270849609375,4.226400136426091,1.078874263626337,-0.8800760308563709
1782846761041713400,0.88271337890625,3.3996401006937025,1.5866159882321953,-0.17028890825286508
1782846761051717600,0.892717529296875,2.5338579681277276,2.170406056512892,0.2689115603726357
1782846761061722600,0.90272265625,1.602715182378888,2.7796003229022026,0.3564095918878913
1782846761071727600,0.9127275390625,0.9134300189256668,3.2626521351486444,0.33292635190449654
1782846761081731600,0.922731689453125,0.8428905018001794,3.403068906098604,0.33507585808858276
1782846761091736600,0.932736572265625,1.2313719329923392,3.1261738726913926,0.20992442427705973
1782846761101741600,0.942741455078125,1.7271172225952147,2.5744857465922832,0.07830127370078116
1782846761111746600,0.95274658203125,2.0599697055459023,1.904258919352293,0.01806187252178788
1782846761121750500,0.96275048828125,2.0639450389176606,1.0904571493923663,-0.051445452011749146
1782846761131755500,0.972755615234375,1.765147970303893,0.15186024824529884,-0.173106157630682
1782846761141760500,0.982760498046875,1.2563023761093617,-0.9088483902238309,-0.2751925038056448
1782846761151764700,0.9927646484375,0.47877661914527414,-1.708984769055247,-0.2432211657337844
1782846761161769700,1.002769775390625,-0.8881851030319928,-2.2011619909130036,0.0744656775932759
1782846761171774700,1.012774658203125,-2.715963424772024,-2.6651114816740153,0.6085732849467546
1782846761181778700,1.02277880859375,-5.02469921682775,-2.9260733251512048,1.0432159441374242
1782846761191783700,1.03278369140625,-7.919994541877507,-2.8568913601145147,0.9948572791598737
1782846761201787400,1.042787353515625,-10.889128425598145,-2.589171274548769,0.6232657541006803
1782846761211792400,1.05279248046875,-13.145361877000331,-2.460373629721999,0.18027005791068076
1782846761221797400,1.06279736328125,-14.617924492812156,-2.5710943505883215,0.08761047891378403
1782846761231801600,1.072801513671875,-15.517344691085814,-2.9745810432106254,-0.12313625806421041
1782846761241806600,1.082806640625,-15.891740313780307,-3.516018993452191,-0.2715228023169562
1782846761251811600,1.0928115234375,-16.000524513626097,-3.6809742855921384,-0.07733060203772038
1782846761261815600,1.102815673828125,-15.94324604461193,-3.364173650515079,0.41863994768839324
1782846761271820500,1.112820556640625,-15.740044023925066,-2.8064690406054256,0.8855152993008494
1782846761281825500,1.122825439453125,-15.07592778851986,-2.3352023586988446,0.9185274881951511
1782846761291830500,1.13283056640625,-13.825965136826037,-1.9765758214138447,0.693141692750901
1782846761301834500,1.14283447265625,-12.03469429875016,-1.536777167699486,0.47098289652913805
1782846761311839500,1.152839599609375,-9.784842657339572,-1.155999588882923,0.4658832353025675
1782846761321844500,1.162844482421875,-7.117512038311362,-0.7125565873168408,0.7094853631779551
1782846761331848700,1.1728486328125,-4.342362849599123,-0.21919921576380727,1.1447499536592514
1782846761341853700,1.182853759765625,-1.6266875941187142,0.23696751216650008,1.4981730040170251
1782846761351858700,1.192858642578125,0.9431021036118269,0.6307870895162224,1.726531970053166
1782846761361862700,1.202862548828125,3.290618584960699,0.9371507939919829,1.7545158093914388
1782846761371867600,1.21286767578125,5.335666615706682,1.2864192819535731,1.597575481402874
1782846761381872600,1.22287255859375,7.030479067024588,1.6743375263050198,1.384697869876027
1782846761391876400,1.23287646484375,8.176047278264164,1.9488830739766358,1.0627214395962654
1782846761401881300,1.24288134765625,9.143252726519107,2.276540034110844,0.8329952768601476
1782846761411886600,1.252886474609375,9.79467314648032,2.6250974511936307,0.6166015469711273
1782846761421890600,1.262890625,10.05148751488924,3.083479224824905,0.40088637393079696
1782846761431895600,1.2728955078125,9.738604053255916,3.5074703608155247,0.2345175069321878
1782846761441900500,1.282900634765625,9.329496013620496,3.728927876900136,0.16509692910034207
1782846761451904500,1.292904541015625,9.247365427422523,3.747311090330779,0.2817178869863972
1782846761461909500,1.302909423828125,9.430126133105158,3.5792885195747015,0.5810016796711832
1782846761471914500,1.31291455078125,9.779823952394723,3.323961174853146,0.8136746364489197
1782846761481918500,1.32291845703125,10.39960654055476,3.1869135880753396,0.9697466571703552
1782846761491923500,1.33292333984375,10.960084706830978,3.120791302870214,0.9804493260357529
1782846761501928400,1.342928466796875,11.385015754020213,2.9933766368344426,0.8478481972727924
1782846761511932700,1.3529326171875,11.716763490599392,2.886298071862757,0.6866025002405047
1782846761521937700,1.362937744140625,11.84211654793024,2.796358273218572,0.7259580668121576
1782846761531942700,1.372942626953125,11.885006426107882,2.952837997958064,0.8093027780402451
1782846761541946600,1.382946533203125,11.711838309156894,3.038436260266602,0.9070314769949763
1782846761551951600,1.39295166015625,11.344627629530429,3.080622374089062,0.8686910057500005
1782846761561956600,1.40295654296875,10.742305879259108,3.09940656953603,0.7103717906236648
1782846761571960600,1.412960693359375,9.97267409041524,3.2728438588172195,0.480036702208966
1782846761581965600,1.422965576171875,9.307839477607608,3.401050844274461,0.09357053809566422
1782846761591970600,1.432970458984375,8.792184203398227,3.4938767197489735,-0.11957867518048733
1782846761601974500,1.442974609375,7.906365244975686,3.6514004005834457,-0.18785106935789808
1782846761611979500,1.4529794921875,6.544768264701962,3.679692136827111,-0.381021616705507
1782846761621984500,1.462984619140625,4.925611650609969,3.5004043679520485,-0.6152958712000399
1782846761631988500,1.472988525390625,3.142576141437888,2.8642659805357455,-0.6785770877603441
1782846761641993500,1.482993408203125,1.5656483112663029,1.8593690995290875,-0.6277132350288331
1782846761651998500,1.49299853515625,-0.051069677501916884,0.71426003023386,-0.6471718226060271
1782846761662002700,1.503002685546875,-1.758334783157706,-0.5078127440154552,-0.838191530328989
1782846761672007700,1.513007568359375,-3.1557401589155196,-1.499263283471763,-0.7065618769466877
1782846761682012700,1.5230126953125,-3.9710926654487846,-2.100925108529627,0.10332542298324406
1782846761692016600,1.5330166015625,-4.622701301458478,-2.495193014168739,1.160258196175471
1782846761702021600,1.543021728515625,-5.599011847189068,-3.0128754102915525,1.798896364518255
1782846761712026600,1.553026611328125,-6.825178612753748,-4.20017059340924,1.5312820774145424
1782846761722030600,1.563030517578125,-8.011682060971856,-5.547673874139785,0.7270690967939794
1782846761732035600,1.57303564453125,-8.904130666667223,-6.091970136421918,0.34619448734372854
1782846761742040600,1.58304052734375,-9.994282695633173,-5.664034646719694,0.6756389154165983
1782846761752044800,1.593044921875,-11.371358984589577,-4.036183269518614,1.5503163020998239
1782846761762049800,1.6030498046875,-12.460613187932967,-1.8929501743525265,2.261931370782852
1782846761772054800,1.6130546875,-13.111838377583027,-0.21263079715892672,2.192258407358825
1782846761782058200,1.623058349609375,-13.367017253744601,0.5486383831396698,1.2986378352746366
1782846761792063200,1.633063232421875,-13.052121283245086,0.4850950085118413,0.10964278943650424
1782846761802068200,1.643068115234375,-11.872974627530574,-0.05639861743971705,-0.9127258161790669
1782846761812072200,1.653072265625,-10.032432101285456,-1.0308348937310279,-1.531158597165346
1782846761822077200,1.6630771484375,-7.202102292621135,-2.2555019222572446,-1.6141785334184764
1782846761832082200,1.673082275390625,-3.8816187307506795,-3.4992388313040137,-1.2049212215054779
1782846761842086400,1.68308642578125,-1.6177485008597372,-4.358671302582323,-0.4063002156730741
1782846761852091400,1.69309130859375,-0.7300017892450094,-4.291541009378433,0.893173339773342
1782846761862096400,1.703096435546875,-0.6353419763416052,-3.399894952237606,1.7577803641453384
1782846761872100000,1.71310009765625,-0.8566846338748931,-2.0656708397969603,2.0872851441033182
1782846761882105000,1.72310498046875,-0.7319359721779823,-0.8372501578256487,1.9644770950801669
1782846761892110000,1.733110107421875,-0.26709727749228473,0.06262655204385519,1.479402983225882
1782846761902114000,1.743114013671875,0.43574119501709935,0.7169079143941403,0.7690091999661177
1782846761912119000,1.753119140625,1.2607751376092433,1.3043918687567113,0.06087583591900766
1782846761922124000,1.7631240234375,2.2891677527546883,1.7891604217931627,-0.5662680017240345
1782846761932129000,1.77312890625,3.2752667020499704,2.093780789732933,-1.2380948115065693
1782846761942133200,1.78313330078125,4.267387980374694,2.1810133752450347,-1.910988665998727
1782846761952138200,1.79313818359375,5.161790058225393,2.1802748318374157,-2.3969668870858847
1782846761962143200,1.803143310546875,5.769150387185812,2.235606550697982,-2.6190941191256045
1782846761972147200,1.813147216796875,6.161555713823438,2.193057156521082,-2.6721085009545087
1782846761982152200,1.823152099609375,6.282130304706096,2.0998089639812707,-2.4841800372451543
1782846761992157200,1.8331572265625,6.10006167294085,2.011388337728381,-2.086381181000918
1782846762002161200,1.8431611328125,5.91257276969254,1.8639546737536787,-1.69978497903347
1782846762012166100,1.853166259765625,5.839597549852728,1.7822952121987938,-1.2085149351485074
1782846762022171100,1.863171142578125,5.56338640705645,1.6809978609770535,-0.6125151544403284
1782846762032175400,1.87317529296875,5.2908209272861475,1.6224728990331292,-0.011079977745190261
1782846762042180400,1.883180419921875,5.142952671286463,1.495061447867751,0.39200617125220594
1782846762052185300,1.893185302734375,5.026997556897998,1.3082500054895878,0.6047638096611947
1782846762062189000,1.90318896484375,4.755258591079712,1.313622346177697,0.6764606070630252
1782846762072194000,1.913194091796875,4.468655818128585,1.426852419516444,0.6564077068544923
1782846762082199000,1.923198974609375,4.187738689598441,1.5818910055369138,0.46469848249740897
1782846762092203300,1.933203369140625,3.8842560935169455,1.8605876815386115,0.10399638104736804
1782846762102208300,1.943208251953125,3.551950723055005,2.1229037161037323,-0.16332644882909952
1782846762112213200,1.953213134765625,3.2084464977085587,2.2038253649033606,-0.4474346284855157
1782846762122217200,1.96321728515625,2.9060604646921155,2.1226868584826586,-0.6228967015925795
1782846762132222200,1.97322216796875,2.6077234148055313,1.7669433292880654,-0.7516010421127081
1782846762142227200,1.983227294921875,2.5290602124571797,1.2059952074125408,-0.9209695475850254
1782846762152231200,1.993231201171875,2.125657106465101,0.5276715829566121,-1.2264040814518928
1782846762162236200,2.003236083984375,1.0569541082412004,-0.18125819216519592,-1.5568372283011673
1782846762172241200,2.0132412109375,-0.7008955217480659,-0.7257672204151749,-1.7248793805405496
1782846762182245400,2.023245361328125,-2.746208340910077,-1.0395799257226288,-1.3682535155534743
1782846762192250400,2.03325048828125,-4.889556002366542,-1.1728181833453475,-0.4794488923836499
1782846762202255400,2.04325537109375,-6.586582038080692,-1.287075261644274,0.6370254724491388
1782846762212259300,2.05325927734375,-8.21796100488603,-1.551131125614047,1.832096184939146
1782846762222264300,2.063264404296875,-9.737906718641518,-1.8053550391383468,2.6976933163270354
1782846762232269300,2.073269287109375,-10.987112999010085,-2.1655979255788025,3.3143191940218206
1782846762242273000,2.08327294921875,-12.197708101433514,-2.8528894309967754,3.580630581833422
1782846762252278000,2.093278076171875,-13.194120354950428,-3.6205870369076725,3.374252269198
1782846762262283000,2.103282958984375,-14.057451002711057,-4.082207938590646,2.8116934972554444
1782846762272287200,2.113287353515625,-14.62200211751461,-4.265435677263141,2.1513301846429704
1782846762282292200,2.123292236328125,-14.740377152526378,-4.385800717048347,1.4480872229859232
1782846762292297200,2.133297119140625,-14.448029698443412,-4.4697634871095415,0.945076910816133
1782846762302301200,2.14330126953125,-13.980865775680542,-4.194187135085463,0.5575703890707343
1782846762312306200,2.15330615234375,-13.799506168967484,-3.762414843699336,-0.04523505306430161
1782846762322311200,2.163311279296875,-13.928153591668606,-3.092838004800677,-0.34551892616972324
1782846762332315100,2.173315185546875,-13.87034671486616,-1.9919842568174004,-0.2128541575860232
1782846762342320000,2.183320068359375,-13.088345273792743,-0.6786081404857337,0.12980989060923456
1782846762352325000,2.1933251953125,-11.207386566007136,0.6702494774632155,0.513465582145378
1782846762362330000,2.203330078125,-8.458051617509126,2.03776138086915,0.9776208246115594
1782846762372334300,2.213334228515625,-5.285327590566873,3.2301340133816003,1.4236464630819856
1782846762382339300,2.22333935546875,-2.034305687457323,3.843644681665301,1.258830433282256
1782846762392344300,2.23334423828125,0.9214245248109102,4.002569461469352,0.5245276589076966
1782846762402348300,2.243348388671875,3.792754452383518,3.841735048651695,-0.3780173203229904
1782846762412353300,2.253353271484375,6.473088345369696,3.306077727638185,-1.2041387658908962
1782846762422358300,2.263358154296875,8.717629605412483,2.532399878273904,-1.8420035387083886
1782846762432362000,2.273362060546875,10.62147117613554,2.0007775118649005,-2.083074102279544
1782846762442367200,2.2833671875,11.677365546190739,1.9375749134987592,-1.9683193035915494
1782846762452372200,2.293372314453125,11.837858890485762,2.3979385085970164,-1.6523568729043006
1782846762462376200,2.303376220703125,11.649811184310913,3.0120848444357513,-1.0899591367423533
1782846762472381200,2.313381103515625,11.43343754736185,3.481589192844927,-0.46835872203800827
1782846762482386200,2.32338623046875,11.167156262427568,3.893280234710872,-0.06983871191237122
1782846762492390100,2.33339013671875,11.087664792561531,4.180354424566031,0.01161605738326907
1782846762502395100,2.34339501953125,11.376042173969745,4.258130322685838,-0.12557013414762913
1782846762512400100,2.353400146484375,11.729404360985756,4.200338058930635,-0.25097451980691404
1782846762522404000,2.363404052734375,12.034403206849097,4.002776966740191,-0.3298273995084688
1782846762532409000,2.3734091796875,12.313423561847209,3.8582615282997486,-0.29814656881578266
1782846762542414000,2.3834140625,12.656653646427392,3.8610648952826856,-0.1294428108625114
1782846762552418300,2.393418212890625,12.77277125790119,3.9708416132971642,0.08872019372135401
1782846762562423300,2.40342333984375,12.69880585798025,4.086198469531536,0.2125705548716709
1782846762572428300,2.41342822265625,12.440866869455576,4.085449696990847,0.35182555203326044
1782846762582432300,2.423432373046875,12.15191198042035,3.990916725337505,0.5195716804681345
1782846762592437200,2.433437255859375,11.845062538254261,3.848793442730605,0.5324120189493522
1782846762602442200,2.443442138671875,11.159585534912347,3.700791331218183,0.40033882305063306
1782846762612446200,2.4534462890625,10.348098471635579,3.5489532948046922,0.09076488782409578
1782846762622451200,2.463451171875,9.741251937416195,3.4246453626126048,-0.32864633649773894
1782846762632456200,2.473456298828125,9.044960110071301,3.3501734744742513,-0.6472541671272367
1782846762642460200,2.483460205078125,8.11783123613894,3.3533532735541463,-0.5329783841278404
1782846762652465200,2.493465087890625,6.750995186167955,2.9999922555819154,-0.2870978264590725
1782846762662470100,2.50347021484375,4.909995563805103,2.3943700024604797,-0.27648097271360456
1782846762672474000,2.51347412109375,2.719413272964954,1.8676894763678311,-0.14771522086244077
1782846762682479000,2.52347900390625,0.1591097809821367,1.377334647631645,0.24797230578362942
1782846762692484000,2.533484130859375,-1.9309546185761688,0.7729974658846854,0.7845269409630448
1782846762702488000,2.543488037109375,-3.487290327095985,0.08086392726302147,1.3922835026994347
1782846762712493000,2.5534931640625,-5.165256857553124,-0.8445946753695607,1.9931272893726824
1782846762722498300,2.563498291015625,-6.911046047392487,-2.0273028229579326,2.155786287268996
1782846762732503300,2.57350341796875,-8.532696231865883,-3.0729356189787387,1.9490157604455947
1782846762742507300,2.58350732421875,-9.409168685272336,-3.8051314111366867,1.7687978711135683
1782846762752512300,2.59351220703125,-9.461912433466315,-3.8170577035129067,1.9331157421328127
1782846762762517200,2.603517333984375,-10.016813676393031,-4.281331165531277,1.679077268178016
1782846762772521200,2.613521240234375,-11.994625323212146,-5.378066664540768,0.6648364394385368
1782846762782526500,2.6235263671875,-13.740609743362665,-5.9551055049955846,-0.5699791312016547
1782846762792531500,2.633531494140625,-14.183444696033,-5.2260214151173825,-0.7291069592971354
1782846762802535400,2.643535400390625,-14.377233576208353,-3.3811171865314242,0.39420886892825363
1782846762812540400,2.65354052734375,-14.203611870270967,-1.2198692728556693,1.7037508139245212
1782846762822545400,2.66354541015625,-13.522294324696063,0.7067984621815383,2.4591435034051536
1782846762832549400,2.67354931640625,-12.546032878804207,1.8042993926055728,2.4443619677282866
1782846762842554400,2.683554443359375,-11.073146437865494,1.5795951496846974,1.5261618117913602
1782846762852559600,2.6935595703125,-8.762362481108307,0.39906098513454197,0.40374954480957237
1782846762862563300,2.703563232421875,-5.606670837509632,-1.207929536475986,-0.21004425126444548
1782846762872568300,2.713568359375,-1.8743956960082053,-3.300297390671074,-0.17871544887982307
1782846762882573300,2.7235732421875,1.4426315879285334,-4.921091542837024,0.3450519297124818
1782846762892577500,2.73357763671875,3.6976305290997025,-4.771013209572434,0.9897457813650369
1782846762902582500,2.74358251953125,4.510507585430145,-3.29710619341433,1.2581979805976151
1782846762912587500,2.75358740234375,3.886741480591893,-1.6949154733009635,0.8258066805303096
1782846762922591500,2.763591552734375,2.589232064825296,-0.5540861271515488,-0.020869879147224126
1782846762932596500,2.773596435546875,1.6973375858813524,0.39989918952435255,-0.644657428632304
1782846762942601500,2.7836015625,1.5631909812420606,1.2088202017053962,-1.029106243307516
1782846762952605400,2.79360546875,2.1464275072932244,1.7600922943495212,-1.1639321354478598
1782846762962610400,2.8036103515625,2.900304677644372,2.2991313667558133,-1.1078999401677398
1782846762972615400,2.813615478515625,3.6735897282987833,2.54056711037755,-1.103274983780831
1782846762982619600,2.82361962890625,4.3106133741170165,2.3177704546436666,-1.1894602521970867
1782846762992624600,2.833624755859375,4.7582478360235685,1.923833972916007,-1.185132305995375
1782846763002629600,2.843629638671875,5.019779296082258,1.3753626169063151,-1.1382630027927458
1782846763012633600,2.853633544921875,5.140718628624081,0.9192398742482065,-0.8718437706924974
1782846763022638600,2.863638671875,5.276917489618063,0.6711328361690044,-0.4564924527533352
1782846763032643600,2.8736435546875,5.418468817555904,0.5622893073514104,-0.06144369893483817
1782846763042647300,2.883647216796875,5.4076843886911865,0.5767665993846952,0.25438871216457337
1782846763052652300,2.89365234375,5.14288486674726,0.6798094790995121,0.5140716948123648
1782846763062657300,2.9036572265625,4.702233103334904,0.7294635907150805,0.5485030297895893
1782846763072661500,2.91366162109375,4.121106701305508,0.8599158708810806,0.41981436176262793
1782846763082666500,2.92366650390625,3.5629666225880383,1.103334605013579,0.27489852582775054
1782846763092671500,2.93367138671875,3.3478222351729867,1.3925443455927073,0.17557952547427266
1782846763102676500,2.943676513671875,3.4804379769831892,1.6430347716771065,0.058547977493330836
1782846763112680400,2.953680419921875,3.704528471919894,1.9568433853313325,-0.13643493477217852
1782846763122685400,2.963685546875,3.8478012168228624,2.2929005095422266,-0.3481986667729914
1782846763132690400,2.9736904296875,3.9161902779161926,2.6278780218228697,-0.48495976475961505
1782846763142694400,2.9836943359375,3.725585872995853,2.9106343484789132,-0.3480475678645074
1782846763152699400,2.993699462890625,3.3082886816859243,3.004754355417192,-0.08799491165410726
1782846763162704400,3.003704345703125,2.9544933639496564,2.818178767621517,0.1496929506761953
1782846763172708600,3.01370849609375,2.6327257541149853,2.3738133905135093,0.2746933951770887
1782846763182713600,3.023713623046875,2.184514953625202,1.362459442321956,0.12626750529464334
1782846763192718600,3.033718505859375,1.582209569966793,0.14777312506213783,-0.19072364738583564
1782846763202722600,3.04372265625,0.585938186225295,-0.7560719039164483,-0.14389281303007154
1782846763212727600,3.0537275390625,-0.6702075380176306,-1.4028744548186658,0.20894421760067342
1782846763222732500,3.063732666015625,-2.31154441973567,-1.9728633767619728,0.7327230309024453
1782846763232736300,3.073736328125,-4.5796308060169215,-2.490162034264207,1.2327687941782175
1782846763242741200,3.0837412109375,-7.248543141278624,-3.1311177588343617,1.2778411309614777
1782846763252746200,3.093746337890625,-10.11957730077505,-3.4933547417014834,0.9975678532928228
1782846763262750500,3.10375048828125,-12.823763778513669,-3.3662603936612605,0.9617638417229056
1782846763272755500,3.11375537109375,-14.383535891222953,-3.0600790600150822,1.4775851201489567
1782846763282760400,3.123760498046875,-15.557608896934985,-3.429306047900021,1.9926941586524247
1782846763292764400,3.133764404296875,-16.93326479769945,-4.156773057970405,2.3634824045047162
1782846763302769400,3.143769287109375,-16.996517080426216,-4.328076550093293,2.3444958183534443
1782846763312774400,3.1537744140625,-16.337909379309416,-4.663261859905719,1.7394200931988655
1782846763322778400,3.1637783203125,-15.428571013611554,-5.180936072722077,0.8081073577105998
1782846763332783400,3.173783447265625,-14.017117823278904,-5.363640664303302,0.02499327922016382
1782846763342788400,3.183788330078125,-12.351108857119083,-5.394503420078754,-1.0061810755982994
1782846763352792600,3.19379248046875,-10.780769757688045,-5.09383588141799,-1.8890040670752524
1782846763362797600,3.203797607421875,-9.321863911306858,-4.1066973599419,-2.0051202172443268
1782846763372802600,3.213802490234375,-7.720860793542862,-2.5730004764705896,-1.3478253522917627
1782846763382806500,3.223806640625,-6.036023208272457,-0.9103425743043422,-0.44058136505726725
1782846763392811500,3.2338115234375,-4.392301477244496,0.5043219792902469,0.3380135920409113
1782846763402816500,3.24381640625,-2.7389766360908747,1.6691998711556195,0.8475157504480332
1782846763412821500,3.253821533203125,-1.0966729551672936,2.5447712840691206,0.9730915836840868
1782846763422825200,3.2638251953125,0.5033738847851753,3.0695529908031225,0.9367381215378642
1782846763432830200,3.273830322265625,2.0664438699960708,3.356090589563548,0.7914975836932658
1782846763442835500,3.28383544921875,3.6173663212954996,3.313699893079698,0.5354116026241332
1782846763452839400,3.29383935546875,5.016010298937559,3.019399551363289,0.3267936943683773
1782846763462844400,3.303844482421875,6.427123882052302,2.6687369786947963,0.15163230297463015
1782846763472849400,3.313849365234375,7.847474664589762,2.3135458226859567,0.19047610236555337
1782846763482853400,3.323853271484375,8.84098652049005,2.0085927156604826,0.36662783823721107
1782846763492858400,3.3338583984375,9.529681316834688,1.8532576309114694,0.5980215688593685
1782846763502863400,3.34386328125,9.919355172681808,1.9221327219560742,0.6852075387507677
1782846763512867300,3.353867431640625,9.993159244561195,2.15548058232069,0.7089345243621618
1782846763522872300,3.363872314453125,9.97410616904497,2.422491935095191,0.7366649003960192
1782846763532877600,3.373877685546875,10.203739100539684,2.4867852513074875,0.7634083842843771
1782846763542881500,3.383881591796875,10.578305403625965,2.4743898801147934,0.8312105854004621
1782846763552886500,3.393886474609375,11.031125159215927,2.6375188336104154,0.889917333652079
1782846763562891500,3.4038916015625,11.429161185216904,2.843863828498125,0.9320639191817491
1782846763572895500,3.4138955078125,11.854496721553803,2.867029015508294,0.8480511724989861
1782846763582900500,3.423900390625,12.259423091590405,2.8287057145938275,0.7555046984877437
1782846763592905500,3.433905517578125,12.512656678903102,2.8776377955451604,0.6864873494282364
1782846763602909400,3.443909423828125,12.619811231720448,2.926608454941213,0.5551160547211766
1782846763612914700,3.453914794921875,12.389977224695683,2.9805896359756585,0.31473077000044286
1782846763622919700,3.463919677734375,11.713028395724296,3.095665921702981,0.03762505298461765
1782846763632923400,3.47392333984375,10.860221480065583,3.2312136253118515,0.05758084492764901
1782846763642928400,3.483928466796875,10.179317775988578,3.2535280407115814,0.09273520151637495
1782846763652933400,3.493933349609375,9.577596329697966,3.256056390145421,-0.028093110682314727
1782846763662937300,3.503937255859375,8.929711682647467,3.16549349116683,-0.07546391311669721
1782846763672942300,3.5139423828125,8.214105498501658,3.0475565553113815,0.0019556663957075214
1782846763682947300,3.523947265625,7.079262094894051,2.687074014896154,0.12988969611348583
1782846763692951600,3.53395166015625,5.801983566251397,1.9761954437941311,0.006151773228542879
1782846763702956500,3.54395654296875,4.247032590088248,1.2041285367578267,-0.24308144673584028
1782846763712961500,3.55396142578125,2.256412899622321,0.6943897931158542,-0.455389240751788
1782846763722966500,3.563966552734375,-0.3287947319924831,0.3153779087975621,-0.5136995735643431
1782846763732970500,3.573970458984375,-3.1743326311826703,-0.24401012415438889,-0.5701482772234827
1782846763742975500,3.5839755859375,-5.51390896718204,-0.6972498587220907,-0.030964462584257123
1782846763752980500,3.59398046875,-6.975656758990883,-0.9686620768040418,1.2187499134369193
1782846763762984400,3.603984375,-7.993485894545913,-1.25396458081156,2.250566950073093
1782846763772989400,3.613989501953125,-8.941634760153294,-1.6027900011807679,2.7030753016263245
1782846763782994400,3.623994384765625,-9.818494751572608,-1.5942136037543415,2.5984993671253322
1782846763792998400,3.633998291015625,-10.968419988977908,-2.2956366565078494,1.4665069690346717
1782846763803003400,3.64400341796875,-11.995187633270024,-3.4762639061689375,0.015535495849326252
1782846763813008400,3.65400830078125,-12.346355525112152,-3.928390418797731,-0.9472739824689924
1782846763823012400,3.664012451171875,-12.168897017490863,-3.6766590527415275,-1.1356397416170685
1782846763833017300,3.674017333984375,-11.686963395619392,-2.772587229269743,-0.5712698285993189
1782846763843022300,3.684022216796875,-11.091374168473482,-1.6417857945293186,0.4492147899005562
1782846763853026300,3.6940263671875,-10.218953036284447,-1.0330503778234124,0.9301359467938541
1782846763863031300,3.70403125,-8.86248932724595,-0.9955024451956153,0.9064786654178053
1782846763873036300,3.714036376953125,-7.113938855999708,-1.4813471030309795,0.5641182032790034
1782846763883040500,3.72404052734375,-5.057179344671964,-2.157448083001375,0.22712788987122476
1782846763893045500,3.73404541015625,-3.064518503767252,-2.866430465093255,0.23325097586140034
1782846763903050500,3.744050537109375,-1.333244161492586,-3.2209061663091183,0.6180301184695214
1782846763913054200,3.75405419921875,0.041705052307248115,-3.116515232986212,1.1406217678133397
1782846763923059200,3.76405908203125,1.1071125161170958,-2.5681904458403584,1.562132704360783
1782846763933064200,3.774064208984375,1.8584984541743992,-1.8678525579750538,1.576209014377743
1782846763943068200,3.784068115234375,2.1512527354925868,-1.180800268140435,1.1160235523253679
1782846763953073200,3.7940732421875,2.063655116060376,-0.6828796803250908,0.44287879181206224
1782846763963078100,3.804078125,1.9408377146869897,-0.2205865784689784,-0.07786576836034655
1782846763973082400,3.814082275390625,1.9955542242586612,0.3757882460966706,-0.5168617639223113
1782846763983087400,3.82408740234375,2.012272719347477,0.8673859145008027,-0.8904372658729552
1782846763993092400,3.83409228515625,2.0207757592767477,1.247593584474921,-1.2037597034454346
1782846764003096300,3.844096435546875,2.1377906118512153,1.4914065786220132,-1.4019209534861146
1782846764013101300,3.854101318359375,2.634088274639845,1.5859905498102307,-1.3877229167856275
1782846764023106300,3.864106201171875,3.2868291295498606,1.5949012937575577,-1.1674460618529467
1782846764033110300,3.8741103515625,3.7589375229775905,1.5545387421004473,-1.114318136646971
1782846764043115300,3.884115234375,4.049794446241855,1.4834937596708535,-1.2250970174413174
1782846764053120300,3.894120361328125,4.313746411445736,1.3321848616980017,-1.2670248456537723
1782846764063125200,3.904125244140625,4.315622142189741,1.1530636815614999,-1.2051673782862722
1782846764073129500,3.91412939453125,3.9397704754680394,1.1317653113365174,-1.1080568112298845
1782846764083134500,3.924134521484375,3.737662679758668,1.1847728250332177,-0.9605873452894389
1782846764093139500,3.934139404296875,3.712218441900611,1.134582852975279,-0.7071571394260973
1782846764103143200,3.94414306640625,3.741317695134878,1.0844286828830838,-0.2645839429644868
1782846764113148200,3.954148193359375,3.8362037180095907,1.0623374087147415,0.12219521435443312
1782846764123153200,3.964153076171875,3.7663212034881113,1.0022742774181068,0.31223588444478806
1782846764133157400,3.974157470703125,3.610452596384287,0.9902198286175727,0.40719544747974723
1782846764143162400,3.984162353515625,3.4987323430866,1.106227696106583,0.4705464778732508
1782846764153167400,3.99416748046875,3.195605720835924,1.402386817432195,0.4805581322671845
1782846764163171300,4.00417138671875,2.636499427434802,1.7136597751289606,0.35978089495189486
1782846764173176300,4.01417626953125,2.3991145666390654,1.8727198717504738,0.2544680975437164
1782846764183181300,4.024181396484375,2.5528765568524596,1.9797337009228764,0.04520136999040842
1782846764193185300,4.034185302734375,2.4760242033183575,2.0410373337998986,-0.0911518413150683
1782846764203190300,4.044190185546875,1.4989976182729006,1.92296098947376,0.9636609075158834
1782846764213195300,4.0541953125,0.3372095091164112,1.1813042721398175,0.5034733265716582
1782846764223199500,4.064199462890625,0.5216951388955116,0.9449879173584281,-0.03128551123216748
1782846764233204500,4.07420458984375,-0.29183658195137974,0.31844109576046464,0.29350396717432886
1782846764243209500,4.08420947265625,-1.3565952264636754,-0.41074674675315614,-0.2345644696127623
1782846764253213400,4.09421337890625,-1.8745786513596772,-0.8376946867227554,-0.04381130387149751
1782846764263218400,4.104218505859375,-2.9737860934406517,-1.206019172810018,0.4974769357010722
1782846764273223400,4.114223388671875,-4.233047319355607,-1.7738310429751871,0.8095100641153752
1782846764283227100,4.12422705078125,-5.681846197742224,-2.2027520365834237,0.9094880763668567
1782846764293232400,4.134232421875,-7.112492748844623,-2.4398883294455707,1.256006900294125
1782846764303237400,4.1442373046875,-8.491672732082009,-2.9557290432244536,1.6213342503920196
1782846764313241300,4.154241455078125,-9.911568172067403,-3.4021412698596714,1.9320716399073599
1782846764323246300,4.164246337890625,-10.837145724904536,-3.7384237272590397,1.8092697283640502
1782846764333251300,4.174251220703125,-11.153589509367942,-4.204700053532421,1.3254545305296779
1782846764343255300,4.18425537109375,-11.286965714156628,-4.530883726243674,0.8066260331116616
1782846764353260300,4.19426025390625,-11.468533410662411,-4.759525600874424,0.37237303082570433
1782846764363265300,4.204265380859375,-11.569928084778786,-4.704031969450414,0.38141105441451073
1782846764373269200,4.214269287109375,-11.666542538881302,-4.5042274822473525,0.2022149093456566
1782846764383274200,4.224274169921875,-10.980104581552743,-4.310438894332945,-0.6927860111810267
1782846764393279200,4.234279296875,-10.04833577286005,-4.05321740642786,-0.772686427174136
1782846764403283500,4.244283447265625,-9.222098299697041,-3.522114095456898,-0.74091554357782
1782846764413288400,4.254288330078125,-8.273048101335764,-2.793403807327151,-0.5894399838011711
1782846764423293400,4.26429345703125,-7.007114558050036,-1.8024799220934509,-0.136022335383296
1782846764433298400,4.27429833984375,-5.510147568821907,-0.7519698754251003,0.15705847447551785
1782846764443302400,4.284302490234375,-4.042925729516148,0.26684885568916794,0.27184520267173645
1782846764453307400,4.294307373046875,-2.460163201841712,1.0766285305261611,0.3342466407228261
1782846764463312400,4.3043125,-0.7235965983778238,1.505404562705755,0.340370165104419
1782846764473316400,4.31431640625,1.1100994229733943,1.6695435700267551,0.3331610374432057
1782846764483321300,4.3243212890625,3.191146403339505,1.6205398851439357,0.3992191713709384
1782846764493326300,4.334326416015625,4.866455697286129,1.442311854454875,0.355753100740537
1782846764503330300,4.344330322265625,6.2161196631819005,1.3181722645670175,0.18310045903101563
1782846764513335300,4.354335205078125,7.221762686380743,1.3472288477033376,-0.0703739878328517
1782846764523340300,4.36434033203125,7.8779265014767645,1.469809517711401,-0.23366591333784162
1782846764533344300,4.37434423828125,8.207337319540978,1.776953266648948,-0.2325850227659568
1782846764543349200,4.384349365234375,8.334530451780557,2.1508172666847702,-0.18727482210621238
1782846764553354200,4.394354248046875,8.444554422554374,2.53383458725214,-0.17825619733761994
1782846764563358200,4.404358154296875,8.453652505767344,2.9570366186916828,-0.20363865853846072
1782846764573363200,4.41436328125,8.36369400242269,3.391426983621716,-0.3185562100401148
1782846764583368200,4.4243681640625,8.414959494757651,3.742238609372079,-0.4421932572333142
1782846764593372400,4.434372314453125,8.605273392298818,3.838206582264602,-0.6206606861688196
1782846764603377400,4.44437744140625,9.168692288202047,3.5311394056946037,-0.8008177852243185
1782846764613382400,4.45438232421875,10.02013609881401,3.232969236807525,-0.9650997081473469
1782846764623386400,4.464386474609375,10.734745673137903,3.002310469396412,-0.7258255264736712
1782846764633391400,4.474391357421875,11.294880140542983,2.7307725791081783,-0.36658162447530773
1782846764643396400,4.484396240234375,11.603070475924014,2.527275082606077,-0.1069455497091636
1782846764653400300,4.494400390625,11.582850694715976,2.5487638608366248,0.23236345243714748
1782846764663405300,4.5044052734375,11.120007557761669,2.64372967094928,0.39976829315368084
1782846764673410300,4.514410400390625,10.384232445812225,2.7255203576683997,0.443770772215724
1782846764683414300,4.524414306640625,9.803194891110062,2.810273401324451,0.41247901390586045
1782846764693419300,4.534419189453125,9.323529798692464,2.7956217756375668,0.3665739160928875
1782846764703424300,4.54442431640625,8.63913532989025,2.642581377696991,0.45675271112471816
1782846764713428200,4.55442822265625,7.872501553818583,2.493701314306259,0.38816757947001607
1782846764723433200,4.56443310546875,6.947135013383627,2.3232813270196315,0.257223533731699
1782846764733438200,4.574438232421875,5.533980864351988,1.8656448187977075,0.03785129948854446
1782846764743442200,4.584442138671875,3.871377907243371,1.2977706970512866,-0.27263269978761673
1782846764753447200,4.594447265625,2.059035639566183,0.7940063516438007,-0.2858255049683153
1782846764763452400,4.604452392578125,0.1557990489989519,0.2631622761309147,-0.07150796029884368
1782846764773456400,4.614456298828125,-1.409517253834009,-0.13156506371349094,0.49263570621497926
1782846764783461400,4.62446142578125,-2.5856115362405774,-0.48847763668745753,1.1630129747763276
1782846764793466400,4.63446630859375,-3.722602473270893,-1.0793334055706858,1.339230834686756
1782846764803471400,4.644471435546875,-4.772615968593954,-1.3261036420881747,1.4110519160553812
1782846764813475300,4.654475341796875,-5.691566212245822,-1.450833014562726,1.2495974716432392
1782846764823480300,4.664480224609375,-6.708508628094196,-2.170973335006833,0.46107853843457997
1782846764833485300,4.6744853515625,-7.75385471612811,-3.5110964423581956,-0.6153235629245638
1782846764843489500,4.684489501953125,-8.364826221323012,-5.2273979641675945,-1.3748556902974842
1782846764853494500,4.69449462890625,-8.805192153531312,-6.563042172539234,-1.2185329096853732
1782846764863499500,4.70449951171875,-9.75871978956759,-6.295073957431316,-0.05880421727672219
1782846764873503200,4.714503173828125,-10.992248608332872,-4.027270479744672,1.4601117150396108
1782846764883508200,4.72450830078125,-10.949440563219785,-0.923884777444601,2.9393010555148122
1782846764893513500,4.734513427734375,-10.663404776501656,1.550670522364974,3.263058962383866
1782846764903517200,4.74451708984375,-10.324550422787667,2.3267007800742983,1.8676928373686967
1782846764913522200,4.754522216796875,-9.49834509832859,1.780394347013533,0.07114106321521103
1782846764923527200,4.764527099609375,-7.826812984833121,0.3905369024172425,-1.223532471538335
1782846764933531400,4.774531494140625,-5.613247293290495,-1.7055243994683027,-1.7937565174117682
1782846764943536400,4.784536376953125,-2.3489380385845897,-4.2772535408288235,-1.4106351519480347
1782846764953541400,4.794541259765625,0.7407657598435878,-6.174919637787342,-0.6280676014244556
1782846764963545300,4.80454541015625,2.654442495882511,-5.920365031003952,0.18002631228268146
1782846764973550300,4.81455029296875,2.9438901368707415,-4.390044053706527,0.32844913342520593
1782846764983555300,4.824555419921875,1.540135099825263,-2.739371188366413,-0.2440459261201322
1782846764993559300,4.834559326171875,0.00007014262676239014,-1.551338046362996,-0.8077581789467483
1782846765003564300,4.844564208984375,-1.0141787963539362,-0.40856399588659403,-0.8090713804371654
1782846765013569300,4.8545693359375,-1.5764584590941666,0.6603194734707475,-0.5759354092575609
1782846765023573500,4.864573486328125,-1.3622013759076594,1.4525734284892677,-0.2308762826193124
1782846765033578500,4.87457861328125,-0.8095148864209651,1.8812113673724233,0.12335479618571699
1782846765043583500,4.88458349609375,-0.06383154391944408,2.0738358799435197,0.4263517276421189
1782846765053587500,4.89458740234375,0.7834761898010969,2.0469079793989655,0.5401216800112277
1782846765063592400,4.904592529296875,1.703231904616952,1.859198419137299,0.33527444940060375
1782846765073597400,4.914597412109375,2.666061037483811,1.6432944455265999,-0.013660934149101375
1782846765083601200,4.92460107421875,3.4213410603702066,1.453033447216451,-0.22215119743719697
1782846765093606100,4.934606201171875,3.947206762948632,1.2085464993305504,-0.3462828962795436
1782846765103611100,4.944611083984375,4.474631385406852,0.9281829130299388,-0.40114882425926623
1782846765113615400,4.954615478515625,4.809249124464392,0.7555489029556512,-0.35683541608452796
1782846765123620400,4.964620361328125,4.940013100928068,0.7047960363179445,-0.15521664600111543
1782846765133625300,4.974625244140625,4.834105917823314,0.7731267913527786,0.04797193068228662
1782846765143629300,4.98462939453125,4.658316804718971,0.8930769667267798,0.04862754504680633
1782846765153634300,4.99463427734375,4.495314107951522,0.9690373398572206,0.0405525943364948
1782846765163639300,5.004639404296875,4.467985371521115,1.032543158953637,0.056989130678772926
1782846765173643300,5.014643310546875,4.526944340968131,1.1045131472736596,-0.04463599119260907
1782846765183648300,5.024648193359375,4.481431128549575,1.158823121871054,-0.29172508440092204
1782846765193653200,5.0346533203125,4.271418843325972,1.2920455974027514,-0.5537080145541579
1782846765203657500,5.044657470703125,3.8737358685463663,1.4728231664441525,-0.7481085968870669
1782846765213662500,5.054662353515625,3.4742174950331446,1.5587458384014665,-0.8103621509000658
1782846765223667500,5.06466748046875,3.1058529691964387,1.613372623863071,-0.8647095348984003
1782846765233671400,5.07467138671875,2.8085189588725563,1.7323970626942813,-0.6729101480398326
1782846765243676400,5.084676513671875,2.692629895457625,1.8696005706861614,-0.2945817159410566
1782846765253681400,5.094681396484375,2.2920360016673804,1.7467722095273435,0.32935353491902347
1782846765263686400,5.104686279296875,1.80633279812932,1.445009569106251,0.37751609280258414
1782846765273690000,5.114690185546875,1.3734253652334212,1.1290025686249137,0.38798539130352433
1782846765283695000,5.124695068359375,0.633637510511279,0.6397011944644153,0.23951306846346704
1782846765293700000,5.1347001953125,-0.5128279418289661,0.16929522104039788,0.10710516071766614
1782846765303704300,5.144704345703125,-1.6532137819945811,-0.03066138798445463,0.17278839691840112
1782846765313709300,5.154709228515625,-2.966002599957585,-0.13587401295378804,0.18542535831462592
1782846765323714300,5.16471435546875,-4.918167764344811,-0.47737975795939563,0.1037011244278401
1782846765333718300,5.17471826171875,-7.15701636570394,-1.0995033562876284,0.03125570061579346
1782846765343723300,5.18472314453125,-9.12318082934916,-1.5262512436404823,0.19677129351962355
1782846765353728300,5.194728271484375,-10.3318709749341,-1.7854209430038928,0.6673888273350894
1782846765363732200,5.204732177734375,-11.395899551606178,-2.0614118671782315,1.188448298675567
1782846765373737200,5.2147373046875,-12.196837163817882,-2.193266269227117,1.7390812166333198
1782846765383742200,5.2247421875,-12.451326304149626,-2.474175360581279,2.240865055748075
1782846765393746400,5.234746337890625,-12.267136442446708,-3.3545535892546177,2.2419361921109258
1782846765403751400,5.24475146484375,-11.785684466612338,-4.585388346630334,1.6945456170752644
1782846765413756400,5.25475634765625,-11.108775385129452,-5.6709600620687,0.9105926035426557
1782846765423760400,5.264760498046875,-10.326216310173272,-6.30662878614664,0.4544491103574633
1782846765433765400,5.274765380859375,-9.716292268204688,-6.6299202445477246,0.10173508505187928
1782846765443770400,5.284770263671875,-9.632018240237235,-6.442670995274185,-0.35573892608471214
1782846765453774300,5.2947744140625,-9.64094564305842,-5.525011960476636,-0.648403191031888
1782846765463779300,5.304779296875,-9.456676870900392,-4.0138913582116365,-0.5082813844405114
1782846765473784300,5.314784423828125,-8.861096996104717,-2.0709083020590247,0.18668124012723564
1782846765483788300,5.324788330078125,-7.708700984671712,-0.3028692864887416,0.9983884489607066
1782846765493793300,5.334793212890625,-6.1940954629004,1.1039368086904287,1.4609310685984789
1782846765503798300,5.34479833984375,-4.4276960312306874,2.1618835812307893,1.5253265300109982
1782846765513802200,5.35480224609375,-2.520734867182374,2.8074370088547465,1.2439962906353175
1782846765523807200,5.36480712890625,-0.5345148729801178,3.053999447840452,0.7925037650611251
1782846765533812200,5.374812255859375,1.516947700983286,2.961017505021393,0.35208632186129685
1782846765543816400,5.38481640625,3.5621734263837337,2.7042905226349827,-0.018307773574255407
1782846765553821400,5.394821533203125,5.527830525028706,2.4440523172572255,-0.3660926719145849
1782846765563826400,5.404826416015625,7.23577426059842,2.1136177091032264,-0.7526228594411164
1782846765573830400,5.414830322265625,8.787019367980957,1.9277602064490318,-1.0578802831754088
1782846765583835400,5.42483544921875,9.88257237920761,1.965992321948707,-1.0071594191111624
1782846765593840400,5.43484033203125,10.477434461122751,2.122961876031756,-0.883667917868495
1782846765603844400,5.44484423828125,10.779514204668999,2.4808842105701565,-0.623013679035753
1782846765613849300,5.454849365234375,10.855330200892686,2.8490605203583836,-0.5215548901746049
1782846765623854300,5.464854248046875,10.442828427165747,3.0636753309413787,-0.5681543999925256
1782846765633858600,5.474858642578125,10.054425321906804,3.2815289773151277,-0.48056682703029363
1782846765643863600,5.484863525390625,10.19033484456539,3.465761216855049,-0.3071793317075819
1782846765653868500,5.49486865234375,10.313767162966728,3.5190000550895926,-0.4229829087961465
1782846765663872300,5.504872314453125,10.476474676179885,3.4624294420838355,-0.5938057777952402
1782846765673877200,5.514877197265625,10.784660335385798,3.4669492575958367,-0.6893189926575869
1782846765683882200,5.52488232421875,11.148329981404542,3.343934580084681,-0.8750974387262016
1782846765693886200,5.53488623046875,11.529755064344405,3.1448060924470425,-1.0634920586425811
1782846765703891200,5.54489111328125,11.676759981513023,3.0522382833868265,-1.1342711566776036
1782846765713896200,5.554896240234375,11.53276652112007,2.9984453184008597,-1.0587900914967059
1782846765723900400,5.564900390625,11.089667364555597,3.0205361541777846,-0.9318782604165374
1782846765733905400,5.574905517578125,10.35813237439394,3.176008163179457,-0.888749020525068
1782846765743910400,5.584910400390625,9.68391209360361,3.296660787734389,-0.7026635543338954
1782846765753915400,5.594915283203125,8.973733779725432,3.3727503402024506,-0.4236944545989856
1782846765763919400,5.60491943359375,8.140241220867633,3.339599473489821,-0.35541100930459796
1782846765773924400,5.61492431640625,7.035151735010743,3.0033675772339103,-0.40405594387762245
1782846765783929300,5.624929443359375,5.6728305321156975,2.3410782649949193,-0.5672831701159476
1782846765793934300,5.634934326171875,4.282969580388069,1.457442495830357,-0.7319759388621896
1782846765803939300,5.644939208984375,2.8965765970319506,0.8437696227222681,-0.364061458347924
1782846765813944300,5.6549443359375,0.7614280241221189,0.6098585755169391,-0.005175283746048808
1782846765823948300,5.6649482421875,-1.7471446961015462,0.21394494849741458,0.032850787787511944
1782846765833953300,5.674953369140625,-3.684856387722492,-0.34681028115451334,0.232217029703781
1782846765843958300,5.684958251953125,-5.085973477479815,-0.755702339951694,1.1736197089865803
1782846765853962500,5.69496240234375,-5.691493731531501,-0.9728624511033296,2.3761899103865027
1782846765863967500,5.704967529296875,-6.0306274867087595,-1.3157730944707988,2.9304151537477967
1782846765873972500,5.714972412109375,-6.87786215519309,-3.090672935721278,1.6217660659380255
1782846765883976200,5.72497607421875,-7.673610966590046,-5.673377060082554,-0.5376484948307275
1782846765893981200,5.734981201171875,-8.015629337292909,-7.2428995824337,-1.3506827875494956
1782846765903986200,5.744986083984375,-9.807311678779124,-7.214419337880611,-0.5827789184767752
1782846765913990100,5.754990234375,-12.03559446246028,-5.2742742816329,1.2884440657794476
1782846765923995100,5.7649951171875,-12.272591200721264,-1.9185025487601757,3.6964383967056866
1782846765934000000,5.775000244140625,-11.960857493644951,0.9163491212427616,4.932336574950814
1782846765944004400,5.78500439453125,-11.582701057112216,2.0051646409079433,4.086603543201089
1782846765954009300,5.79500927734375,-10.56837437672019,1.8454681460790334,1.8899606371477244
1782846765964014300,5.805014404296875,-9.081206896972656,1.0190835195302963,-0.28864019706286487
1782846765974018300,5.815018310546875,-7.433538474145531,-0.1365096805088222,-1.8281981545872985
1782846765984023300,5.825023193359375,-5.232347111007571,-1.814166998886317,-2.460257894387841
1782846765994028300,5.8350283203125,-2.1018220573693513,-3.992172570617497,-2.1043658966332672
1782846766004032300,5.8450322265625,0.6904647286266088,-5.859090770351886,-1.1437276979394257
1782846766014037200,5.855037353515625,2.248368709376454,-6.04892360637784,0.272826176533103
1782846766024042200,5.865042236328125,2.0257231525510546,-4.587999990433454,1.6173384587541222
1782846766034046500,5.87504638671875,1.1492582979291677,-2.633401461419463,2.280245902891457
1782846766044051500,5.885051513671875,0.23046529066562652,-1.0991694481581449,2.2119999035306273
1782846766054056400,5.895056396484375,-1.022364440897107,0.15136004363819955,1.757876225735247
1782846766064060200,5.90506005859375,-1.7526164055109024,1.2830533126518129,1.3719510548971592
1782846766074065200,5.915065185546875,-1.3877332920491694,2.023135474145412,1.126867164031416
1782846766084070100,5.925070068359375,-0.4748649986594915,2.3436028150364754,0.8650969267807901
1782846766094074400,5.935074462890625,0.607466127422452,2.4865946971714497,0.5981694163648411
1782846766104079400,5.945079345703125,1.7996324237078427,2.3615125657364726,0.1608161830412224
1782846766114084400,5.95508447265625,3.027028438806534,2.0837369501024483,-0.42786691797804083
1782846766124088300,5.96508837890625,4.141157555687427,1.8036477968290447,-1.034849974591285
1782846766134093300,5.97509326171875,4.9500078407198185,1.5951314492516218,-1.4948133183255792
1782846766144098300,5.985098388671875,5.36580865599215,1.4294035653039812,-1.693049971690029
1782846766154102300,5.995102294921875,5.491991734406351,1.2237000831902027,-1.6700547344192862
1782846766164107300,6.005107177734375,5.298124528297782,1.0448680952586233,-1.4999854602664708
1782846766174112300,6.0151123046875,4.883691494247317,0.8953992721945047,-1.238266660942137
1782846766184116500,6.025116455078125,4.5265749231338495,0.7942386990949512,-0.9894736133601516
1782846766194121500,6.03512158203125,4.125490030956268,0.807707106346637,-0.6892051570195704
1782846766204126500,6.04512646484375,3.846799930825829,0.8508437988922,-0.2288672078192234
1782846766214130400,6.05513037109375,3.733609020453691,0.9378507589548826,0.0232601718172431
1782846766224135400,6.065135498046875,3.787312553590536,1.096555612397939,0.01763034923672676
1782846766234140400,6.075140380859375,3.811211315572262,1.3050174533091485,-0.3058583122368902
1782846766244144400,6.085144287109375,3.551806930670142,1.7676866950012742,-0.6856226223576813
1782846766254149400,6.0951494140625,3.0804332812577484,2.222940107478946,-0.8859070750974118
1782846766264154400,6.105154296875,2.530841250655055,2.6296657820224763,-0.9689631786424666
1782846766274158300,6.115158447265625,1.8865555048793554,2.8957167653322218,-1.0695517240077257
1782846766284163300,6.125163330078125,1.4732202029377222,2.8995032981336113,-1.0686685844976453
1782846766294168300,6.135168212890625,1.3156231646060943,2.665981250245869,-0.9553702682282775
1782846766304172300,6.14517236328125,1.1983096213459967,2.2382164409354326,-0.83153842911534
1782846766314177300,6.15517724609375,1.2748106772243977,1.5704147950157523,-0.8378100567307323
1782846766324182300,6.165182373046875,1.0780062486201525,0.7422000304304063,-0.8328433742340654
1782846766334186200,6.175186279296875,0.6545534572899341,-0.22891353117898106,-1.0370994340185076
1782846766344191200,6.185191162109375,-0.03587386193573475,-1.003920583320409,-1.1477031774416566
1782846766354196200,6.1951962890625,-1.2835001796364784,-1.7508401896186172,-1.2724103380843996
1782846766364200400,6.205200439453125,-2.795256157195568,-2.461850424276292,-1.0980203511882574
1782846766374205400,6.215205322265625,-4.680522206786275,-2.8429829540103673,-0.21142200589105486
1782846766384210400,6.22521044921875,-6.799333977401256,-2.863209164959192,1.4646362067267298
1782846766394214400,6.23521435546875,-8.658134044870733,-2.845615056079626,3.040752428254485
1782846766404219400,6.245219482421875,-10.15395069501996,-2.8634342058867213,3.99690310627073
1782846766414224400,6.255224365234375,-11.01947914508581,-2.9401784228712318,4.015551400378346
1782846766424228400,6.265228271484375,-11.595759276127815,-3.221230575957894,3.160729637765884
1782846766434233300,6.2752333984375,-12.168799986857175,-3.5837229948908087,1.9302035079479216
1782846766444238300,6.28523828125,-12.859289849925041,-3.636304830521345,0.8668405555777251
1782846766454243300,6.295243408203125,-13.582320046591757,-3.4267554866343737,0.1346343881562352
1782846766464247300,6.305247314453125,-13.932138861912488,-3.013445319133997,-0.2926436605505645
1782846766474252300,6.315252197265625,-13.568174616861343,-2.4852766003102063,-0.5067464299581944
1782846766484257300,6.32525732421875,-12.59449792676568,-1.8172978442579506,-0.612304653494805
1782846766494261200,6.33526123046875,-11.022787538981436,-1.0023797836191952,-0.6292237857222557
1782846766504266200,6.345266357421875,-9.08134718222618,-0.2646997148312628,-0.48026130474507805
1782846766514270200,6.355270263671875,-7.222616088339686,0.33654023155272006,-0.13440934722870587
1782846766524275200,6.365275146484375,-5.525261551323533,1.0155867634557187,0.31438378319367766
1782846766534280200,6.3752802734375,-3.826781225147843,1.6242232498317957,0.4723875026300549
1782846766544285200,6.38528515625,-2.1945739908248183,1.9120146480455993,0.37164106328934426
1782846766554289400,6.395289306640625,-0.44314007309675213,1.8007278177291153,0.34899376267343757
1782846766564294400,6.40529443359375,1.5728741708666085,1.5124211634695528,0.4556767524562776
1782846766574299400,6.41529931640625,3.517584343072772,1.172322070391476,0.504453350584954
1782846766584303400,6.425303466796875,5.271583142852783,0.891098067869246,0.6372390421345829
1782846766594308400,6.435308349609375,6.863769332432747,0.793971134199947,0.8002291716814041
1782846766604313300,6.445313232421875,8.15984666956961,0.8110008871950208,0.7295955465316772
1782846766614317300,6.4553173828125,9.039104369780421,0.9300690190374851,0.48677638572752474
1782846766624322300,6.465322265625,9.60461410048306,1.119311487954855,0.20270736903771758
1782846766634327300,6.475327392578125,9.914958399027585,1.2973686921216547,-0.11617832868508994
1782846766644331300,6.485331298828125,10.188657266741991,1.5566349837273359,-0.4638905271153897
1782846766654336300,6.495336181640625,10.322200644791126,1.7656417451702058,-0.8534166450548917
1782846766664341200,6.50534130859375,10.255385116624831,1.9497136795818804,-1.3241365797989069
1782846766674345200,6.51534521484375,9.934379723334311,2.289649106530845,-1.7353195260122418
1782846766684350200,6.52535009765625,9.812806184542179,2.6436750181525945,-1.95343503819257
1782846766694355200,6.535355224609375,9.998438646268845,2.8006828584194183,-2.1128362033367156
1782846766704359200,6.545359130859375,10.359527043622732,2.821759840978682,-2.2511960417568684
1782846766714364400,6.555364501953125,10.793790567302704,2.674791748689115,-2.2366934691518545
1782846766724369400,6.565369384765625,11.154328345036506,2.477354282878339,-2.1390829897493124
1782846766734373400,6.575373291015625,11.289735178869963,2.318131689171493,-1.906037181071192
1782846766744378400,6.58537841796875,11.216081913638114,2.2599518874034286,-1.4754326182901858
1782846766754383400,6.59538330078125,10.848719258320331,2.2883679806791246,-1.1629723505049943
1782846766764387300,6.60538720703125,10.252394702637195,2.39441048060134,-0.9961643431704491
1782846766774392300,6.615392333984375,9.58230523804128,2.4546879853010175,-0.9326343394808471
1782846766784397300,6.625397216796875,8.91016059448123,2.4718895877316593,-0.638132191582024
1782846766794400300,6.635400146484375,7.969182058894634,2.329683595277369,-0.5730473596658557
1782846766804405200,6.6454052734375,6.765744427010417,1.8783859346881508,-0.6679995796445757
1782846766814410200,6.65541015625,5.53686606439948,1.3546167659975588,-0.7841230363372713
1782846766824414200,6.665414306640625,4.238180590590835,0.7564357687927782,-0.8178254725180566
1782846766834419200,6.675419189453125,2.6977298489451407,0.2831302745349705,-0.7454995834324508
1782846766844424200,6.685424072265625,0.8669593596518039,-0.11162541462108493,-0.4511340675253421
1782846766854428400,6.695428466796875,-1.034472227320075,-0.5408158728204667,-0.10477876359671354
1782846766864433400,6.705433349609375,-2.9594577083587645,-0.9826002935245632,0.17316541353724896
1782846766874438400,6.7154384765625,-4.450118875440955,-1.2831336844116448,0.9522716446258127
1782846766884442000,6.725442138671875,-5.422407326048612,-1.254317047511041,2.1640286304354666
1782846766894447000,6.735447021484375,-6.3737085182070725,-1.370022278791666,3.0834622736901043
1782846766904452000,6.7454521484375,-7.802624884516001,-2.7893317355826497,2.322144578074664
1782846766914456000,6.7554560546875,-8.738284855428338,-4.613439259855449,0.49532531062513585
1782846766924461000,6.7654609375,-9.01519683997035,-5.933295824247598,-0.5731059579852968
1782846766934466000,6.775466064453125,-10.148529839015007,-5.824615084776282,0.3551418369743973
1782846766944470300,6.78547021484375,-11.492785223865509,-3.178488581818342,2.79501007348001
1782846766954475300,6.795475341796875,-11.774113271284103,0.20900120848491788,4.910222942820191
1782846766964480300,6.805480224609375,-11.820606142389774,2.063179607503116,5.480121263870597
1782846766974484200,6.815484130859375,-11.811439670115709,2.2893130064442753,4.056581622163951
1782846766984489200,6.8254892578125,-11.145545319122075,1.2884491803459823,1.8533442862816154
1782846766994494200,6.835494140625,-9.20811185992062,-0.8532742409095168,0.2151872767087072
1782846767004498200,6.845498291015625,-5.323013470360636,-4.043018083974719,-0.19842296971678733
1782846767014503200,6.855503173828125,-0.612447422966361,-8.044636820590496,0.5247015541698783
1782846767024508200,6.865508056640625,2.6158599595099687,-9.143450294917821,1.8831183700375258
1782846767034512400,6.875512451171875,3.5669852105796336,-6.082555826866626,2.7461834987297653
1782846767044517400,6.885517333984375,2.1227613850235936,-3.0358722549974915,1.8275589799009262
1782846767054522400,6.8955224609375,-0.34998189692795273,-1.8297171808481216,0.2401777429172769
1782846767064526000,6.905526123046875,-2.0089333457916974,-0.6002053426392376,-0.7068844599645584
1782846767074531300,6.91553125,-2.814879726076126,0.6275896086491644,-1.2090312871728093
1782846767084536300,6.925536376953125,-2.240911379107833,1.2541880143038928,-1.1796755749594419
1782846767094540000,6.9355400390625,-0.846095435321331,1.4253740175269543,-1.0015981317222118
1782846767104545000,6.945544921875,0.3071089698851108,1.3855010029524564,-0.7718582327216863
1782846767114550000,6.955550048828125,1.455903741955757,1.2398442855224012,-0.41535898978896435
1782846767124554200,6.96555419921875,2.394697334718704,0.9950855349577963,-0.07537745867595076
1782846767134559200,6.975559326171875,2.986398322254419,0.7591678241051733,-0.08373904430791736
1782846767144564200,6.985564208984375,3.340373088210821,0.554746052365005,-0.41578503318130966
1782846767154568200,6.995568115234375,3.6701743668973443,0.3635637014262378,-0.6746545805543661
1782846767164573200,7.0055732421875,3.983537136480212,0.13988470989987253,-0.8593493230395018
1782846767174578200,7.015578125,4.242913464331627,-0.12896949426233767,-0.9254949891202151
1782846767184582100,7.02558203125,4.437765589824319,-0.3155728468477726,-0.8155139076400548
1782846767194587100,7.035587158203125,4.534540202924609,-0.33912878674119706,-0.6001162761162966
1782846767204592000,7.045592041015625,4.446083920836449,-0.29955621641799807,-0.3513800002228468
1782846767214596400,7.055596435546875,4.342448774316907,-0.1940657974205911,0.03209485485367477
1782846767224601300,7.065601318359375,4.280834906446933,0.0007864742025732994,0.4327775959711522
1782846767234606300,7.0756064453125,4.156740909266472,0.2587513278208673,0.4732966533642262
1782846767244610300,7.0856103515625,4.046589512720704,0.5723416225492954,0.11414623833559452
1782846767254615300,7.095615234375,3.780826114180684,0.947328927526623,-0.357750046711415
1782846767264620300,7.105620361328125,3.4699136603593823,1.4164914767608046,-0.7136424097921699
1782846767274624000,7.1156240234375,3.324209304395318,1.8204048703625797,-0.9232484523024409
1782846767284629000,7.12562890625,3.2800282173633573,2.233739441651851,-0.9003029724575579
1782846767294634000,7.135634033203125,3.13654855171144,2.636763339067995,-0.8455009765595197
1782846767304638200,7.14563818359375,3.0472862139374017,2.8459815513044595,-0.690871336666122
1782846767314643200,7.155643310546875,3.0373744762539863,2.8530110115498304,-0.5464233009060845
1782846767324648200,7.165648193359375,3.103431879529357,2.723406726515293,-0.4473015766903758
1782846767334652200,7.175652099609375,3.0732366477519273,2.4363182158738375,-0.35343240270800885
1782846767344657200,7.1856572265625,2.87294905320704,2.044416893235594,-0.3862032205944881
1782846767354662100,7.195662109375,2.5922844381332397,1.5809792975194752,-0.4624001058945432
1782846767364666000,7.205666015625,1.9395055893003939,1.1218068119019269,-0.5172170801660045
1782846767374671000,7.215671142578125,0.9074924455702305,0.4051761070139706,-0.820407232639566
1782846767384676000,7.225676025390625,-0.3842641057580709,-0.4884983872145414,-0.8972346709281206
1782846767394680300,7.235680419921875,-2.090544876551628,-1.458582021254301,-0.9425606902115047
1782846767404685300,7.245685302734375,-3.8590468334585424,-2.029169932004064,-0.7942579152520746
1782846767414690300,7.255690185546875,-5.73968580777049,-1.723381981589645,-0.11079648951627313
1782846767424694300,7.2656943359375,-7.651912345001101,-1.3473187179438768,0.9523250553134828
1782846767434699300,7.27569921875,-9.298451471537351,-1.4593908534191549,1.7839672370642423
1782846767444704300,7.285704345703125,-10.649570312416554,-1.8052134387105703,2.196727807857841
1782846767454708200,7.295708251953125,-11.418618748414517,-2.2910687640704213,2.195062066602707
1782846767464713200,7.305713134765625,-11.355606119662523,-3.089660251547396,1.6856012631192803
1782846767474718200,7.31571826171875,-11.060082373631,-4.015501716017723,1.0230441667895764
1782846767484722200,7.32572216796875,-10.649285065734386,-4.816878596429526,0.6689550537385046
1782846767494727200,7.33572705078125,-10.481545988094807,-5.482756873071193,0.41160409423485395
1782846767504732200,7.345732177734375,-10.88410036830306,-5.614474204736948,0.2620478851482272
1782846767514736000,7.355736083984375,-11.576617353284359,-5.260333434563875,0.3362664561126381
1782846767524741000,7.3657412109375,-12.319523632287979,-4.613032140359282,0.41558856076113876
1782846767534746000,7.37574609375,-12.675294049489498,-3.6923715856581922,0.5609636847708374
1782846767544750300,7.385750244140625,-12.850608530819414,-2.2426894946962594,1.0095812394306063
1782846767554755300,7.39575537109375,-12.577772417414188,-0.7008744789600372,1.705514462596178
1782846767564760300,7.40576025390625,-11.512556092262267,0.41248613776639104,2.3490460290037096
1782846767574764300,7.415764404296875,-9.55552712123096,1.0717663313172756,2.7229586904868484
1782846767584769300,7.425769287109375,-6.7715913994729515,1.1937355914287269,2.5327257492274042
1782846767594774300,7.435774169921875,-3.730821435561776,0.972697615930438,2.0740641357414424
1782846767604778200,7.4457783203125,-0.4936082775741815,0.49180473528355356,1.8103113463714717
1782846767614783200,7.455783203125,2.8034552457422017,-0.01671601087078452,1.7501311645664273
1782846767624788200,7.465788330078125,5.4223810225635765,-0.08527911335676908,1.630455714480579
1782846767634792200,7.475792236328125,7.490426482537388,0.40596623447835445,1.2955065515115856
1782846767644797200,7.485797119140625,8.807279481199384,0.9490259407028555,0.991187577671185
1782846767654802200,7.49580224609375,9.479128356683253,1.4602860486932099,0.6155621939860284
1782846767664806100,7.50580615234375,10.11461587897539,2.0933596417114138,0.2027649809764698
1782846767674811100,7.51581103515625,10.803359190636872,2.680470086586475,-0.2080900119241327
1782846767684816100,7.525816162109375,11.248964777064323,3.048853901645541,-0.5722876638723537
1782846767694820000,7.535820068359375,11.285184091436863,3.2952889148592948,-1.0141888793565332
1782846767704825000,7.5458251953125,10.948643275362253,3.662223115631938,-1.5397304645471275
1782846767714830000,7.555830078125,10.631955160748959,3.9364223340839146,-2.0417096801035104
1782846767724834300,7.565834228515625,10.40811367213726,3.948260948176682,-2.6590102421894666
1782846767734839300,7.57583935546875,10.287408732873201,3.6475066080152985,-3.0408827766358852
1782846767744844300,7.58584423828125,10.56949548970461,3.246221809351444,-2.8350062760427592
1782846767754848300,7.59584814453125,10.878791740500926,2.8387705970123407,-2.3875997776731848
1782846767764853200,7.605853271484375,10.867236911785602,2.339649693496525,-1.9905651837997138
1782846767774858200,7.615858154296875,10.804031390810012,2.053378636717796,-1.713491871216148
1782846767784862200,7.6258623046875,10.462782835435867,2.139117476540804,-1.3964403301179409
1782846767794867000,7.635866943359375,9.858331087398529,2.2511440193086862,-1.1306379878070205
1782846767804872000,7.645871826171875,9.246875598078965,2.3538166044063864,-0.941457332079485
1782846767814876200,7.655876220703125,8.661613703680038,2.5385326819404956,-0.6976674265470355
1782846767824881200,7.665881103515625,8.00320532452762,2.6885633766710755,-0.41338228288851675
1782846767834886100,7.67588623046875,7.662308651331067,2.8523759285166856,-0.28592998825609683
1782846767844890000,7.68589013671875,7.416881353855133,2.938029720404744,-0.16970402103699742
1782846767854895000,7.69589501953125,6.9088272022992365,2.726543563236296,-0.05572042591720819
1782846767864900000,7.705900146484375,6.316589623668789,2.0631997735083103,0.08542926241718232
1782846767874904000,7.715904052734375,6.231112065130472,1.196557078590244,-0.9470444114968181
1782846767884909000,7.725908935546875,5.7279801724076265,0.584776448969543,-0.8705508813377469
1782846767894914000,7.7359140625,4.319418611863255,-0.21718992176800964,-0.7797377339251339
1782846767904918300,7.745918212890625,2.576774149790406,-1.0248857760682701,-0.45399968608953056
1782846767914923300,7.75592333984375,0.06520049418509007,-1.7136188585966825,0.5337387740410864
1782846767924928300,7.76592822265625,-1.8272814781337976,-2.04591136957705,1.0551541461471468
1782846767934932200,7.77593212890625,-3.845386556896567,-1.875092153839767,2.0642340849921106
1782846767944937200,7.785937255859375,-5.511422411063313,-1.4340055061414838,3.0552649377316237
1782846767954942200,7.795942138671875,-6.830446908545493,-0.843995248171687,3.439507416179776
1782846767964946000,7.80594580078125,-8.330092177072167,-1.2342951269626616,2.879253706309199
1782846767974951000,7.815950927734375,-8.703378961741924,-2.5897160489499567,1.2474452620454133
1782846767984956000,7.825955810546875,-9.590926351392268,-4.247705959305167,-0.5296434675514697
1782846767994960100,7.835960205078125,-10.764438216090202,-5.9670122158884995,-1.2785155230917036
1782846768004965000,7.845965087890625,-11.73316400578022,-6.035474926739931,-0.6475168366514146
1782846768014970000,7.85597021484375,-11.936622047054767,-3.8367721655473113,1.411722801054269
1782846768024974000,7.86597412109375,-11.27765311141014,-0.9333025941312313,3.6033173376768826
1782846768034979000,7.87597900390625,-10.723771859180927,0.9558110707983374,4.175347410058975
1782846768044984000,7.885984130859375,-10.028917955684662,1.8235124809890983,3.3753242823436853
1782846768054988000,7.895988037109375,-8.933889260593055,1.5779583422631025,2.076789761313051
1782846768064993000,7.905992919921875,-7.477049699091911,0.534443561309576,0.6033562078855932
1782846768074998000,7.915998046875,-5.377403232195973,-1.0737617429181934,-0.4942812083996832
1782846768085002200,7.926002197265625,-2.507822778639197,-3.165625885374844,-0.9331503261789679
1782846768095007200,7.93600732421875,-0.026406945410370825,-4.8407510549262165,-0.764510792568326
1782846768105012200,7.94601220703125,1.7156570864260197,-5.404737229323387,-0.2837397847354412
1782846768115016200,7.95601611328125,2.632006792190671,-4.634513612066209,-0.11544263482168317
1782846768125021200,7.966021240234375,2.6204426111251116,-3.3090640499725934,-0.3225748345643282
1782846768135026200,7.976026123046875,2.2945716576248407,-1.8986428330361842,-0.5774697792179883
1782846768145030100,7.986030029296875,1.885733667102456,-0.5290168600857258,-0.6777749045319855
1782846768155035100,7.99603515625,1.0241758742332459,0.6600614070564508,-0.6327930225111543
1782846768165040000,8.0060400390625,0.5909574756920337,1.4475279816679656,-0.32437311615794895
1782846768175044000,8.016044189453124,0.692564331254363,1.7153233244270085,0.02694894333258271
1782846768185049000,8.026049072265625,1.0391296977370976,1.7678670200042426,0.10872063309028744
1782846768195054000,8.03605419921875,1.5206968243837355,1.7847824989698826,0.04346300189048052
1782846768205058000,8.04605810546875,1.9735323620647192,1.9191822015874087,0.04809606851860881
1782846768215063000,8.05606298828125,2.29964530762732,2.010999776802212,-0.08928338056206703
1782846768225068000,8.066068115234375,2.658030875763297,1.9944148449651895,-0.23085575128793714
1782846768235072300,8.076072265625,3.2748826711684464,1.9950804692670703,-0.39286096145063637
1782846768245077200,8.0860771484375,3.975570103123784,1.9748587883628903,-0.6853354029141366
1782846768255082200,8.096082275390625,4.635506422495841,1.8517410888686776,-0.9342866367325187
1782846768265086200,8.106086181640626,5.180495343217253,1.7168178007684647,-0.993988533501327
1782846768275091200,8.11609130859375,5.538207542136311,1.6320485366299748,-0.8234065605860204
1782846768285096200,8.12609619140625,5.734156815215945,1.563549147029966,-0.526840831220895
1782846768295100200,8.13610009765625,5.792639399322867,1.5966751715622842,-0.2329901329681277
1782846768305105200,8.146105224609375,5.748336731737852,1.7798161087341606,0.10326689772903919
1782846768315110100,8.156110107421876,5.4452083559215065,1.9233777535811065,0.3840077198442071
1782846768325114000,8.166114013671875,4.889267248553037,2.078369723980874,0.45766266557648777
1782846768335119000,8.176119140625,4.081063444730639,2.3318302519172427,0.3673725191246718
1782846768345124000,8.1861240234375,3.1093875730633735,2.401481149639934,0.220201743869856
1782846768355128000,8.196128173828125,2.321739650535583,2.1798437469437717,0.09968640889376401
1782846768365133000,8.206133056640626,1.808237170445919,1.6669754731044173,-0.09014445437081157
1782846768375138000,8.216137939453125,1.1441542527884245,0.9083318190038203,-0.2511993050061166
1782846768385142000,8.22614208984375,-0.016523849299550055,-0.03562032556608319,-0.21285452291220425
1782846768395147000,8.23614697265625,-1.5594576399326323,-0.9649784198552369,-0.05897716269083321
1782846768405152000,8.246152099609375,-3.274381735908985,-1.5438456447809934,0.1867774670433253
1782846768415156200,8.25615625,-5.084922507122159,-1.7227908838286994,0.6106243722576647
1782846768425161200,8.2661611328125,-6.949425754669308,-1.5945280765309928,0.9525281766701489
1782846768435166200,8.276166259765626,-8.798350324812532,-1.2096850018411873,1.170956188865751
1782846768445170200,8.286170166015625,-10.155986000239848,-1.129706917501986,1.5061092038437722
1782846768455175200,8.296175048828125,-10.957501120078563,-1.49187405000329,1.5793518424481152
1782846768465180200,8.30618017578125,-11.395811873322724,-2.110888868661225,1.3981671539105474
1782846768475184000,8.31618408203125,-11.335368802797793,-2.977299362258613,0.9713014123316853
1782846768485189000,8.326189208984376,-10.847868194448948,-3.95078140656501,0.5859995610237121
1782846768495194000,8.336194091796875,-10.187098931384085,-4.877697222268581,0.2696434548437595
1782846768505198000,8.346197998046875,-9.649961308684945,-5.5083589318394655,0.11899755082428455
1782846768515203000,8.356203125,-9.281354206264018,-5.936043077129125,0.08490962245725095
1782846768525207000,8.36620703125,-9.142941760873795,-6.078544837659597,0.21498042902499437
1782846768535212000,8.3762119140625,-9.382852340754866,-5.773709657925367,0.5493659667618572
1782846768545217000,8.386217041015625,-9.566909515988826,-5.0817333556920286,0.789189452881366
1782846768555221000,8.396220947265626,-9.52408159713149,-4.111902235108614,0.8839443236570805
1782846768565226000,8.40622607421875,-8.793905035841464,-2.7884184201300144,0.7368950558900833
1782846768575231000,8.41623095703125,-7.839630965352058,-1.490358092482388,0.552923440047726
1782846768585235200,8.426235107421874,-6.712662240642309,0.20025807618945834,0.9943744640789925
1782846768595240200,8.436240234375,-5.885781793400645,1.4434095865637062,1.2824690830230712
1782846768605245200,8.4462451171875,-4.729364855888486,2.420955227047205,0.953037660562247
1782846768615249200,8.456249267578125,-2.6942262247383595,3.272153246204555,0.5398759616218507
1782846768625254100,8.466254150390625,-0.5157610726714134,3.22631182474494,0.10012319287583231
1782846768635259100,8.476259033203124,1.4563228441506624,2.832553914454579,-0.11704499198440461
1782846768645263000,8.48626318359375,3.7549925847440955,2.5071692831665278,0.09488496342878788
1782846768655268000,8.49626806640625,5.995303659871221,1.9466656901881099,0.33726715758778153
1782846768665273000,8.506273193359375,7.648593429711461,1.4369108721941708,0.6467343079715967
1782846768675277300,8.51627734375,8.262186515581607,1.8378630779027938,1.0005397087104617
