time,seconds_elapsed,z,y,x
1782846760222583800,0.063583740234375,-2.0416717529296875,-0.6271514892578125,0.1990509033203125
1782846760232587800,0.073587890625,-2.2053985595703125,-0.6829071044921875,0.2311859130859375
1782846760242592800,0.0835927734375,-2.2984771728515625,-0.7537689208984375,0.252166748046875
1782846760252597800,0.09359765625,-2.346160888671875,-0.8474578857421875,0.256927490234375
1782846760262601700,0.103601806640625,-2.3525848388671875,-0.924530029296875,0.248138427734375
1782846760272606700,0.113606689453125,-2.3442230224609375,-0.9288330078125,0.242156982421875
1782846760282611700,0.12361181640625,-2.3160858154296875,-0.8370208740234375,0.243682861328125
1782846760292615700,0.13361572265625,-2.286529541015625,-0.6689910888671875,0.267852783203125
1782846760302620700,0.14362060546875,-2.2369384765625,-0.4624176025390625,0.298492431640625
1782846760312625700,0.153625732421875,-2.1131591796875,-0.2622833251953125,0.338104248046875
1782846760322629600,0.163629638671875,-1.87469482421875,-0.129150390625,0.318450927734375
1782846760332634600,0.173634521484375,-1.60125732421875,-0.0720062255859375,0.2327880859375
1782846760342639600,0.1836396484375,-1.29681396484375,-0.05865478515625,0.136383056640625
1782846760352643800,0.193643798828125,-0.9913177490234375,-0.079132080078125,0.0257568359375
1782846760362648800,0.20364892578125,-0.733154296875,-0.129669189453125,-0.059234619140625
1782846760372653800,0.21365380859375,-0.5252227783203125,-0.190093994140625,-0.1079559326171875
1782846760382657800,0.22365771484375,-0.3045806884765625,-0.219635009765625,-0.097747802734375
1782846760392662800,0.233662841796875,-0.12078857421875,-0.21209716796875,-0.0925750732421875
1782846760402667800,0.243667724609375,0.0118408203125,-0.172637939453125,-0.0433197021484375
1782846760412671700,0.253671630859375,0.0861358642578125,-0.1283111572265625,0.00799560546875
1782846760422676700,0.2636767578125,0.1454315185546875,-0.0845489501953125,0.0377960205078125
1782846760432681700,0.273681640625,0.1100921630859375,-0.021209716796875,0.044464111328125
1782846760442685700,0.283685791015625,0.0323944091796875,0.041351318359375,0.02471923828125
1782846760452690700,0.293690673828125,0.0005645751953125,0.0790557861328125,0.016876220703125
1782846760462695700,0.30369580078125,-0.0389556884765625,0.087249755859375,0.024017333984375
1782846760472699600,0.31369970703125,-0.0459747314453125,0.084136962890625,0.0345306396484375
1782846760482704600,0.32370458984375,-0.0277099609375,0.074493408203125,0.0361175537109375
1782846760492709600,0.333709716796875,-0.007720947265625,0.064910888671875,0.0415191650390625
1782846760502713600,0.343713623046875,0.008392333984375,0.0610504150390625,0.0455322265625
1782846760512718600,0.353718505859375,0.0072784423828125,0.05267333984375,0.0452423095703125
1782846760522723600,0.3637236328125,0.013946533203125,0.04486083984375,0.0370941162109375
1782846760532727800,0.373727783203125,0.0206756591796875,0.046051025390625,0.017059326171875
1782846760542732800,0.38373291015625,0.0197906494140625,0.0447235107421875,-0.001953125
1782846760552737800,0.39373779296875,0.032440185546875,0.0540008544921875,-0.021026611328125
1782846760562741800,0.40374169921875,0.041229248046875,0.0525970458984375,-0.038665771484375
1782846760572746800,0.413746826171875,0.0520477294921875,0.0442352294921875,-0.04010009765625
1782846760582751700,0.423751708984375,0.068359375,0.032196044921875,-0.026702880859375
1782846760592755700,0.433755615234375,0.0580902099609375,0.0300445556640625,-0.0123748779296875
1782846760602760700,0.4437607421875,0.023101806640625,0.01837158203125,-0.025115966796875
1782846760612765700,0.453765625,-0.04888916015625,-0.0035858154296875,-0.0647735595703125
1782846760622769700,0.463769775390625,-0.188995361328125,-0.05010986328125,-0.1000213623046875
1782846760632774700,0.473774658203125,-0.3575592041015625,-0.1321258544921875,-0.1343536376953125
1782846760642779600,0.483779541015625,-0.5779571533203125,-0.198577880859375,-0.144775390625
1782846760652783600,0.49378369140625,-0.8675079345703125,-0.2623291015625,-0.1114349365234375
1782846760662788600,0.50378857421875,-1.1399993896484375,-0.3573455810546875,-0.0400390625
1782846760672792600,0.51379248046875,-1.337890625,-0.4240875244140625,0.0521392822265625
1782846760682797600,0.523797607421875,-1.56048583984375,-0.3824005126953125,0.2062835693359375
1782846760692802600,0.533802490234375,-1.8103485107421875,-0.345489501953125,0.2896728515625
1782846760702807600,0.5438076171875,-2.0778045654296875,-0.4717864990234375,0.2344207763671875
1782846760712811800,0.553811767578125,-2.1922760009765625,-0.5942535400390625,0.16259765625
1782846760722816800,0.563816650390625,-2.1741790771484375,-0.497528076171875,0.18994140625
1782846760732820700,0.57382080078125,-2.369598388671875,-0.4732208251953125,0.2486572265625
1782846760742825700,0.58382568359375,-2.587493896484375,-0.269622802734375,0.3753204345703125
1782846760752830700,0.593830810546875,-2.6646270751953125,0.07147216796875,0.4984283447265625
1782846760762834700,0.603834716796875,-2.673126220703125,0.2493133544921875,0.49005126953125
1782846760772839700,0.613839599609375,-2.55950927734375,0.2067413330078125,0.3408966064453125
1782846760782844400,0.623844482421875,-2.3052825927734375,-0.0088348388671875,0.1722259521484375
1782846760792848600,0.6338486328125,-1.917388916015625,-0.3969879150390625,0.077972412109375
1782846760802853600,0.643853515625,-1.35443115234375,-0.8524322509765625,0.137725830078125
1782846760812858600,0.653858642578125,-0.8133697509765625,-1.0523223876953125,0.3108367919921875
1782846760822862600,0.663862548828125,-0.6547698974609375,-0.87286376953125,0.380645751953125
1782846760832867600,0.67386767578125,-0.8735198974609375,-0.619171142578125,0.2507171630859375
1782846760842872600,0.68387255859375,-1.1519317626953125,-0.3997955322265625,0.0978851318359375
1782846760852876500,0.69387646484375,-1.3260955810546875,-0.18414306640625,0.0106048583984375
1782846760862881500,0.703881591796875,-1.38427734375,-0.009552001953125,-0.037200927734375
1782846760872886800,0.71388671875,-1.3195037841796875,0.101776123046875,-0.0230560302734375
1782846760882891800,0.723891845703125,-1.174713134765625,0.1519927978515625,-0.0022125244140625
1782846760892895500,0.7338955078125,-0.9973297119140625,0.159454345703125,-0.0068511962890625
1782846760902900500,0.743900390625,-0.8044891357421875,0.1123046875,-0.025299072265625
1782846760912904400,0.753904541015625,-0.61883544921875,0.0323486328125,-0.052978515625
1782846760922909400,0.763909423828125,-0.4544219970703125,-0.0438995361328125,-0.090576171875
1782846760932914400,0.77391455078125,-0.3292236328125,-0.074615478515625,-0.1170501708984375
1782846760942918700,0.783918701171875,-0.268646240234375,-0.0773773193359375,-0.1374053955078125
1782846760952923600,0.793923583984375,-0.2651214599609375,-0.089141845703125,-0.1697540283203125
1782846760962928600,0.8039287109375,-0.281646728515625,-0.1027374267578125,-0.1884307861328125
1782846760972932600,0.8139326171875,-0.305511474609375,-0.1080474853515625,-0.199188232421875
1782846760982937600,0.8239375,-0.3390350341796875,-0.11248779296875,-0.22027587890625
1782846760992942600,0.833942626953125,-0.376373291015625,-0.1225128173828125,-0.23046875
1782846761002946600,0.843946533203125,-0.4097900390625,-0.1271514892578125,-0.2032623291015625
1782846761012951600,0.85395166015625,-0.449188232421875,-0.12359619140625,-0.15069580078125
1782846761022956500,0.86395654296875,-0.4981842041015625,-0.1098480224609375,-0.0778350830078125
1782846761032960800,0.873960693359375,-0.5680999755859375,-0.06951904296875,0.0027618408203125
1782846761042965800,0.8839658203125,-0.655914306640625,-0.0064849853515625,0.068756103515625
1782846761052970800,0.893970703125,-0.7470245361328125,0.0615081787109375,0.1010894775390625
1782846761062975700,0.903975830078125,-0.842803955078125,0.1285858154296875,0.1005706787109375
1782846761072979700,0.913979736328125,-0.89923095703125,0.176544189453125,0.09344482421875
1782846761082984700,0.923984619140625,-0.893463134765625,0.1829833984375,0.0873870849609375
1782846761092988400,0.933988525390625,-0.8475189208984375,0.145782470703125,0.0676422119140625
1782846761102993400,0.943993408203125,-0.7986907958984375,0.0858917236328125,0.0501708984375
1782846761112998400,0.953998291015625,-0.77313232421875,0.0137176513671875,0.040985107421875
1782846761123002600,0.964002685546875,-0.78106689453125,-0.0741119384765625,0.0287628173828125
1782846761133007600,0.974007568359375,-0.8170166015625,-0.174835205078125,0.013702392578125
1782846761143012600,0.9840126953125,-0.8728485107421875,-0.283233642578125,0.0019378662109375
1782846761153017600,0.994017578125,-0.9665374755859375,-0.3531036376953125,0.0125732421875
1782846761163021600,1.004021484375,-1.1180419921875,-0.4028778076171875,0.0491180419921875
1782846761173026600,1.014026611328125,-1.31744384765625,-0.4467315673828125,0.105743408203125
1782846761183030500,1.024030517578125,-1.565704345703125,-0.466644287109375,0.139373779296875
1782846761193035500,1.034035400390625,-1.872650146484375,-0.45166015625,0.12493896484375
1782846761203040500,1.04404052734375,-2.1607208251953125,-0.4275360107421875,0.0849761962890625
1782846761213045500,1.05404541015625,-2.3694915771484375,-0.42474365234375,0.0524444580078125
1782846761223049700,1.0640498046875,-2.5009765625,-0.4474029541015625,0.0478973388671875
1782846761233054700,1.0740546875,-2.5783843994140625,-0.5021514892578125,0.0256195068359375
1782846761243059700,1.084059814453125,-2.605438232421875,-0.558837890625,0.0192108154296875
1782846761253063700,1.094063720703125,-2.6116485595703125,-0.567657470703125,0.0460052490234375
1782846761263068700,1.104068603515625,-2.6016998291015625,-0.5314178466796875,0.0985565185546875
1782846761273073700,1.11407373046875,-2.571502685546875,-0.48077392578125,0.133758544921875
1782846761283077400,1.124077392578125,-2.48687744140625,-0.443115234375,0.12493896484375
1782846761293082400,1.134082275390625,-2.3443145751953125,-0.4122314453125,0.095977783203125
1782846761303087400,1.14408740234375,-2.1471099853515625,-0.37469482421875,0.077728271484375
1782846761313091600,1.154091552734375,-1.9034576416015625,-0.34478759765625,0.0814056396484375
1782846761323096600,1.1640966796875,-1.62384033203125,-0.305511474609375,0.113983154296875
1782846761333101600,1.1741015625,-1.33935546875,-0.2633514404296875,0.1562957763671875
1782846761343105500,1.18410546875,-1.0637359619140625,-0.225189208984375,0.1876678466796875
1782846761353110500,1.194110595703125,-0.804962158203125,-0.1940460205078125,0.2024383544921875
1782846761363115500,1.204115478515625,-0.571929931640625,-0.169708251953125,0.1949920654296875
1782846761373119500,1.214119384765625,-0.3694610595703125,-0.1352386474609375,0.1719207763671875
1782846761383124500,1.22412451171875,-0.2091827392578125,-0.1021575927734375,0.14007568359375
1782846761393129500,1.23412939453125,-0.0998077392578125,-0.075714111328125,0.10137939453125
1782846761403133700,1.2441337890625,-0.0066986083984375,-0.0432891845703125,0.0740966796875
1782846761413138700,1.254138671875,0.0517425537109375,-0.0052032470703125,0.0465240478515625
1782846761423143700,1.264143798828125,0.0628814697265625,0.0435943603515625,0.021881103515625
1782846761433147600,1.274147705078125,0.02203369140625,0.082366943359375,0.0040740966796875
1782846761443152600,1.284152587890625,-0.0124969482421875,0.0972442626953125,-0.001708984375
1782846761453157600,1.29415771484375,-0.011962890625,0.0908966064453125,0.01568603515625
1782846761463161300,1.304161376953125,0.01385498046875,0.0651092529296875,0.0472564697265625
1782846761473166600,1.31416650390625,0.057403564453125,0.0325927734375,0.068450927734375
1782846761483171600,1.324171630859375,0.1264190673828125,0.01336669921875,0.084716796875
1782846761493175600,1.334175537109375,0.1811981201171875,-0.0029754638671875,0.083526611328125
1782846761503180500,1.3441806640625,0.22589111328125,-0.02471923828125,0.0686492919921875
1782846761513185500,1.354185546875,0.2564849853515625,-0.0408172607421875,0.0599822998046875
1782846761523189500,1.364189453125,0.2672576904296875,-0.0484619140625,0.0687408447265625
1782846761533194500,1.374194580078125,0.2673492431640625,-0.0317230224609375,0.080078125
1782846761543199500,1.384199462890625,0.244110107421875,-0.0225372314453125,0.0881500244140625
1782846761553203500,1.394203369140625,0.1994781494140625,-0.0152587890625,0.080963134765625
1782846761563208700,1.404208740234375,0.13104248046875,-0.0053863525390625,0.0608673095703125
1782846761573213700,1.414213623046875,0.0499725341796875,0.021087646484375,0.033935546875
1782846761583217700,1.4242177734375,-0.01318359375,0.036224365234375,-0.0069580078125
1782846761593222700,1.43422265625,-0.073333740234375,0.0546112060546875,-0.020050048828125
1782846761603227600,1.4442275390625,-0.1781463623046875,0.07293701171875,-0.0274810791015625
1782846761613231600,1.454231689453125,-0.326080322265625,0.0764312744140625,-0.04766845703125
1782846761623236600,1.464236572265625,-0.498291015625,0.05108642578125,-0.062347412109375
1782846761633241600,1.47424169921875,-0.6774444580078125,-0.0274200439453125,-0.05682373046875
1782846761643245600,1.48424560546875,-0.833404541015625,-0.1370697021484375,-0.04217529296875
1782846761653250600,1.49425048828125,-1.0018768310546875,-0.2625579833984375,-0.037322998046875
1782846761663255800,1.504255859375,-1.16864013671875,-0.3917388916015625,-0.0449371337890625
1782846761673259500,1.514259521484375,-1.294586181640625,-0.48956298828125,-0.0026092529296875
1782846761683264500,1.524264404296875,-1.3636016845703125,-0.548797607421875,0.1013946533203125
1782846761693269500,1.53426953125,-1.4351043701171875,-0.5930328369140625,0.2131500244140625
1782846761703273500,1.5442734375,-1.5418853759765625,-0.65838623046875,0.266326904296875
1782846761713278500,1.554278564453125,-1.6701202392578125,-0.7929840087890625,0.222503662109375
1782846761723283500,1.564283447265625,-1.7861175537109375,-0.906829833984375,0.1480712890625
1782846761733287700,1.57428759765625,-1.8797760009765625,-0.9261627197265625,0.12890625
1782846761743292700,1.584292724609375,-2.005706787109375,-0.83563232421875,0.1810455322265625
1782846761753297700,1.594297607421875,-2.15106201171875,-0.6278839111328125,0.2712860107421875
1782846761763301600,1.604301513671875,-2.2538299560546875,-0.397674560546875,0.3246002197265625
1782846761773306600,1.614306640625,-2.3145904541015625,-0.2338409423828125,0.2869873046875
1782846761783311000,1.62431103515625,-2.3307952880859375,-0.17340087890625,0.1781005859375
1782846761793315000,1.634315185546875,-2.2797088623046875,-0.1922760009765625,0.0525665283203125
1782846761803320000,1.644320068359375,-2.1377105712890625,-0.2644500732421875,-0.0438690185546875
1782846761813325000,1.654324951171875,-1.9290771484375,-0.3818511962890625,-0.0951385498046875
1782846761823329300,1.664329345703125,-1.612030029296875,-0.5170135498046875,-0.0850067138671875
1782846761833334300,1.674334228515625,-1.2859649658203125,-0.647247314453125,-0.031402587890625
1782846761843339300,1.68433935546875,-1.092254638671875,-0.7147369384765625,0.0679168701171875
1782846761853343200,1.69434326171875,-1.0286407470703125,-0.6841583251953125,0.198577880859375
1782846761863348200,1.70434814453125,-1.031768798828125,-0.5751953125,0.270355224609375
1782846761873353200,1.714353271484375,-1.0526275634765625,-0.4367828369140625,0.2900390625
1782846761883357200,1.724357177734375,-1.0280609130859375,-0.319244384765625,0.265869140625
1782846761893362200,1.734362060546875,-0.9741058349609375,-0.2365570068359375,0.20733642578125
1782846761903367200,1.7443671875,-0.897247314453125,-0.1767425537109375,0.1321563720703125
1782846761913371100,1.75437109375,-0.806610107421875,-0.1242218017578125,0.0622406005859375
1782846761923376000,1.764376220703125,-0.69744873046875,-0.08477783203125,-0.0010223388671875
1782846761933381000,1.774381103515625,-0.5980987548828125,-0.0654144287109375,-0.0702667236328125
1782846761943385000,1.784385009765625,-0.4939422607421875,-0.0672149658203125,-0.1338958740234375
1782846761953390000,1.79439013671875,-0.4082489013671875,-0.07061767578125,-0.1753997802734375
1782846761963395000,1.80439501953125,-0.351654052734375,-0.0673828125,-0.191558837890625
1782846761973400000,1.814400146484375,-0.3169097900390625,-0.0756072998046875,-0.1885986328125
1782846761983404000,1.824404052734375,-0.3130035400390625,-0.084686279296875,-0.1607513427734375
1782846761993409300,1.8344091796875,-0.336578369140625,-0.0925140380859375,-0.1188812255859375
1782846762003414300,1.844414306640625,-0.3516387939453125,-0.10345458984375,-0.07623291015625
1782846762013418200,1.854418212890625,-0.3639984130859375,-0.1059112548828125,-0.023406982421875
1782846762023423200,1.86442333984375,-0.396514892578125,-0.112457275390625,0.0404205322265625
1782846762033428200,1.87442822265625,-0.42279052734375,-0.1114349365234375,0.09893798828125
1782846762043432200,1.88443212890625,-0.435943603515625,-0.123779296875,0.135650634765625
1782846762053437200,1.894437255859375,-0.452392578125,-0.13409423828125,0.153564453125
1782846762063442200,1.904442138671875,-0.483551025390625,-0.12371826171875,0.1589508056640625
1782846762073446400,1.9144462890625,-0.51416015625,-0.10589599609375,0.1535491943359375
1782846762083451400,1.924451416015625,-0.5447845458984375,-0.08258056640625,0.12841796875
1782846762093456400,1.934456298828125,-0.577301025390625,-0.0478973388671875,0.0897979736328125
1782846762103460400,1.94446044921875,-0.6135101318359375,-0.0218658447265625,0.0614776611328125
1782846762113465300,1.95446533203125,-0.6480255126953125,-0.0142669677734375,0.0315093994140625
1782846762123470300,1.96447021484375,-0.6808013916015625,-0.0254669189453125,0.0151214599609375
1782846762133474000,1.97447412109375,-0.70733642578125,-0.0664825439453125,-0.0002288818359375
1782846762143479000,1.98447900390625,-0.7158050537109375,-0.1247406005859375,-0.023529052734375
1782846762153484000,1.994484130859375,-0.7751312255859375,-0.1938934326171875,-0.0582427978515625
1782846762163488300,2.00448828125,-0.903045654296875,-0.259368896484375,-0.0917205810546875
1782846762173493200,2.0144931640625,-1.094146728515625,-0.3053131103515625,-0.097320556640625
1782846762183498200,2.024498291015625,-1.309173583984375,-0.3273162841796875,-0.04205322265625
1782846762193502200,2.034502197265625,-1.52008056640625,-0.333526611328125,0.060272216796875
1782846762203507200,2.044507080078125,-1.6865386962890625,-0.3446502685546875,0.1822357177734375
1782846762213512200,2.05451220703125,-1.8531646728515625,-0.3687896728515625,0.3005523681640625
1782846762223516200,2.06451611328125,-2.00225830078125,-0.3903961181640625,0.38360595703125
1782846762233521200,2.074521240234375,-2.1276092529296875,-0.4311370849609375,0.4399871826171875
1782846762243526100,2.084526123046875,-2.2497100830078125,-0.5039520263671875,0.453948974609375
1782846762253530400,2.0945302734375,-2.3467864990234375,-0.57452392578125,0.4198455810546875
1782846762263535400,2.104535400390625,-2.4309844970703125,-0.611053466796875,0.355682373046875
1782846762273540400,2.114540283203125,-2.4773406982421875,-0.6255035400390625,0.2826995849609375
1782846762283544300,2.12454443359375,-2.477691650390625,-0.6395721435546875,0.2110443115234375
1782846762293549300,2.13454931640625,-2.441009521484375,-0.642120361328125,0.1651458740234375
1782846762303554300,2.14455419921875,-2.395477294921875,-0.6077117919921875,0.1203460693359375
1782846762313558000,2.15455810546875,-2.3877716064453125,-0.5638885498046875,0.0620269775390625
1782846762323563000,2.16456298828125,-2.3990325927734375,-0.486480712890625,0.0497589111328125
1782846762333568000,2.174568115234375,-2.37896728515625,-0.37347412109375,0.0740509033203125
1782846762343572200,2.184572265625,-2.270263671875,-0.244415283203125,0.12115478515625
1782846762353577200,2.1945771484375,-2.0496368408203125,-0.1171112060546875,0.1643829345703125
1782846762363582200,2.204582275390625,-1.7505950927734375,0.0128173828125,0.2205657958984375
1782846762373586200,2.214586181640625,-1.41961669921875,0.1097564697265625,0.253753662109375
1782846762383591200,2.224591064453125,-1.0901947021484375,0.1454925537109375,0.2136383056640625
1782846762393596200,2.23459619140625,-0.7931060791015625,0.1426544189453125,0.12139892578125
1782846762403601200,2.24460107421875,-0.49896240234375,0.1059722900390625,0.0172271728515625
1782846762413605000,2.254605224609375,-0.235015869140625,0.0330810546875,-0.07733154296875
1782846762423610000,2.264610107421875,-0.0130615234375,-0.0524444580078125,-0.1476593017578125
1782846762433615000,2.274614990234375,0.1682281494140625,-0.102294921875,-0.1705322265625
1782846762443619300,2.284619384765625,0.2485809326171875,-0.1012420654296875,-0.1601104736328125
1782846762453624300,2.294624267578125,0.2542572021484375,-0.049468994140625,-0.1249847412109375
1782846762463629300,2.30462939453125,0.2331695556640625,0.00396728515625,-0.0621490478515625
1782846762473633300,2.31463330078125,0.21368408203125,0.04248046875,-0.0032958984375
1782846762483638300,2.32463818359375,0.18951416015625,0.0748748779296875,0.0296173095703125
1782846762493643300,2.334643310546875,0.1959381103515625,0.0906982421875,0.0306854248046875
1782846762503647000,2.34464697265625,0.2330169677734375,0.085357666015625,0.0147857666015625
1782846762513652000,2.35465185546875,0.2719573974609375,0.0667266845703125,0.00494384765625
1782846762523657000,2.364656982421875,0.3021240234375,0.0376129150390625,-0.0030364990234375
1782846762533661200,2.3746611328125,0.33709716796875,0.020721435546875,0.005950927734375
1782846762543666200,2.384666259765625,0.3691253662109375,0.020477294921875,0.0252532958984375
1782846762553671200,2.394671142578125,0.375823974609375,0.032257080078125,0.0464630126953125
1782846762563675100,2.404675048828125,0.3628997802734375,0.0431976318359375,0.0574951171875
1782846762573680000,2.41468017578125,0.3319549560546875,0.0440521240234375,0.0730133056640625
1782846762583685000,2.42468505859375,0.3025970458984375,0.039031982421875,0.0873870849609375
1782846762593689000,2.434689208984375,0.261322021484375,0.031890869140625,0.082366943359375
1782846762603694000,2.444694091796875,0.178680419921875,0.0255889892578125,0.0644378662109375
1782846762613699000,2.454698974609375,0.09832763671875,0.019805908203125,0.026458740234375
1782846762623703300,2.464703369140625,0.032989501953125,0.01812744140625,-0.01641845703125
1782846762633708300,2.474708251953125,-0.0470123291015625,0.0239105224609375,-0.0394439697265625
1782846762643713300,2.48471337890625,-0.1533203125,0.0296630859375,-0.0155487060546875
1782846762653717200,2.49471728515625,-0.3084564208984375,-0.00726318359375,0.0064697265625
1782846762663722200,2.50472216796875,-0.508331298828125,-0.0605926513671875,0.012054443359375
1782846762673727200,2.514727294921875,-0.7430267333984375,-0.106231689453125,0.0373382568359375
1782846762683731200,2.524731201171875,-1.0035247802734375,-0.15374755859375,0.0901947021484375
1782846762693736200,2.534736083984375,-1.1970672607421875,-0.218170166015625,0.153656005859375
1782846762703741400,2.544741455078125,-1.3541717529296875,-0.293548583984375,0.2221832275390625
1782846762713745200,2.5547451171875,-1.5278778076171875,-0.397613525390625,0.2805328369140625
1782846762723750100,2.564750244140625,-1.7043609619140625,-0.5219879150390625,0.2869415283203125
1782846762733755100,2.574755126953125,-1.85809326171875,-0.622894287109375,0.26385498046875
1782846762743760100,2.584760009765625,-1.92144775390625,-0.6784820556640625,0.2595672607421875
1782846762753764000,2.59476416015625,-1.9250030517578125,-0.668426513671875,0.2743988037109375
1782846762763769000,2.60476904296875,-2.0205230712890625,-0.7303466796875,0.2313232421875
1782846762773774000,2.614774169921875,-2.244537353515625,-0.8272247314453125,0.1105804443359375
1782846762783778300,2.6247783203125,-2.388275146484375,-0.8445281982421875,-0.001617431640625
1782846762793783600,2.634783447265625,-2.4232635498046875,-0.7206878662109375,0.0188446044921875
1782846762803788500,2.64478857421875,-2.44134521484375,-0.5049285888671875,0.1455841064453125
1782846762813792500,2.65479248046875,-2.4114227294921875,-0.27215576171875,0.26556396484375
1782846762823797500,2.664797607421875,-2.3358306884765625,-0.08038330078125,0.321929931640625
1782846762833802500,2.674802490234375,-2.2294464111328125,0.005767822265625,0.290985107421875
1782846762843806500,2.684806396484375,-2.0594940185546875,-0.0490570068359375,0.179840087890625
1782846762853811500,2.6948115234375,-1.801544189453125,-0.1877288818359375,0.06951904296875
1782846762863816400,2.70481640625,-1.457977294921875,-0.3716278076171875,0.0212860107421875
1782846762873820400,2.7148203125,-1.076141357421875,-0.59356689453125,0.0357208251953125
1782846762883825700,2.72482568359375,-0.76080322265625,-0.723785400390625,0.0920867919921875
1782846762893830700,2.73483056640625,-0.566009521484375,-0.66131591796875,0.1500701904296875
1782846762903834400,2.74483447265625,-0.5228118896484375,-0.4931488037109375,0.158721923828125
1782846762913839400,2.75483935546875,-0.6150970458984375,-0.3331146240234375,0.0992584228515625
1782846762923844400,2.76484423828125,-0.74609375,-0.2211151123046875,0.015655517578125
1782846762933848300,2.774848388671875,-0.8203277587890625,-0.1211700439453125,-0.03729248046875
1782846762943853300,2.784853271484375,-0.813262939453125,-0.046722412109375,-0.0684967041015625
1782846762953858300,2.7948583984375,-0.7416839599609375,0.004852294921875,-0.07421875
1782846762963862500,2.804862548828125,-0.665740966796875,0.05316162109375,-0.065704345703125
1782846762973867500,2.814867431640625,-0.5863800048828125,0.0590057373046875,-0.0702667236328125
1782846762983872500,2.82487255859375,-0.526092529296875,0.027252197265625,-0.0780181884765625
1782846762993876500,2.83487646484375,-0.4833526611328125,-0.0233612060546875,-0.0774993896484375
1782846763003881500,2.844881591796875,-0.46112060546875,-0.0819854736328125,-0.06884765625
1782846763013886500,2.854886474609375,-0.4495849609375,-0.12615966796875,-0.0374908447265625
1782846763023890400,2.864890380859375,-0.4329681396484375,-0.1490478515625,0.0042266845703125
1782846763033895400,2.8748955078125,-0.4214630126953125,-0.158355712890625,0.04046630859375
1782846763043900400,2.884900390625,-0.4293212890625,-0.1537628173828125,0.0699462890625
1782846763053904600,2.894904541015625,-0.4610137939453125,-0.1442108154296875,0.0919036865234375
1782846763063909600,2.90490966796875,-0.510955810546875,-0.137298583984375,0.0895233154296875
1782846763073914600,2.91491455078125,-0.5724029541015625,-0.12017822265625,0.076171875
1782846763083919600,2.924919677734375,-0.623016357421875,-0.090850830078125,0.064178466796875
1782846763093923300,2.93492333984375,-0.634063720703125,-0.06182861328125,0.055145263671875
1782846763103928600,2.944928466796875,-0.61627197265625,-0.034393310546875,0.0423126220703125
1782846763113933600,2.95493359375,-0.596099853515625,0.0006256103515625,0.0207977294921875
1782846763123937300,2.964937255859375,-0.5815582275390625,0.0380401611328125,-0.0003509521484375
1782846763133942300,2.9749423828125,-0.5816192626953125,0.07403564453125,-0.0071258544921875
1782846763143947300,2.984947265625,-0.6082000732421875,0.1039276123046875,0.0128936767578125
1782846763153951500,2.994951416015625,-0.6530303955078125,0.1063690185546875,0.0413360595703125
1782846763163956500,3.00495654296875,-0.685821533203125,0.085235595703125,0.067138671875
1782846763173961500,3.01496142578125,-0.7212982177734375,0.0254058837890625,0.0759429931640625
1782846763183965400,3.02496533203125,-0.769073486328125,-0.0903778076171875,0.0565948486328125
1782846763193970400,3.034970458984375,-0.8379058837890625,-0.211883544921875,0.029632568359375
1782846763203975400,3.044975341796875,-0.948516845703125,-0.2968902587890625,0.048248291015625
1782846763213979400,3.0549794921875,-1.08294677734375,-0.362579345703125,0.0887908935546875
1782846763223984400,3.064984375,-1.2632904052734375,-0.4193115234375,0.148223876953125
1782846763233989400,3.0749892578125,-1.5098419189453125,-0.4748077392578125,0.191619873046875
1782846763243993600,3.08499365234375,-1.7870635986328125,-0.5394287109375,0.1883087158203125
1782846763253998600,3.09499853515625,-2.0821075439453125,-0.564056396484375,0.1652679443359375
1782846763264003600,3.105003662109375,-2.3349609375,-0.5411376953125,0.184906005859375
1782846763274007600,3.115007568359375,-2.4662322998046875,-0.51922607421875,0.2475433349609375
1782846763284012500,3.125012451171875,-2.5998382568359375,-0.5820465087890625,0.3021240234375
1782846763294017500,3.135017578125,-2.7145538330078125,-0.6475677490234375,0.332611083984375
1782846763304021200,3.145021240234375,-2.690032958984375,-0.6697235107421875,0.3165740966796875
1782846763314026200,3.155026123046875,-2.6162567138671875,-0.72149658203125,0.2362213134765625
1782846763324031200,3.16503125,-2.508697509765625,-0.7772369384765625,0.142974853515625
1782846763334035500,3.175035400390625,-2.352691650390625,-0.7987213134765625,0.053497314453125
1782846763344040400,3.18504052734375,-2.181060791015625,-0.8067169189453125,-0.0578460693359375
1782846763354045400,3.19504541015625,-2.024932861328125,-0.7662200927734375,-0.1373291015625
1782846763364049400,3.20504931640625,-1.8734283447265625,-0.6518707275390625,-0.12939453125
1782846763374054400,3.215054443359375,-1.7055816650390625,-0.4876708984375,-0.05389404296875
1782846763384059400,3.225059326171875,-1.5356903076171875,-0.3225860595703125,0.0347747802734375
1782846763394063400,3.2350634765625,-1.36834716796875,-0.1822509765625,0.1025390625
1782846763404068400,3.245068359375,-1.201904296875,-0.0657806396484375,0.1397705078125
1782846763414073300,3.2550732421875,-1.035003662109375,0.016998291015625,0.1368560791015625
1782846763424078600,3.26507861328125,-0.8763885498046875,0.0677947998046875,0.12286376953125
1782846763434082600,3.27508251953125,-0.7161407470703125,0.0917205810546875,0.0929107666015625
1782846763444087600,3.285087646484375,-0.5634765625,0.081787109375,0.05718994140625
1782846763454092500,3.295092529296875,-0.4217681884765625,0.0507354736328125,0.0289459228515625
1782846763464096500,3.305096435546875,-0.275115966796875,0.0146636962890625,0.005615234375
1782846763474101500,3.3151015625,-0.1388397216796875,-0.0211944580078125,0.0087738037109375
1782846763484106500,3.3251064453125,-0.0472259521484375,-0.0495452880859375,0.0244140625
1782846763494110500,3.3351103515625,0.016754150390625,-0.061187744140625,0.04327392578125
1782846763504115500,3.345115478515625,0.04791259765625,-0.05218505859375,0.0454254150390625
1782846763514120400,3.355120361328125,0.0504150390625,-0.027252197265625,0.047607421875
1782846763524124400,3.36512451171875,0.055572509765625,-0.0089569091796875,0.0503082275390625
1782846763534129400,3.37512939453125,0.08538818359375,-0.013671875,0.0543975830078125
1782846763544134400,3.385134521484375,0.12811279296875,-0.018310546875,0.0625762939453125
1782846763554138400,3.395138427734375,0.17584228515625,-0.006927490234375,0.0708770751953125
1782846763564143400,3.405143310546875,0.217742919921875,0.0045013427734375,0.0742034912109375
1782846763574148400,3.4151484375,0.2644195556640625,-0.00372314453125,0.0648651123046875
1782846763584152600,3.425152587890625,0.3036041259765625,-0.009857177734375,0.059844970703125
1782846763594157600,3.435157470703125,0.3278350830078125,-0.005859375,0.05242919921875
1782846763604162600,3.44516259765625,0.3319854736328125,-0.0023345947265625,0.040069580078125
1782846763614166500,3.45516650390625,0.2969207763671875,0.0077362060546875,0.013641357421875
1782846763624171500,3.465171630859375,0.217041015625,0.0255126953125,-0.0070953369140625
1782846763634176500,3.475176513671875,0.1310272216796875,0.0424957275390625,0.0028228759765625
1782846763644180500,3.485180419921875,0.06304931640625,0.04901123046875,0.0027008056640625
1782846763654185500,3.495185546875,-0.0013427734375,0.0538177490234375,-0.006134033203125
1782846763664190500,3.5051904296875,-0.0683135986328125,0.0496673583984375,-0.008270263671875
1782846763674194400,3.5151943359375,-0.150787353515625,0.0402374267578125,0.0073394775390625
1782846763684199400,3.525199462890625,-0.27667236328125,-0.0023193359375,0.01611328125
1782846763694204400,3.535204345703125,-0.409759521484375,-0.075469970703125,0.0030517578125
1782846763704209700,3.545209716796875,-0.581085205078125,-0.1496734619140625,-0.022003173828125
1782846763714213400,3.55521337890625,-0.796356201171875,-0.1938934326171875,-0.0317535400390625
1782846763724218400,3.56521826171875,-1.072174072265625,-0.2386627197265625,-0.0329437255859375
1782846763734223400,3.575223388671875,-1.3554534912109375,-0.29913330078125,-0.022003173828125
1782846763744227300,3.585227294921875,-1.5694122314453125,-0.3443756103515625,0.0645294189453125
1782846763754232300,3.595232421875,-1.70098876953125,-0.37493896484375,0.204742431640625
1782846763764237300,3.6052373046875,-1.79974365234375,-0.4114227294921875,0.3005218505859375
1782846763774241500,3.615241455078125,-1.8942413330078125,-0.440032958984375,0.3391876220703125
1782846763784246300,3.625246337890625,-1.98870849609375,-0.439971923828125,0.308074951171875
1782846763794251500,3.63525146484375,-2.109619140625,-0.535064697265625,0.1753082275390625
1782846763804255200,3.645255126953125,-2.2016143798828125,-0.6378021240234375,0.0340728759765625
1782846763814260200,3.65526025390625,-2.22186279296875,-0.6601104736328125,-0.045166015625
1782846763824265200,3.66526513671875,-2.195159912109375,-0.61279296875,-0.0452423095703125
1782846763834269200,3.675269287109375,-2.1434326171875,-0.5052947998046875,0.029998779296875
1782846763844274200,3.685274169921875,-2.07861328125,-0.3963165283203125,0.1302032470703125
1782846763854279200,3.695279052734375,-1.9778594970703125,-0.349853515625,0.1645050048828125
1782846763864283400,3.705283447265625,-1.8286895751953125,-0.3607330322265625,0.1548309326171875
1782846763874288400,3.715288330078125,-1.639892578125,-0.4183197021484375,0.1188201904296875
1782846763884293400,3.72529345703125,-1.42779541015625,-0.489410400390625,0.0915374755859375
1782846763894297300,3.73529736328125,-1.231475830078125,-0.556365966796875,0.105224609375
1782846763904302300,3.74530224609375,-1.063690185546875,-0.5742645263671875,0.1510162353515625
1782846763914307300,3.755307373046875,-0.9346466064453125,-0.5481414794921875,0.2021636962890625
1782846763924311300,3.765311279296875,-0.83489990234375,-0.4753570556640625,0.234710693359375
1782846763934316300,3.77531640625,-0.7718658447265625,-0.3951416015625,0.220977783203125
1782846763944321300,3.7853212890625,-0.75494384765625,-0.316680908203125,0.1610260009765625
1782846763954325500,3.795325439453125,-0.77239990234375,-0.2637176513671875,0.0906524658203125
1782846763964330500,3.80533056640625,-0.78045654296875,-0.2025909423828125,0.038726806640625
1782846763974335500,3.81533544921875,-0.7763214111328125,-0.1373748779296875,-0.00543212890625
1782846763984339200,3.825339111328125,-0.775390625,-0.0850372314453125,-0.040130615234375
1782846763994344200,3.83534423828125,-0.775146484375,-0.0474700927734375,-0.0699462890625
1782846764004349200,3.84534912109375,-0.7545013427734375,-0.0255279541015625,-0.083099365234375
1782846764014353200,3.855353271484375,-0.6951141357421875,-0.020782470703125,-0.0741729736328125
1782846764024358400,3.8653583984375,-0.6310882568359375,-0.0229339599609375,-0.0505828857421875
1782846764034363400,3.87536328125,-0.587799072265625,-0.029998779296875,-0.0506744384765625
1782846764044367400,3.885367431640625,-0.560333251953125,-0.04058837890625,-0.062347412109375
1782846764054372400,3.895372314453125,-0.5344085693359375,-0.0604248046875,-0.0655517578125
1782846764064377300,3.90537744140625,-0.546783447265625,-0.076507568359375,-0.059051513671875
1782846764074382300,3.91538232421875,-0.58648681640625,-0.075439453125,-0.048065185546875
1782846764084386300,3.92538623046875,-0.5991668701171875,-0.0721588134765625,-0.0331878662109375
1782846764094391300,3.935391357421875,-0.6010894775390625,-0.0785064697265625,-0.0029754638671875
1782846764104396300,3.945396240234375,-0.5962066650390625,-0.0804901123046875,0.0434722900390625
1782846764114400500,3.955400390625,-0.5884246826171875,-0.0816650390625,0.0768585205078125
1782846764124405500,3.965405517578125,-0.6003265380859375,-0.085968017578125,0.0933380126953125
1782846764134410500,3.975410400390625,-0.615478515625,-0.082733154296875,0.1004791259765625
1782846764144414500,3.98541455078125,-0.6295166015625,-0.063385009765625,0.10589599609375
1782846764154419500,3.99541943359375,-0.670379638671875,-0.027587890625,0.1029052734375
1782846764164424400,4.005424560546875,-0.72381591796875,0.0032501220703125,0.0907745361328125
1782846764174428200,4.01542822265625,-0.7362060546875,0.0179290771484375,0.0780181884765625
1782846764184433200,4.02543310546875,-0.7197113037109375,0.0287933349609375,0.052459716796875
1782846764194438100,4.035438232421875,-0.7468719482421875,0.0340728759765625,0.0593414306640625
1782846764204442400,4.0454423828125,-0.8633270263671875,0.0023956298828125,0.1681060791015625
1782846764214447400,4.055447265625,-0.9556732177734375,-0.0689239501953125,0.073028564453125
1782846764224452400,4.065452392578125,-0.92828369140625,-0.096954345703125,0.0670623779296875
1782846764234456300,4.075456298828125,-1.0473785400390625,-0.177703857421875,0.078826904296875
1782846764244461300,4.08546142578125,-1.128509521484375,-0.2507476806640625,0.0329742431640625
1782846764254466300,4.09546630859375,-1.1915740966796875,-0.294586181640625,0.075103759765625
1782846764264470300,4.10547021484375,-1.311676025390625,-0.3414764404296875,0.127197265625
1782846764274475300,4.115475341796875,-1.4411468505859375,-0.4055328369140625,0.155731201171875
1782846764284480300,4.125480224609375,-1.591796875,-0.4446868896484375,0.1695404052734375
1782846764294484500,4.135484375,-1.7320709228515625,-0.4794464111328125,0.2122955322265625
1782846764304489500,4.145489501953125,-1.8748931884765625,-0.54132080078125,0.248016357421875
1782846764314494500,4.155494384765625,-2.0096435546875,-0.5881195068359375,0.2764739990234375
1782846764324498400,4.16549853515625,-2.0848846435546875,-0.6359710693359375,0.2505340576171875
1782846764334503400,4.17550341796875,-2.1055908203125,-0.6907958984375,0.2033843994140625
1782846764344508400,4.18550830078125,-2.117218017578125,-0.7298583984375,0.1533966064453125
1782846764354512100,4.19551220703125,-2.131195068359375,-0.7574462890625,0.1193084716796875
1782846764364517000,4.20551708984375,-2.1407318115234375,-0.751220703125,0.1332244873046875
1782846764374522000,4.215522216796875,-2.136688232421875,-0.7379913330078125,0.0857391357421875
1782846764384526300,4.2255263671875,-2.048492431640625,-0.7215423583984375,0.011260986328125
1782846764394531300,4.23553125,-1.9557647705078125,-0.6912384033203125,0.0123443603515625
1782846764404536300,4.245536376953125,-1.872039794921875,-0.6326751708984375,0.01300048828125
1782846764414541300,4.255541259765625,-1.7664031982421875,-0.55169677734375,0.0375213623046875
1782846764424545300,4.265545166015625,-1.6317596435546875,-0.4450531005859375,0.0804290771484375
1782846764434550300,4.27555029296875,-1.478607177734375,-0.3354949951171875,0.1020965576171875
1782846764444555300,4.28555517578125,-1.3305511474609375,-0.2314605712890625,0.108001708984375
1782846764454559200,4.295559326171875,-1.1628265380859375,-0.156494140625,0.112152099609375
1782846764464564200,4.305564208984375,-0.988128662109375,-0.1182403564453125,0.106475830078125
1782846764474569200,4.3155693359375,-0.7916412353515625,-0.1046142578125,0.1045379638671875
1782846764484573400,4.325573486328125,-0.5881195068359375,-0.1112823486328125,0.1040802001953125
1782846764494578400,4.335578369140625,-0.4268341064453125,-0.127044677734375,0.092498779296875
1782846764504583400,4.34558349609375,-0.299285888671875,-0.13134765625,0.06463623046875
1782846764514587400,4.35558740234375,-0.20758056640625,-0.1218719482421875,0.035064697265625
1782846764524592400,4.36559228515625,-0.151214599609375,-0.101226806640625,0.0174407958984375
1782846764534597400,4.375597412109375,-0.1260528564453125,-0.0603790283203125,0.0156402587890625
1782846764544601300,4.385601318359375,-0.115997314453125,-0.0178375244140625,0.01654052734375
1782846764554606300,4.3956064453125,-0.106964111328125,0.025848388671875,0.0150909423828125
1782846764564611300,4.405611328125,-0.1103668212890625,0.0723419189453125,0.0090179443359375
1782846764574615300,4.415615234375,-0.117156982421875,0.116485595703125,-0.002471923828125
1782846764584620300,4.425620361328125,-0.1083221435546875,0.146087646484375,-0.015380859375
1782846764594625300,4.435625244140625,-0.08154296875,0.1408843994140625,-0.030609130859375
1782846764604629200,4.445629150390625,-0.0112152099609375,0.100982666015625,-0.0466461181640625
1782846764614634200,4.45563427734375,0.075897216796875,0.06939697265625,-0.053131103515625
1782846764624639200,4.46563916015625,0.14727783203125,0.0391387939453125,-0.01556396484375
1782846764634643200,4.475643310546875,0.19793701171875,0.008331298828125,0.019439697265625
1782846764644648200,4.485648193359375,0.22344970703125,-0.008941650390625,0.050689697265625
1782846764654653200,4.495653076171875,0.2111968994140625,-0.0034332275390625,0.08447265625
1782846764664657400,4.505657470703125,0.15386962890625,0.008148193359375,0.0959320068359375
1782846764674662400,4.515662353515625,0.0773162841796875,0.0187530517578125,0.098419189453125
1782846764684667400,4.52566748046875,0.02374267578125,0.029998779296875,0.0918121337890625
1782846764694671400,4.53567138671875,-0.02972412109375,0.027801513671875,0.0877227783203125
1782846764704676400,4.54567626953125,-0.105621337890625,0.012359619140625,0.0938873291015625
1782846764714681300,4.555681396484375,-0.184234619140625,0.0016632080078125,0.0801849365234375
1782846764724685300,4.565685302734375,-0.2908172607421875,-0.02130126953125,0.0658416748046875
1782846764734690300,4.575690185546875,-0.443328857421875,-0.076019287109375,0.0396270751953125
1782846764744695600,4.585695556640625,-0.615264892578125,-0.1365814208984375,0.0185546875
1782846764754700500,4.595700439453125,-0.802520751953125,-0.194122314453125,0.0293121337890625
1782846764764704300,4.605704345703125,-0.9901275634765625,-0.2562408447265625,0.06549072265625
1782846764774709200,4.615709228515625,-1.132720947265625,-0.2996368408203125,0.1389312744140625
1782846764784713200,4.625713134765625,-1.246429443359375,-0.3533935546875,0.2031402587890625
1782846764794718200,4.63571826171875,-1.359405517578125,-0.4184722900390625,0.2181243896484375
1782846764804723200,4.64572314453125,-1.4591522216796875,-0.4404449462890625,0.2265625
1782846764814728200,4.655728271484375,-1.5516510009765625,-0.4703216552734375,0.1970977783203125
1782846764824732400,4.665732421875,-1.6580657958984375,-0.5644683837890625,0.10467529296875
1782846764834737400,4.6757373046875,-1.7566986083984375,-0.7144927978515625,-0.006195068359375
1782846764844742400,4.685742431640625,-1.81085205078125,-0.8842010498046875,-0.062103271484375
1782846764854746400,4.695746337890625,-1.86395263671875,-0.981170654296875,-0.0170440673828125
1782846764864751400,4.70575146484375,-1.986114501953125,-0.885528564453125,0.120361328125
1782846764874756400,4.71575634765625,-2.0892486572265625,-0.6053619384765625,0.279022216796875
1782846764884760300,4.72576025390625,-2.068359375,-0.2762298583984375,0.41571044921875
1782846764894765300,4.735765380859375,-2.0460968017578125,-0.054840087890625,0.39520263671875
1782846764904770300,4.745770263671875,-2.0038604736328125,-0.01251220703125,0.2228240966796875
1782846764914774500,4.7557744140625,-1.89947509765625,-0.0942230224609375,0.041473388671875
1782846764924779500,4.765779541015625,-1.7128448486328125,-0.2633514404296875,-0.0794677734375
1782846764934784500,4.775784423828125,-1.4594573974609375,-0.5003204345703125,-0.112640380859375
1782846764944788200,4.785788330078125,-1.1129150390625,-0.7710418701171875,-0.05810546875
1782846764954793200,4.795793212890625,-0.823577880859375,-0.916900634765625,0.027435302734375
1782846764964798200,4.805798095703125,-0.6647491455078125,-0.8386688232421875,0.098358154296875
1782846764974802200,4.81580224609375,-0.6874542236328125,-0.66119384765625,0.088409423828125
1782846764984807200,4.82580712890625,-0.8531036376953125,-0.4918975830078125,0.0224456787109375
1782846764994812200,4.835812255859375,-0.9990692138671875,-0.3658599853515625,-0.022186279296875
1782846765004816400,4.84581640625,-1.0962982177734375,-0.23785400390625,-0.0072479248046875
1782846765014821400,4.8558212890625,-1.1347503662109375,-0.1278076171875,0.02117919921875
1782846765024826400,4.865826416015625,-1.1008453369140625,-0.05108642578125,0.0648193359375
1782846765034830300,4.875830322265625,-1.0401611328125,-0.0120086669921875,0.10186767578125
1782846765044835300,4.88583544921875,-0.959197998046875,0.00335693359375,0.1343536376953125
1782846765054840300,4.89584033203125,-0.871124267578125,-0.0041656494140625,0.1372833251953125
1782846765064844300,4.90584423828125,-0.7762603759765625,-0.027252197265625,0.1103363037109375
1782846765074849300,4.915849365234375,-0.6794891357421875,-0.0488739013671875,0.0743865966796875
1782846765084854300,4.925854248046875,-0.6104583740234375,-0.0707550048828125,0.0528106689453125
1782846765094858500,4.9358583984375,-0.55682373046875,-0.100921630859375,0.0406951904296875
1782846765104863500,4.945863525390625,-0.505950927734375,-0.130035400390625,0.034820556640625
1782846765114868500,4.955868408203125,-0.4767913818359375,-0.1472930908203125,0.0427703857421875
1782846765124872200,4.9658720703125,-0.46929931640625,-0.152008056640625,0.0642852783203125
1782846765134877200,4.975877197265625,-0.482086181640625,-0.1441497802734375,0.0808563232421875
1782846765144882400,4.98588232421875,-0.500885009765625,-0.13397216796875,0.078948974609375
1782846765154886100,4.99588623046875,-0.5139007568359375,-0.1291351318359375,0.0792694091796875
1782846765164891100,5.00589111328125,-0.514678955078125,-0.1217803955078125,0.0807342529296875
1782846765174896000,5.015896240234375,-0.5082244873046875,-0.115386962890625,0.0651092529296875
1782846765184900400,5.025900390625,-0.518157958984375,-0.10650634765625,0.037811279296875
1782846765194905300,5.0359052734375,-0.5443267822265625,-0.0902862548828125,0.0113525390625
1782846765204910300,5.045910400390625,-0.5869293212890625,-0.070648193359375,-0.0050201416015625
1782846765214914300,5.055914306640625,-0.6269073486328125,-0.0624542236328125,-0.010498046875
1782846765224919300,5.065919189453125,-0.6651458740234375,-0.0530853271484375,-0.012115478515625
1782846765234924300,5.07592431640625,-0.691192626953125,-0.036468505859375,0.0119781494140625
1782846765244929300,5.08592919921875,-0.7055511474609375,-0.022216796875,0.061614990234375
1782846765254933200,5.095933349609375,-0.7537841796875,-0.044158935546875,0.1088714599609375
1782846765264938200,5.105938232421875,-0.801177978515625,-0.070404052734375,0.1074981689453125
1782846765274943200,5.115943115234375,-0.8494110107421875,-0.1067657470703125,0.102935791015625
1782846765284947500,5.125947509765625,-0.9385223388671875,-0.1576080322265625,0.0799713134765625
1782846765294952400,5.135952392578125,-1.0587158203125,-0.2003173828125,0.068878173828125
1782846765304957400,5.14595751953125,-1.174957275390625,-0.2143707275390625,0.073760986328125
1782846765314961400,5.15596142578125,-1.3223724365234375,-0.2269134521484375,0.0694122314453125
1782846765324966400,5.16596630859375,-1.535675048828125,-0.2696685791015625,0.0629119873046875
1782846765334971400,5.175971435546875,-1.76104736328125,-0.3306121826171875,0.0610809326171875
1782846765344975400,5.185975341796875,-1.9452667236328125,-0.3657073974609375,0.0900726318359375
1782846765354980400,5.19598046875,-2.0558319091796875,-0.3929901123046875,0.1427001953125
1782846765364985300,5.2059853515625,-2.164764404296875,-0.42156982421875,0.19561767578125
1782846765374989300,5.2159892578125,-2.229339599609375,-0.4356536865234375,0.25311279296875
1782846765384994300,5.225994384765625,-2.2437896728515625,-0.48388671875,0.291473388671875
1782846765394999300,5.235999267578125,-2.21466064453125,-0.5926055908203125,0.274505615234375
1782846765405003300,5.246003173828125,-2.15948486328125,-0.724517822265625,0.203216552734375
1782846765415008300,5.25600830078125,-2.085235595703125,-0.83013916015625,0.12567138671875
1782846765425013200,5.26601318359375,-2.00469970703125,-0.887542724609375,0.0836181640625
1782846765435017500,5.276017578125,-1.956146240234375,-0.91436767578125,0.0411529541015625
1782846765445022500,5.2860224609375,-1.954559326171875,-0.87493896484375,-0.00634765625
1782846765455027500,5.29602734375,-1.951416015625,-0.765777587890625,-0.028045654296875
1782846765465031400,5.306031494140625,-1.924957275390625,-0.59716796875,0.0008697509765625
1782846765475036400,5.316036376953125,-1.85101318359375,-0.396881103515625,0.0822601318359375
1782846765485041400,5.32604150390625,-1.7220458984375,-0.2255096435546875,0.1615142822265625
1782846765495045400,5.33604541015625,-1.5601348876953125,-0.0909423828125,0.19873046875
1782846765505050400,5.34605029296875,-1.375213623046875,0.006439208984375,0.1976318359375
1782846765515055400,5.356055419921875,-1.1783447265625,0.060028076171875,0.1624908447265625
1782846765525059300,5.366059326171875,-0.9714202880859375,0.0731353759765625,0.1125030517578125
1782846765535064300,5.376064208984375,-0.7627105712890625,0.0522613525390625,0.06597900390625
1782846765545069300,5.3860693359375,-0.55224609375,0.0210418701171875,0.02447509765625
1782846765555073300,5.3960732421875,-0.3568115234375,-0.0125274658203125,-0.015625
1782846765565078300,5.406078369140625,-0.1872406005859375,-0.0498504638671875,-0.061279296875
1782846765575083300,5.416083251953125,-0.0341949462890625,-0.066314697265625,-0.0866241455078125
1782846765585087200,5.426087158203125,0.06365966796875,-0.0637664794921875,-0.081024169921875
1782846765595092200,5.43609228515625,0.1150360107421875,-0.0448150634765625,-0.0669097900390625
1782846765605097200,5.44609716796875,0.1427001953125,-0.009307861328125,-0.0419769287109375
1782846765615101400,5.456101318359375,0.1397552490234375,0.0214385986328125,-0.0373077392578125
1782846765625106400,5.4661064453125,0.0920257568359375,0.0376129150390625,-0.0395660400390625
1782846765635111400,5.476111328125,0.0663909912109375,0.056304931640625,-0.022613525390625
1782846765645115400,5.486115478515625,0.08758544921875,0.0648345947265625,-0.0090789794921875
1782846765655120400,5.496120361328125,0.0993804931640625,0.0599517822265625,-0.0238800048828125
1782846765665125400,5.50612548828125,0.1234283447265625,0.0481719970703125,-0.0373992919921875
1782846765675129300,5.51612939453125,0.1575164794921875,0.0423583984375,-0.0462493896484375
1782846765685134300,5.52613427734375,0.1992950439453125,0.01995849609375,-0.0644378662109375
1782846765695139300,5.536139404296875,0.2340850830078125,-0.0005645751953125,-0.078765869140625
1782846765705143300,5.546143310546875,0.2428131103515625,-0.009857177734375,-0.078399658203125
1782846765715148300,5.556148193359375,0.22015380859375,-0.0127410888671875,-0.0653533935546875
1782846765725153300,5.5661533203125,0.1647796630859375,-0.001617431640625,-0.051544189453125
1782846765735158300,5.576158203125,0.0872955322265625,0.0196533203125,-0.04608154296875
1782846765745162200,5.586162353515625,0.018829345703125,0.0372467041015625,-0.01904296875
1782846765755167200,5.596167236328125,-0.05859375,0.0493927001953125,0.004119873046875
1782846765765171200,5.606171142578125,-0.1510467529296875,0.04351806640625,0.01043701171875
1782846765775176200,5.61617626953125,-0.2725372314453125,0.0054473876953125,0.0026397705078125
1782846765785182200,5.62618212890625,-0.4157867431640625,-0.06781005859375,-0.01251220703125
1782846765795187200,5.636187255859375,-0.552825927734375,-0.15594482421875,-0.0172271728515625
1782846765805191200,5.646191162109375,-0.70654296875,-0.2079620361328125,0.037261962890625
1782846765815196200,5.656196044921875,-0.942413330078125,-0.2336883544921875,0.069854736328125
1782846765825201200,5.666201171875,-1.1866607666015625,-0.28704833984375,0.0798492431640625
1782846765835205400,5.676205322265625,-1.36883544921875,-0.345977783203125,0.1225433349609375
1782846765845210400,5.68621044921875,-1.4907379150390625,-0.388885498046875,0.2407684326171875
1782846765855215400,5.69621533203125,-1.534423828125,-0.4113616943359375,0.3608245849609375
1782846765865219300,5.70621923828125,-1.576934814453125,-0.4722137451171875,0.3834686279296875
1782846765875224300,5.716224365234375,-1.67291259765625,-0.693572998046875,0.203125
1782846765885229300,5.726229248046875,-1.73760986328125,-0.9345550537109375,0.0081787109375
1782846765895233300,5.7362333984375,-1.794158935546875,-1.046966552734375,-0.02984619140625
1782846765905238300,5.74623828125,-2.022308349609375,-0.9824981689453125,0.0821685791015625
1782846765915243300,5.7562431640625,-2.211151123046875,-0.7254486083984375,0.29461669921875
1782846765925247500,5.76624755859375,-2.2035675048828125,-0.3603515625,0.5260467529296875
1782846765935252500,5.77625244140625,-2.1797637939453125,-0.10498046875,0.593109130859375
1782846765945257500,5.786257568359375,-2.130096435546875,-0.026123046875,0.4521636962890625
1782846765955261200,5.79626123046875,-2.0101470947265625,-0.0642547607421875,0.207183837890625
1782846765965266200,5.80626611328125,-1.855010986328125,-0.1609344482421875,-0.007781982421875
1782846765975271200,5.816271240234375,-1.6778717041015625,-0.2953338623046875,-0.14593505859375
1782846765985275400,5.826275390625,-1.4259033203125,-0.4877166748046875,-0.183685302734375
1782846765995280400,5.8362802734375,-1.0986480712890625,-0.7120819091796875,-0.124298095703125
1782846766005285400,5.846285400390625,-0.8427886962890625,-0.865631103515625,-0.014678955078125
1782846766015289300,5.856289306640625,-0.7297821044921875,-0.8259735107421875,0.135040283203125
1782846766025294300,5.86629443359375,-0.7900848388671875,-0.63665771484375,0.2560577392578125
1782846766035299300,5.87629931640625,-0.8795318603515625,-0.4293670654296875,0.299346923828125
1782846766045303300,5.88630322265625,-0.986663818359375,-0.269775390625,0.2759246826171875
1782846766055308300,5.896308349609375,-1.1152191162109375,-0.134979248046875,0.2235260009765625
1782846766065313300,5.906313232421875,-1.16168212890625,-0.018280029296875,0.1907958984375
1782846766075317500,5.9163173828125,-1.1056671142578125,0.0465087890625,0.164886474609375
1782846766085322500,5.926322509765625,-1.00506591796875,0.0737762451171875,0.14044189453125
1782846766095327500,5.936327392578125,-0.8917999267578125,0.0814971923828125,0.111358642578125
1782846766105331500,5.94633154296875,-0.7665557861328125,0.0579833984375,0.0639495849609375
1782846766115336400,5.95633642578125,-0.64276123046875,0.0247802734375,0.002593994140625
1782846766125341400,5.966341552734375,-0.53387451171875,-0.0082550048828125,-0.0576019287109375
1782846766135345200,5.97634521484375,-0.4606781005859375,-0.0323638916015625,-0.0972900390625
1782846766145350100,5.98635009765625,-0.425384521484375,-0.0551605224609375,-0.1119384765625
1782846766155355100,5.996355224609375,-0.4187164306640625,-0.08148193359375,-0.099884033203125
1782846766165359400,6.006359375,-0.446868896484375,-0.102447509765625,-0.0776519775390625
1782846766175364400,6.0163642578125,-0.4867706298828125,-0.12017822265625,-0.0447540283203125
1782846766185369300,6.026369384765625,-0.5231781005859375,-0.1305999755859375,-0.0144195556640625
1782846766195373300,6.036373291015625,-0.5619354248046875,-0.1299896240234375,0.026702880859375
1782846766205378300,6.04637841796875,-0.584442138671875,-0.1273193359375,0.07354736328125
1782846766215383300,6.05638330078125,-0.591705322265625,-0.116851806640625,0.095062255859375
1782846766225387300,6.06638720703125,-0.5840911865234375,-0.099365234375,0.0849456787109375
1782846766235392300,6.076392333984375,-0.5875701904296875,-0.07061767578125,0.0436859130859375
1782846766245397200,6.086397216796875,-0.6237030029296875,-0.0176239013671875,0.0061187744140625
1782846766255401500,6.0964013671875,-0.673828125,0.029144287109375,-0.013427734375
1782846766265406500,6.106406494140625,-0.7336883544921875,0.073150634765625,-0.0243682861328125
1782846766275411500,6.116411376953125,-0.798126220703125,0.09490966796875,-0.0348968505859375
1782846766285415400,6.12641552734375,-0.8309478759765625,0.0897369384765625,-0.0346832275390625
1782846766295420400,6.13642041015625,-0.8460845947265625,0.0611572265625,-0.0205841064453125
1782846766305425400,6.14642529296875,-0.8529052734375,0.0098724365234375,-0.0132904052734375
1782846766315429000,6.15642919921875,-0.846038818359375,-0.06427001953125,-0.0149078369140625
1782846766325434000,6.16643408203125,-0.8773345947265625,-0.156005859375,-0.0187835693359375
1782846766335439000,6.176439208984375,-0.9209136962890625,-0.253509521484375,-0.041229248046875
1782846766345443300,6.186443359375,-1.007080078125,-0.3295745849609375,-0.047576904296875
1782846766355448300,6.1964482421875,-1.141387939453125,-0.40728759765625,-0.0521392822265625
1782846766365453300,6.206453369140625,-1.3031768798828125,-0.4724578857421875,-0.0086517333984375
1782846766375457300,6.216457275390625,-1.504638671875,-0.4972991943359375,0.115966796875
1782846766385462300,6.226462158203125,-1.716796875,-0.4937591552734375,0.3056182861328125
1782846766395467300,6.23646728515625,-1.898284912109375,-0.48907470703125,0.4633331298828125
1782846766405471200,6.24647119140625,-2.036376953125,-0.488250732421875,0.543975830078125
1782846766415476200,6.256476318359375,-2.1128387451171875,-0.4945220947265625,0.52325439453125
1782846766425481200,6.266481201171875,-2.1700286865234375,-0.5272064208984375,0.421173095703125
1782846766435485400,6.2764853515625,-2.232391357421875,-0.5549163818359375,0.29510498046875
1782846766445490400,6.286490478515625,-2.30413818359375,-0.55126953125,0.19525146484375
1782846766455495400,6.296495361328125,-2.3749237060546875,-0.5234375,0.1307373046875
1782846766465499400,6.30649951171875,-2.391937255859375,-0.481048583984375,0.0963134765625
1782846766475504400,6.31650439453125,-2.33685302734375,-0.4270172119140625,0.0823822021484375
1782846766485509400,6.32650927734375,-2.2198486328125,-0.3592376708984375,0.0796356201171875
1782846766495514400,6.336514404296875,-2.0455780029296875,-0.2768402099609375,0.087432861328125
1782846766505518300,6.346518310546875,-1.8450164794921875,-0.2078857421875,0.1145172119140625
1782846766515523300,6.3565234375,-1.6597900390625,-0.144134521484375,0.1616973876953125
1782846766525527300,6.36652734375,-1.4872589111328125,-0.0704498291015625,0.2085113525390625
1782846766535532300,6.3765322265625,-1.3145904541015625,-0.01220703125,0.2187347412109375
1782846766545537300,6.386537353515625,-1.1497650146484375,0.0095062255859375,0.20794677734375
1782846766555542300,6.396542236328125,-0.9637603759765625,-0.0068206787109375,0.208740234375
1782846766565546200,6.406546142578125,-0.7574920654296875,-0.0349578857421875,0.21478271484375
1782846766575551200,6.41655126953125,-0.564849853515625,-0.067840576171875,0.2140960693359375
1782846766585556200,6.42655615234375,-0.3917999267578125,-0.091033935546875,0.2242889404296875
1782846766595560200,6.436560302734375,-0.23626708984375,-0.095550537109375,0.2284393310546875
1782846766605565200,6.446565185546875,-0.116790771484375,-0.090087890625,0.2093505859375
1782846766615570400,6.4565703125,-0.0364837646484375,-0.0732269287109375,0.1754608154296875
1782846766625574400,6.466574462890625,0.011627197265625,-0.0528106689453125,0.138824462890625
1782846766635579400,6.476579345703125,0.0404205322265625,-0.033447265625,0.1015625
1782846766645584400,6.48658447265625,0.0657806396484375,-0.0074310302734375,0.0621337890625
1782846766655588400,6.49658837890625,0.0758056640625,0.008026123046875,0.0206298828125
1782846766665593300,6.50659326171875,0.06256103515625,0.0271453857421875,-0.0286102294921875
1782846766675598300,6.516598388671875,0.03076171875,0.0578155517578125,-0.0646514892578125
1782846766685602300,6.526602294921875,0.0297698974609375,0.081573486328125,-0.0833282470703125
1782846766695607300,6.536607177734375,0.0557861328125,0.085357666015625,-0.0998077392578125
1782846766705612500,6.546612548828125,0.0973052978515625,0.0739288330078125,-0.11016845703125
1782846766715616300,6.5566162109375,0.143157958984375,0.0496826171875,-0.1055908203125
1782846766725621200,6.566621337890625,0.17529296875,0.0236358642578125,-0.093841552734375
1782846766735626200,6.576626220703125,0.1840667724609375,0.0075531005859375,-0.065704345703125
1782846766745630200,6.586630126953125,0.169891357421875,0.0045013427734375,-0.025482177734375
1782846766755635200,6.59663525390625,0.123748779296875,0.01226806640625,-0.0013580322265625
1782846766765640200,6.60664013671875,0.0593414306640625,0.025543212890625,0.006072998046875
1782846766775644400,6.61664453125,-0.0110626220703125,0.034698486328125,0.0123138427734375
1782846766785648000,6.626648193359375,-0.0830841064453125,0.0375518798828125,0.036041259765625
1782846766795653000,6.636653076171875,-0.1907501220703125,0.016876220703125,0.03021240234375
1782846766805657000,6.646656982421875,-0.31365966796875,-0.0316925048828125,0.0167999267578125
1782846766815662000,6.656662109375,-0.4415283203125,-0.0900726318359375,0.0046234130859375
1782846766825667000,6.6666669921875,-0.5749969482421875,-0.154388427734375,0.005096435546875
1782846766835671300,6.67667138671875,-0.739898681640625,-0.206451416015625,0.0208740234375
1782846766845676300,6.68667626953125,-0.92620849609375,-0.25634765625,0.06121826171875
1782846766855681300,6.696681396484375,-1.1192474365234375,-0.3116302490234375,0.0988922119140625
1782846766865685200,6.706685302734375,-1.305450439453125,-0.367095947265625,0.1434326171875
1782846766875690200,6.716690185546875,-1.4386444091796875,-0.4005584716796875,0.2428741455078125
1782846766885695200,6.7266953125,-1.5271453857421875,-0.4024200439453125,0.3745880126953125
1782846766895699200,6.73669921875,-1.632080078125,-0.4462738037109375,0.4376220703125
1782846766905704200,6.7467041015625,-1.78076171875,-0.623504638671875,0.3150177001953125
1782846766915709200,6.756709228515625,-1.848358154296875,-0.794921875,0.131927490234375
1782846766925713400,6.76671337890625,-1.8895416259765625,-0.9008026123046875,0.0645751953125
1782846766935718400,6.776718505859375,-2.0315093994140625,-0.8155517578125,0.2093963623046875
1782846766945723400,6.786723388671875,-2.14849853515625,-0.486480712890625,0.4639434814453125
1782846766955727000,6.79672705078125,-2.1642913818359375,-0.155914306640625,0.6436767578125
1782846766965732000,6.806732177734375,-2.174163818359375,-0.0031280517578125,0.6446533203125
1782846766975737000,6.816737060546875,-2.16461181640625,-0.0094757080078125,0.4538421630859375
1782846766985741000,6.826740966796875,-2.0720062255859375,-0.14227294921875,0.2281341552734375
1782846766995746000,6.83674609375,-1.828338623046875,-0.3923492431640625,0.0832977294921875
1782846767005751000,6.8467509765625,-1.3882904052734375,-0.750701904296875,0.067138671875
1782846767015755300,6.85675537109375,-0.92919921875,-1.1259307861328125,0.1596527099609375
1782846767025760300,6.86676025390625,-0.6589202880859375,-1.1050262451171875,0.290496826171875
1782846767035765200,6.87676513671875,-0.627349853515625,-0.7330780029296875,0.3354644775390625
1782846767045769200,6.886769287109375,-0.8260345458984375,-0.461334228515625,0.1969146728515625
1782846767055774200,6.896774169921875,-1.06927490234375,-0.3377227783203125,0.0517578125
1782846767065779200,6.906779296875,-1.2187042236328125,-0.195098876953125,-0.032989501953125
1782846767075783200,6.916783203125,-1.2717132568359375,-0.076385498046875,-0.06488037109375
1782846767085788200,6.9267880859375,-1.18011474609375,-0.0254974365234375,-0.05291748046875
1782846767095793200,6.936793212890625,-1.0391998291015625,-0.0162353515625,-0.0303955078125
1782846767105797400,6.94679736328125,-0.923980712890625,-0.02520751953125,-0.001495361328125
1782846767115802400,6.95680224609375,-0.8088531494140625,-0.0448455810546875,0.0379180908203125
1782846767125807400,6.966807373046875,-0.7212371826171875,-0.074249267578125,0.0665435791015625
1782846767135811000,6.97681103515625,-0.6676483154296875,-0.1003265380859375,0.053680419921875
1782846767145816000,6.986816162109375,-0.6326446533203125,-0.124664306640625,0.0166778564453125
1782846767155821000,6.996821044921875,-0.5990142822265625,-0.147918701171875,-0.008544921875
1782846767165825000,7.006824951171875,-0.5674591064453125,-0.1768341064453125,-0.0271148681640625
1782846767175830000,7.016830078125,-0.54119873046875,-0.2090301513671875,-0.0307769775390625
1782846767185835000,7.0268349609375,-0.5227508544921875,-0.2278594970703125,-0.01373291015625
1782846767195839200,7.036839111328125,-0.5151519775390625,-0.2331085205078125,0.0089569091796875
1782846767205844200,7.04684423828125,-0.52679443359375,-0.2309722900390625,0.0410919189453125
1782846767215849200,7.05684912109375,-0.5343017578125,-0.2218780517578125,0.084716796875
1782846767225853200,7.066853271484375,-0.5424957275390625,-0.2018585205078125,0.1201629638671875
1782846767235858200,7.076858154296875,-0.553985595703125,-0.1746368408203125,0.113922119140625
1782846767245863200,7.08686328125,-0.5676727294921875,-0.141632080078125,0.06781005859375
1782846767255867100,7.0968671875,-0.599578857421875,-0.0971527099609375,0.0229949951171875
1782846767265872100,7.1068720703125,-0.629302978515625,-0.0489349365234375,-0.014251708984375
1782846767275877000,7.116877197265625,-0.6388702392578125,-0.00567626953125,-0.029693603515625
1782846767285881300,7.12688134765625,-0.64617919921875,0.0406494140625,-0.0265350341796875
1782846767295886300,7.13688623046875,-0.662078857421875,0.0807952880859375,-0.0192413330078125
1782846767305891300,7.146891357421875,-0.66937255859375,0.099761962890625,-0.003692626953125
1782846767315895000,7.15689501953125,-0.6691436767578125,0.0975341796875,0.0088653564453125
1782846767325900300,7.166900390625,-0.662261962890625,0.0826568603515625,0.0178070068359375
1782846767335905300,7.1769052734375,-0.6702728271484375,0.04864501953125,0.0243072509765625
1782846767345909000,7.186908935546875,-0.693359375,0.0054168701171875,0.01629638671875
1782846767355914200,7.196914306640625,-0.7267608642578125,-0.0427398681640625,0.0093536376953125
1782846767365919200,7.206919189453125,-0.8060455322265625,-0.095428466796875,-0.0029449462890625
1782846767375923200,7.216923095703125,-0.914825439453125,-0.178466796875,-0.0306854248046875
1782846767385928200,7.22692822265625,-1.0584716796875,-0.2765045166015625,-0.03271484375
1782846767395933200,7.23693310546875,-1.2340087890625,-0.375732421875,-0.033721923828125
1782846767405937200,7.246937255859375,-1.4160614013671875,-0.415252685546875,-0.0026092529296875
1782846767415942100,7.256942138671875,-1.6085968017578125,-0.3747100830078125,0.0883331298828125
1782846767425947100,7.266947021484375,-1.7993316650390625,-0.351043701171875,0.2014312744140625
1782846767435951400,7.276951416015625,-1.9560089111328125,-0.3755340576171875,0.2823333740234375
1782846767445956400,7.286956298828125,-2.08551025390625,-0.4197540283203125,0.3180084228515625
1782846767455961300,7.29696142578125,-2.1360931396484375,-0.48345947265625,0.3084869384765625
1782846767465965300,7.30696533203125,-2.1162567138671875,-0.579681396484375,0.247650146484375
1782846767475970300,7.31697021484375,-2.0825653076171875,-0.67950439453125,0.1877593994140625
1782846767485975300,7.326975341796875,-2.038787841796875,-0.7642669677734375,0.15667724609375
1782846767495979300,7.336979248046875,-2.03741455078125,-0.8245849609375,0.1308135986328125
1782846767505984300,7.346984375,-2.0872802734375,-0.8226165771484375,0.1209259033203125
1782846767515989200,7.3569892578125,-2.1644744873046875,-0.773773193359375,0.1302337646484375
1782846767525993200,7.3669931640625,-2.2338104248046875,-0.698028564453125,0.1367645263671875
1782846767535998200,7.376998291015625,-2.2643585205078125,-0.58551025390625,0.1570281982421875
1782846767546003200,7.387003173828125,-2.2780609130859375,-0.422821044921875,0.211517333984375
1782846767556007200,7.397007080078125,-2.2322235107421875,-0.2703704833984375,0.2841796875
1782846767566012200,7.40701220703125,-2.1012725830078125,-0.1673736572265625,0.34423828125
1782846767576017200,7.41701708984375,-1.8782806396484375,-0.1141204833984375,0.3682403564453125
1782846767586021000,7.427021240234375,-1.5814361572265625,-0.1179962158203125,0.3330078125
1782846767596026000,7.437026123046875,-1.26800537109375,-0.1523895263671875,0.2859039306640625
1782846767606031000,7.447031005859375,-0.92919921875,-0.210357666015625,0.2601776123046875
1782846767616035300,7.457035400390625,-0.6068878173828125,-0.2586517333984375,0.2521820068359375
1782846767626040300,7.467040283203125,-0.354034423828125,-0.251373291015625,0.22723388671875
1782846767636045300,7.47704541015625,-0.160003662109375,-0.1947479248046875,0.189208984375
1782846767646049300,7.48704931640625,-0.048095703125,-0.1415557861328125,0.154388427734375
1782846767656054300,7.49705419921875,0.015380859375,-0.0839996337890625,0.10784912109375
1782846767666059300,7.507059326171875,0.082183837890625,-0.0167236328125,0.066741943359375
1782846767676063200,7.517063232421875,0.147918701171875,0.0405120849609375,0.020843505859375
1782846767686068200,7.527068115234375,0.18389892578125,0.07391357421875,-0.0160369873046875
1782846767696073200,7.5370732421875,0.1751861572265625,0.10284423828125,-0.068756103515625
1782846767706077200,7.5470771484375,0.1378021240234375,0.141082763671875,-0.1215972900390625
1782846767716082200,7.557082275390625,0.108917236328125,0.1611328125,-0.1774749755859375
1782846767726087200,7.567087158203125,0.0873260498046875,0.1526031494140625,-0.237396240234375
1782846767736091100,7.577091064453125,0.0848236083984375,0.1121978759765625,-0.260009765625
1782846767746096000,7.58709619140625,0.122772216796875,0.0682830810546875,-0.22467041015625
1782846767756101000,7.59710107421875,0.1463775634765625,0.0202178955078125,-0.173583984375
1782846767766105000,7.60710498046875,0.143829345703125,-0.03204345703125,-0.1324310302734375
1782846767776110000,7.617110107421875,0.133331298828125,-0.0495758056640625,-0.1003265380859375
1782846767786115000,7.627114990234375,0.0894622802734375,-0.0344085693359375,-0.0640716552734375
1782846767796119300,7.637119384765625,0.0241851806640625,-0.019989013671875,-0.037994384765625
1782846767806124300,7.647124267578125,-0.0375213623046875,-0.00250244140625,-0.017974853515625
1782846767816129300,7.65712939453125,-0.1015472412109375,0.021759033203125,0.010162353515625
1782846767826133000,7.667133056640625,-0.165618896484375,0.040771484375,0.034942626953125
1782846767836138000,7.677137939453125,-0.1930084228515625,0.0619659423828125,0.04644775390625
1782846767846143000,7.68714306640625,-0.22430419921875,0.0647125244140625,0.0556488037109375
1782846767856147000,7.69714697265625,-0.2812347412109375,0.034454345703125,0.077789306640625
1782846767866152000,7.70715185546875,-0.3339385986328125,-0.0501251220703125,0.0575714111328125
1782846767876157000,7.717156982421875,-0.33441162109375,-0.13446044921875,-0.0287933349609375
1782846767886161200,7.7271611328125,-0.412811279296875,-0.205963134765625,-0.0038909912109375
1782846767896166100,7.737166259765625,-0.562103271484375,-0.298126220703125,0.0073089599609375
1782846767906171100,7.747171142578125,-0.757110595703125,-0.386474609375,0.0757598876953125
1782846767916175000,7.757175048828125,-1.004180908203125,-0.459930419921875,0.1790313720703125
1782846767926180000,7.76718017578125,-1.1865081787109375,-0.4899139404296875,0.248046875
1782846767936185000,7.77718505859375,-1.388946533203125,-0.4733734130859375,0.3716888427734375
1782846767946189000,7.78718896484375,-1.5403900146484375,-0.4282073974609375,0.4665985107421875
1782846767956194000,7.797194091796875,-1.6766815185546875,-0.3824005126953125,0.4927825927734375
1782846767966199000,7.807198974609375,-1.81121826171875,-0.4626312255859375,0.4134521484375
1782846767976203300,7.817203369140625,-1.83819580078125,-0.60888671875,0.233734130859375
1782846767986208300,7.827208251953125,-1.949066162109375,-0.78485107421875,0.0771942138671875
1782846767996213200,7.837213134765625,-2.0630645751953125,-0.93182373046875,0.0433502197265625
1782846768006217000,7.847217041015625,-2.1533203125,-0.8702392578125,0.1496124267578125
1782846768016222000,7.857221923828125,-2.1456146240234375,-0.598968505859375,0.3875732421875
1782846768026227000,7.86722705078125,-2.077728271484375,-0.3125457763671875,0.5848846435546875
1782846768036231200,7.877231201171875,-2.0236358642578125,-0.1419830322265625,0.5961761474609375
1782846768046236200,7.887236083984375,-1.9447784423828125,-0.078948974609375,0.4945831298828125
1782846768056241200,7.8972412109375,-1.8248443603515625,-0.1310272216796875,0.3477630615234375
1782846768066245000,7.9072451171875,-1.6623382568359375,-0.2557220458984375,0.20172119140625
1782846768076250000,7.91725,-1.4234771728515625,-0.4432373046875,0.101654052734375
1782846768086255000,7.927255126953125,-1.1272735595703125,-0.6597900390625,0.0724334716796875
1782846768096259000,7.937259033203125,-0.8943023681640625,-0.8089599609375,0.1011199951171875
1782846768106264000,7.94726416015625,-0.7374114990234375,-0.8260955810546875,0.1434783935546875
1782846768116269000,7.95726904296875,-0.671417236328125,-0.7169647216796875,0.14544677734375
1782846768126273300,7.967273193359375,-0.6922607421875,-0.5682830810546875,0.114105224609375
1782846768136278300,7.9772783203125,-0.7278594970703125,-0.4122314453125,0.091094970703125
1782846768146283300,7.987283203125,-0.784332275390625,-0.2642059326171875,0.079559326171875
1782846768156287200,7.997287353515625,-0.875152587890625,-0.14239501953125,0.0907745361328125
1782846768166292200,8.007292236328125,-0.9011383056640625,-0.0659637451171875,0.127044677734375
1782846768176297200,8.017297119140625,-0.8877105712890625,-0.0436859130859375,0.15789794921875
1782846768186301200,8.02730126953125,-0.8461456298828125,-0.035064697265625,0.1577606201171875
1782846768196306200,8.03730615234375,-0.79913330078125,-0.027252197265625,0.1510772705078125
1782846768206311200,8.047311279296874,-0.755279541015625,-0.0115814208984375,0.1454620361328125
1782846768216315100,8.057315185546875,-0.726226806640625,-0.004425048828125,0.125885009765625
1782846768226320100,8.067320068359376,-0.6832427978515625,-0.0083770751953125,0.108978271484375
1782846768236325000,8.0773251953125,-0.6158905029296875,-0.0101165771484375,0.0859222412109375
1782846768246329000,8.0873291015625,-0.5439910888671875,-0.016754150390625,0.0514068603515625
1782846768256334000,8.097333984375,-0.479827880859375,-0.0336456298828125,0.0291290283203125
1782846768266339000,8.107339111328125,-0.4290008544921875,-0.0472412109375,0.0266571044921875
1782846768276343000,8.117343017578126,-0.3953399658203125,-0.0550384521484375,0.0467529296875
1782846768286348000,8.12734814453125,-0.380401611328125,-0.0614166259765625,0.0769500732421875
1782846768296353000,8.13735302734375,-0.377044677734375,-0.0535125732421875,0.1063690185546875
1782846768306357200,8.147357177734374,-0.3868408203125,-0.0325469970703125,0.139862060546875
1782846768316362200,8.1573623046875,-0.4252471923828125,-0.017578125,0.16168212890625
1782846768326367200,8.1673671875,-0.4892730712890625,0.0034332275390625,0.1632843017578125
1782846768336371200,8.17737109375,-0.57769775390625,0.0266571044921875,0.1483001708984375
1782846768346376200,8.187376220703126,-0.676483154296875,0.0237274169921875,0.1324310302734375
1782846768356381200,8.197381103515625,-0.7459716796875,-0.0086669921875,0.1163482666015625
1782846768366385200,8.20738525390625,-0.797637939453125,-0.074127197265625,0.0940093994140625
1782846768376390100,8.21739013671875,-0.873992919921875,-0.16058349609375,0.08026123046875
1782846768386395100,8.22739501953125,-1.00360107421875,-0.267852783203125,0.087127685546875
1782846768396399000,8.237399169921876,-1.1650543212890625,-0.361907958984375,0.104949951171875
1782846768406404000,8.247404052734375,-1.342041015625,-0.4178619384765625,0.13262939453125
1782846768416409000,8.2574091796875,-1.524993896484375,-0.433349609375,0.1797027587890625
1782846768426413000,8.2674130859375,-1.715911865234375,-0.4178924560546875,0.208953857421875
1782846768436418000,8.27741796875,-1.895660400390625,-0.38519287109375,0.2364959716796875
1782846768446423000,8.287423095703126,-2.01495361328125,-0.3968353271484375,0.2684326171875
1782846768456427000,8.297427001953125,-2.0857086181640625,-0.447845458984375,0.26800537109375
1782846768466432000,8.307431884765625,-2.11669921875,-0.5254058837890625,0.2407073974609375
1782846768476437000,8.31743701171875,-2.095703125,-0.6265106201171875,0.1942138671875
1782846768486441200,8.327441162109375,-2.0350494384765625,-0.734619140625,0.15447998046875
1782846768496446200,8.3374462890625,-1.9674835205078125,-0.829376220703125,0.1228485107421875
1782846768506451200,8.347451171875,-1.9164276123046875,-0.893035888671875,0.108245849609375
1782846768516455200,8.357455078125,-1.8819580078125,-0.9331817626953125,0.1072235107421875
1782846768526460200,8.367460205078125,-1.8778076171875,-0.937347412109375,0.1245574951171875
1782846768536465200,8.377465087890625,-1.9059295654296875,-0.894989013671875,0.1602630615234375
1782846768546469000,8.38746923828125,-1.9198150634765625,-0.81378173828125,0.1789398193359375
1782846768556474000,8.39747412109375,-1.908111572265625,-0.704925537109375,0.1863861083984375
1782846768566479000,8.40747900390625,-1.8145904541015625,-0.5626983642578125,0.1610870361328125
1782846768576483000,8.417483154296875,-1.7191162109375,-0.420745849609375,0.1517791748046875
1782846768586488000,8.427488037109375,-1.6085052490234375,-0.2487030029296875,0.2004241943359375
1782846768596493000,8.4374931640625,-1.52972412109375,-0.1342620849609375,0.2070770263671875
1782846768606497000,8.4474970703125,-1.38250732421875,-0.035247802734375,0.1619415283203125
1782846768616502000,8.457501953125,-1.16650390625,0.02862548828125,0.1110687255859375
1782846768626506000,8.467506103515625,-0.947845458984375,0.00244140625,0.061920166015625
1782846768636511000,8.477510986328125,-0.7423553466796875,-0.0415191650390625,0.0417938232421875
1782846768646516000,8.487515869140625,-0.500396728515625,-0.0830078125,0.059356689453125
1782846768656521000,8.49752099609375,-0.2827911376953125,-0.149749755859375,0.0728607177734375
1782846768666525200,8.507525146484374,-0.1358489990234375,-0.18817138671875,0.09814453125
