time,seconds_elapsed,z,y,x
1782846760231335700,0.072335693359375,0.033061496913433075,0.13662730157375336,0.06286798417568207
1782846760241340700,0.082340576171875,0.041913311928510666,0.15750594437122345,-0.06302869319915771
1782846760251344600,0.0923447265625,-0.01053713820874691,0.14361083507537842,-0.2132790982723236
1782846760261349600,0.102349609375,-0.09100428968667984,0.08109738677740097,-0.3778238296508789
1782846760271354600,0.112354736328125,-0.18550169467926025,0.00381325650960207,-0.5134696960449219
1782846760281358600,0.122358642578125,-0.24597115814685822,-0.10077094286680222,-0.5835254788398743
1782846760291363800,0.13236376953125,-0.24067988991737366,-0.2281411588191986,-0.5350754857063293
1782846760301368800,0.142368896484375,-0.17780105769634247,-0.36903807520866394,-0.38621488213539124
1782846760311372800,0.152372802734375,-0.07623344659805298,-0.5177599787712097,-0.2014113962650299
1782846760321377800,0.162377685546875,-0.00045639858581125736,-0.7003419995307922,-0.03958706930279732
1782846760331382800,0.1723828125,0.036895934492349625,-0.8809608221054077,0.07171715795993805
1782846760341386800,0.18238671875,0.04488275200128555,-1.0622491836547852,0.11679728329181671
1782846760351391700,0.192391845703125,-0.004367274232208729,-1.1822015047073364,0.08505373448133469
1782846760361396700,0.202396728515625,-0.06052108854055405,-1.289754867553711,0.025451919063925743
1782846760371400700,0.212400634765625,-0.1210913211107254,-1.177229881286621,-0.10207036882638931
1782846760381405700,0.22240576171875,-0.17523232102394104,-0.9312454462051392,-0.2852391004562378
1782846760391410700,0.23241064453125,-0.23261022567749023,-0.6808305382728577,-0.4830051362514496
1782846760401414700,0.24241455078125,-0.254367470741272,-0.47615140676498413,-0.6608145236968994
1782846760411419600,0.252419677734375,-0.2689562141895294,-0.3396424651145935,-0.8036417365074158
1782846760421424600,0.262424560546875,-0.2645431160926819,-0.23290134966373444,-0.8848268389701843
1782846760431428600,0.2724287109375,-0.25746461749076843,-0.09154441952705383,-0.8452097177505493
1782846760441433600,0.28243359375,-0.2584872841835022,-0.002662752056494355,-0.6938455104827881
1782846760451438600,0.2924384765625,-0.2681368291378021,0.03312474116683006,-0.45793476700782776
1782846760461442800,0.30244287109375,-0.2632019817829132,0.07916440069675446,-0.18054898083209991
1782846760471447800,0.31244775390625,-0.25206679105758667,0.15764063596725464,0.08345995098352432
1782846760481452800,0.322452880859375,-0.23336897790431976,0.25948870182037354,0.29029300808906555
1782846760491456800,0.332456787109375,-0.19526542723178864,0.33164793252944946,0.4255218207836151
1782846760501461800,0.342461669921875,-0.1413651704788208,0.3723604679107666,0.49618640542030334
1782846760511466800,0.352466796875,-0.08976326882839203,0.38932061195373535,0.5194600820541382
1782846760521470700,0.362470703125,-0.0525147020816803,0.3698022961616516,0.494489461183548
1782846760531475700,0.372475830078125,-0.034574173390865326,0.3202325403690338,0.43879440426826477
1782846760541480700,0.382480712890625,-0.03729965165257454,0.2401113510131836,0.35022059082984924
1782846760551484700,0.392484619140625,-0.07398178428411484,0.12831330299377441,0.2363150417804718
1782846760561489700,0.40248974609375,-0.1377096325159073,0.01487329788506031,0.11130013316869736
1782846760571495000,0.412494873046875,-0.2079428732395172,-0.09446097910404205,-0.012092450633645058
1782846760581498600,0.42249853515625,-0.2651723325252533,-0.19554871320724487,-0.13627059757709503
1782846760591503600,0.432503662109375,-0.31897056102752686,-0.24026578664779663,-0.2398069053888321
1782846760601508600,0.442508544921875,-0.3917587697505951,-0.23888519406318665,-0.30218639969825745
1782846760611512600,0.4525126953125,-0.4962399899959564,-0.15698102116584778,-0.29806026816368103
1782846760621517600,0.462517578125,-0.6100741624832153,0.0004791785031557083,-0.20991070568561554
1782846760631522600,0.4725224609375,-0.7377999424934387,0.21782615780830383,-0.08510714769363403
1782846760641526800,0.48252685546875,-0.845208466053009,0.49070852994918823,0.06210653483867645
1782846760651531800,0.49253173828125,-0.8913737535476685,0.6343173980712891,0.24473002552986145
1782846760661536800,0.502536865234375,-0.8511576652526855,0.44033491611480713,0.36851802468299866
1782846760671540700,0.512540771484375,-0.6941370964050293,0.2114279717206955,0.30217477679252625
1782846760681545700,0.522545654296875,-0.5273696780204773,0.14336742460727692,0.05421023815870285
1782846760691550700,0.53255078125,-0.4650944173336029,0.13169120252132416,-0.18763159215450287
1782846760701554700,0.5425546875,-0.46136170625686646,0.10173143446445465,-0.4383207857608795
1782846760711559700,0.5525595703125,-0.38576823472976685,0.10246060788631439,-1.1453311443328857
1782846760721564700,0.562564697265625,-0.49471843242645264,0.10787667334079742,-1.9795417785644531
1782846760731569000,0.57256884765625,-0.7160984873771667,-0.08534184843301773,-2.2705650329589844
1782846760741574000,0.582573974609375,-0.7389113903045654,-0.5226566195487976,-1.977966070175171
1782846760751577600,0.59257763671875,-0.5547423362731934,-0.8119747638702393,-1.3996061086654663
1782846760761582600,0.60258251953125,-0.3673117160797119,-0.8472086787223816,-0.6229199767112732
1782846760771587600,0.612587646484375,-0.29520317912101746,-0.7339168190956116,0.2899961471557617
1782846760781591600,0.622591552734375,-0.2960790991783142,-0.475689560174942,1.0644631385803223
1782846760791596500,0.632596435546875,-0.1987168788909912,-0.27970701456069946,1.2707440853118896
1782846760801601500,0.6426015625,0.08059971034526825,-0.2756752371788025,0.6790942549705505
1782846760811606500,0.6526064453125,0.3796176612377167,-0.35504329204559326,-0.3231031596660614
1782846760821610800,0.66261083984375,0.5328884124755859,-0.22602486610412598,-1.0666202306747437
1782846760831615700,0.67261572265625,0.511020839214325,0.048354826867580414,-1.297455072402954
1782846760841619500,0.682619384765625,0.45422786474227905,0.3130224347114563,-1.1317412853240967
1782846760851624400,0.69262451171875,0.3951287865638733,0.4581209719181061,-0.7238695621490479
1782846760861629400,0.70262939453125,0.3550860285758972,0.46895790100097656,-0.2076038122177124
1782846760871633400,0.71263330078125,0.35150009393692017,0.40707430243492126,0.28413474559783936
1782846760881638400,0.722638427734375,0.37262773513793945,0.332938015460968,0.6791797876358032
1782846760891643600,0.7326435546875,0.41574016213417053,0.2519596815109253,0.9654203057289124
1782846760901647600,0.742647705078125,0.47074830532073975,0.17804205417633057,1.130650520324707
1782846760911652600,0.752652587890625,0.5001192092895508,0.116508848965168,1.1875109672546387
1782846760921657600,0.76265771484375,0.47672250866889954,0.10638510435819626,1.126680612564087
1782846760931661600,0.77266162109375,0.4070259928703308,0.14131271839141846,0.9807673096656799
1782846760941666600,0.78266650390625,0.311227947473526,0.19860871136188507,0.8228694200515747
1782846760951671600,0.792671630859375,0.18490192294120789,0.22625891864299774,0.6862330436706543
1782846760961675500,0.802675537109375,0.05794264376163483,0.22196750342845917,0.5687159895896912
1782846760971680800,0.8126806640625,-0.07885502278804779,0.19229082763195038,0.4511076807975769
1782846760981685800,0.822685791015625,-0.2422301024198532,0.13612794876098633,0.311788409948349
1782846760991689700,0.832689697265625,-0.41057834029197693,0.08363299071788788,0.13946573436260223
1782846761001694700,0.84269482421875,-0.5498443841934204,0.015629172325134277,-0.0493108294904232
1782846761011699700,0.85269970703125,-0.6557652950286865,-0.0662747472524643,-0.25972551107406616
1782846761021703400,0.862703369140625,-0.7105158567428589,-0.1598672866821289,-0.4667157232761383
1782846761031708400,0.87270849609375,-0.7042505145072937,-0.2539597153663635,-0.637523353099823
1782846761041713400,0.88271337890625,-0.6485848426818848,-0.3507789373397827,-0.7306493520736694
1782846761051717600,0.892717529296875,-0.5539411902427673,-0.4306637644767761,-0.7190797924995422
1782846761061722600,0.90272265625,-0.4507194459438324,-0.490597128868103,-0.6000343561172485
1782846761071727600,0.9127275390625,-0.36928167939186096,-0.5387641191482544,-0.4144793152809143
1782846761081731600,0.922731689453125,-0.3508129119873047,-0.5891498327255249,-0.21704453229904175
1782846761091736600,0.932736572265625,-0.3852292597293854,-0.5963814854621887,-0.05874359607696533
1782846761101741600,0.942741455078125,-0.44807931780815125,-0.5665008425712585,0.042539082467556
1782846761111746600,0.95274658203125,-0.502002477645874,-0.500916063785553,0.10439075529575348
1782846761121750500,0.96275048828125,-0.5388310551643372,-0.42526179552078247,0.14836913347244263
1782846761131755500,0.972755615234375,-0.5710200667381287,-0.34189581871032715,0.16588014364242554
1782846761141760500,0.982760498046875,-0.5890613794326782,-0.27861297130584717,0.14895868301391602
1782846761151764700,0.9927646484375,-0.5985709428787231,-0.22968338429927826,0.09346210956573486
1782846761161769700,1.002769775390625,-0.5754345059394836,-0.18886858224868774,0.04203487187623978
1782846761171774700,1.012774658203125,-0.4904872477054596,-0.14643897116184235,-0.0038697179406881332
1782846761181778700,1.02277880859375,-0.3389890789985657,-0.02688593417406082,-0.010934285819530487
1782846761191783700,1.03278369140625,-0.1542131006717682,0.18759021162986755,0.08413586020469666
1782846761201787400,1.042787353515625,-0.045218177139759064,0.37401387095451355,0.27208125591278076
1782846761211792400,1.05279248046875,-0.052263833582401276,0.41262945532798767,0.47068890929222107
1782846761221797400,1.06279736328125,-0.15782195329666138,0.3101842999458313,0.610381543636322
1782846761231801600,1.072801513671875,-0.31932753324508667,0.12702400982379913,0.6578498482704163
1782846761241806600,1.082806640625,-0.47918882966041565,-0.07859093695878983,0.6353372931480408
1782846761251811600,1.0928115234375,-0.5954599380493164,-0.2527095377445221,0.5876851677894592
1782846761261815600,1.102815673828125,-0.6308232545852661,-0.3750351667404175,0.5815186500549316
1782846761271820500,1.112820556640625,-0.5989084839820862,-0.44226181507110596,0.6239525079727173
1782846761281825500,1.122825439453125,-0.543345034122467,-0.4320102632045746,0.6854129433631897
1782846761291830500,1.13283056640625,-0.48669350147247314,-0.345828652381897,0.7565949559211731
1782846761301834500,1.14283447265625,-0.44081923365592957,-0.23694820702075958,0.822205662727356
1782846761311839500,1.152839599609375,-0.40041616559028625,-0.15444788336753845,0.8583390712738037
1782846761321844500,1.162844482421875,-0.3522731363773346,-0.14323517680168152,0.8567736744880676
1782846761331848700,1.1728486328125,-0.289596289396286,-0.20166966319084167,0.8254097700119019
1782846761341853700,1.182853759765625,-0.21838709712028503,-0.3091849386692047,0.7677403688430786
1782846761351858700,1.192858642578125,-0.1350180059671402,-0.42859840393066406,0.6826236844062805
1782846761361862700,1.202862548828125,-0.050160638988018036,-0.5299559235572815,0.5684550404548645
1782846761371867600,1.21286767578125,0.02976396307349205,-0.6143337488174438,0.44012534618377686
1782846761381872600,1.22287255859375,0.07998771965503693,-0.6440884470939636,0.30636540055274963
1782846761391876400,1.23287646484375,0.1133522018790245,-0.6232004165649414,0.17798903584480286
1782846761401881300,1.24288134765625,0.12289724498987198,-0.5674567818641663,0.059002991765737534
1782846761411886600,1.252886474609375,0.10960264503955841,-0.48164525628089905,-0.03732302039861679
1782846761421890600,1.262890625,0.10834803432226181,-0.3675929605960846,-0.054066579788923264
1782846761431895600,1.2728955078125,0.13525332510471344,-0.23913227021694183,0.03677615895867348
1782846761441900500,1.282900634765625,0.1734430491924286,-0.10921075940132141,0.2196650207042694
1782846761451904500,1.292904541015625,0.22935163974761963,0.041275013238191605,0.44954386353492737
1782846761461909500,1.302909423828125,0.28337281942367554,0.1754397451877594,0.6746888160705566
1782846761471914500,1.31291455078125,0.3247269093990326,0.24735906720161438,0.8469341397285461
1782846761481918500,1.32291845703125,0.36261969804763794,0.2814267575740814,0.9265064597129822
1782846761491923500,1.33292333984375,0.37295618653297424,0.32479652762413025,0.8988608121871948
1782846761501928400,1.342928466796875,0.36348864436149597,0.37914764881134033,0.7648451924324036
1782846761511932700,1.3529326171875,0.3640277087688446,0.4181717038154602,0.5461193919181824
1782846761521937700,1.362937744140625,0.38365787267684937,0.4014616906642914,0.2759489119052887
1782846761531942700,1.372942626953125,0.4217470586299896,0.3064647316932678,-0.017493927851319313
1782846761541946600,1.382946533203125,0.4511488676071167,0.18307089805603027,-0.2767300307750702
1782846761551951600,1.39295166015625,0.46598121523857117,0.09764394909143448,-0.48746156692504883
1782846761561956600,1.40295654296875,0.4693000316619873,0.0807294175028801,-0.6113417148590088
1782846761571960600,1.412960693359375,0.4529291093349457,0.09381932020187378,-0.6519085764884949
1782846761581965600,1.422965576171875,0.41486242413520813,0.1095317080616951,-0.6399368643760681
1782846761591970600,1.432970458984375,0.4011552333831787,0.1737712025642395,-0.5959823727607727
1782846761601974500,1.442974609375,0.40738940238952637,0.32724225521087646,-0.5204300880432129
1782846761611979500,1.4529794921875,0.4021153151988983,0.5380235910415649,-0.3881053328514099
1782846761621984500,1.462984619140625,0.3840761184692383,0.7709319591522217,-0.15819703042507172
1782846761631988500,1.472988525390625,0.3319258987903595,0.9644485116004944,0.1311468780040741
1782846761641993500,1.482993408203125,0.26726728677749634,1.1298753023147583,0.40554672479629517
1782846761651998500,1.49299853515625,0.22733870148658752,1.2426303625106812,0.6152312755584717
1782846761662002700,1.503002685546875,0.2419235110282898,1.2624280452728271,0.7246973514556885
1782846761672007700,1.513007568359375,0.2978421449661255,1.21684730052948,0.7244269847869873
1782846761682012700,1.5230126953125,0.33412104845046997,1.096053957939148,0.6074002385139465
1782846761692016600,1.5330166015625,0.33797553181648254,0.9815744161605835,0.3368661105632782
1782846761702021600,1.543021728515625,0.2894410192966461,0.8575565814971924,-0.03840736299753189
1782846761712026600,1.553026611328125,0.17926408350467682,0.6608741879463196,-0.4520168900489807
1782846761722030600,1.563030517578125,0.062058109790086746,0.4259437322616577,-0.9534336924552917
1782846761732035600,1.57303564453125,-0.0016001573530957103,0.194990336894989,-1.471213936805725
1782846761742040600,1.58304052734375,-0.009263137355446815,-0.035624220967292786,-1.8024989366531372
1782846761752044800,1.593044921875,0.03204526752233505,-0.25956690311431885,-1.8691637516021729
1782846761762049800,1.6030498046875,0.09315603226423264,-0.44723933935165405,-1.6847048997879028
1782846761772054800,1.6130546875,0.11896457523107529,-0.5495637059211731,-1.2793047428131104
1782846761782058200,1.623058349609375,0.07928027957677841,-0.5572873950004578,-0.65146803855896
1782846761792063200,1.633063232421875,-0.010825523175299168,-0.4423586428165436,0.08079676330089569
1782846761802068200,1.643068115234375,-0.10869402438402176,-0.17119024693965912,0.7080920934677124
1782846761812072200,1.653072265625,-0.14341647922992706,0.15854784846305847,0.990348219871521
1782846761822077200,1.6630771484375,-0.14207850396633148,0.3301907181739807,0.8575883507728577
1782846761832082200,1.673082275390625,-0.15940497815608978,0.2944251000881195,0.498999685049057
1782846761842086400,1.68308642578125,-0.1715008020401001,0.1384509652853012,0.1405581682920456
1782846761852091400,1.69309130859375,-0.11927776038646698,-0.032924775034189224,-0.09045609831809998
1782846761862096400,1.703096435546875,0.008435724303126335,-0.12189379334449768,-0.17764878273010254
1782846761872100000,1.71310009765625,0.16688071191310883,-0.13636615872383118,-0.12633761763572693
1782846761882105000,1.72310498046875,0.29875513911247253,-0.09367460757493973,0.020209478214383125
1782846761892110000,1.733110107421875,0.393272340297699,-0.024800539016723633,0.21832811832427979
1782846761902114000,1.743114013671875,0.4584486782550812,0.06772300601005554,0.4065110683441162
1782846761912119000,1.753119140625,0.5046456456184387,0.15283024311065674,0.5453623533248901
1782846761922124000,1.7631240234375,0.5281205773353577,0.2213437855243683,0.6179891228675842
1782846761932129000,1.77312890625,0.5057880878448486,0.26622170209884644,0.6241306662559509
1782846761942133200,1.78313330078125,0.4169839024543762,0.2843535542488098,0.5480119585990906
1782846761952138200,1.79313818359375,0.2596415579319,0.28125306963920593,0.40639740228652954
1782846761962143200,1.803143310546875,0.05658724904060364,0.22802019119262695,0.23161254823207855
1782846761972147200,1.813147216796875,-0.16141115128993988,0.1395820677280426,0.0488286092877388
1782846761982152200,1.823152099609375,-0.34370797872543335,0.05215716361999512,-0.10730986297130585
1782846761992157200,1.8331572265625,-0.4819558262825012,-0.00907829962670803,-0.2332686334848404
1782846762002161200,1.8431611328125,-0.5642346739768982,-0.05925971269607544,-0.33801528811454773
1782846762012166100,1.853166259765625,-0.5815821886062622,-0.0860469862818718,-0.4161345362663269
1782846762022171100,1.863171142578125,-0.5396608114242554,-0.07910998910665512,-0.4651350975036621
1782846762032175400,1.87317529296875,-0.4559341073036194,-0.048301469534635544,-0.5001277923583984
1782846762042180400,1.883180419921875,-0.36750516295433044,-0.03195472061634064,-0.520195484161377
1782846762052185300,1.893185302734375,-0.29335811734199524,-0.009354467503726482,-0.5309839844703674
1782846762062189000,1.90318896484375,-0.23310622572898865,-0.01069164089858532,-0.5355984568595886
1782846762072194000,1.913194091796875,-0.18483226001262665,-0.063796266913414,-0.5172321796417236
1782846762082199000,1.923198974609375,-0.15499846637248993,-0.14974313974380493,-0.4858851730823517
1782846762092203300,1.933203369140625,-0.1344422698020935,-0.21861422061920166,-0.44410428404808044
1782846762102208300,1.943208251953125,-0.1406218707561493,-0.23691758513450623,-0.3929090201854706
1782846762112213200,1.953213134765625,-0.15386061370372772,-0.23247011005878448,-0.3185528516769409
1782846762122217200,1.96321728515625,-0.16226661205291748,-0.20220594108104706,-0.24067774415016174
1782846762132222200,1.97322216796875,-0.18384982645511627,-0.24092577397823334,-0.19402454793453217
1782846762142227200,1.983227294921875,-0.2582832872867584,-0.3222552537918091,-0.21190527081489563
1782846762152231200,1.993231201171875,-0.3710457384586334,-0.3080587387084961,-0.2784114480018616
1782846762162236200,2.003236083984375,-0.4912365972995758,-0.176095649600029,-0.3474317789077759
1782846762172241200,2.0132412109375,-0.5823219418525696,0.028963685035705566,-0.40650540590286255
1782846762182245400,2.023245361328125,-0.6102579832077026,0.2140033096075058,-0.41527652740478516
1782846762192250400,2.03325048828125,-0.5794100165367126,0.2485070377588272,-0.39353758096694946
1782846762202255400,2.04325537109375,-0.5194071531295776,0.2134758085012436,-0.3731071352958679
1782846762212259300,2.05325927734375,-0.4427056312561035,0.16460560262203217,-0.3572086989879608
1782846762222264300,2.063264404296875,-0.34424376487731934,0.11216024309396744,-0.36438190937042236
1782846762232269300,2.073269287109375,-0.22937847673892975,0.018843412399291992,-0.3655472993850708
1782846762242273000,2.08327294921875,-0.13302184641361237,-0.15738941729068756,-0.3288465142250061
1782846762252278000,2.093278076171875,-0.06907133013010025,-0.30790454149246216,-0.2571822702884674
1782846762262283000,2.103282958984375,-0.010459953919053078,-0.3480202853679657,-0.14901103079319
1782846762272287200,2.113287353515625,0.0450054295361042,-0.2844010293483734,-0.02603815868496895
1782846762282292200,2.123292236328125,0.10693883895874023,-0.17976915836334229,0.07683788985013962
1782846762292297200,2.133297119140625,0.1517302691936493,-0.07560279220342636,0.12276569753885269
1782846762302301200,2.14330126953125,0.1523771584033966,0.06362885981798172,0.1401478797197342
1782846762312306200,2.15330615234375,0.13995705544948578,0.26174864172935486,0.2145787924528122
1782846762322311200,2.163311279296875,0.16920016705989838,0.5020155906677246,0.37241557240486145
1782846762332315100,2.173315185546875,0.24844083189964294,0.7142924070358276,0.5924642086029053
1782846762342320000,2.183320068359375,0.33840134739875793,0.794883131980896,0.8159351348876953
1782846762352325000,2.1933251953125,0.40618592500686646,0.7005987167358398,0.9905378222465515
1782846762362330000,2.203330078125,0.4592752456665039,0.3995792269706726,1.099636435508728
1782846762372334300,2.213334228515625,0.4841337502002716,-0.0944633036851883,1.1649266481399536
1782846762382339300,2.22333935546875,0.4617144763469696,-0.6112630367279053,1.189486026763916
1782846762392344300,2.23334423828125,0.41202637553215027,-1.004034161567688,1.1549700498580933
1782846762402348300,2.243348388671875,0.350398451089859,-1.2563380002975464,1.0552672147750854
1782846762412353300,2.253353271484375,0.2698090970516205,-1.3378968238830566,0.9318261742591858
1782846762422358300,2.263358154296875,0.17589379847049713,-1.2384618520736694,0.7970281839370728
1782846762432362000,2.273362060546875,0.06581536680459976,-0.9709506034851074,0.6626814007759094
1782846762442367200,2.2833671875,-0.05716434866189957,-0.5893824696540833,0.5605888366699219
1782846762452372200,2.293372314453125,-0.14823921024799347,-0.2416476309299469,0.5428356528282166
1782846762462376200,2.303376220703125,-0.18568405508995056,-0.059357717633247375,0.6169314980506897
1782846762472381200,2.313381103515625,-0.17410220205783844,-0.022849444299936295,0.7488364577293396
1782846762482386200,2.32338623046875,-0.15144668519496918,-0.038489922881126404,0.875222384929657
1782846762492390100,2.33339013671875,-0.15865860879421234,-0.0683840960264206,0.9617121815681458
1782846762502395100,2.34339501953125,-0.20238611102104187,-0.09970180690288544,0.979405403137207
1782846762512400100,2.353400146484375,-0.28038933873176575,-0.12199220061302185,0.9412638545036316
1782846762522404000,2.363404052734375,-0.36604270339012146,-0.11964675784111023,0.8317900896072388
1782846762532409000,2.3734091796875,-0.43265199661254883,-0.1218898668885231,0.633520245552063
1782846762542414000,2.3834140625,-0.46574896574020386,-0.1287728250026703,0.3592386543750763
1782846762552418300,2.393418212890625,-0.45776674151420593,-0.14594998955726624,0.053880780935287476
1782846762562423300,2.40342333984375,-0.40320977568626404,-0.15019480884075165,-0.24128907918930054
1782846762572428300,2.41342822265625,-0.31126779317855835,-0.16748552024364471,-0.4945121705532074
1782846762582432300,2.423432373046875,-0.19393318891525269,-0.19708655774593353,-0.7086060643196106
1782846762592437200,2.433437255859375,-0.09199128299951553,-0.20500333607196808,-0.8734340071678162
1782846762602442200,2.443442138671875,-0.030724462121725082,-0.1818428784608841,-0.9774274826049805
1782846762612446200,2.4534462890625,-0.03881637006998062,-0.1293400675058365,-1.0331345796585083
1782846762622451200,2.463451171875,-0.11411618441343307,-0.052898287773132324,-1.06314218044281
1782846762632456200,2.473456298828125,-0.20002523064613342,0.0518774650990963,-1.0737167596817017
1782846762642460200,2.483460205078125,-0.28554069995880127,0.17121051251888275,-1.0491373538970947
1782846762652465200,2.493465087890625,-0.3666952848434448,0.29847845435142517,-0.9597480893135071
1782846762662470100,2.50347021484375,-0.42206504940986633,0.41467562317848206,-0.7909250259399414
1782846762672474000,2.51347412109375,-0.41575905680656433,0.5536326169967651,-0.5460786819458008
1782846762682479000,2.52347900390625,-0.3281237483024597,0.6426098942756653,-0.263076514005661
1782846762692484000,2.533484130859375,-0.20585642755031586,0.601392388343811,-0.01900312304496765
1782846762702488000,2.543488037109375,-0.0921839103102684,0.48163270950317383,0.1503179967403412
1782846762712493000,2.5534931640625,-0.02374776266515255,0.34243085980415344,0.24415946006774902
1782846762722498300,2.563498291015625,0.02005830779671669,0.27860474586486816,0.2267836630344391
1782846762732503300,2.57350341796875,0.05973859131336212,0.2797697186470032,0.073158398270607
1782846762742507300,2.58350732421875,0.15345975756645203,0.30622345209121704,-0.33155179023742676
1782846762752512300,2.59351220703125,0.19049648940563202,0.2747376263141632,-0.8849679827690125
1782846762762517200,2.603517333984375,0.09953727573156357,0.07732922583818436,-1.1942914724349976
1782846762772521200,2.613521240234375,-0.058888088911771774,-0.14192289113998413,-1.2618004083633423
1782846762782526500,2.6235263671875,-0.18757522106170654,-0.30024170875549316,-1.3347457647323608
1782846762792531500,2.633531494140625,-0.2103288471698761,-0.35696277022361755,-1.4132798910140991
1782846762802535400,2.643535400390625,-0.12839455902576447,-0.34943482279777527,-1.4248387813568115
1782846762812540400,2.65354052734375,0.00922391191124916,-0.3436916172504425,-1.2963054180145264
1782846762822545400,2.66354541015625,0.13290351629257202,-0.3787388205528259,-0.9724341630935669
1782846762832549400,2.67354931640625,0.1212828978896141,-0.4165271520614624,-0.41786515712738037
1782846762842554400,2.683554443359375,-0.01870962791144848,-0.4158025085926056,0.22661451995372772
1782846762852559600,2.6935595703125,-0.13889501988887787,-0.3586367070674896,0.6744968891143799
1782846762862563300,2.703563232421875,-0.13648353517055511,-0.3480125367641449,0.7576165199279785
1782846762872568300,2.713568359375,-0.0407334603369236,-0.37964484095573425,0.5379247665405273
1782846762882573300,2.7235732421875,0.13642506301403046,-0.36564114689826965,0.1282414048910141
1782846762892577500,2.73357763671875,0.327788770198822,-0.2597326934337616,-0.3068704605102539
1782846762902582500,2.74358251953125,0.4751577079296112,-0.031761568039655685,-0.6068372130393982
1782846762912587500,2.75358740234375,0.5382322072982788,0.19699151813983917,-0.6724278926849365
1782846762922591500,2.763591552734375,0.5364795923233032,0.3457695245742798,-0.5191539525985718
1782846762932596500,2.773596435546875,0.5064509510993958,0.38871002197265625,-0.2375004142522812
1782846762942601500,2.7836015625,0.46085014939308167,0.32318294048309326,0.0502229742705822
1782846762952605400,2.79360546875,0.41980820894241333,0.22029776871204376,0.2759562134742737
1782846762962610400,2.8036103515625,0.3770090639591217,0.10628864169120789,0.426718533039093
1782846762972615400,2.813615478515625,0.30243685841560364,0.03488456457853317,0.48252448439598083
1782846762982619600,2.82361962890625,0.19734640419483185,-0.01910703256726265,0.47458720207214355
1782846762992624600,2.833624755859375,0.08052761107683182,-0.06124549359083176,0.4081808030605316
1782846763002629600,2.843629638671875,-0.010706961154937744,-0.10999305546283722,0.32569578289985657
1782846763012633600,2.853633544921875,-0.07719184458255768,-0.1630363017320633,0.2511875033378601
1782846763022638600,2.863638671875,-0.11380418390035629,-0.19935570657253265,0.17446237802505493
1782846763032643600,2.8736435546875,-0.13806955516338348,-0.20012827217578888,0.09461018443107605
1782846763042647300,2.883647216796875,-0.13570758700370789,-0.14522162079811096,0.02377036027610302
1782846763052652300,2.89365234375,-0.11002074182033539,-0.04469548165798187,-0.050432104617357254
1782846763062657300,2.9036572265625,-0.07244353741407394,0.04195552319288254,-0.10444128513336182
1782846763072661500,2.91366162109375,-0.017214104533195496,0.10106172412633896,-0.12473990023136139
1782846763082666500,2.92366650390625,0.04373340308666229,0.13363057374954224,-0.12020187079906464
1782846763092671500,2.93367138671875,0.09726310521364212,0.11086588352918625,-0.12033015489578247
1782846763102676500,2.943676513671875,0.12798187136650085,0.05834381654858589,-0.14860093593597412
1782846763112680400,2.953680419921875,0.13655903935432434,0.023115260526537895,-0.19951966404914856
1782846763122685400,2.963685546875,0.11450807005167007,0.03407949209213257,-0.2625790536403656
1782846763132690400,2.9736904296875,0.0848432332277298,0.08876284956932068,-0.31127527356147766
1782846763142694400,2.9836943359375,0.05580040067434311,0.15802662074565887,-0.2948819398880005
1782846763152699400,2.993699462890625,0.014342489652335644,0.20805980265140533,-0.21037118136882782
1782846763162704400,3.003704345703125,-0.05099550262093544,0.2355675995349884,-0.08281081914901733
1782846763172708600,3.01370849609375,-0.13738133013248444,0.22895711660385132,0.07293201982975006
1782846763182713600,3.023713623046875,-0.2566927969455719,0.18767865002155304,0.21076925098896027
1782846763192718600,3.033718505859375,-0.36106735467910767,0.15187709033489227,0.2761550843715668
1782846763202722600,3.04372265625,-0.42111897468566895,0.08658651262521744,0.2583127021789551
1782846763212727600,3.0537275390625,-0.40647855401039124,0.018233217298984528,0.18560470640659332
1782846763222732500,3.063732666015625,-0.29088112711906433,0.048257697373628616,0.111012764275074
1782846763232736300,3.073736328125,-0.14522802829742432,0.21653446555137634,0.07415702939033508
1782846763242741200,3.0837412109375,-0.014883597381412983,0.4742152690887451,0.03032645210623741
1782846763252746200,3.093746337890625,0.08102954179048538,0.6985411047935486,0.025870198383927345
1782846763262750500,3.10375048828125,0.1422167420387268,0.7597941160202026,0.05789923667907715
1782846763272755500,3.11375537109375,0.15126760303974152,0.6386632919311523,0.07128582894802094
1782846763282760400,3.123760498046875,0.14297984540462494,0.32597967982292175,0.3577846884727478
1782846763292764400,3.133764404296875,0.17272430658340454,0.06284908205270767,0.6108511090278625
1782846763302769400,3.143769287109375,0.2580389380455017,-0.11002814769744873,0.7727153897285461
1782846763312774400,3.1537744140625,0.3157366216182709,-0.22020524740219116,0.8857977390289307
1782846763322778400,3.1637783203125,0.3452942669391632,-0.318282812833786,0.9378811717033386
1782846763332783400,3.173783447265625,0.3322182595729828,-0.3889122009277344,0.9023163914680481
1782846763342788400,3.183788330078125,0.2422526776790619,-0.4145805239677429,0.7760852575302124
1782846763352792600,3.19379248046875,0.12648430466651917,-0.3743370473384857,0.5729299187660217
1782846763362797600,3.203797607421875,0.061444059014320374,-0.29988810420036316,0.3059863746166229
1782846763372802600,3.213802490234375,0.061213236302137375,-0.2673070430755615,0.029964638873934746
1782846763382806500,3.223806640625,0.09127792716026306,-0.3405255973339081,-0.1838134229183197
1782846763392811500,3.2338115234375,0.09887520223855972,-0.5135749578475952,-0.30648094415664673
1782846763402816500,3.24381640625,0.06294729560613632,-0.7249923944473267,-0.3537251651287079
1782846763412821500,3.253821533203125,-0.003201283747330308,-0.8902949094772339,-0.3607519865036011
1782846763422825200,3.2638251953125,-0.048824962228536606,-0.9952090978622437,-0.33969172835350037
1782846763432830200,3.273830322265625,-0.06076399236917496,-1.0510478019714355,-0.2887538969516754
1782846763442835500,3.28383544921875,-0.04176606982946396,-1.0154309272766113,-0.2084619700908661
1782846763452839400,3.29383935546875,-0.012640409171581268,-0.9082796573638916,-0.12607255578041077
1782846763462844400,3.303844482421875,0.01857929490506649,-0.7757282853126526,-0.051198046654462814
1782846763472849400,3.313849365234375,0.061113208532333374,-0.60953688621521,0.007350250147283077
1782846763482853400,3.323853271484375,0.09384026378393173,-0.42743605375289917,0.07027781754732132
1782846763492858400,3.3338583984375,0.11268505454063416,-0.27875152230262756,0.14449292421340942
1782846763502863400,3.34386328125,0.10811594128608704,-0.17269544303417206,0.2579696476459503
1782846763512867300,3.353867431640625,0.08720335364341736,-0.07139772921800613,0.3968184292316437
1782846763522872300,3.363872314453125,0.05684278905391693,0.027463870123028755,0.5422672033309937
1782846763532877600,3.373877685546875,0.027214370667934418,0.10338379442691803,0.6718647480010986
1782846763542881500,3.383881591796875,0.02067018486559391,0.15525631606578827,0.7561362385749817
1782846763552886500,3.393886474609375,0.038431912660598755,0.18760378658771515,0.7903346419334412
1782846763562891500,3.4038916015625,0.0721624493598938,0.20717696845531464,0.747913122177124
1782846763572895500,3.4138955078125,0.11748364567756653,0.2230401635169983,0.6352632641792297
1782846763582900500,3.423900390625,0.15525579452514648,0.24926084280014038,0.44604116678237915
1782846763592905500,3.433905517578125,0.19142524898052216,0.27135413885116577,0.1917841136455536
1782846763602909400,3.443909423828125,0.22255147993564606,0.2892697751522064,-0.08629357814788818
1782846763612914700,3.453914794921875,0.2215978503227234,0.29967933893203735,-0.3347731828689575
1782846763622919700,3.463919677734375,0.21010525524616241,0.3007877469062805,-0.5019360780715942
1782846763632923400,3.47392333984375,0.1987612247467041,0.28590813279151917,-0.5965153574943542
1782846763642928400,3.483928466796875,0.16944222152233124,0.26660528779029846,-0.6480402946472168
1782846763652933400,3.493933349609375,0.11965645104646683,0.24899746477603912,-0.6647903323173523
1782846763662937300,3.503937255859375,0.07000261545181274,0.21826671063899994,-0.6383779048919678
1782846763672942300,3.5139423828125,0.03078630194067955,0.2138751596212387,-0.5507273077964783
1782846763682947300,3.523947265625,-0.017041940242052078,0.23088689148426056,-0.42237570881843567
1782846763692951600,3.53395166015625,-0.07662314176559448,0.27119940519332886,-0.2681361734867096
1782846763702956500,3.54395654296875,-0.14056989550590515,0.3615977466106415,-0.11480225622653961
1782846763712961500,3.55396142578125,-0.197642520070076,0.5052804946899414,0.043145276606082916
1782846763722966500,3.563966552734375,-0.2000526785850525,0.7111659646034241,0.22127506136894226
1782846763732970500,3.573970458984375,-0.13094481825828552,0.8923705220222473,0.41219058632850647
1782846763742975500,3.5839755859375,0.024003474041819572,0.9574025273323059,0.5072183012962341
1782846763752980500,3.59398046875,0.23617540299892426,0.8800662159919739,0.4630976617336273
1782846763762984400,3.603984375,0.4134913384914398,0.7206651568412781,0.24882742762565613
1782846763772989400,3.613989501953125,0.4996280074119568,0.5673220157623291,-0.06413011997938156
1782846763782994400,3.623994384765625,0.44406938552856445,0.4165458381175995,-0.3237406611442566
1782846763792998400,3.633998291015625,0.2761904299259186,0.19801703095436096,-0.42844605445861816
1782846763803003400,3.64400341796875,0.09480014443397522,0.004709887318313122,-0.4614926874637604
1782846763813008400,3.65400830078125,-0.04336050897836685,-0.08178938180208206,-0.4426767826080322
1782846763823012400,3.664012451171875,-0.13190396130084991,-0.06337788701057434,-0.3739384710788727
1782846763833017300,3.674017333984375,-0.155068501830101,0.018918316811323166,-0.2755260765552521
1782846763843022300,3.684022216796875,-0.11233595013618469,0.11480622738599777,-0.15701326727867126
1782846763853026300,3.6940263671875,-0.06351333856582642,0.1814562827348709,-0.0357922688126564
1782846763863031300,3.70403125,-0.06957496702671051,0.21182511746883392,0.06818819046020508
1782846763873036300,3.714036376953125,-0.15203671157360077,0.17927995324134827,0.09472464770078659
1782846763883040500,3.72404052734375,-0.26033949851989746,0.13580358028411865,-0.0022530308924615383
1782846763893045500,3.73404541015625,-0.31260672211647034,0.05729586258530617,-0.20529936254024506
1782846763903050500,3.744050537109375,-0.27936193346977234,-0.07089033722877502,-0.43947407603263855
1782846763913054200,3.75405419921875,-0.1776767373085022,-0.20249684154987335,-0.6693552732467651
1782846763923059200,3.76405908203125,-0.050597358494997025,-0.30681419372558594,-0.8639513850212097
1782846763933064200,3.774064208984375,0.06827321648597717,-0.3579784035682678,-0.9871606826782227
1782846763943068200,3.784068115234375,0.15306614339351654,-0.33837568759918213,-1.0127577781677246
1782846763953073200,3.7940732421875,0.2147979885339737,-0.2497439682483673,-0.9395344853401184
1782846763963078100,3.804078125,0.2569180130958557,-0.12186377495527267,-0.7983011603355408
1782846763973082400,3.814082275390625,0.2811061441898346,0.006899068132042885,-0.6225157380104065
1782846763983087400,3.82408740234375,0.2944461703300476,0.13379229605197906,-0.4196861982345581
1782846763993092400,3.83409228515625,0.28798648715019226,0.22783944010734558,-0.2064429670572281
1782846764003096300,3.844096435546875,0.2628318667411804,0.2650398015975952,0.00012485857587307692
1782846764013101300,3.854101318359375,0.23274415731430054,0.20994453132152557,0.14999039471149445
1782846764023106300,3.864106201171875,0.2021937072277069,0.11411307752132416,0.22715894877910614
1782846764033110300,3.8741103515625,0.1547793447971344,0.03237307816743851,0.23932215571403503
1782846764043115300,3.884115234375,0.0972428172826767,-0.05052846297621727,0.2012152522802353
1782846764053120300,3.894120361328125,0.037924397736787796,-0.1184486672282219,0.1296684741973877
1782846764063125200,3.904125244140625,-0.014165700413286686,-0.13380685448646545,0.07728730142116547
1782846764073129500,3.91412939453125,-0.061708204448223114,-0.11219410598278046,0.03230009600520134
1782846764083134500,3.924134521484375,-0.10929356515407562,-0.09140573441982269,-0.0070060305297374725
1782846764093139500,3.934139404296875,-0.13834066689014435,-0.08248140662908554,-0.05153532698750496
1782846764103143200,3.94414306640625,-0.1480335146188736,-0.0905182957649231,-0.11152223497629166
1782846764113148200,3.954148193359375,-0.13710331916809082,-0.08442798256874084,-0.1696910411119461
1782846764123153200,3.964153076171875,-0.10211364924907684,-0.07378492504358292,-0.21566545963287354
1782846764133157400,3.974157470703125,-0.06853143870830536,-0.07227211445569992,-0.2508186399936676
1782846764143162400,3.984162353515625,-0.027690529823303223,-0.0586649589240551,-0.2740086317062378
1782846764153167400,3.99416748046875,0.015629595145583153,-0.01784895360469818,-0.2526395320892334
1782846764163171300,4.00417138671875,0.0704001635313034,-0.0017762442585080862,-0.191247820854187
1782846764173176300,4.01417626953125,0.10558880120515823,-0.048457399010658264,-0.13553906977176666
1782846764183181300,4.024181396484375,0.12164473533630371,-0.09810111671686172,-0.08502290397882462
1782846764193185300,4.034185302734375,0.23347952961921692,-0.1351805180311203,0.022875454276800156
1782846764203190300,4.044190185546875,0.3398352563381195,0.1226358488202095,0.16571888327598572
1782846764213195300,4.0541953125,0.30707594752311707,0.272018164396286,0.32322874665260315
1782846764223199500,4.064199462890625,0.2836827337741852,0.2899950444698334,0.44233596324920654
1782846764233204500,4.07420458984375,0.16596771776676178,0.2855282723903656,0.5473763942718506
1782846764243209500,4.08420947265625,-0.027800146490335464,0.23595967888832092,0.5799081921577454
1782846764253213400,4.09421337890625,-0.1903548538684845,0.20964565873146057,0.5752982497215271
1782846764263218400,4.104218505859375,-0.3085653781890869,0.21077057719230652,0.5420803427696228
1782846764273223400,4.114223388671875,-0.37126463651657104,0.19274669885635376,0.4973199665546417
1782846764283227100,4.12422705078125,-0.35815683007240295,0.13292251527309418,0.4989655613899231
1782846764293232400,4.134232421875,-0.27013036608695984,0.07597514241933823,0.5526328086853027
1782846764303237400,4.1442373046875,-0.11489550769329071,0.0873875841498375,0.6832283735275269
1782846764313241300,4.154241455078125,0.06240396201610565,0.17262078821659088,0.8373041749000549
1782846764323246300,4.164246337890625,0.17906267940998077,0.3028717339038849,0.9454024434089661
1782846764333251300,4.174251220703125,0.22642004489898682,0.3793925642967224,0.9698939323425293
1782846764343255300,4.18425537109375,0.23772676289081573,0.37920239567756653,0.9240404367446899
1782846764353260300,4.19426025390625,0.2460545003414154,0.3169158399105072,0.8282618522644043
1782846764363265300,4.204265380859375,0.2641136646270752,0.2648545205593109,0.7095263600349426
1782846764373269200,4.214269287109375,0.1801542043685913,0.09803850203752518,0.5537133812904358
1782846764383274200,4.224274169921875,0.07209936529397964,0.012152090668678284,0.3679136633872986
1782846764393279200,4.234279296875,-0.028529593721032143,-0.054532796144485474,0.1986221969127655
1782846764403283500,4.244283447265625,-0.13168154656887054,-0.17333535850048065,0.06940563768148422
1782846764413288400,4.254288330078125,-0.19511058926582336,-0.25377893447875977,-0.06938742101192474
1782846764423293400,4.26429345703125,-0.21553491055965424,-0.30246418714523315,-0.19494853913784027
1782846764433298400,4.27429833984375,-0.20512846112251282,-0.32674914598464966,-0.26760509610176086
1782846764443302400,4.284302490234375,-0.19583535194396973,-0.3364688754081726,-0.2887527346611023
1782846764453307400,4.294307373046875,-0.19901540875434875,-0.3764909505844116,-0.26116669178009033
1782846764463312400,4.3043125,-0.21605031192302704,-0.44207075238227844,-0.22036521136760712
1782846764473316400,4.31431640625,-0.20888392627239227,-0.5187323093414307,-0.22082434594631195
1782846764483321300,4.3243212890625,-0.17931511998176575,-0.5765442252159119,-0.25961434841156006
1782846764493326300,4.334326416015625,-0.1462060958147049,-0.6074076890945435,-0.32981032133102417
1782846764503330300,4.344330322265625,-0.1353025883436203,-0.629108726978302,-0.40203580260276794
1782846764513335300,4.354335205078125,-0.16462071239948273,-0.6174787282943726,-0.47536683082580566
1782846764523340300,4.36434033203125,-0.21148967742919922,-0.5488778352737427,-0.5197361707687378
1782846764533344300,4.37434423828125,-0.2474340796470642,-0.4609929621219635,-0.5094653964042664
1782846764543349200,4.384349365234375,-0.2790229022502899,-0.36729681491851807,-0.4439103305339813
1782846764553354200,4.394354248046875,-0.2988147437572479,-0.24992601573467255,-0.3347164988517761
1782846764563358200,4.404358154296875,-0.3164256811141968,-0.11306002736091614,-0.18396107852458954
1782846764573363200,4.41436328125,-0.31540432572364807,0.005886129103600979,0.0015618428587913513
1782846764583368200,4.4243681640625,-0.29567191004753113,0.10459992289543152,0.21398808062076569
1782846764593372400,4.434372314453125,-0.2862468659877777,0.19868887960910797,0.4036141633987427
1782846764603377400,4.44437744140625,-0.30742591619491577,0.2515486180782318,0.5276474356651306
1782846764613382400,4.45438232421875,-0.33175748586654663,0.2903856337070465,0.5601367354393005
1782846764623386400,4.464386474609375,-0.34465304017066956,0.2874835729598999,0.49719956517219543
1782846764633391400,4.474391357421875,-0.3554936647415161,0.23270530998706818,0.3523385524749756
1782846764643396400,4.484396240234375,-0.35137030482292175,0.12294071912765503,0.15736640989780426
1782846764653400300,4.494400390625,-0.33454209566116333,-0.006915410980582237,-0.036605097353458405
1782846764663405300,4.5044052734375,-0.3020113408565521,-0.10632828623056412,-0.1832677721977234
1782846764673410300,4.514410400390625,-0.26551327109336853,-0.17813868820667267,-0.27487999200820923
1782846764683414300,4.524414306640625,-0.22759118676185608,-0.25563108921051025,-0.31469106674194336
1782846764693419300,4.534419189453125,-0.19582277536392212,-0.31740057468414307,-0.3156701326370239
1782846764703424300,4.54442431640625,-0.18154504895210266,-0.3143709599971771,-0.25340303778648376
1782846764713428200,4.55442822265625,-0.17698116600513458,-0.2389131784439087,-0.1434672772884369
1782846764723433200,4.56443310546875,-0.17923100292682648,-0.08943765610456467,0.02965017594397068
1782846764733438200,4.574438232421875,-0.20482754707336426,0.13189320266246796,0.2464095503091812
1782846764743442200,4.584442138671875,-0.22481350600719452,0.38494381308555603,0.48087558150291443
1782846764753447200,4.594447265625,-0.23862169682979584,0.6168017983436584,0.7140235900878906
1782846764763452400,4.604452392578125,-0.202970489859581,0.7592880725860596,0.9043669104576111
1782846764773456400,4.614456298828125,-0.08790449798107147,0.7299073338508606,0.9949901103973389
1782846764783461400,4.62446142578125,0.05930892378091812,0.6144867539405823,0.9817107915878296
1782846764793466400,4.63446630859375,0.1919945478439331,0.46992942690849304,0.8910288214683533
1782846764803471400,4.644471435546875,0.27811557054519653,0.3111778795719147,0.7202160954475403
1782846764813475300,4.654475341796875,0.27557241916656494,0.1368260383605957,0.5006651282310486
1782846764823480300,4.664480224609375,0.19196964800357819,0.004584376234561205,0.2615201771259308
1782846764833485300,4.6744853515625,0.1100567951798439,0.0008192649111151695,-0.0993175059556961
1782846764843489500,4.684489501953125,0.09158883988857269,0.1397651731967926,-0.6575354933738708
1782846764853494500,4.69449462890625,0.09437143057584763,0.3045891523361206,-1.2356053590774536
1782846764863499500,4.70449951171875,0.10927847027778625,0.3387646973133087,-1.5037579536437988
1782846764873503200,4.714503173828125,0.18393659591674805,0.17545971274375916,-1.4941105842590332
1782846764883508200,4.72450830078125,0.3072454631328583,-0.08211376518011093,-1.29082190990448
1782846764893513500,4.734513427734375,0.32548969984054565,-0.37989217042922974,-0.8739003539085388
1782846764903517200,4.74451708984375,0.1814771294593811,-0.6264652013778687,-0.25103065371513367
1782846764913522200,4.754522216796875,-0.0443313866853714,-0.6663587093353271,0.4234442114830017
1782846764923527200,4.764527099609375,-0.21226446330547333,-0.3951770067214966,0.8949113488197327
1782846764933531400,4.774531494140625,-0.2034003585577011,-0.08143331855535507,0.9622227549552917
1782846764943536400,4.784536376953125,-0.09270152449607849,0.05145016312599182,0.6019295454025269
1782846764953541400,4.794541259765625,0.029943576082587242,-0.028302596881985664,-0.023807751014828682
1782846764963545300,4.80454541015625,0.08418843895196915,-0.13981686532497406,-0.6549697518348694
1782846764973550300,4.81455029296875,0.04183347895741463,-0.1783023327589035,-1.0558499097824097
1782846764983555300,4.824555419921875,-0.05701959505677223,-0.05387812480330467,-1.2039693593978882
1782846764993559300,4.834559326171875,-0.13400599360466003,0.12465479969978333,-1.1522636413574219
1782846765003564300,4.844564208984375,-0.1303558647632599,0.31348302960395813,-0.9476444125175476
1782846765013569300,4.8545693359375,-0.09098290652036667,0.4340173602104187,-0.692314863204956
1782846765023573500,4.864573486328125,-0.03184635192155838,0.46230918169021606,-0.4474603831768036
1782846765033578500,4.87457861328125,0.03171765059232712,0.3967077434062958,-0.24747025966644287
1782846765043583500,4.88458349609375,0.09354986250400543,0.2583940923213959,-0.09844642877578735
1782846765053587500,4.89458740234375,0.13364242017269135,0.0810704380273819,0.023039523512125015
1782846765063592400,4.904592529296875,0.13178673386573792,-0.0932915136218071,0.10178866237401962
1782846765073597400,4.914597412109375,0.09872741997241974,-0.20615874230861664,0.1589263677597046
1782846765083601200,4.92460107421875,0.054361287504434586,-0.2473091185092926,0.21452170610427856
1782846765093606100,4.934606201171875,0.007077919319272041,-0.23265793919563293,0.26003602147102356
1782846765103611100,4.944611083984375,-0.037788089364767075,-0.1801995187997818,0.2833655774593353
1782846765113615400,4.954615478515625,-0.08266716450452805,-0.1162390410900116,0.2830457091331482
1782846765123620400,4.964620361328125,-0.10893072187900543,-0.043667636811733246,0.25026485323905945
1782846765133625300,4.974625244140625,-0.10198315232992172,0.009005827829241753,0.20346496999263763
1782846765143629300,4.98462939453125,-0.0740354061126709,0.034599870443344116,0.15295198559761047
1782846765153634300,4.99463427734375,-0.02508734166622162,0.022236406803131104,0.1028970330953598
1782846765163639300,5.004639404296875,0.022122247144579887,-0.008639482781291008,0.03325510770082474
1782846765173643300,5.014643310546875,0.06227687746286392,-0.048603273928165436,-0.04287133365869522
1782846765183648300,5.024648193359375,0.09814512729644775,-0.04935455322265625,-0.1241488829255104
1782846765193653200,5.0346533203125,0.12358564138412476,-0.005239089950919151,-0.1987537294626236
1782846765203657500,5.044657470703125,0.14538894593715668,0.0350731797516346,-0.2453974038362503
1782846765213662500,5.054662353515625,0.15501974523067474,0.04302418604493141,-0.2704542577266693
1782846765223667500,5.06466748046875,0.16000331938266754,0.047129448503255844,-0.2729480564594269
1782846765233671400,5.07467138671875,0.1559271216392517,0.02137381210923195,-0.267659068107605
1782846765243676400,5.084676513671875,0.1846913844347,-0.06781838089227676,-0.23167604207992554
1782846765253681400,5.094681396484375,0.18527720868587494,-0.14376020431518555,-0.17883899807929993
1782846765263686400,5.104686279296875,0.13424810767173767,-0.241083025932312,-0.13870437443256378
1782846765273690000,5.114690185546875,0.05340312421321869,-0.3824169337749481,-0.09439250826835632
1782846765283695000,5.124695068359375,-0.02957112342119217,-0.4532682001590729,-0.0560363307595253
1782846765293700000,5.1347001953125,-0.07719606906175613,-0.4128129184246063,-0.040062762796878815
1782846765303704300,5.144704345703125,-0.0880122259259224,-0.2866898775100708,-0.06649676710367203
1782846765313709300,5.154709228515625,-0.09105709195137024,-0.06298726797103882,-0.1337137669324875
1782846765323714300,5.16471435546875,-0.09648381173610687,0.181036576628685,-0.1870124191045761
1782846765333718300,5.17471826171875,-0.12387506663799286,0.2997710108757019,-0.1475663185119629
1782846765343723300,5.18472314453125,-0.19035901129245758,0.23822245001792908,-0.06449086964130402
1782846765353728300,5.194728271484375,-0.2596134543418884,0.033484939485788345,0.10390018671751022
1782846765363732200,5.204732177734375,-0.29810333251953125,-0.1270885020494461,0.29257556796073914
1782846765373737200,5.2147373046875,-0.23130550980567932,-0.2153375893831253,0.4303918778896332
1782846765383742200,5.2247421875,-0.07171531766653061,-0.2800513505935669,0.5203390717506409
1782846765393746400,5.234746337890625,0.09087447822093964,-0.3189709186553955,0.5700857639312744
1782846765403751400,5.24475146484375,0.20202921330928802,-0.3010782301425934,0.5692551136016846
1782846765413756400,5.25475634765625,0.2996521294116974,-0.2507713735103607,0.46814700961112976
1782846765423760400,5.264760498046875,0.4040067493915558,-0.21182741224765778,0.283206969499588
1782846765433765400,5.274765380859375,0.4670880138874054,-0.144766703248024,0.0913943499326706
1782846765443770400,5.284770263671875,0.4746047854423523,-0.04885134473443031,-0.02284114807844162
1782846765453774300,5.2947744140625,0.4548247754573822,0.05072864145040512,-0.06218038871884346
1782846765463779300,5.304779296875,0.4691568613052368,0.16643819212913513,-0.05832386761903763
1782846765473784300,5.314784423828125,0.5320426225662231,0.29809561371803284,-0.07512421905994415
1782846765483788300,5.324788330078125,0.6032952070236206,0.3728382885456085,-0.07336493581533432
1782846765493793300,5.334793212890625,0.6452217698097229,0.3459240794181824,-0.03107512928545475
1782846765503798300,5.34479833984375,0.6472793221473694,0.2353687882423401,0.058563943952322006
1782846765513802200,5.35480224609375,0.6095165014266968,0.05107930302619934,0.19007794559001923
1782846765523807200,5.36480712890625,0.5556021332740784,-0.15123997628688812,0.3222666084766388
1782846765533812200,5.374812255859375,0.511832058429718,-0.2933952510356903,0.4314254820346832
1782846765543816400,5.38481640625,0.49950477480888367,-0.355168879032135,0.4934387803077698
1782846765553821400,5.394821533203125,0.49115341901779175,-0.3465079963207245,0.5136719346046448
1782846765563826400,5.404826416015625,0.4652531147003174,-0.31470799446105957,0.4941115975379944
1782846765573830400,5.414830322265625,0.43132662773132324,-0.2700449228286743,0.4355687201023102
1782846765583835400,5.42483544921875,0.38876956701278687,-0.1789024919271469,0.3609890341758728
1782846765593840400,5.43484033203125,0.3516171872615814,-0.06213179975748062,0.3075675070285797
1782846765603844400,5.44484423828125,0.30411598086357117,0.038268573582172394,0.29338589310646057
1782846765613849300,5.454849365234375,0.23689870536327362,0.14970988035202026,0.3325614333152771
1782846765623854300,5.464854248046875,0.17985592782497406,0.23136000335216522,0.43761304020881653
1782846765633858600,5.474858642578125,0.15410009026527405,0.22742944955825806,0.5552985668182373
1782846765643863600,5.484863525390625,0.14691302180290222,0.21091119945049286,0.6403719186782837
1782846765653868500,5.49486865234375,0.15002217888832092,0.24097074568271637,0.6882960796356201
1782846765663872300,5.504872314453125,0.1644810140132904,0.2653948664665222,0.6864728927612305
1782846765673877200,5.514877197265625,0.15822240710258484,0.28167423605918884,0.626616358757019
1782846765683882200,5.52488232421875,0.11238382011651993,0.298505961894989,0.4832698702812195
1782846765693886200,5.53488623046875,0.039718445390462875,0.3010116517543793,0.2679268717765808
1782846765703891200,5.54489111328125,-0.035442352294921875,0.28851449489593506,0.005087546072900295
1782846765713896200,5.554896240234375,-0.09773809462785721,0.24058671295642853,-0.25324907898902893
1782846765723900400,5.564900390625,-0.14702174067497253,0.1619395762681961,-0.4539653956890106
1782846765733905400,5.574905517578125,-0.17831401526927948,0.08783359825611115,-0.5708854794502258
1782846765743910400,5.584910400390625,-0.18984390795230865,0.03605668619275093,-0.621461033821106
1782846765753915400,5.594915283203125,-0.20155520737171173,0.020890923216938972,-0.6039634346961975
1782846765763919400,5.60491943359375,-0.22209857404232025,0.0502924881875515,-0.5140063762664795
1782846765773924400,5.61492431640625,-0.2719719409942627,0.14430612325668335,-0.3530121445655823
1782846765783929300,5.624929443359375,-0.34943529963493347,0.2691154181957245,-0.14871731400489807
1782846765793934300,5.634934326171875,-0.4066782593727112,0.39156731963157654,0.04988087713718414
1782846765803939300,5.644939208984375,-0.4070178270339966,0.5064811110496521,0.22017964720726013
1782846765813944300,5.6549443359375,-0.3690492808818817,0.6402528285980225,0.3870883285999298
1782846765823948300,5.6649482421875,-0.3185959458351135,0.7039026021957397,0.5250722765922546
1782846765833953300,5.674953369140625,-0.21764732897281647,0.6939949989318848,0.5786849856376648
1782846765843958300,5.684958251953125,-0.08488288521766663,0.6073727607727051,0.5582572221755981
1782846765853962500,5.69496240234375,0.050847530364990234,0.43335261940956116,0.448874831199646
1782846765863967500,5.704967529296875,0.08786732703447342,0.24889971315860748,0.22630222141742706
1782846765873972500,5.714972412109375,0.0282265804708004,0.19971132278442383,-0.23137450218200684
1782846765883976200,5.72497607421875,-0.07931346446275711,0.21639123558998108,-0.9066032767295837
1782846765893981200,5.734981201171875,-0.3199986517429352,0.10289543867111206,-1.348911166191101
1782846765903986200,5.744986083984375,-0.5096654891967773,-0.04812736436724663,-1.398736596107483
1782846765913990100,5.754990234375,-0.42035531997680664,-0.246288001537323,-1.3415110111236572
1782846765923995100,5.7649951171875,-0.07727491855621338,-0.48653921484947205,-1.2425825595855713
1782846765934000000,5.775000244140625,0.23652203381061554,-0.7199410200119019,-0.951945960521698
1782846765944004400,5.78500439453125,0.3156171143054962,-0.8354809284210205,-0.5034112930297852
1782846765954009300,5.79500927734375,0.1500631421804428,-0.8090318441390991,-0.00013207830488681793
1782846765964014300,5.805014404296875,-0.13061219453811646,-0.6361945271492004,0.46311599016189575
1782846765974018300,5.815018310546875,-0.3528834879398346,-0.29408666491508484,0.6856136322021484
1782846765984023300,5.825023193359375,-0.4453718662261963,0.07967493683099747,0.46173661947250366
1782846765994028300,5.8350283203125,-0.4453354775905609,0.18057477474212646,-0.09592549502849579
1782846766004032300,5.8450322265625,-0.42678147554397583,-0.03450929373502731,-0.7136520743370056
1782846766014037200,5.855037353515625,-0.3793291449546814,-0.28439396619796753,-1.1934024095535278
1782846766024042200,5.865042236328125,-0.2856862545013428,-0.4226517081260681,-1.4487347602844238
1782846766034046500,5.87504638671875,-0.1797339767217636,-0.4140562117099762,-1.5047507286071777
1782846766044051500,5.885051513671875,-0.07056700438261032,-0.31100812554359436,-1.3448313474655151
1782846766054056400,5.895056396484375,0.05073811486363411,-0.17125903069972992,-1.0053040981292725
1782846766064060200,5.90506005859375,0.1798711121082306,-0.015387998893857002,-0.6054326295852661
1782846766074065200,5.915065185546875,0.29192623496055603,0.13564427196979523,-0.2474871426820755
1782846766084070100,5.925070068359375,0.39380916953086853,0.22907274961471558,0.03205554932355881
1782846766094074400,5.935074462890625,0.47869133949279785,0.24706758558750153,0.2399630844593048
1782846766104079400,5.945079345703125,0.5254026651382446,0.19861216843128204,0.38406112790107727
1782846766114084400,5.95508447265625,0.49812549352645874,0.11739734560251236,0.4718567430973053
1782846766124088300,5.96508837890625,0.40179577469825745,0.07209803909063339,0.5062972903251648
1782846766134093300,5.97509326171875,0.265593558549881,0.08979447931051254,0.5074135661125183
1782846766144098300,5.985098388671875,0.12800559401512146,0.17278337478637695,0.4885381758213043
1782846766154102300,5.995102294921875,0.026066957041621208,0.2949307858943939,0.45230114459991455
1782846766164107300,6.005107177734375,-0.027388278394937515,0.4232810437679291,0.4027208089828491
1782846766174112300,6.0151123046875,-0.04347141832113266,0.528136670589447,0.34426021575927734
1782846766184116500,6.025116455078125,-0.03335859254002571,0.5626131892204285,0.28896793723106384
1782846766194121500,6.03512158203125,0.0025533875450491905,0.48893794417381287,0.22602175176143646
1782846766204126500,6.04512646484375,0.04406461492180824,0.3000878691673279,0.15173926949501038
1782846766214130400,6.05513037109375,0.07903335988521576,0.05033202841877937,0.04473802074790001
1782846766224135400,6.065135498046875,0.07121937721967697,-0.17284007370471954,-0.09111009538173676
1782846766234140400,6.075140380859375,0.029165135696530342,-0.30988582968711853,-0.22592969238758087
1782846766244144400,6.085144287109375,-0.021176863461732864,-0.34518736600875854,-0.3108222186565399
1782846766254149400,6.0951494140625,-0.06411857157945633,-0.3100149929523468,-0.33546942472457886
1782846766264154400,6.105154296875,-0.10388489067554474,-0.24988506734371185,-0.28596606850624084
1782846766274158300,6.115158447265625,-0.15136875212192535,-0.19752898812294006,-0.17562708258628845
1782846766284163300,6.125163330078125,-0.20415979623794556,-0.17496854066848755,-0.04351351782679558
1782846766294168300,6.135168212890625,-0.2484467774629593,-0.1582716554403305,0.09206210821866989
1782846766304172300,6.14517236328125,-0.31670892238616943,-0.19459930062294006,0.18859849870204926
1782846766314177300,6.15517724609375,-0.3803805112838745,-0.22531992197036743,0.22363439202308655
1782846766324182300,6.165182373046875,-0.4526374042034149,-0.1631452441215515,0.2190854549407959
1782846766334186200,6.175186279296875,-0.5202928185462952,-0.032381292432546616,0.16790618002414703
1782846766344191200,6.185191162109375,-0.5887288451194763,0.22159504890441895,0.1078827753663063
1782846766354196200,6.1951962890625,-0.6572983264923096,0.5899865627288818,0.008283996023237705
1782846766364200400,6.205200439453125,-0.6569989919662476,0.9508634805679321,-0.11339503526687622
1782846766374205400,6.215205322265625,-0.5314842462539673,1.169873833656311,-0.22567445039749146
1782846766384210400,6.22521044921875,-0.2899322807788849,1.1341854333877563,-0.3028506934642792
1782846766394214400,6.23521435546875,-0.01390964724123478,0.8883751034736633,-0.3737468719482422
1782846766404219400,6.245219482421875,0.20613937079906464,0.5141083002090454,-0.40478652715682983
1782846766414224400,6.255224365234375,0.30836015939712524,0.16713100671768188,-0.4039224684238434
1782846766424228400,6.265228271484375,0.31018388271331787,-0.004602392669767141,-0.38537994027137756
1782846766434233300,6.2752333984375,0.2756774127483368,-0.002041767118498683,-0.312361478805542
1782846766444238300,6.28523828125,0.2558229863643646,0.11916082352399826,-0.15850694477558136
1782846766454243300,6.295243408203125,0.2732105851173401,0.2853480875492096,0.036828894168138504
1782846766464247300,6.305247314453125,0.31185731291770935,0.40982022881507874,0.21748016774654388
1782846766474252300,6.315252197265625,0.3333992660045624,0.5078974962234497,0.3416120409965515
1782846766484257300,6.32525732421875,0.3140183687210083,0.6164463758468628,0.3406887352466583
1782846766494261200,6.33526123046875,0.2550757825374603,0.7325766682624817,0.18515631556510925
1782846766504266200,6.345266357421875,0.14604464173316956,0.7787042260169983,-0.03612573817372322
1782846766514270200,6.355270263671875,0.020949000492691994,0.6880888938903809,-0.21245810389518738
1782846766524275200,6.365275146484375,-0.11583973467350006,0.4756168723106384,-0.29339343309402466
1782846766534280200,6.3752802734375,-0.2575526237487793,0.21022534370422363,-0.28664371371269226
1782846766544285200,6.38528515625,-0.363598108291626,-0.050282664597034454,-0.22212089598178864
1782846766554289400,6.395289306640625,-0.3913348615169525,-0.30671238899230957,-0.16681669652462006
1782846766564294400,6.40529443359375,-0.33997687697410583,-0.5259318351745605,-0.13638848066329956
1782846766574299400,6.41529931640625,-0.23030203580856323,-0.6774855256080627,-0.13955999910831451
1782846766584303400,6.425303466796875,-0.07043833285570145,-0.7410869002342224,-0.16751733422279358
1782846766594308400,6.435308349609375,0.11854203790426254,-0.7565656900405884,-0.1948891580104828
1782846766604313300,6.445313232421875,0.2825762629508972,-0.7142757773399353,-0.20969180762767792
1782846766614317300,6.4553173828125,0.4112820327281952,-0.6180107593536377,-0.19889535009860992
1782846766624322300,6.465322265625,0.48902371525764465,-0.4650968313217163,-0.1395082026720047
1782846766634327300,6.475327392578125,0.5183658599853516,-0.29050585627555847,-0.047389186918735504
1782846766644331300,6.485331298828125,0.5029631853103638,-0.12055463343858719,0.06931985169649124
1782846766654336300,6.495336181640625,0.46951472759246826,0.013979475945234299,0.22688737511634827
1782846766664341200,6.50534130859375,0.4453766345977783,0.08475511521100998,0.4251604974269867
1782846766674345200,6.51534521484375,0.4309280812740326,0.11555390805006027,0.6396254897117615
1782846766684350200,6.52535009765625,0.4073481857776642,0.13718090951442719,0.8047979474067688
1782846766694355200,6.535355224609375,0.3576020300388336,0.14768920838832855,0.8763319849967957
1782846766704359200,6.545359130859375,0.287522554397583,0.11720453202724457,0.8301565051078796
1782846766714364400,6.555364501953125,0.19994746148586273,0.03817049786448479,0.6719071269035339
1782846766724369400,6.565369384765625,0.11508370190858841,-0.07533502578735352,0.4454993009567261
1782846766734373400,6.575373291015625,0.06092977151274681,-0.20620189607143402,0.18207336962223053
1782846766744378400,6.58537841796875,0.03096441738307476,-0.3258036673069,-0.06918176263570786
1782846766754383400,6.59538330078125,0.01991293579339981,-0.4276917278766632,-0.26851126551628113
1782846766764387300,6.60538720703125,0.015584766864776611,-0.5131560564041138,-0.3765559792518616
1782846766774392300,6.615392333984375,0.014203905127942562,-0.5576157569885254,-0.39117497205734253
1782846766784397300,6.625397216796875,0.01614721491932869,-0.5570247769355774,-0.32270216941833496
1782846766794400300,6.635400146484375,-0.011536438018083572,-0.46331173181533813,-0.16554105281829834
1782846766804405200,6.6454052734375,-0.06259962171316147,-0.2958287298679352,0.059896327555179596
1782846766814410200,6.65541015625,-0.1168610155582428,-0.08129525184631348,0.31945037841796875
1782846766824414200,6.665414306640625,-0.15675143897533417,0.14383454620838165,0.5898736119270325
1782846766834419200,6.675419189453125,-0.1435985118150711,0.39432090520858765,0.8294886350631714
1782846766844424200,6.685424072265625,-0.09219871461391449,0.6179454922676086,1.0028406381607056
1782846766854428400,6.695428466796875,-0.02896633744239807,0.7501094937324524,1.1236512660980225
1782846766864433400,6.705433349609375,0.032746825367212296,0.7633786797523499,1.1738688945770264
1782846766874438400,6.7154384765625,0.07929900288581848,0.6541037559509277,1.121375322341919
1782846766884442000,6.725442138671875,0.12001021206378937,0.3927419185638428,0.9564290046691895
1782846766894447000,6.735447021484375,0.09248224645853043,0.10226000100374222,0.7008793950080872
1782846766904452000,6.7454521484375,-0.017041850835084915,-0.06893118470907211,0.24901767075061798
1782846766914456000,6.7554560546875,-0.20636510848999023,-0.16645847260951996,-0.42288193106651306
1782846766924461000,6.7654609375,-0.4599505066871643,-0.3100840747356415,-0.933243453502655
1782846766934466000,6.775466064453125,-0.5847028493881226,-0.4046582579612732,-1.1239306926727295
1782846766944470300,6.78547021484375,-0.4325612485408783,-0.4623444676399231,-1.2375885248184204
1782846766954475300,6.795475341796875,-0.11350459605455399,-0.5873478055000305,-1.2087393999099731
1782846766964480300,6.805480224609375,0.13878516852855682,-0.712243914604187,-0.9209128618240356
1782846766974484200,6.815484130859375,0.12592990696430206,-0.7589870691299438,-0.3594408333301544
1782846766984489200,6.8254892578125,-0.11547604948282242,-0.7150989770889282,0.3225798010826111
1782846766994494200,6.835494140625,-0.30416181683540344,-0.5739485621452332,0.5580896139144897
1782846767004498200,6.845498291015625,-0.2726832628250122,-0.5431674718856812,0.14678913354873657
1782846767014503200,6.855503173828125,-0.08038081228733063,-0.6823863387107849,-0.5523425340652466
1782846767024508200,6.865508056640625,0.1595790535211563,-0.7669326663017273,-1.1853047609329224
1782846767034512400,6.875512451171875,0.3201320171356201,-0.5625846982002258,-1.5933881998062134
1782846767044517400,6.885517333984375,0.3336254358291626,-0.19884297251701355,-1.6368043422698975
1782846767054522400,6.8955224609375,0.3224808871746063,0.12266726791858673,-1.3832272291183472
1782846767064526000,6.905526123046875,0.3140762150287628,0.30162397027015686,-0.9553784132003784
1782846767074531300,6.91553125,0.29397886991500854,0.35724249482154846,-0.49145856499671936
1782846767084536300,6.925536376953125,0.2640814483165741,0.34462791681289673,-0.13035948574543
1782846767094540000,6.9355400390625,0.2330724596977234,0.339068740606308,0.10150915384292603
1782846767104545000,6.945544921875,0.22243233025074005,0.275368869304657,0.22040438652038574
1782846767114550000,6.955550048828125,0.22630766034126282,0.14602093398571014,0.2769800126552582
1782846767124554200,6.96555419921875,0.23019002377986908,-0.008060780353844166,0.30608198046684265
1782846767134559200,6.975559326171875,0.21035239100456238,-0.13891273736953735,0.3302430808544159
1782846767144564200,6.985564208984375,0.1636277735233307,-0.19914065301418304,0.36135733127593994
1782846767154568200,6.995568115234375,0.09114418923854828,-0.1912039816379547,0.4094100892543793
1782846767164573200,7.0055732421875,0.008294316940009594,-0.1343896985054016,0.4636349678039551
1782846767174578200,7.015578125,-0.07909011840820312,-0.037799231708049774,0.5050135850906372
1782846767184582100,7.02558203125,-0.1421457976102829,0.07416325807571411,0.5146462321281433
1782846767194587100,7.035587158203125,-0.17325957119464874,0.1847546100616455,0.4763074517250061
1782846767204592000,7.045592041015625,-0.17072318494319916,0.22662696242332458,0.4043150246143341
1782846767214596400,7.055596435546875,-0.11968417465686798,0.17913934588432312,0.2989051342010498
1782846767224601300,7.065601318359375,-0.05800296366214752,0.06291738897562027,0.1687716394662857
1782846767234606300,7.0756064453125,-0.009623774327337742,-0.06210211291909218,0.027345554903149605
1782846767244610300,7.0856103515625,0.010657528415322304,-0.14548754692077637,-0.0977599024772644
1782846767254615300,7.095615234375,0.014881995506584644,-0.16845004260540009,-0.18693408370018005
1782846767264620300,7.105620361328125,-0.0010016305604949594,-0.15257202088832855,-0.2431992143392563
1782846767274624000,7.1156240234375,-0.0277766864746809,-0.1270083487033844,-0.2838149070739746
1782846767284629000,7.12562890625,-0.07174254953861237,-0.09102743119001389,-0.3075612485408783
1782846767294634000,7.135634033203125,-0.11003386229276657,-0.07607278227806091,-0.28512129187583923
1782846767304638200,7.14563818359375,-0.14751839637756348,-0.10794869065284729,-0.2246081531047821
1782846767314643200,7.155643310546875,-0.19956278800964355,-0.15332123637199402,-0.14429166913032532
1782846767324648200,7.165648193359375,-0.261430948972702,-0.17155775427818298,-0.06292863190174103
1782846767334652200,7.175652099609375,-0.3411615788936615,-0.19190651178359985,0.029193975031375885
1782846767344657200,7.1856572265625,-0.4335080087184906,-0.23315462470054626,0.12525072693824768
1782846767354662100,7.195662109375,-0.5332929491996765,-0.21723876893520355,0.21456968784332275
1782846767364666000,7.205666015625,-0.6434646844863892,-0.12244141846895218,0.3051437735557556
1782846767374671000,7.215671142578125,-0.7232885360717773,-0.027609379962086678,0.38446393609046936
1782846767384676000,7.225676025390625,-0.7486953735351562,0.07674285769462585,0.43469300866127014
1782846767394680300,7.235680419921875,-0.7290375232696533,0.209689661860466,0.43282297253608704
1782846767404685300,7.245685302734375,-0.6372708678245544,0.3760213553905487,0.3800029158592224
1782846767414690300,7.255690185546875,-0.4756453335285187,0.5334717631340027,0.3409295082092285
1782846767424694300,7.2656943359375,-0.3020288050174713,0.5905952453613281,0.35902857780456543
1782846767434699300,7.27569921875,-0.16965368390083313,0.5347949862480164,0.46428319811820984
1782846767444704300,7.285704345703125,-0.07882656157016754,0.39313557744026184,0.6556118130683899
1782846767454708200,7.295708251953125,-0.04408842325210571,0.2087705284357071,0.8256456255912781
1782846767464713200,7.305713134765625,-0.05531284585595131,0.09787943959236145,0.8683595061302185
1782846767474718200,7.31571826171875,-0.06720410287380219,0.04712604358792305,0.7428508400917053
1782846767484722200,7.32572216796875,-0.05110769346356392,-0.008704199455678463,0.49161723256111145
1782846767494727200,7.33572705078125,-0.011776609346270561,-0.03587955981492996,0.1730954498052597
1782846767504732200,7.345732177734375,0.060468561947345734,-0.03354210406541824,-0.1517297774553299
1782846767514736000,7.355736083984375,0.1495436131954193,-0.021978460252285004,-0.4139912724494934
1782846767524741000,7.3657412109375,0.20346170663833618,-0.015839606523513794,-0.5826750993728638
1782846767534746000,7.37574609375,0.2258600890636444,0.013344377279281616,-0.6476213335990906
1782846767544750300,7.385750244140625,0.2369937002658844,0.04000155255198479,-0.5732144713401794
1782846767554755300,7.39575537109375,0.23092547059059143,0.028709683567285538,-0.3588428795337677
1782846767564760300,7.40576025390625,0.23860841989517212,-0.040933042764663696,-0.062019988894462585
1782846767574764300,7.415764404296875,0.2636592984199524,-0.13966208696365356,0.2198117971420288
1782846767584769300,7.425769287109375,0.2938169240951538,-0.22596581280231476,0.41289737820625305
1782846767594774300,7.435774169921875,0.3582930266857147,-0.28218361735343933,0.4916730523109436
1782846767604778200,7.4457783203125,0.46562108397483826,-0.3393912613391876,0.43830543756484985
1782846767614783200,7.455783203125,0.6051539182662964,-0.3470000922679901,0.2828141152858734
1782846767624788200,7.465788330078125,0.7428348064422607,-0.33570533990859985,0.08682730793952942
1782846767634792200,7.475792236328125,0.8319027423858643,-0.2800060212612152,-0.09724949300289154
1782846767644797200,7.485797119140625,0.8506964445114136,-0.1760612279176712,-0.20618663728237152
1782846767654802200,7.49580224609375,0.7858222126960754,-0.071273572742939,-0.23900088667869568
1782846767664806100,7.50580615234375,0.6701192855834961,-0.0228586345911026,-0.23022682964801788
1782846767674811100,7.51581103515625,0.5607870817184448,-0.05767946317791939,-0.20918282866477966
1782846767684816100,7.525816162109375,0.48364460468292236,-0.12330455332994461,-0.18176479637622833
1782846767694820000,7.535820068359375,0.449095755815506,-0.12962356209754944,-0.12341475486755371
1782846767704825000,7.5458251953125,0.45501676201820374,-0.047637615352869034,-0.020273195579648018
1782846767714830000,7.555830078125,0.46135473251342773,0.07045367360115051,0.12644247710704803
1782846767724834300,7.565834228515625,0.42871877551078796,0.23544155061244965,0.2912527322769165
1782846767734839300,7.57583935546875,0.35900259017944336,0.4080227017402649,0.4087234139442444
1782846767744844300,7.58584423828125,0.2848982810974121,0.5135350227355957,0.42114147543907166
1782846767754848300,7.59584814453125,0.21662364900112152,0.5457517504692078,0.33202993869781494
1782846767764853200,7.605853271484375,0.13307256996631622,0.5009549856185913,0.1509341597557068
1782846767774858200,7.615858154296875,0.04494083300232887,0.397827684879303,-0.08917725086212158
1782846767784862200,7.6258623046875,-0.03774632140994072,0.2832329273223877,-0.3128676116466522
1782846767794867000,7.635866943359375,-0.09809193015098572,0.1577635407447815,-0.475372314453125
1782846767804872000,7.645871826171875,-0.13690271973609924,0.04141935706138611,-0.5492460131645203
1782846767814876200,7.655876220703125,-0.13788741827011108,-0.033293433487415314,-0.5278216004371643
1782846767824881200,7.665881103515625,-0.1154247298836708,-0.06699573993682861,-0.42613035440444946
1782846767834886100,7.67588623046875,-0.06636711955070496,-0.07528795301914215,-0.28620949387550354
1782846767844890000,7.68589013671875,-0.004036894533783197,-0.035359714180231094,-0.10011421144008636
1782846767854895000,7.69589501953125,0.11016301065683365,0.04369063302874565,0.1348569542169571
1782846767864900000,7.705900146484375,0.09043325483798981,0.1372498720884323,0.343939870595932
1782846767874904000,7.715904052734375,0.034850455820560455,0.2862595319747925,0.4976351261138916
1782846767884909000,7.725908935546875,-0.003341933712363243,0.5081019401550293,0.6676004528999329
1782846767894914000,7.7359140625,-0.029755141586065292,0.7758018970489502,0.81219881772995
1782846767904918300,7.745918212890625,0.02760854922235012,1.159430742263794,0.9435245990753174
1782846767914923300,7.75592333984375,0.15500487387180328,1.3922615051269531,1.002800464630127
1782846767924928300,7.76592822265625,0.3352942168712616,1.3735014200210571,0.9427805542945862
1782846767934932200,7.77593212890625,0.5349704623222351,1.1706268787384033,0.7729921340942383
1782846767944937200,7.785937255859375,0.6596426367759705,0.915359616279602,0.5226137042045593
1782846767954942200,7.795942138671875,0.7086367011070251,0.9016995429992676,0.38733696937561035
1782846767964946000,7.80594580078125,0.6624792814254761,0.8139523863792419,0.2607593238353729
1782846767974951000,7.815950927734375,0.5190160274505615,0.8092734217643738,-0.10874667763710022
1782846767984956000,7.825955810546875,0.36922866106033325,0.8141717314720154,-0.4571395218372345
1782846767994960100,7.835960205078125,0.18769513070583344,0.6892439126968384,-0.6098700761795044
1782846768004965000,7.845965087890625,0.06256092339754105,0.6142637133598328,-0.7257834076881409
1782846768014970000,7.85597021484375,0.09163974225521088,0.5298026204109192,-0.8499313592910767
1782846768024974000,7.86597412109375,0.18752339482307434,0.29488810896873474,-0.8331920504570007
1782846768034979000,7.87597900390625,0.21734967827796936,-0.0727592185139656,-0.5864637494087219
1782846768044984000,7.885984130859375,0.14392898976802826,-0.3635164797306061,-0.1635601669549942
1782846768054988000,7.895988037109375,-0.001005743513815105,-0.4444703459739685,0.3000990152359009
1782846768064993000,7.905992919921875,-0.09786864370107651,-0.3540269732475281,0.6435514092445374
1782846768074998000,7.915998046875,-0.09917367994785309,-0.19234226644039154,0.6903619766235352
1782846768085002200,7.926002197265625,-0.07222674787044525,-0.17538724839687347,0.43535342812538147
1782846768095007200,7.93600732421875,-0.08907721936702728,-0.2733112871646881,-0.010134516283869743
1782846768105012200,7.94601220703125,-0.15658780932426453,-0.41330859065055847,-0.4878544807434082
1782846768115016200,7.95601611328125,-0.2203480303287506,-0.48161521553993225,-0.8621751070022583
1782846768125021200,7.966021240234375,-0.24471035599708557,-0.47099798917770386,-1.0798295736312866
1782846768135026200,7.976026123046875,-0.22623613476753235,-0.36710619926452637,-1.1736525297164917
1782846768145030100,7.986030029296875,-0.17131270468235016,-0.20298945903778076,-1.125588059425354
1782846768155035100,7.99603515625,-0.08454695343971252,-0.06311777234077454,-0.9619482755661011
1782846768165040000,8.0060400390625,0.020548034459352493,0.018591204658150673,-0.7621262073516846
1782846768175044000,8.016044189453124,0.10092362761497498,-0.030228998512029648,-0.571112871170044
1782846768185049000,8.026049072265625,0.12632538378238678,-0.14969733357429504,-0.4222562909126282
1782846768195054000,8.03605419921875,0.13005098700523376,-0.24058257043361664,-0.30691999197006226
1782846768205058000,8.04605810546875,0.11815305054187775,-0.3256889283657074,-0.18098390102386475
1782846768215063000,8.05606298828125,0.0907362625002861,-0.3530307710170746,-0.0255716722458601
1782846768225068000,8.066068115234375,0.05533726140856743,-0.35334715247154236,0.12216959148645401
1782846768235072300,8.076072265625,0.007493764162063599,-0.34474846720695496,0.22763213515281677
1782846768245077200,8.0860771484375,-0.043006960302591324,-0.3086104393005371,0.262994647026062
1782846768255082200,8.096082275390625,-0.09823121875524521,-0.24281077086925507,0.23860463500022888
1782846768265086200,8.106086181640626,-0.1437811255455017,-0.1687791645526886,0.17293427884578705
1782846768275091200,8.11609130859375,-0.17349611222743988,-0.13262680172920227,0.08806061744689941
1782846768285096200,8.12609619140625,-0.1968245953321457,-0.14946436882019043,-0.0015097465366125107
1782846768295100200,8.13610009765625,-0.2046612650156021,-0.19248048961162567,-0.08459340035915375
1782846768305105200,8.146105224609375,-0.19131909310817719,-0.21736612915992737,-0.13829471170902252
1782846768315110100,8.156110107421876,-0.15777935087680817,-0.21608290076255798,-0.14457093179225922
1782846768325114000,8.166114013671875,-0.1169123500585556,-0.20680125057697296,-0.07923160493373871
1782846768335119000,8.176119140625,-0.08439739048480988,-0.23418672382831573,0.056170862168073654
1782846768345124000,8.1861240234375,-0.0714578926563263,-0.2539750635623932,0.24129757285118103
1782846768355128000,8.196128173828125,-0.08013047277927399,-0.2343963086605072,0.4239289164543152
1782846768365133000,8.206133056640626,-0.11926668882369995,-0.22178784012794495,0.5684834122657776
1782846768375138000,8.216137939453125,-0.15581336617469788,-0.20883728563785553,0.6545014381408691
1782846768385142000,8.22614208984375,-0.1599939912557602,-0.14842401444911957,0.7031129002571106
1782846768395147000,8.23614697265625,-0.13312983512878418,-0.07412335276603699,0.7237992882728577
1782846768405152000,8.246152099609375,-0.0891605094075203,0.025712963193655014,0.7053936123847961
1782846768415156200,8.25615625,-0.042996954172849655,0.09248007088899612,0.6484549641609192
1782846768425161200,8.2661611328125,-0.004371529445052147,0.12569448351860046,0.5896246433258057
1782846768435166200,8.276166259765626,0.021568624302744865,0.1274345964193344,0.5679681897163391
1782846768445170200,8.286170166015625,0.012469934299588203,0.05535534396767616,0.6380471587181091
1782846768455175200,8.296175048828125,-0.0107863275334239,-0.058127209544181824,0.7628894448280334
1782846768465180200,8.30618017578125,-0.04665031656622887,-0.17173552513122559,0.870888888835907
1782846768475184000,8.31618408203125,-0.08539921045303345,-0.2708560526371002,0.8974353671073914
1782846768485189000,8.326189208984376,-0.1347137689590454,-0.3402756154537201,0.8269721269607544
1782846768495194000,8.336194091796875,-0.15813079476356506,-0.3445625603199005,0.6817980408668518
1782846768505198000,8.346197998046875,-0.11637402325868607,-0.2609952390193939,0.47175052762031555
1782846768515203000,8.356203125,-0.023025209084153175,-0.14016088843345642,0.21947677433490753
1782846768525207000,8.36620703125,0.0979669913649559,-0.01932768151164055,-0.025677859783172607
1782846768535212000,8.3762119140625,0.21556876599788666,0.05821025371551514,-0.19330382347106934
1782846768545217000,8.386217041015625,0.3067362308502197,0.10783373564481735,-0.2629300355911255
1782846768555221000,8.396220947265626,0.34080660343170166,0.05732268840074539,-0.29591041803359985
1782846768565226000,8.40622607421875,0.3098936975002289,-0.06189824268221855,-0.35187968611717224
1782846768575231000,8.41623095703125,0.28700029850006104,-0.3612128496170044,-0.35968485474586487
1782846768585235200,8.426235107421874,0.2790909707546234,-0.4633179008960724,-0.3187991976737976
1782846768595240200,8.436240234375,0.23182210326194763,-0.4674336910247803,0.01582905277609825
1782846768605245200,8.4462451171875,0.21602556109428406,-0.5141492486000061,0.27538207173347473
1782846768615249200,8.456249267578125,0.21483619511127472,-0.6794239282608032,0.41578924655914307
1782846768625254100,8.466254150390625,0.19494573771953583,-0.816627025604248,0.4967057406902313
1782846768635259100,8.476259033203124,0.15951360762119293,-0.8796573281288147,0.5514705181121826
1782846768645263000,8.48626318359375,0.13681362569332123,-0.9372261166572571,0.524760365486145
1782846768655268000,8.49626806640625,0.12001773715019226,-1.046832799911499,0.4162905514240265
1782846768665273000,8.506273193359375,0.14107827842235565,-1.0992954969406128,0.3903907835483551
1782846768675277300,8.51627734375,0.17142139375209808,-1.0126909017562866,0.5066008567810059
