time,seconds_elapsed,z,y,x
1782846147039678500,0.068678466796875,-0.004728782087564468,0.007782835895940661,-0.014881904478534123
1782846147049683500,0.078683349609375,0.0961333925873041,0.0201821343450807,0.006457332046376541
1782846147059688400,0.0886884765625,0.1684130313783884,0.0007577960973605513,0.017642229187476915
1782846147069693400,0.098693359375,0.06201309632062912,0.003242963976599276,-0.013148023040767292
1782846147079698700,0.10869873046875,0.03896773629784584,0.0011422471039928496,-0.011688519831281155
1782846147089703700,0.11870361328125,0.1266588792324066,0.0045145000160671765,0.023218093091051557
1782846147099708700,0.128708740234375,0.12411620901226997,0.005227580188866704,0.010604119844769593
1782846147109714000,0.1387138671875,0.07263561262190342,0.014516546331439166,-0.006355346676358021
1782846147119719000,0.148718994140625,0.06769581813216209,0.001581990228127688,-0.0055776220358209685
1782846147129724000,0.158723876953125,0.12291852366030215,-0.0024315745284780857,0.006290868888690602
1782846147139729000,0.16872900390625,0.10032441453635692,-0.0014541991299949586,0.007179360427323263
1782846147149734000,0.17873388671875,0.06919803938865661,-0.0006692227647639811,-0.015607054115040226
1782846147159739000,0.18873876953125,0.09583645546734333,-0.0016804091013036667,-0.00038391900038113814
1782846147169744000,0.198743896484375,0.11379647504985332,-0.00015864289412274957,0.001983515667147003
1782846147179748900,0.208748779296875,0.09000175796449184,0.0036532435442321,0.005357042654277756
1782846147189753900,0.21875390625,0.07772679828107357,0.0029549408154562113,-0.02493659429659601
1782846147199758800,0.2287587890625,0.0971796867698431,0.01566787179103121,-0.0005669131677597761
1782846147209763800,0.238763916015625,0.0970312182098627,0.004519084859639406,-0.006447792466473765
1782846147219768800,0.248768798828125,0.07967208712995053,0.008607230956107378,-0.0032814739226596427
1782846147229773800,0.25877392578125,0.08850187479555606,-0.0011794921081513165,-0.00026715390305034816
1782846147239778800,0.26877880859375,0.10660744032859802,-0.0038151926402933893,0.005749676967365667
1782846147249783800,0.27878369140625,0.10630582703351973,-0.0032676234938204284,-0.006728203143319115
1782846147259788800,0.288788818359375,0.0846048673570156,-0.00329504122370854,0.002120243556983769
1782846147269793800,0.298793701171875,0.09448387181460857,-0.0011248758440837263,-0.002818016562797129
1782846147279798800,0.308798828125,0.10855623630881309,0.00188066264744848,-0.015497835286636836
1782846147289803800,0.3188037109375,0.10496434929668903,-0.015741631146986037,-0.0004927473864285275
1782846147299808800,0.328808837890625,0.09389116661846637,-0.00199448001915589,0.0023537189527181907
1782846147309813800,0.338813720703125,0.09927870487570763,0.005768646529316902,-0.010863976357353386
1782846147319818800,0.34881884765625,0.09089724549949169,0.002133961555082351,-0.012889824195730034
1782846147329823700,0.35882373046875,0.08805354650616645,0.0021586393386125564,0.012298326859273947
1782846147339828700,0.368828857421875,0.09523556696474551,0.0005320245174691081,-0.003191103641910013
1782846147349833700,0.378833740234375,0.08760755630433559,0.003072959438245743,-0.00788759317835793
1782846147359838700,0.388838623046875,0.08820727576315403,0.003974493121542036,0.004599726047529839
1782846147369843700,0.39884375,0.09777823718488216,0.005278744120523334,-0.0006340646864147856
1782846147379848700,0.4088486328125,0.08999766631126403,-0.0010504954336211085,-0.006449219521868508
1782846147389853700,0.418853759765625,0.10226561173200607,-0.010805161125492305,-0.009751857246854342
1782846147399858700,0.428858642578125,0.0904395648598671,-0.011899513967148959,0.0047992763407761225
1782846147409863700,0.43886376953125,0.07667056722640991,-0.010760591331403701,0.006219057177938521
1782846147419868700,0.44886865234375,0.09642214640080929,-0.00834746577506885,0.002155100241233595
1782846147429873700,0.458873779296875,0.09013561347723006,-0.0024334559583105144,0.005436049007507972
1782846147439878400,0.46887841796875,0.09432195925116539,0.007022464249003678,0.0012981043859850614
1782846147449883400,0.47888330078125,0.0721744248509407,0.0018521306727081535,0.0039007565984735264
1782846147459888400,0.488888427734375,0.08638882816433906,-0.0007889401542954147,-0.006050221683364361
1782846147469893400,0.498893310546875,0.08578910870552063,-0.01958966661095619,-0.0006739583053858951
1782846147479898400,0.5088984375,0.08204699956774711,0.0006664462857879698,-0.004494824917928781
1782846147489903400,0.5189033203125,0.10358780024647712,0.00008017083043232559,-0.004812921273638494
1782846147499908400,0.528908447265625,0.08024491858184338,0.00724768783962354,0.0015016344513162038
1782846147509913300,0.538913330078125,0.09610241292715072,-0.00021177958715707062,0.003907720628799871
1782846147519918300,0.54891845703125,0.08847206417918205,-0.00846723796352744,-0.0033569914108607917
1782846147529923300,0.55892333984375,0.11870002918243408,-0.003897975552920252,-0.00040838215477997437
1782846147539928300,0.56892822265625,0.09011866234242916,0.000007617050874978303,0.001661661018349696
1782846147549933300,0.578933349609375,0.08068857069611549,0.0010486505364067852,-0.00290831606159918
1782846147559938300,0.588938232421875,0.08951602027416229,0.013533764105476439,0.014632089869352057
1782846147569943600,0.598943603515625,0.08757073142528533,0.009636409607063978,0.0015974846247816458
1782846147579948500,0.608948486328125,0.08517769880890846,0.0026818229625001546,0.005811638570961076
1782846147589953500,0.61895361328125,0.0946048678457737,0.001615399307385087,0.008975915854738559
1782846147599958500,0.62895849609375,0.09640285717844962,-0.0007204232290387153,0.004100695050787181
1782846147609963500,0.638963623046875,0.10223872372508049,0.011393372809607534,0.0003329514315468259
1782846147619968500,0.648968505859375,0.09401099360585212,-0.008180402112472802,-0.0013740922316443174
1782846147629973500,0.658973388671875,0.09281447729766368,-0.006694090811163187,-0.002124766751762945
1782846147639978500,0.668978515625,0.08742986164987086,-0.007705459810793399,0.0047683286466635765
1782846147649983500,0.6789833984375,0.09176935215890407,-0.009673289285041391,0.008868788518721703
1782846147659988500,0.688988525390625,0.097157474938035,0.002512768272217363,0.0011160029844613745
1782846147669993500,0.698993408203125,0.09760989488065243,-0.010504150618612765,0.007367297914589289
1782846147679998500,0.70899853515625,0.1038935051947832,0.007050612631253898,0.0089467742419336
1782846147690003500,0.71900341796875,0.08369652034044266,0.00972945818537846,-0.012766903352248482
1782846147700008400,0.729008544921875,0.09177753546535969,-0.0018394173216074703,-0.004382740562292747
1782846147710013400,0.739013427734375,0.08968436257839202,0.01679634609799832,-0.0025630462878849358
1782846147720018700,0.749018798828125,0.10614391447007655,-0.005318875201512128,-0.004668316038022749
1782846147730023700,0.759023681640625,0.0850455968618393,0.0018076887427829205,0.0018287589302752167
1782846147740028700,0.769028564453125,0.1077928507208824,-0.006090608492679893,-0.01886080891371239
1782846147750033700,0.77903369140625,0.0926829598724842,-0.005364869767706841,-0.014468227377417497
1782846147760038700,0.78903857421875,0.09223580062687396,0.0009873488032259047,0.005893298105581197
1782846147770043600,0.799043701171875,0.08071779679059982,0.0029136406906880435,0.0015604999155271798
1782846147780048600,0.809048583984375,0.08341361174583435,0.0014656338394619525,-0.010350097134639509
1782846147790053600,0.8190537109375,0.10182195961773395,0.011359945464041083,0.004784199785941746
1782846147800058600,0.82905859375,0.10885141986310481,0.0015183504073880611,0.010988739814760628
1782846147810063600,0.839063720703125,0.10016951623558998,0.003590425707399845,0.0036305659215431657
1782846147820068600,0.849068603515625,0.08969488397240638,-0.0011846432073041797,-0.010163497654511593
1782846147830073600,0.859073486328125,0.09403262091577053,0.0005654153304174542,-0.004858472881838679
1782846147840078600,0.86907861328125,0.08804536319971085,0.006745528737455606,0.008349844961822964
1782846147850083600,0.87908349609375,0.09926876800358295,-0.007030410093441605,0.002460124769527465
1782846147860088600,0.889088623046875,0.09283318199813366,-0.006075520521402359,0.0025134418423636814
1782846147870093600,0.899093505859375,0.09163958829939364,0.0003581657879054546,0.0025023678925004786
1782846147880098600,0.9090986328125,0.08535480894148349,0.00975651058908552,0.013936442605254706
1782846147890103600,0.919103515625,0.07892097650170325,0.0016422142490744589,0.002946257468790281
1782846147900108500,0.929108642578125,0.07517945188581943,0.0021217413943260908,-0.01470081457387423
1782846147910113500,0.939113525390625,0.09492869297266006,-0.0010162461041472851,0.0018777377547114155
1782846147920118500,0.949118408203125,0.08654781811833381,0.001552070013899356,0.0028033030508551743
1782846147930123500,0.95912353515625,0.08101298034489154,0.0006976634079590439,-0.011683227168233133
1782846147940128500,0.96912841796875,0.08624854291081428,-0.004448248113133013,-0.0009102215965394861
1782846147950133500,0.979133544921875,0.10749649812281131,0.011431567661836744,-0.007079039574717171
1782846147960138500,0.989138427734375,0.09148761260807514,-0.01143998843031004,-0.01762085760588525
1782846147970143500,0.9991435546875,0.09553016599714756,0.008221008117496967,0.0037076725786319
1782846147980148500,1.0091484375,0.07697802574038505,-0.01360175130777061,-0.012791501220676581
1782846147990153500,1.019153564453125,0.08550503106713295,-0.009014569647982716,0.004343198569770902
1782846148000158500,1.029158447265625,0.08939210163354873,-0.0005961757948622107,0.0041171187459141945
1782846148010163500,1.03916357421875,0.09417582877874374,0.008313088581431656,-0.00584245155104436
1782846148020168400,1.04916845703125,0.09207914876043796,0.0098772143593058,-0.0008801415521069429
1782846148030173400,1.05917333984375,0.09313011911809443,-0.0029949257659725842,0.0025907654118724165
1782846148040178400,1.069178466796875,0.09627484688460826,0.0009542502512224018,-0.003103502990270499
1782846148050183400,1.079183349609375,0.09627543140649795,-0.0029714535588398574,-0.0016444838379742577
1782846148060188400,1.0891884765625,0.09866787950098514,0.0024808204976841807,-0.006052845182002056
1782846148070193400,1.099193359375,0.09223112445175648,-0.008773399569559841,0.010868816929252352
1782846148080198400,1.109198486328125,0.09342588719427584,0.0007883008334785699,-0.014784339555306359
1782846148090203600,1.11920361328125,0.10435060131251811,0.004332202251721174,0.002046737646067049
1782846148100208600,1.129208740234375,0.08624620482325554,-0.0006736432115547359,0.0008538723164005205
1782846148110213600,1.139213623046875,0.08070785991847515,-0.014229363420512526,-0.008610660455632023
1782846148120218600,1.149218505859375,0.08879296669661998,0.007240984104201197,-0.013926834526692982
1782846148130223600,1.1592236328125,0.08774550347030162,0.01728100607609376,0.010031149112270214
1782846148140228600,1.169228515625,0.07951894239485263,-0.014599055249430238,-0.011747280264215077
1782846148150233600,1.179233642578125,0.09059387863874435,0.012688545452989638,-0.011108619317784904
1782846148160238600,1.189238525390625,0.08759937299787998,0.01114551726207137,-0.002530395260453224
1782846148170243600,1.19924365234375,0.0973228946328163,0.009921345761977136,0.0187144729453139
1782846148180248600,1.20924853515625,0.08968903875350952,0.006296414996776729,0.0038554310358478684
1782846148190253600,1.219253662109375,0.10195698417425154,-0.006024612318072468,0.004604842897353228
1782846148200258600,1.229258544921875,0.0940291137844324,0.002392228898778558,0.007396542275382671
1782846148210263600,1.239263671875,0.09178922590315342,-0.019678952329605818,-0.004460009332874324
1782846148220268500,1.2492685546875,0.0980722516953945,-0.00046299613555893297,-0.0037971980425878424
1782846148230273500,1.2592734375,0.09956921225488186,0.00849936840115115,-0.015906094143830703
1782846148240278500,1.269278564453125,0.09642799161970615,-0.007423044406529516,0.0019114893272635526
1782846148250283500,1.279283447265625,0.08355798865258693,0.0017242665093392133,0.006247052579850424
1782846148260288500,1.28928857421875,0.08415887715518475,0.0034109774872660634,0.013327151600492651
1782846148270293500,1.29929345703125,0.08804945485293865,-0.006328673298563808,0.0031798584453994407
1782846148280298500,1.309298583984375,0.08131810077130794,0.005068663300108164,0.005865069808228872
1782846148290303500,1.319303466796875,0.09224047680199146,0.004662621516175568,0.004806585147685837
1782846148300308500,1.32930859375,0.10735621286928652,0.009946808996796607,0.007492956421140115
1782846148310313500,1.3393134765625,0.08715513636171818,0.009192702693864702,-0.026423101960727943
1782846148320318500,1.349318359375,0.09193886350691317,0.0019002989296801388,-0.011621475627191829
1782846148330323500,1.359323486328125,0.09447978016138077,0.010416143541596829,-0.0065668614020338275
1782846148340328400,1.369328369140625,0.10016484006047248,-0.005865805027168244,-0.006749978866998571
1782846148350333400,1.37933349609375,0.08894143525660038,-0.0017942082067020236,0.0047341934816213325
1782846148360338400,1.38933837890625,0.08789397203028201,0.007184650807082652,-0.003035465555626433
1782846148370343400,1.399343505859375,0.09702069681584835,-0.012376282899733632,-0.010711754070862662
1782846148380348400,1.409348388671875,0.0989659856647253,-0.006858177065383642,-0.018741541332041377
1782846148390353400,1.419353515625,0.09193301828801631,-0.008770093367621303,-0.009620992842223494
1782846148400358400,1.4293583984375,0.09328092576563357,-0.01061983115384355,-0.004235253816423938
1782846148410363400,1.43936328125,0.08146072411239147,-0.01037550100395456,-0.01668351739026839
1782846148420368400,1.449368408203125,0.09088672410547732,0.0013540084248408674,0.004694299862650223
1782846148430373400,1.459373291015625,0.09686930564641952,0.009273439779877662,-0.019496268689481074
1782846148440378000,1.469378173828125,0.10644435872137546,0.0033540596682578323,-0.005511998037260491
1782846148450383000,1.479383056640625,0.10045417839586734,-0.011103486484941095,-0.0018877865079790352
1782846148460388000,1.48938818359375,0.08578969322741031,-0.01095817799642682,-0.010656185675435699
1782846148470393000,1.49939306640625,0.08668634980618953,-0.0028082988863810895,0.000850897191313561
1782846148480398000,1.509398193359375,0.09311842868030071,0.007197638152819126,-0.006936334035242907
1782846148490403000,1.519403076171875,0.09446633615791797,0.0139091915554367,-0.0034923310612095517
1782846148500408000,1.529407958984375,0.08429097910225392,0.0011716923941858112,-0.0017276275102049111
1782846148510413000,1.5394130859375,0.09252513896226883,0.005046688930317759,0.01180404053630773
1782846148520418000,1.54941796875,0.096717329955101,-0.00494974962817505,-0.002691214128641877
1782846148530423000,1.559423095703125,0.09566694411933421,0.0005722103973850607,-0.005269784495932981
1782846148540428300,1.56942822265625,0.09266834682524204,-0.010067567565944045,-0.009376685525220817
1782846148550433300,1.579433349609375,0.08294248710274696,-0.0065139484712854025,0.00033525755306473
1782846148560438300,1.589438232421875,0.08384148176908493,0.013043825164064764,-0.000765954287641216
1782846148570443300,1.599443359375,0.09596212767362594,0.009137538440525532,-0.00732884276745608
1782846148580448300,1.6094482421875,0.10030278722643851,-0.0031666290710680185,0.0023743438989273272
1782846148590453200,1.619453369140625,0.10344868403673171,0.0030900201709009706,0.006040670687018428
1782846148600458200,1.629458251953125,0.0967132383018732,-0.014935155336000025,-0.01195677656274056
1782846148610463200,1.639463134765625,0.10314590169787406,0.007284512718673795,-0.0029002012538025153
1782846148620468200,1.64946826171875,0.08847966296374797,-0.005359371608681976,-0.007566841357969679
1782846148630473500,1.659473388671875,0.08892799125313758,0.006039462827332318,0.0017009815318742767
1782846148640478500,1.669478515625,0.08518938924670219,-0.0027178623902611434,0.004804342958249617
1782846148650483500,1.6794833984375,0.09297054464221,0.012552297053765505,0.001184353229647968
1782846148660488400,1.689488525390625,0.09416822999417782,0.011334701424930245,0.0036999847458093426
1782846148670493400,1.699493408203125,0.09147767573595046,0.0077419193636626,-0.007979970469814725
1782846148680498400,1.70949853515625,0.08189970005154609,0.017240728864632546,-0.006890841792547143
1782846148690503400,1.71950341796875,0.0949181715786457,0.0024158289700746535,0.004832342926738784
1782846148700508400,1.72950830078125,0.08339432252347469,0.009987506333366036,-0.0040453915168414826
1782846148710513400,1.739513427734375,0.09716273563504219,0.0015450740175321697,0.010806841625925153
1782846148720518400,1.749518310546875,0.08863222317695617,0.0066877158693037925,0.002460718424571678
1782846148730523400,1.7595234375,0.09701075994372367,-0.006727846950292587,0.0014431776957702822
1782846148740528400,1.7695283203125,0.09028057490587234,-0.002254884521011263,-0.010734568690869492
1782846148750533400,1.779533447265625,0.08265197972357273,0.012117138773202895,-0.0005938103078398854
1782846148760538400,1.789538330078125,0.08819149367213248,0.015460165590792893,0.015623050835193135
1782846148770543400,1.79954345703125,0.0854980168044567,-0.004438475637789816,0.028003532702720258
1782846148780548400,1.80954833984375,0.08445172262191772,-0.000491181050427258,0.01513978366316296
1782846148790553300,1.81955322265625,0.07891396223902702,-0.0032642076940275727,0.008277293465554248
1782846148800558300,1.829558349609375,0.09343056336939334,-0.00843300690036267,0.0034694159765029323
1782846148810563300,1.839563232421875,0.08894260430037974,0.00633800738248974,-0.004857408869336359
1782846148820568300,1.849568359375,0.1012140568524599,0.005402918489463627,-0.0034783596180728636
1782846148830573300,1.8595732421875,0.0799690242499113,-0.0010455269975587725,0.0015515905232867226
1782846148840578300,1.869578369140625,0.08281155419945717,0.00017327420767396687,0.00405296518523246
1782846148850583300,1.879583251953125,0.08146715385317801,-0.008940554563701152,-0.01199864065980073
1782846148860588300,1.88958837890625,0.08850304383933544,-0.0022124518850818275,-0.014280018178804312
1782846148870593300,1.89959326171875,0.09673603465557098,0.011269308038521558,0.007853517378820106
1782846148880598300,1.909598388671875,0.08565876032412052,-0.003684223204385489,0.010930025047599337
1782846148890603300,1.919603271484375,0.10002221671938896,-0.008673081000242382,-0.004419679605774581
1782846148900608300,1.929608154296875,0.09044482555687428,0.010653313298337162,-0.002272057134809438
1782846148910613200,1.93961328125,0.08460720544457435,0.011500157652329653,-0.0013661189877428113
1782846148920618200,1.9496181640625,0.08281506133079529,-0.008428403790481388,-0.005438218131707981
1782846148930623200,1.959623291015625,0.08461305066347122,0.0026973858578130602,0.0007845813562977127
1782846148940628200,1.969628173828125,0.0879074160337448,0.001897120591904968,0.017259499780472833
1782846148950634200,1.97963427734375,0.10332125826478004,-0.0028095227290876206,0.009133419387834145
1782846148960638200,1.98963818359375,0.0897024827569723,-0.007234828358050435,-0.006599037505430169
1782846148970644200,1.999644287109375,0.08596271170675754,-0.014739778894372283,-0.0027590757500613105
1782846148980649200,2.009649169921875,0.08192717258036136,-0.018533800882473587,-0.013175662249652668
1782846148990653200,2.019653076171875,0.08432488137185573,0.0055320795607753095,-0.002213187104021199
1782846149000658200,2.029658203125,0.07848843030333519,-0.009247154561150819,0.001417472432355862
1782846149010664200,2.039664306640625,0.07938800949156284,0.009238569395896047,-0.01438144185981946
1782846149020668200,2.049668212890625,0.07878770551085472,0.002861983568686992,-0.004985126902232877
1782846149030673200,2.059673095703125,0.10033493593037128,-0.0073083319856785236,0.01680537650453625
1782846149040678100,2.06967822265625,0.09659341131448745,0.013367339763697236,-0.013779950569022911
1782846149050684200,2.07968408203125,0.09060732264220714,0.0045533341891132294,-0.0077939303954015484
1782846149060689200,2.089689208984375,0.08926058420836926,0.015624288377631454,0.0048008929091272875
1782846149070694100,2.099694091796875,0.09808861830830573,0.0033832126975059506,-0.0026045884412480517
1782846149080699100,2.10969921875,0.09674246439635753,-0.01683855953821912,-0.015370053321658634
1782846149090704100,2.1197041015625,0.08222995491921901,-0.005110127821657806,-0.013187099242408294
1782846149100709000,2.129709228515625,0.10227964025735854,0.009632445817999541,0.015126563421986065
1782846149110714000,2.139714111328125,0.10063187305033207,0.0022500804817304015,-0.005037651673913933
1782846149120719000,2.149718994140625,0.0900076031833887,0.007219301995355636,-0.009090998168347868
1782846149130724000,2.15972412109375,0.09030629386901855,-0.0008308430672623216,-0.012707432816550134
1782846149140729000,2.16972900390625,0.09464519985616207,-0.004700962498877197,-0.0020432190982857716
1782846149150734000,2.179734130859375,0.09075637572407722,0.0019647424680180846,-0.0023800818032585084
1782846149160738300,2.18973828125,0.0952449193149805,0.008305635927338153,-0.004376153274590615
1782846149170744000,2.199744140625,0.08925941516458988,-0.006361808383185416,0.004322587323293555
1782846149180749000,2.2097490234375,0.09973755455911158,-0.0032181765952147543,-0.0015449872525641693
1782846149190754000,2.219754150390625,0.08103519217669963,0.009248816795274615,0.0008636584914755075
1782846149200759300,2.22975927734375,0.08971709580421447,-0.0003386573698371649,0.002420388697471935
1782846149210764300,2.239764404296875,0.09495441193580627,-0.005257409071549773,0.006892730072245467
1782846149220769300,2.249769287109375,0.08298223459124565,0.0034893216867931186,-0.004629290068731643
1782846149230774300,2.259774169921875,0.09989069929420948,0.00189443544447422,-0.01806233146280283
1782846149240779300,2.269779296875,0.10123451511859893,-0.0011354703033342956,-0.009554236332501749
1782846149250784300,2.2797841796875,0.10647066220641135,-0.0027356720415875314,0.005105862638494
1782846149260789200,2.289789306640625,0.0847708715736866,0.004242697337362915,0.007990190469729713
1782846149270794200,2.299794189453125,0.09300152430236339,0.0007478592252358793,0.0005509689632453955
1782846149280799200,2.30979931640625,0.10033201332092284,0.0015957264925353229,-0.0002218260571360588
1782846149290804200,2.31980419921875,0.08686462898254393,-0.007538432680815458,0.0008955651668133214
1782846149300809200,2.329809326171875,0.08851122714579104,0.0028837935416959224,-0.003773929048143327
1782846149310814200,2.339814208984375,0.0877636236488819,-0.00027459742398932576,0.0009997835931135342
1782846149320819200,2.349819091796875,0.09374912779927254,0.005843081738706677,0.008056542837363668
1782846149330824400,2.359824462890625,0.09374795875549316,-0.0002271780856885016,0.006068956066586542
1782846149340829400,2.369829345703125,0.09703881699442862,-0.005418517917394638,-0.008042920737387611
1782846149350834400,2.37983447265625,0.08791150768697262,-0.012457093050982802,-0.0026800830965628846
1782846149360839400,2.38983935546875,0.08821078289449215,-0.001079758060723543,-0.00042364365599351
1782846149370844400,2.399844482421875,0.09120119688212872,0.0009569171323440969,-0.0030670868198852982
1782846149380849400,2.409849365234375,0.08476911800801754,-0.018281159561965615,0.010388164122705348
1782846149390854400,2.4198544921875,0.0894108063340187,0.0034227775229141114,0.013926245438226032
1782846149400859400,2.429859375,0.08701660467386245,0.007454827784281224,-0.0045630541488179
1782846149410864400,2.439864501953125,0.08806231433451175,-0.006246566239371896,0.008086428802262525
1782846149420869400,2.449869384765625,0.0853676684230566,0.013266929862834512,-0.0000417522159172222
1782846149430874400,2.459874267578125,0.09105389736592769,0.011170724768564105,-0.0035184929823502895
1782846149440878800,2.46987890625,0.0895545987188816,-0.006961326912604272,0.0030766789154266006
1782846149450883800,2.4798837890625,0.0823696556508541,-0.0026597389948554337,0.009600059652049095
1782846149460888800,2.489888916015625,0.08520867846906184,0.013544048037473111,-0.0062942413059994574
1782846149470893800,2.499893798828125,0.09403905065655707,-0.013334040282294153,0.00830502857256215
1782846149480898800,2.50989892578125,0.09598609307110309,-0.008926580837275832,0.0015085802153334952
1782846149490903800,2.51990380859375,0.09598726211488247,-0.0043482218047603965,0.006442817180545534
1782846149500908800,2.52990869140625,0.08117489290833473,-0.00007918444974347948,0.009050522310775704
1782846149510913800,2.539913818359375,0.08296820606589317,0.0024207243409007785,-0.017099783740693236
1782846149520918800,2.549918701171875,0.10451543648540973,-0.012376757823769003,0.009415987772436346
1782846149530923800,2.559923828125,0.08551029176414013,0.013874028910510242,-0.000990086466295179
1782846149540928800,2.5699287109375,0.09209902250468731,0.002304039158672094,0.0014588182228966616
1782846149550933800,2.579933837890625,0.08297346676290035,-0.007541939812153577,0.003408459019905422
1782846149560938800,2.589938720703125,0.07668985644876956,-0.0058109878337010736,-0.0010602153933257795
1782846149570943700,2.59994384765625,0.10197510435283183,-0.0002763692559674382,0.0008190544480574317
1782846149580948700,2.60994873046875,0.0874590877443552,0.01445290651069954,0.0009925113188219256
1782846149590953700,2.61995361328125,0.09853343946635723,-0.007883702454529701,-0.0007486149937729351
1782846149600958700,2.629958740234375,0.07878244481384754,0.005826733392104506,-0.0065064661344396875
1782846149610963700,2.639963623046875,0.08058218771219253,-0.00949100978700444,-0.010366781124670524
1782846149620968700,2.64996875,0.08582008836567401,0.00020938670067116618,0.014040206657117232
1782846149630973700,2.6599736328125,0.09016191696226596,0.003677154142782092,-0.0014947320697829127
1782846149640978700,2.669978759765625,0.10527297685444355,-0.016864771691709756,-0.004742753530701156
1782846149650984000,2.67998388671875,0.08701894276142119,-0.0030408290006220338,-0.005586887621087953
1782846149660989000,2.689989013671875,0.09644377371072768,-0.005444565674103796,-0.011939802595053332
1782846149670994000,2.699993896484375,0.10377426272928714,-0.00581244913842529,-0.004715237619401887
1782846149680999000,2.7099990234375,0.10018296023905277,-0.005540536861866712,0.0025313405419467015
1782846149691004000,2.72000390625,0.10407353793680667,0.00764375621881336,-0.011097517968458122
1782846149701009000,2.7300087890625,0.0988350527614355,0.005593015967775136,-0.0024681139964493923
1782846149711014000,2.740013916015625,0.08910919303894042,-0.0013202888183295727,0.0184397545070271
1782846149721019000,2.750018798828125,0.08222703230977058,0.009701127140037714,0.002430725145107135
1782846149731024000,2.76002392578125,0.09345335972309111,0.007150328412372619,-0.021035625352279746
1782846149741028900,2.77002880859375,0.09180909964740276,0.005105999635811894,-0.005155133723875042
1782846149751033900,2.780033935546875,0.07714110734760761,-0.007893164402619003,-0.00225856061570812
1782846149761038800,2.790038818359375,0.08611819452941417,-0.010495053996704518,0.006969617533625569
1782846149771043800,2.8000439453125,0.08582008836567401,0.0012477350387722253,-0.00923324020022992
1782846149781048800,2.810048828125,0.09284954861104487,0.01383168760612607,-0.004408270012482535
1782846149791053800,2.8200537109375,0.08072539557516574,0.009946060078125447,0.0011837892573559655
1782846149801058800,2.830058837890625,0.10332593443989753,-0.004084346704185009,-0.008781539493531453
1782846149811063800,2.840063720703125,0.08731704892516136,0.001984397016558796,-0.0033285005353158336
1782846149821068800,2.85006884765625,0.08566928171813487,-0.0019651625931262967,-0.0004138757472275756
1782846149831073800,2.86007373046875,0.09270166457295417,-0.0008896971150301397,0.016285357518692034
1782846149841078800,2.870078857421875,0.08926058420836926,-0.0012055763974785803,0.005143790345953312
1782846149851083800,2.880083740234375,0.09464636889994144,0.00636595483534038,0.00007848804671084508
1782846149861088800,2.8900888671875,0.09644085110127926,0.007593651733081787,-0.005226564125425648
1782846149871093800,2.90009375,0.0780348413169384,0.002858969627693295,0.00033401087747188284
1782846149881098800,2.9100986328125,0.08222118709087371,-0.005208765890542417,-0.008345435931475367
1782846149891103700,2.920103759765625,0.09733283150494099,0.01266953022526577,-0.009846209582977461
1782846149901108700,2.930108642578125,0.09583587094545364,-0.011691369375493376,0.007615699168108403
1782846149911113700,2.94011376953125,0.07638298245668411,-0.003932900735829025,-0.011861157001426908
1782846149921118700,2.95011865234375,0.08221767995953559,-0.004764876314252615,-0.005354001313820481
1782846149931123700,2.960123779296875,0.08595978909730911,0.005810659040138125,-0.004091813058010302
1782846149941128700,2.970128662109375,0.10137304680645465,0.004883789986185729,-0.005275339737173635
1782846149951133700,2.9801337890625,0.09239303701519966,0.002718867037259042,0.006668243983853608
1782846149961138700,2.990138671875,0.100473467618227,0.006912537601124495,0.013146415605570654
1782846149971143700,3.000143798828125,0.0852104320347309,0.006467369383201003,0.015134098274470306
1782846149981148700,3.010148681640625,0.07862579294741154,-0.006685998836252838,-0.006853144697239622
1782846149991153700,3.020153564453125,0.07114683536887169,-0.004887114454433321,0.001822833796276245
1782846150001158700,3.03015869140625,0.08341711887717247,0.00785433022957295,-0.006757436087669338
1782846150011163600,3.04016357421875,0.09972761768698692,0.01249042906500399,-0.0011270815009018407
1782846150021168600,3.050168701171875,0.10541618471741676,0.0014839366811327636,-0.004809701836667955
1782846150031173600,3.060173583984375,0.08596329622864722,0.006263517374172806,-0.006305443120026029
1782846150041178600,3.0701787109375,0.09763386027812958,-0.010291439449694007,-0.01594093712834874
1782846150051183600,3.08018359375,0.08685995280742645,0.0030273301982320843,0.00727606683402555
1782846150061188600,3.090188720703125,0.08895663282573223,0.007436360545828938,0.02258267669776687
1782846150071193600,3.100193603515625,0.08297171319723129,0.006353223217930645,0.00896418660103809
1782846150081198600,3.110198486328125,0.09958324078023433,-0.004035831387341022,-0.0007271223978837951
1782846150091203600,3.12020361328125,0.0880605607688427,-0.007760368335805833,0.009993972606770693
1782846150101208600,3.13020849609375,0.07729074495136737,-0.000035034780763089655,-0.00871433774252655
1782846150111213600,3.140213623046875,0.08133212929666042,-0.002614511613640934,-0.008265689792728516
1782846150121218600,3.150218505859375,0.09450199199318886,0.0017777502622455357,-0.01198171920775203
1782846150131223800,3.160223876953125,0.0921077903330326,0.011181319227814674,-0.008256764417467638
1782846150141228800,3.170228759765625,0.09600070611834526,0.00315766031332314,0.013686248970159794
1782846150151233800,3.18023388671875,0.08208850062191486,-0.0007660342027433217,0.005231219750945456
1782846150161238800,3.19023876953125,0.09181669843196869,-0.0055092832070775324,-0.0010614917516708372
1782846150171244000,3.200244140625,0.08942249677181244,-0.00670998250003904,0.00432410342694493
1782846150181249000,3.2102490234375,0.08478431557714938,0.004810834347829222,-0.013372011372237466
1782846150191254000,3.22025390625,0.09720306764543056,0.0069580207106657325,0.006270246225770097
1782846150201259000,3.230259033203125,0.0835854611814022,0.004307104343082756,-0.004002666619967204
1782846150211264000,3.240263916015625,0.10109130725562572,0.005129380511399358,0.006017047782836016
1782846150221269000,3.25026904296875,0.10154022006690501,0.005423705549165606,0.013589334784192032
1782846150231274000,3.26027392578125,0.08657704421281814,0.006011076983064413,-0.00024404473881004378
1782846150241279000,3.270279052734375,0.0927133550107479,-0.0007703633179888128,-0.010451354135584552
1782846150251284000,3.280283935546875,0.09884440511167049,0.003589256663620472,-0.00991272634739289
1782846150261289000,3.2902890625,0.08822071976661681,-0.003614318039640784,-0.004416147358261514
1782846150271294000,3.3002939453125,0.09046411477923393,-0.011024850024469197,-0.0002577399040223099
1782846150281299000,3.310298828125,0.08223287752866744,0.00042262759255245325,0.0001747811781708151
1782846150291304000,3.320303955078125,0.10348433987200259,0.009408610466867685,-0.0009664772618445568
1782846150301309000,3.330308837890625,0.1022901616513729,-0.001640478949714452,0.004703633946576156
1782846150311314000,3.34031396484375,0.08672609729468822,-0.0015698979315347968,0.009174201206082944
1782846150321319000,3.35031884765625,0.0876245074391365,0.00481952911093831,-0.007782694332045503
1782846150331324000,3.360323974609375,0.09151683870255947,0.00623761574793607,-0.012670811150188092
1782846150341329000,3.370328857421875,0.09585749825537204,-0.015218118729535489,-0.0008413393451017328
1782846150351334000,3.380333984375,0.0807405931442976,0.0044101445924490685,-0.0037728239364456383
1782846150361339000,3.3903388671875,0.09854629894793034,-0.0013703385051339863,-0.006167493670771363
1782846150371344000,3.40034375,0.07595218982398509,-0.009812040168605745,-0.0047659654429298825
1782846150381348900,3.410348876953125,0.09435761508643627,0.004563289327546954,-0.002014611775020603
1782846150391353900,3.420353759765625,0.1117144080787897,-0.012153817521780729,0.006921666189073585
1782846150401358800,3.43035888671875,0.08672492825090884,-0.014863405274040996,-0.010552515238407067
1782846150411363800,3.44036376953125,0.09076806616187096,0.0014641908010467886,-0.006940245308668818
1782846150421368800,3.450368896484375,0.08852116401791572,0.004843366644252092,-0.0027856144138262606
1782846150431373800,3.460373779296875,0.09450491460263728,0.006994352399371564,-0.015547362100344617
1782846150441380400,3.47038037109375,0.09510171145200728,0.0024591566551476715,0.013342908575339242
1782846150451385300,3.48038525390625,0.08821838167905807,0.0009357282138429581,-0.010856146960635669
1782846150461390300,3.490390380859375,0.10273322924375533,-0.0016029051519930362,-0.010316681205516215
1782846150471395300,3.500395263671875,0.07669511714577674,0.00472852635923773,0.0021302877436741256
1782846150481400300,3.510400390625,0.08492635439634323,-0.012219393571279942,-0.004886513949523214
1782846150491405300,3.5204052734375,0.0900122793585062,0.007795129121933132,-0.0063723297771997745
1782846150501410300,3.530410400390625,0.09300444691181182,0.004828936260100454,0.0055046435645781456
1782846150511415300,3.540415283203125,0.1025824225962162,-0.011516122406441717,-0.02256210426719626
1782846150521420300,3.550420166015625,0.09480068267881869,-0.002975526945758611,0.004168001833069138
1782846150531425300,3.56042529296875,0.10363047034442424,0.006405428329203278,0.003583874952315818
1782846150541430300,3.57043017578125,0.08777122243344783,-0.009399952236376703,-0.00047087348133791236
1782846150551435300,3.580435302734375,0.08866963257789612,0.006133479520026594,-0.005677015873242635
1782846150561440300,3.590440185546875,0.08821896620094775,0.00546997410999611,-0.008603963570075574
1782846150571445200,3.6004453125,0.09734744455218315,0.015148377961572259,0.002434652401553467
1782846150581450200,3.6104501953125,0.09271043240129948,-0.0027433073587715623,-0.0031016284103039652
1782846150591455200,3.620455322265625,0.08582827167212963,0.012769501734711228,0.0027311191640561447
1782846150601460200,3.630460205078125,0.07954056970477104,-0.0028121530775912103,-0.0022064422694034872
1782846150611465200,3.64046533203125,0.09375731110572814,-0.005990691782161593,-0.0059710669163730926
1782846150621470200,3.65047021484375,0.09779752640724182,-0.0010450703398324549,0.005475180008076131
1782846150631475200,3.66047509765625,0.08118775238990783,-0.0013436514276079833,0.016266369690431746
1782846150641480200,3.670480224609375,0.08193886301815509,-0.012828191385697572,0.0034621368523454293
1782846150651485200,3.680485107421875,0.09331424351334572,-0.0065457135827280575,0.004393417219934054
1782846150661490200,3.690490234375,0.08418751872777938,-0.0007788206190802156,0.009641935165552422
1782846150671495200,3.7004951171875,0.08658464299738407,0.007634787461068481,0.006236266324354801
1782846150681500200,3.710500244140625,0.09182079008519649,0.012936894190870225,-0.00487313844471937
1782846150691505200,3.720505126953125,0.09062544282078742,0.00717666843002662,-0.00976280789913144
1782846150701510100,3.73051025390625,0.09885375746190547,0.0016986023451201616,-0.0004824725875863805
1782846150711515100,3.74051513671875,0.10004910472631454,0.004916377081535756,0.007016338185605127
1782846150721520000,3.75052001953125,0.0856815566778183,-0.008609550777357072,-0.02195926811939571
1782846150731525000,3.760525146484375,0.09061901308000087,-0.0102316538201645,0.017003766887157688
1782846150741530400,3.7705302734375,0.10258709877133369,0.0029165267675183714,-0.0024667097739409652
1782846150751535400,3.780535400390625,0.09031856882870197,-0.0002907083085738122,-0.004862288257142063
1782846150761540400,3.790540283203125,0.09032090691626071,-0.007723123331647366,-0.0031170520250103436
1782846150771545300,3.80054541015625,0.08957330341935157,-0.010750106470007448,0.006635761919780634
1782846150781550300,3.81055029296875,0.08762743004858493,-0.0012772533942013978,0.00304720622577006
1782846150791555300,3.820555419921875,0.09660685531795024,0.009304255043249577,-0.00018704243812244384
1782846150801560300,3.830560302734375,0.0922691183745861,-0.011117588075529783,0.00032867711522849275
1782846150811565300,3.8405654296875,0.08030103268325328,-0.0064151094730012116,-0.0025285731961252164
1782846150821570300,3.8505703125,0.08583236332535743,-0.007835716860648245,-0.017089077400299718
1782846150831575300,3.8605751953125,0.10168985767066478,0.0005969795124605297,0.00018613825582433491
1782846150841580300,3.870580322265625,0.07639993359148502,0.0033280484441667794,-0.00017406650882912799
1782846150851585300,3.880585205078125,0.101833065533638,0.004311981447599828,0.0009298898448119871
1782846150861590300,3.89059033203125,0.10721943474709987,-0.002248692242242396,-0.003558425417228136
1782846150871595300,3.90059521484375,0.11111118148863315,0.002942099600192159,0.006636551937647163
1782846150881600300,3.910600341796875,0.08896189352273941,0.007569686335604638,0.004343714593001641
1782846150891605500,3.92060546875,0.08058160319030284,-0.01650227678855881,0.008436009424913208
1782846150901610500,3.930610595703125,0.08821253646016121,-0.01017676356146112,0.004053794019005727
1782846150911615500,3.940615478515625,0.0865659382969141,0.005857585188094526,0.006901354053406976
1782846150921620500,3.950620361328125,0.07683890953063964,0.0012301080505363643,0.002612942994351033
1782846150931625500,3.96062548828125,0.10691489884257316,0.011900683010928332,0.003605568477604538
1782846150941630500,3.97063037109375,0.0937462051898241,0.005338054826017469,0.010225482090993318
1782846150951635500,3.980635498046875,0.09449731581807136,-0.0003439180668443441,0.005386350947152823
1782846150961640400,3.990640380859375,0.09030804743468761,-0.012494520718231797,0.0034224555792170576
1782846150971645400,4.0006455078125,0.08521978438496589,-0.00006111907009035348,0.0014954376059700735
1782846150981650400,4.010650390625,0.08641805425882339,0.005134531610552221,0.006858884884859435
1782846150991655400,4.020655517578125,0.08866378735899924,0.004018094801250845,0.0032118610188597812
1782846151001660400,4.030660400390625,0.09345335972309111,-0.004128094514366239,0.0020277612342499197
1782846151011665400,4.04066552734375,0.08985738105773926,0.008794095297716558,-0.0042269791784230615
1782846151021670400,4.05067041015625,0.08895955543518066,0.0026719226229935883,-0.008443363897595554
1782846151031675400,4.06067529296875,0.09135375709533691,0.013305891900043934,-0.010050812793965452
1782846151041680400,4.070680419921875,0.10856266604959965,0.004307652332354337,0.00279042986955028
1782846151051685400,4.080685302734375,0.09270166457295417,0.005622552589513361,-0.002623210943327285
1782846151061690400,4.0906904296875,0.06950666694641112,0.0022335677383467554,0.0017675553785054944
1782846151071695400,4.1006953125,0.10526888520121573,0.004231737551931292,0.007155516044143587
1782846151081700400,4.110700439453125,0.09883622180521488,-0.006302059286274015,0.009964132307644468
1782846151091705300,4.120705322265625,0.08057984962463378,0.004047594890370965,0.00594939850725932
1782846151101710300,4.13071044921875,0.08910685495138168,-0.00465041962172836,-0.0010801644860999658
1782846151111715300,4.14071533203125,0.09898527488708496,-0.004581281641963869,-0.0063122952692094255
1782846151121720300,4.15072021484375,0.08072598009705544,0.001729435874801129,0.002410584256087895
1782846151131725300,4.160725341796875,0.08027648276388645,-0.0033350627068430183,-0.007586461657180916
1782846151141730300,4.170730224609375,0.08820435315370559,0.00845386702530086,-0.0031363298309268427
1782846151151735300,4.1807353515625,0.0820651197463274,0.009417341762594879,-0.000815104358724784
1782846151161740300,4.190740234375,0.09777706814110279,-0.0025680055907927454,0.027494021411158608
1782846151171745300,4.200745361328125,0.09389058209657669,0.004266370473895222,-0.001130239289079327
1782846151181750300,4.210750244140625,0.08745499609112739,0.007030044767260551,-0.005823888414469547
1782846151191755300,4.22075537109375,0.09867781637310981,-0.000736150521133095,-0.0019529949480085634
1782846151201760300,4.23076025390625,0.09344342285096645,0.015570749825797973,0.0026873074217932296
1782846151211765200,4.24076513671875,0.08835808241069316,0.00007501973127946257,-0.007496043427370022
1782846151221770200,4.250770263671875,0.09688917939066886,-0.004172244183346629,-0.010729636787425261
1782846151231775200,4.260775146484375,0.09404489587545395,-0.006833152221981435,-0.0005323510277434252
1782846151241780200,4.2707802734375,0.08925707707703114,-0.0013207272097468376,0.02180281489907065
1782846151251785200,4.28078515625,0.07848375412821769,-0.005236475881375372,0.004561517495568841
1782846151261790200,4.290790283203125,0.08701192849874496,-0.00039508199850097297,-0.005297188526089303
1782846151271795200,4.300795166015625,0.10571662896871566,0.0021402451653964815,0.0037462190573103724
1782846151281800200,4.31080029296875,0.09075169954895973,0.006361260393913835,-0.007102559730911161
1782846151291805200,4.32080517578125,0.09164894064962864,-0.011599471574649214,-0.0054963734931545325
1782846151301810200,4.33081005859375,0.1009264720827341,-0.0157663637294434,-0.01088874090585159
1782846151311815200,4.340815185546875,0.10765607259869575,-0.0025683526506647468,0.0016364991776295936
1782846151321820200,4.350820068359375,0.08625847978293895,0.011779522582981735,0.0026340611309045923
1782846151331825200,4.3608251953125,0.09837620307803153,0.003960574194043874,-0.009850043224589898
1782846151341830100,4.370830078125,0.07473053907454014,0.010532591261807828,-0.004068409349536523
1782846151351835100,4.380835205078125,0.08071545870304107,-0.0003597001578658819,0.001149829905538354
1782846151361840000,4.390840087890625,0.08774725703597068,-0.0060094512815587215,0.011903299659700132
1782846151371845000,4.40084521484375,0.08580079914331436,-0.0016007679938338697,-0.0010839410454966127
1782846151381850400,4.410850341796875,0.08445406070947646,-0.001585406027920544,0.005371345174266025
1782846151391855400,4.42085546875,0.09717150346338749,0.0028137057138606903,-0.004823093324492219
1782846151401860400,4.4308603515625,0.09358370810449122,0.002636997440084815,-0.005514630669052712
1782846151411865300,4.440865234375,0.0992664299160242,-0.0009481127713806927,0.0059781314113992266
1782846151421870300,4.450870361328125,0.09911679231226443,-0.0048346170822158455,-0.0102822446463746
1782846151431875300,4.460875244140625,0.08923720333278179,-0.01169429198494181,-0.012923493569891434
1782846151441878800,4.470878662109375,0.09133096074163913,-0.003577383562736213,0.011291885196510702
1782846151451883800,4.4808837890625,0.08459726857244967,0.016780472675431517,0.0093969017627649
1782846151461888800,4.490888671875,0.08534078041613101,-0.004846654579881578,0.01934076760051539
1782846151471893800,4.500893798828125,0.09207388806343078,0.003421498881280422,0.006282669599214568
1782846151481898800,4.510898681640625,0.08833294796943664,0.0164367372716777,0.006556278359226416
1782846151491903700,4.52090380859375,0.09985562798082828,0.006840550077147781,-0.00981451982005965
1782846151501908700,4.53090869140625,0.0866875188499689,-0.0025636399429291483,0.005755873812711797
1782846151511913700,4.540913818359375,0.0985083050251007,0.01136748944967985,0.004945477595145348
1782846151521918700,4.550918701171875,0.0901256766051054,0.018079956167750058,-0.005642510815442074
1782846151531923700,4.560923828125,0.10030044913887977,0.005643686709087342,-0.002669397305767052
1782846151541928700,4.5709287109375,0.08937748858630656,0.0033774040112271903,0.009706944959471001
1782846151551933700,4.58093359375,0.09311725963652133,0.011083557941764592,0.004311801067797933
1782846151561939000,4.59093896484375,0.09311842868030071,-0.0031759448886848982,0.001202391209837515
1782846151571944000,4.60094384765625,0.08967734831571579,0.004877488109562546,-0.0011661965184495784
1782846151581949000,4.610948974609375,0.09192191237211227,-0.0029107728801667687,0.0032339609695249236
1782846151591954000,4.620953857421875,0.09192132785022258,0.0038654797891154885,0.0021677039944799615
1782846151601959000,4.630958984375,0.09761164844632148,-0.007108882157132029,-0.0021430284942383876
1782846151611964000,4.6409638671875,0.0854933406293392,-0.0013696443853899835,-0.006070860329305287
1782846151621969000,4.650968994140625,0.09956161347031593,0.003290511179063469,0.008231328582111746
1782846151631974000,4.660973876953125,0.08370236555933952,-0.013704316633101551,-0.005620559278537985
1782846151641979000,4.670978759765625,0.08071253609359264,0.011741199866589159,0.0018386524199158884
1782846151651984000,4.68098388671875,0.0959767407208681,-0.0058396476726047695,0.004465368211292661
1782846151661988900,4.69098876953125,0.089693714928627,0.00007317483406513929,-0.0027412341326940805
1782846151671993900,4.700993896484375,0.09942132821679114,0.004349957104120403,0.00856160399938235
1782846151681998800,4.710998779296875,0.07817220396101475,0.003777892837207764,-0.0055312986760633065
1782846151692003800,4.72100390625,0.09583236381411551,0.004545954600255936,-0.015845573295361827
1782846151702009000,4.731009033203125,0.08894786499738692,0.008770769221056253,0.010113527882809285
1782846151712014000,4.74101416015625,0.08505553373396396,0.009586104191932827,0.007968743539613205
1782846151722019000,4.75101904296875,0.08789864820539951,0.0010726342001929879,0.0064755093071726146
1782846151732024000,4.761024169921875,0.08999006752669811,0.0021199512960389257,0.006354401394864544
1782846151742029000,4.771029052734375,0.09657236852645873,0.01102116023004055,-0.0031459356261999342
1782846151752034000,4.781033935546875,0.09417524425685406,0.007268383567780256,-0.0026365339324926026
1782846151762039000,4.7910390625,0.09402385308742522,0.007926591748185455,0.01201488625841448
1782846151772044000,4.8010439453125,0.08759294325709342,-0.005817545438650995,-0.00008342451673233881
1782846151782049000,4.811049072265625,0.0916331585586071,-0.0032848486232571303,-0.009644718494394328
1782846151792054000,4.821053955078125,0.10315876117944717,0.0013483641353435813,0.013191289077047258
1782846151802059000,4.83105908203125,0.0982166286021471,0.018879143721424043,-0.0063072697509313
1782846151812064000,4.84106396484375,0.08983692279160022,0.0030091734870336946,-0.002191865754779428
1782846151822069000,4.851069091796875,0.10106325020492077,-0.0020727694197557865,0.0031004616498132233
1782846151832074000,4.861073974609375,0.08520341777205467,0.0011373882657848297,0.00026017845628084613
1782846151842079000,4.871078857421875,0.07817746465802192,-0.007585961616970598,-0.0007572526746662333
1782846151852084000,4.881083984375,0.09269172770082951,-0.006522350973449647,0.01225918444226263
1782846151862089000,4.8910888671875,0.08954875349998474,-0.0007849763652309775,-0.012706672481435815
1782846151872094000,4.901093994140625,0.09194587776958942,0.004931921710539609,0.004991727889666799
1782846151882099000,4.911098876953125,0.1043687214910984,-0.00600221782317385,-0.0018309988364228046
1782846151892104000,4.92110400390625,0.09629238254129886,-0.0003698196930810809,0.008559156313969288
1782846151902109000,4.93110888671875,0.08761457056701183,-0.004610891328938305,-0.000235626253625378
1782846151912114000,4.941114013671875,0.08507306939065457,0.008457100162003189,-0.00027864797802176327
1782846151922119000,4.951118896484375,0.09524608835875988,-0.005068480637017637,0.016554605197417548
1782846151932124000,4.9611240234375,0.09614449850320815,-0.00583398511679843,-0.008601486201910301
1782846151942129000,4.97112890625,0.08042904297709465,-0.005056826731842011,0.0018389104315312578
1782846151952134000,4.9811337890625,0.08910743947327136,-0.0014448467797599732,0.01493599558621645
1782846151962139000,4.991138916015625,0.11080723010599612,-0.010642316980287432,0.008480538119806442
1782846151972143900,5.001143798828125,0.08970774345397949,-0.0010379099466837941,0.016735800133354496
1782846151982148900,5.01114892578125,0.08536533033549785,-0.0020982874535024165,0.00624550907673547
1782846151992153900,5.02115380859375,0.10376841751039027,-0.008572999892942607,-0.011579771360335871
1782846152002158800,5.031158935546875,0.09493862984478472,-0.0022244711164385077,0.001268346285249572
1782846152012163800,5.041163818359375,0.09897826062440872,-0.006640698389802128,0.01222997204751009
1782846152022168800,5.0511689453125,0.1022726259946823,-0.0021150559252128003,0.01117057407151442
1782846152032173800,5.061173828125,0.09583879355490207,0.011745054057799279,-0.0033244499812833963
1782846152042178800,5.0711787109375,0.0864087019085884,0.004097827240265905,-0.001973695242742542
1782846152052183800,5.081183837890625,0.09568798690736294,-0.007945332981273532,0.006144185860420111
1782846152062188800,5.091188720703125,0.09703764795064926,0.0002986906856298446,0.008077163216995541
1782846152072193800,5.10119384765625,0.09000409605205059,0.000031819910369813444,0.004533844037353992
1782846152082198800,5.11119873046875,0.10227613312602042,-0.0022960933142341673,0.0016289780248771421
1782846152092203800,5.121203857421875,0.09180091634094714,0.004449435423221439,0.00031788172657834366
1782846152102208800,5.131208740234375,0.07818389439880848,-0.007677293162234127,-0.015271734913182443
1782846152112213800,5.1412138671875,0.0867144068568945,-0.004280125004611909,0.0017109800527920014
1782846152122218800,5.15121875,0.08895897091329097,-0.0016019005049951374,-0.015200215463375206
1782846152132223700,5.1612236328125,0.08970365180075168,0.004401084503158926,-0.004918199145863764
1782846152142228700,5.171228759765625,0.09000175796449184,0.009399714774359018,0.0063401924897101706
1782846152152233700,5.181233642578125,0.09014964200258255,0.002444233080651611,-0.0050868565439246595
1782846152162238700,5.19123876953125,0.09748246910870074,-0.010290434802696109,-0.0065131584534188726
1782846152172243700,5.20124365234375,0.10092413399517536,0.001232117344532162,-0.007993816332076676
1782846152182248700,5.211248779296875,0.08521160107851028,-0.006822411632258445,0.010868392237566877
1782846152192254000,5.22125390625,0.07638298245668411,-0.0015986491019837558,-0.0009621686961967498
1782846152202259000,5.231259033203125,0.08521218560039996,0.010691380286402999,-0.0012167987611028364
1782846152212264000,5.241263916015625,0.0955365957379341,0.006684884591400623,0.0028661208876874294
1782846152222269000,5.25126904296875,0.09299158743023872,-0.0007418861421756446,0.004377128238836303
1782846152232274000,5.26127392578125,0.09268822056949139,-0.0062429129775613545,-0.0016131685343920253
1782846152242279000,5.27127880859375,0.09792261409163475,-0.005951857609115541,-0.011408141120476648
1782846152252284000,5.281283935546875,0.09597849428653717,0.003281432823464274,-0.009493699501012452
1782846152262289000,5.291288818359375,0.08026713041365147,0.008783738300483674,0.008773262572241947
1782846152272294000,5.3012939453125,0.0829623608469963,0.00513040342470631,-0.005884176367498003
1782846152282299000,5.311298828125,0.08969546849429606,-0.00442709572724998,0.004376388453319668
1782846152292304000,5.321303955078125,0.09313304172754287,-0.01188418853385374,0.00034032873711548745
1782846152302308900,5.331308837890625,0.1073491986066103,0.007703852375596761,0.01552036906214198
1782846152312313900,5.34131396484375,0.09672434421777724,0.004410656049102545,0.005020444810786284
1782846152322318800,5.35131884765625,0.08295710014998912,0.0027965536496601996,0.004484490753582213
1782846152332323800,5.36132373046875,0.09717208798527717,-0.00480723588494584,-0.0017103315988206303
1782846152342328800,5.371328857421875,0.09612404023706912,0.0006183876266703009,0.0038739896058454177
1782846152352333800,5.381333740234375,0.08460428283512592,0.005297138293739408,-0.009218946813396177
1782846152362338800,5.3913388671875,0.09553133504092692,0.0005137034094892442,0.0002573357619345188
1782846152372343800,5.40134375,0.09448153372704982,0.009432703728508204,0.009716840732400304
1782846152382348800,5.411348876953125,0.08804360963404179,0.013040299766417593,-0.0020633120382437483
1782846152392353800,5.421353759765625,0.10226035103499889,0.010592230760864912,0.007015025294641964
1782846152402358800,5.43135888671875,0.09552724338769912,0.013709266802854836,-0.007258339381089899
1782846152412363800,5.44136376953125,0.0922340470612049,0.000003653261810541153,-0.006330340099264867
1782846152422368800,5.45136865234375,0.10495265885889529,0.015871321941260248,-0.009391246056824456
1782846152432374000,5.4613740234375,0.09971709629297255,-0.011004410024639219,-0.005612179609260056
1782846152442380000,5.471380126953125,0.08953823210597038,0.003511131659802049,-0.0026772244191961363
1782846152452385000,5.481385009765625,0.10360241329371929,-0.001031023548170924,-0.002315407652768772
1782846152462390000,5.49139013671875,0.07996025642156601,0.0024138379423879084,-0.006790630537795368
1782846152472395000,5.50139501953125,0.09372925405502319,-0.023882797227613627,-0.005969916138902772
1782846152482400000,5.51139990234375,0.0896902077972889,0.001524816680792719,-0.004675976471381727
1782846152492405000,5.521405029296875,0.09702186585962772,0.006647402125224471,0.0014709561852621845
1782846152502410000,5.531409912109375,0.09118658383488655,0.010479655498173087,-0.014470090540940872
1782846152512415000,5.5414150390625,0.09268120630681514,0.0012938757354393601,-0.005501654739759396
1782846152522420000,5.551419921875,0.09462474159002303,0.0013918562171980739,-0.0030453293625148942
1782846152532425000,5.561425048828125,0.0950707317918539,0.005687598916050046,-0.0023998710658284833
1782846152542430000,5.571429931640625,0.0922258637547493,-0.013549272201862186,0.003548365247517358
1782846152552435000,5.58143505859375,0.09985504345893859,-0.0013201061552390455,-0.01270499654758023
1782846152562440000,5.59143994140625,0.09955576825141906,0.006313640126213431,0.007734062567481305
1782846152572445000,5.60144482421875,0.09013035278022288,0.004152224308624863,-0.0018635471158660946
1782846152582450000,5.611449951171875,0.09791501530706882,-0.012769264272693544,0.008714406241185496
1782846152592455000,5.621454833984375,0.08953530949652194,-0.00694187329346314,-0.0013820449259481392
1782846152602460000,5.6314599609375,0.08788812681138515,0.0020979769262485207,-0.009861710829497314
1782846152612465000,5.64146484375,0.09342471815049648,-0.0052582310554571444,-0.0018545486753690056
1782846152622470000,5.651469970703125,0.09117723148465157,-0.009629559741169214,-0.0003193430313025601
1782846152632475000,5.661474853515625,0.10105623594224453,0.0029726774015463885,0.0037502627614769152
1782846152642479900,5.67147998046875,0.0875894361257553,0.008930946485139429,0.00101135073332116
1782846152652484900,5.68148486328125,0.08355214343369007,0.0026622232128866016,-0.005782567740103695
1782846152662489900,5.69148974609375,0.07966215025782585,-0.003344816915877163,-0.01237740171116311
1782846152672494800,5.701494873046875,0.0881909091502428,0.00325244419099763,-0.00692920789142372
1782846152682499800,5.711499755859375,0.08549567871689796,0.004388773010857403,0.007195891437015961
1782846152692504800,5.7215048828125,0.09193184924423695,-0.008699475816823541,-0.0020201875658589414
1782846152702509800,5.731509765625,0.09626958618760108,0.0021280432709492743,0.010814970133453608
1782846152712514800,5.741514892578125,0.1027045876711607,0.007341485336609184,0.011818687832879367
1782846152722519800,5.751519775390625,0.08564531632065772,0.010970434689801186,0.0062672140184673476
1782846152732524800,5.76152490234375,0.090730656760931,0.008512556676287204,0.004958930731762666
1782846152742529800,5.77152978515625,0.09102817840278148,0.010377912156749516,-0.0006170496195321902
1782846152752534800,5.78153466796875,0.09402268404364586,0.004019921432156116,-0.0008219542246195487
1782846152762539800,5.791539794921875,0.0902823284715414,0.012048786244727671,0.0035758720256621017
1782846152772544800,5.801544677734375,0.08744213660955429,0.00695887922719121,0.00494999394005863
1782846152782549800,5.8115498046875,0.09298048151433468,0.015696129771135745,0.00535539411988575
1782846152792554800,5.8215546875,0.0877419963389635,0.0018485870087519287,-0.012285008436685892
1782846152802559700,5.831559814453125,0.08280044828355312,0.002292622715514153,-0.0008854981472366488
1782846152812564700,5.841564697265625,0.08130465676784515,0.009155384624470025,-0.004909018042276147
1782846152822569700,5.85156982421875,0.10240823507308959,-0.000656436348427087,-0.0002867011370253749
1782846152832574700,5.86157470703125,0.08475684304833411,0.0011542480690404772,0.010839520052820444
1782846152842580000,5.871580078125,0.08401040859520435,0.0055564102844335135,-0.0009070135760121047
1782846152852585000,5.8815849609375,0.08385843290388584,0.0013279058692045509,-0.009525418946682475
1782846152862590000,5.89158984375,0.0941857656508684,0.006454619499482214,-0.000662192519067321
1782846152872595000,5.901594970703125,0.0910445450156927,-0.0010743329669348895,0.005678171217290219
1782846152882600000,5.911599853515625,0.10032324549257755,0.013069690257683396,-0.013169264474906957
1782846152892605000,5.92160498046875,0.09404197326600551,-0.002510777244530618,-0.0061526591445319355
1782846152902610000,5.93160986328125,0.09075053050518035,-0.0028367760621942576,0.0054124649192322976
1782846152912615000,5.941614990234375,0.09927870487570763,0.003213664816878736,0.013830237717845011
1782846152922620000,5.951619873046875,0.10151859275698662,0.005082965820096433,-0.005700910488772206
1782846152932625000,5.961625,0.08475859661400317,0.0013830701225437223,-0.007399878160073422
1782846152942630000,5.9716298828125,0.09568272621035576,-0.008666779123619198,-0.008775413430132903
1782846152952635000,5.981634765625,0.08715162923038006,0.001598448172584176,-0.00039291059101233256
1782846152962640000,5.991639892578125,0.08206044357120991,0.00203822782933712,0.0017186427694396115
1782846152972644900,6.001644775390625,0.09672259065210818,-0.004265457158442587,-0.008493393034802284
1782846152982649900,6.01164990234375,0.0883393777102232,-0.004092895336821675,0.004959259525325614
1782846152992654800,6.02165478515625,0.09761632462143897,0.004280545129720121,0.0004273882493493147
1782846153002659800,6.031659912109375,0.10584697735011576,0.003959222487173974,0.003837861129827797
1782846153012664800,6.041664794921875,0.093576693841815,0.0017072971082292495,0.010060676600853913
1782846153022669800,6.051669921875,0.09387830713689327,-0.0060223838283680374,0.0012490935955080202
1782846153032674800,6.0616748046875,0.0825046802073717,0.0117006303941831,0.0025856417121831324
1782846153042679800,6.0716796875,0.09372691596746444,-0.005178991806786507,0.010537027691619004
1782846153052684800,6.081684814453125,0.08010989402532577,-0.006530114154797047,-0.004458627943252213
1782846153062689800,6.091689697265625,0.09058277272284031,-0.001649794767331332,0.005792815139482263
1782846153072694800,6.10169482421875,0.09746785606145858,0.004992785052303225,0.009029500072344671
1782846153082699800,6.11169970703125,0.09402736021876335,-0.008660477246996015,0.0028303714375826528
1782846153092704800,6.121704833984375,0.0744265876919031,-0.009785316558461635,-0.0009948242902057245
1782846153102709800,6.131709716796875,0.08160977719426155,-0.006083466365840286,-0.0047761694598244505
1782846153112714800,6.14171484375,0.08415361645817757,-0.0008706636209972203,0.004077480855269823
1782846153122719700,6.1517197265625,0.07816928135156631,0.010294014999270438,0.015324225435534026
1782846153132725000,6.16172509765625,0.09971826533675193,-0.0011363105535507202,0.0038881391454953698
1782846153142730000,6.17172998046875,0.09956687416732311,0.0017818967144005,0.0119575094983913
1782846153152735000,6.18173486328125,0.08355097438991069,-0.008625387667305766,-0.006723602316726464
1782846153162740000,6.191739990234375,0.09686755208075046,0.007442077900562435,-0.00445948645977769
1782846153172745000,6.201744873046875,0.08444996905624866,-0.012720073102414606,-0.009057981814735104
1782846153182750000,6.21175,0.08774374990463256,-0.008885353777743875,0.0082189143418218
1782846153192755000,6.2217548828125,0.09133855952620505,-0.010554766560997813,0.007293047651578672
1782846153202760000,6.231760009765625,0.086553078815341,0.006966861604247242,-0.0006501070723403245
1782846153212765000,6.241764892578125,0.0870014071047306,-0.003195087980572134,0.004609528205625247
1782846153222770000,6.25177001953125,0.09283902721703052,-0.0062797743892297146,-0.006448870178707875
1782846153232775000,6.26177490234375,0.08041969062685966,-0.00003308028569445014,-0.010598176444461569
1782846153242780000,6.27177978515625,0.09702888012230396,0.0052402387410402295,0.016454846033814828
1782846153252785000,6.281784912109375,0.08865034335553645,0.0019049568384885787,-0.002640207743900828
1782846153262790000,6.291789794921875,0.0881996769785881,-0.012847407542821019,0.014624870110698974
1782846153272795000,6.301794921875,0.10885025081932544,-0.0113705216569826,0.00253115102899028
1782846153282799900,6.3117998046875,0.08745265800356865,-0.005145436597056687,0.0014197032053489237
1782846153292804900,6.321804931640625,0.0865612621217966,-0.004667790881637483,0.00726837443462573
1782846153302809900,6.331809814453125,0.08925473898947238,-0.011126739496365189,-0.008601413136674091
1782846153312814800,6.34181494140625,0.08820961385071277,-0.0036083814891986546,0.010774382394738494
1782846153322819800,6.35181982421875,0.09299977073669433,-0.011175601873081177,0.002133609928633086
1782846153332824800,6.361824951171875,0.09165653943419456,0.0001783887742087245,0.005404137765592895
1782846153342829800,6.371829833984375,0.10347907917499542,0.0018934125311672687,0.005255584723933134
1782846153352834800,6.381834716796875,0.09659399583637714,-0.01297123485188931,-0.010699006470432504
1782846153362840000,6.391840087890625,0.09090776689350605,0.00020138605730608104,-0.004448878300795331
1782846153372845000,6.401844970703125,0.10572013610005378,0.0067375463603995735,-0.0021561003216542304
1782846153382850000,6.41185009765625,0.08536942198872566,-0.00899677826296538,0.005682036824943498
1782846153392855000,6.42185498046875,0.09674304891824721,-0.017460710024554283,0.01730536876579281
1782846153402860000,6.431860107421875,0.09420271678566933,-0.010587134460639207,-0.007208892482484225
1782846153412865000,6.441864990234375,0.08463000179827213,-0.0023964484161697326,0.005671150104748085
1782846153422870000,6.4518701171875,0.10094108512997627,-0.006933507323917001,0.0013215195109019986
1782846153432875000,6.461875,0.09330722925066948,-0.004992511057667434,0.013341623083839658
1782846153442878700,6.471878662109375,0.08387889117002487,0.007923157682083546,0.005498289172316435
1782846153452883700,6.4818837890625,0.09285714739561081,0.010008658719249068,-0.015923077244672457
1782846153462888700,6.491888671875,0.09270692526996135,0.0025268333301879465,0.003247265692381188
1782846153472893700,6.501893798828125,0.09300386238992214,0.0168694661331363,0.011762037158641032
1782846153482898700,6.511898681640625,0.09704115508198738,0.004283577337022871,-0.0015172178962267935
1782846153492903700,6.521903564453125,0.0988350527614355,-0.0173379604277201,0.011235551899392158
1782846153502908700,6.53190869140625,0.09060966072976588,0.01431788195418194,-0.007018653440277557
1782846153512913700,6.54191357421875,0.09838847803771496,0.003183963798359036,-0.008486504353000782
1782846153522918700,6.551918701171875,0.09345277520120143,-0.005576119631901383,0.008452337221917695
1782846153532923600,6.561923583984375,0.09959259313046932,-0.0004154306667856872,-0.003836011666036211
1782846153542928600,6.5719287109375,0.09510638762712478,0.009043795742467045,-0.03620170108403545
1782846153552933600,6.58193359375,0.10393500624895095,0.008129676572233438,-0.012720267181948292
1782846153562938600,6.591938720703125,0.09989537546932696,0.0013557437242008746,-0.012150358339503873
1782846153572943600,6.601943603515625,0.09166296917498111,-0.008856785270385444,-0.007479596899356692
1782846153582948600,6.611948486328125,0.08717501010596751,0.00009100275170058011,0.002535016636643559
1782846153592953600,6.62195361328125,0.09435819960832595,0.0025827647685073315,0.01366666292027803
1782846153602958600,6.63195849609375,0.0954109235316515,-0.0020028094560839236,0.011346830254141241
1782846153612963600,6.641963623046875,0.08867723136246204,-0.005743639952223748,0.0013001296630012803
1782846153622968600,6.651968505859375,0.08568740189671516,-0.00677782357186079,-0.002768035374651663
1782846153632973600,6.6619736328125,0.09376900154352187,-0.005782711587287485,0.009867581164569128
1782846153642978600,6.671978515625,0.09167465961277485,-0.00982935662958771,0.003931389198754914
1782846153652983600,6.681983642578125,0.08868015397191047,-0.005706906404718756,-0.001856226892513223
1782846153662988500,6.691988525390625,0.10708441019058226,0.001543247386626899,0.013990341916691977
1782846153672993500,6.70199365234375,0.09690788409113883,0.003522767298668623,-0.009710189512616488
1782846153682998800,6.711998779296875,0.0954103390097618,0.00402697222745046,-0.00639712172516156
1782846153693003800,6.722003662109375,0.09256839358210563,0.004716013937536627,-0.0032351574127678757
1782846153703008800,6.7320087890625,0.10080196892023086,0.008753507559001445,-0.0001475689442595467
1782846153713013800,6.742013671875,0.0770107589662075,-0.0019394984289072452,0.006000694869656581
1782846153723018800,6.752018798828125,0.09870645794570446,0.0032447906075045462,-0.0067103409763542
1782846153733023700,6.762023681640625,0.08838146328628063,-0.014415076984651385,-0.009101487596321385
1782846153743028700,6.77202880859375,0.08703238676488399,-0.008032518074382097,-0.006597612733324058
1782846153753034000,6.782033935546875,0.09511164832413196,-0.0009430895363911985,0.006333840380737092
1782846153763039700,6.792039794921875,0.07940028445124625,-0.0037672070464119314,0.012520858452597167
1782846153773044000,6.8020439453125,0.09017477644383907,-0.0006465725415386259,0.00031886810726718974
1782846153783049000,6.812049072265625,0.09765724115371703,0.005307403959427029,0.006877680916874669
1782846153793054000,6.822053955078125,0.1010965679526329,-0.008354260842036455,-0.005655491311312653
1782846153803059700,6.832059814453125,0.0916723215252161,-0.01131152147874236,0.007706382259400561
1782846153813064700,6.842064697265625,0.09421557626724243,-0.006210873871482908,0.0020884989951387976
1782846153823069000,6.85206884765625,0.09391805462539196,-0.0022590675057843324,0.02002453491386259
1782846153833074000,6.862073974609375,0.09751227972507476,0.003288447086140513,0.01890686056212289
1782846153843079700,6.87207958984375,0.08194879989027977,-0.005043346195761114,0.005108093411487062
1782846153853084000,6.882083984375,0.0777560243755579,-0.012989172367379068,0.00839959782110527
1782846153863090000,6.89208984375,0.0975064345061779,-0.0028978403333574532,0.005074832745990716
1782846153873095000,6.902094970703125,0.09571370587050915,0.02015796801820397,0.009429041333543137
1782846153883100000,6.912099853515625,0.1011006596058607,0.005823427190165966,-0.0005079997544875368
1782846153893105000,6.92210498046875,0.09242284763157367,0.005763221435528248,-0.003474658407201059
1782846153903110000,6.93210986328125,0.09676292266249656,0.015467307717632502,0.004826463458512444
1782846153913115000,6.942114990234375,0.09930442383885384,0.0015187157335691153,0.005053219135804102
1782846153923118800,6.952118896484375,0.08988134645521641,-0.010195504794549197,-0.007224658590485341
1782846153933124900,6.962124755859375,0.08449263915419578,-0.01581557316603139,0.00578907282941509
1782846153943129900,6.9721298828125,0.09317045112848281,-0.002145377998240292,-0.004469991870771628
1782846153953133800,6.9821337890625,0.09826105226576327,0.0035562859757803378,0.009354578724689781
1782846153963139800,6.992139892578125,0.09257248523533344,-0.007880140524264424,0.002421461843128782
1782846153973144800,7.002144775390625,0.09721125095188617,0.005443396630324423,0.0027356697582989
1782846153983149800,7.01214990234375,0.08838555493950843,-0.0025992775118909776,0.0035319529688335022
1782846153993154800,7.02215478515625,0.10065583844780922,0.004125226703844964,0.001102725661068689
1782846154003159800,7.032159912109375,0.10888707569837569,0.008690726254787295,-0.0014076839739922433
1782846154013164800,7.042164794921875,0.09392506888806819,0.00201270979559049,0.00020732489103684202
1782846154023169800,7.052169677734375,0.091532620793581,0.008377349456679076,-0.003595017400837969
1782846154033174800,7.0621748046875,0.1000596261203289,-0.005113561887759715,-0.0101536315643345
1782846154043179800,7.0721796875,0.0927267990142107,-0.008537033530417829,0.002043367512046825
1782846154053184800,7.082184814453125,0.09437398169934749,0.0049011429797858,-0.003495550498180091
1782846154063189800,7.092189697265625,0.10529811129570006,0.002046338070556521,-0.0036749736021389253
1782846154073194800,7.10219482421875,0.09272855257987976,-0.003333345673792064,0.0008189631165121681
1782846154083199700,7.11219970703125,0.1023076973080635,0.005552355163823813,-0.0040374639387126075
1782846154093204700,7.122204833984375,0.09976327352225779,0.0006432298069819807,-0.003244575978373177
1782846154103209700,7.132209716796875,0.09572305822074413,-0.0025119828209280966,-0.013845875961682758
1782846154113214700,7.142214599609375,0.09617021746635436,-0.00808702474059537,-0.016590982551896012
1782846154123219700,7.1522197265625,0.10155950928926467,-0.00848424389725551,-0.008051094910688698
1782846154133224700,7.162224609375,0.08016191647350787,-0.008688479498773813,-0.007907402990525588
1782846154143229700,7.172229736328125,0.07402385210990906,0.009408920994121581,-0.004503631562180817
1782846154153234700,7.182234619140625,0.09676701431572436,-0.001277436057291925,0.015604250236600637
1782846154163239700,7.19223974609375,0.089585578379035,-0.012997647934779524,0.024750656970171255
1782846154173244700,7.20224462890625,0.07926175276339054,-0.014964965952374041,-0.005635311606386676
1782846154183249700,7.212249755859375,0.08719371480643749,0.0005392945084720849,-0.007384157717844937
1782846154193254700,7.222254638671875,0.08165595442354678,-0.00836414291523397,0.0005236585479229688
1782846154203259600,7.232259765625,0.08838847754895686,-0.0011378449235111474,0.02761999044496333
1782846154213264600,7.2422646484375,0.09003566023409366,-0.004764492721762508,0.004973548345582094
1782846154223269600,7.25226953125,0.09482523259818554,-0.008113857948593794,-0.00938179095860105
1782846154233274600,7.262274658203125,0.09392740697562695,0.007146985677815973,0.0037399811127688735
1782846154243279600,7.272279541015625,0.09108136989474296,0.0053277343614026905,0.009885888572817202
1782846154253284600,7.28228466796875,0.08599310684502125,-0.002577394473645836,0.01166306801290484
1782846154263289600,7.29228955078125,0.098712887686491,0.0008452551851049065,-0.009451294264546595
1782846154273294600,7.302294677734375,0.09587035773694515,-0.013245540014933794,-0.008011984459718223
1782846154283299600,7.312299560546875,0.08599193780124187,-0.01181864901697263,-0.020717095171730034
1782846154293304600,7.3223046875,0.08928162699639797,0.007890990711841732,-0.0080336026364821
1782846154303309600,7.3323095703125,0.09556348374485969,0.004429744342062622,-0.0005471490213647484
1782846154313314600,7.342314453125,0.10274608872532844,-0.015325798621401189,-0.01024618695230456
1782846154323319600,7.352319580078125,0.09631167176365851,-0.018756339325662702,0.010709792725928128
1782846154333324500,7.362324462890625,0.09915127910375594,0.0038295864918269215,-0.004794271372095682
1782846154343329800,7.372329833984375,0.10034837993383407,0.006974314258340746,0.007119109006912913
1782846154353334800,7.382334716796875,0.09002396979629992,0.007993629102408886,-0.0069348750138073225
1782846154363339800,7.39233984375,0.09481178859472274,0.0002586509361863136,-0.008404237463604658
1782846154373344800,7.4023447265625,0.08718202436864375,0.00033261122154071927,0.006152054073044564
1782846154383349800,7.412349853515625,0.09092179541885852,-0.010696092994138599,-0.004313401653128676
1782846154393354800,7.422354736328125,0.0967570774435997,-0.00574453500136733,0.0035468674101750363
1782846154403359700,7.43235986328125,0.09480886598527431,0.007841799541562795,-0.002272717005223967
1782846154413364700,7.44236474609375,0.09660334818661212,0.0062538910293020306,-0.01347686683606589
1782846154423369700,7.45236962890625,0.08942015868425368,0.0013370572900399565,0.007647583010559901
1782846154433374700,7.462374755859375,0.08702595702409743,-0.006567359158955514,0.016022699410957283
1782846154443380000,7.4723798828125,0.09765139593482017,-0.009282280673459173,-0.007398273008165415
1782846154453385000,7.482385009765625,0.09944529361426829,0.0023233466473408042,0.0030062371778534725
1782846154463390000,7.492389892578125,0.10946867497861384,0.010648162199184298,-0.0011424594498355871
1782846154473395000,7.50239501953125,0.1054272906333208,-0.0038081235786899923,-0.005598813237610739
1782846154483400000,7.51239990234375,0.09659808748960494,0.009360734470840543,-0.00604316175491549
1782846154493405000,7.522405029296875,0.09136018683612346,0.006847893133386969,-0.024612191497685853
1782846154503410000,7.532409912109375,0.0956979237794876,0.010988865395635365,-0.018476335074193776
1782846154513415000,7.542414794921875,0.10138239915668963,0.008365257160086185,-0.002417906762729399
1782846154523420000,7.552419921875,0.10961246736347674,0.006571907469909638,0.003094630130648147
1782846154533425000,7.5624248046875,0.09719605338275432,-0.013654906267113983,-0.015645217001228593
1782846154543430000,7.572429931640625,0.10258300711810588,0.005375993949919939,-0.011973903510766102
1782846154553435000,7.582434814453125,0.082082655403018,0.024249146321974693,0.003967494841886218
1782846154563439900,7.59243994140625,0.08313421028256415,-0.004834836277924478,-0.004834069092944264
1782846154573444900,7.60244482421875,0.08103928382992744,-0.00634549656920135,-0.0207801596037345
1782846154583449900,7.612449951171875,0.09974690690934658,-0.0003467858773656189,0.0014286582633620127
1782846154593454800,7.622454833984375,0.08538286599218844,-0.00712853670567274,-0.00922723058455158
1782846154603459800,7.6324599609375,0.10424012667536735,-0.00039435134613886473,-0.01181166215375997
1782846154613464800,7.64246484375,0.10259411303400992,-0.009370123353693634,0.0057250768156489355
1782846154623469800,7.6524697265625,0.0934632965952158,0.0024655315970070657,0.022338698174327144
1782846154633474800,7.662474853515625,0.08717617914974689,-0.0013269377548247574,-0.008915863080439157
1782846154643479800,7.672479736328125,0.09735095168352126,-0.004725055760517716,0.009225287505926098
1782846154653484800,7.68248486328125,0.09421090009212493,-0.004954115276038646,0.009911223943473305
1782846154663489800,7.69248974609375,0.09959960739314555,-0.0002539564947597682,-0.011730536908679642
1782846154673494800,7.702494873046875,0.09765314950048923,-0.0015503529808484017,0.008312421861151232
1782846154683499800,7.712499755859375,0.09675532387793064,-0.012154000184871255,0.010898159471456892
1782846154693504800,7.7225048828125,0.09869652107357978,0.003741579414810985,-0.008736001585063059
1782846154703509800,7.732509765625,0.0865787977784872,0.006319448812492192,-0.00740332592590712
1782846154713515000,7.742514892578125,0.10109306082129478,-0.0044234972643665965,-0.0028962762806448153
1782846154723520000,7.75252001953125,0.09271160144507884,0.008217793247103691,-0.005407140290143434
1782846154733525000,7.76252490234375,0.0952577787965536,-0.00116338122356683,0.006684078590513672
1782846154743530000,7.772530029296875,0.09046820643246173,0.0020376981063745915,-0.015028224463912191
1782846154753535000,7.782534912109375,0.08238836035132407,-0.00038463366972282527,-0.013776658066816161
1782846154763540000,7.7925400390625,0.08463643153905868,0.006461213637050241,-0.0011501906651421449
1782846154773545000,7.802544921875,0.09286708426773548,-0.0019330686881206928,0.0007507201858912594
1782846154783550000,7.812550048828125,0.10004852020442485,0.005299275451898574,0.008034673498850316
1782846154793555000,7.822554931640625,0.09046879095435142,-0.009382233916595577,0.007409070680104195
1782846154803560000,7.832559814453125,0.10752806230485439,0.005411046996992081,-0.0071573061424307525
1782846154813565000,7.84256494140625,0.09316519043147563,0.007825414662342519,-0.014910829178919083
1782846154823570000,7.85256982421875,0.09660802436172962,-0.002392758621741086,-0.0018719930005143396
1782846154833575000,7.862574951171875,0.09406535414159298,-0.008581347596179694,0.0005885336278122849
1782846154843580000,7.872579833984375,0.10663725094497203,0.008995444822404533,0.001695889798225835
1782846154853585000,7.8825849609375,0.11695990751683712,0.009414145158510655,0.0015593719709431752
1782846154863590000,7.89258984375,0.11052490603327751,-0.009288984408881516,-0.0008934554081177339
1782846154873595000,7.902594970703125,0.10379179838597774,0.00009763342188671231,0.0013998796934494748
1782846154883600000,7.912599853515625,0.09556056113541125,-0.00015546455634757875,0.005682171538972761
1782846154893605000,7.922605224609375,0.07850362787246704,0.001562006886024028,0.008820117938250768
1782846154903610000,7.932610107421875,0.07894903355240822,0.011757840474136173,-0.004067187790118623
1782846154913615000,7.942614990234375,0.09226444219946861,0.004974080351833254,0.019701506654708646
1782846154923620000,7.9526201171875,0.09017185383439064,0.004255885612498968,-0.006239314514677971
1782846154933625000,7.962625,0.09107435563206673,-0.01195595686212182,-0.010224447761243208
1782846154943630000,7.972630126953125,0.09631342532932757,-0.013341492936387657,-0.0010824363582883961
1782846154953635000,7.982635009765625,0.0868880098581314,0.0015417495492845773,0.0036649864976643584
1782846154963640000,7.99264013671875,0.0776075558155775,-0.0014504545366391538,-0.00556416889920365
1782846154973645000,8.00264501953125,0.08494213648736476,-0.015177110865712166,-0.005337664383661467
1782846154983650000,8.012650146484376,0.07102876194715499,0.0027918409419246015,0.007376282655354589
1782846154993655000,8.022655029296875,0.09422317505180836,-0.006384148079156876,0.005957741643919144
1782846155003660000,8.032659912109375,0.10245499682426452,0.002363843054510653,0.0009017665787367149
1782846155013665000,8.0426650390625,0.1252004971176386,-0.0017075711028650402,-0.014960502123099285
1782846155023670000,8.052669921875,0.08524784143567085,-0.004421780231315642,0.0002039890063460916
1782846155033675000,8.062675048828124,0.0924304464161396,0.0030415779192931947,0.016680131273227743
1782846155043680000,8.072679931640625,0.09931786784231662,0.003909501593932509,0.01315214437674731
1782846155053685000,8.08268505859375,0.09602584055960178,0.005269629232306033,-0.009306259770668112
1782846155063690000,8.09268994140625,0.09976911874115467,0.009026588879339397,-0.0030615041791810654
1782846155073695000,8.102695068359376,0.08988952976167201,-0.00038004882615059614,-0.0018758928574970923
1782846155083700000,8.112699951171875,0.09318155704438685,0.0060749907984398305,-0.0032789988377830014
1782846155093705000,8.122705078125,0.1002162779867649,0.01751017518946901,0.01223074836564483
1782846155103710000,8.1327099609375,0.09243570711314678,0.005816358128562569,-0.0002233124780352227
1782846155113715000,8.14271484375,0.09123977532684803,-0.002038410492427647,-0.014534872005996293
1782846155123720000,8.152719970703124,0.09333820891082287,0.00003534530801698565,-0.00421071759678889
1782846155133725000,8.162724853515625,0.09139350458383559,-0.0009084566144272685,-0.005109659747488331
1782846155143730000,8.17272998046875,0.10456278275847435,-0.009173450004123151,0.005793993316416162
1782846155153735000,8.18273486328125,0.10695639989674091,0.0034160372548736628,-0.0045882822049083186
1782846155163740000,8.192739990234376,0.0915413886219263,-0.0046910256267525255,0.001834058443189133
1782846155173745000,8.202744873046875,0.08166238416433334,0.010118475769273936,0.0035822994831600226
1782846155183750000,8.21275,0.08944470860362053,-0.011775065603572875,-0.0004473213591030799
1782846155193755000,8.2227548828125,0.0764221454232931,0.000816357884183526,-0.003390564886899665
1782846155203759900,8.232759765625,0.09288169731497764,0.007448142315167933,0.012844272587529848
1782846155213764900,8.242764892578125,0.11248714601695536,-0.0006210727741010486,0.007860942633450031
1782846155223769900,8.252769775390625,0.09423486548960208,0.0047506833921186625,-0.000922537655418273
1782846155233774800,8.26277490234375,0.08570493755340576,0.0017946465981192885,-0.0011823804682702757
1782846155243779800,8.27277978515625,0.10111468813121319,-0.008382792816776782,0.0028918558338540605
1782846155253784800,8.282784912109374,0.08555296186208725,-0.006177135998662561,-0.011454183635732624
1782846155263789800,8.292789794921875,0.09662731358408927,0.006833280086144805,-0.007072714865207672
1782846155273794800,8.302794921875,0.08839958346486092,0.002808280620072037,0.001746131281275302
1782846155283799800,8.3127998046875,0.07732640078663826,-0.0054124535027891395,0.0017881323756533674
1782846155293804800,8.3228046875,0.07972177149057388,-0.002460124769527465,0.0006087567152222619
1782846155303809800,8.332809814453125,0.09483283138275146,-0.008319207794964313,0.000225972509291023
1782846155313814800,8.342814697265625,0.0740302818506956,-0.00012687778268009422,-0.018238430098514072
1782846155323819800,8.35281982421875,0.0794160665422678,0.003955167366564274,-0.0002922312620910816
1782846155333824800,8.36282470703125,0.08464929102063179,-0.00601443798393011,-0.009481278410856612
1782846155343829800,8.372829833984374,0.08345219019055367,0.0004240888972766697,-0.020356166604580356
1782846155353834800,8.382834716796875,0.09930676192641258,0.0006098572603426873,-0.00043342069791397076
1782846155363839700,8.39283984375,0.0874853912293911,0.005531531571503728,0.010509210386220364
1782846155373844700,8.4028447265625,0.08404606443047523,0.0007817432285286486,-0.00169535094210878
1782846155383850000,8.41285009765625,0.09856558817028999,-0.008701448578201234,-0.0016593777297181076
1782846155393855000,8.42285498046875,0.10470365253388882,0.006578647737950086,0.002888768827624153
1782846155403860000,8.43285986328125,0.09123919080495833,-0.00014616700503975152,-0.009188992349838372
1782846155413865000,8.442864990234375,0.09004033640921115,0.0029342085546813904,0.010516197249433024
1782846155423870000,8.452869873046875,0.07313011814057827,-0.008395962825603783,-0.003220163056324236
1782846155433875000,8.462875,0.07806874358654022,-0.009152279351931065,0.014021533922688104
1782846155443879700,8.472879638671875,0.07822013475596905,-0.005947930352669209,0.002525294393650256
1782846155453884700,8.482884765625,0.08450725220143794,0.010717665505129844,0.008787478327262215
1782846155463889700,8.4928896484375,0.10785071838796138,-0.005721683848742395,0.022032668999035377
1782846155473894700,8.502894775390626,0.09752689277231692,-0.002934665212407708,-0.006518476232641842
1782846155483899600,8.512899658203125,0.09513093754649161,-0.00613844795608893,-0.004441359431331511
1782846155493904600,8.522904541015626,0.08211246601939201,-0.007054850414954125,0.00179072390825022
1782846155503909600,8.53290966796875,0.10425941589772701,-0.00302736673085019,0.0024098421872826292
1782846155513914600,8.54291455078125,0.0928875425338745,-0.00305909530967474,-0.010363134712725878
1782846155523919600,8.552919677734375,0.09827858792245388,0.0006383892350830138,0.00006128118358319625
1782846155533924600,8.562924560546875,0.09064765465259551,-0.008974529898539184,0.007336055676243267
1782846155543929600,8.5729296875,0.08600888893604278,-0.007926865742821245,0.009604025724402162
1782846155553934600,8.5829345703125,0.0966349123686552,-0.005482760526333004,0.013668233822856563
1782846155563939600,8.592939697265624,0.08810615347623825,-0.005499638595897704,0.006295296185347251
1782846155573944600,8.602944580078125,0.09858137026131153,-0.008059716608561574,-0.005718325131165329
1782846155583949600,8.612949462890626,0.08654314194321631,0.0020201076507568357,-0.015576773141208105
1782846155593954600,8.62295458984375,-0.23983576107919216,0.02551891052946448,-0.06950419642811174
1782846155603959600,8.63295947265625,0.4634761741608381,-0.013644238742627202,0.12447594570275396
1782846155613964500,8.642964599609375,-0.014451134678721427,-0.0029997480715624985,-0.06381657467917538
1782846155623969500,8.652969482421875,0.1534475174367428,-0.00897368964832276,0.0873565041527152
