time,seconds_elapsed,z,y,x
1782846147032176600,0.0611767578125,0.0015691345324739814,0.009824667125940323,0.00207673292607069
1782846147042181600,0.071181640625,0.0025363946333527565,-0.009829993359744549,-0.0035262915771454573
1782846147052186600,0.0811865234375,0.0015755260828882456,-0.014164821244776249,-0.0025355955585837364
1782846147062191600,0.091191650390625,0.0005347627447918057,0.0014748586108908057,0.0013353090034797788
1782846147072196600,0.101196533203125,0.0026234800461679697,0.006091714836657047,0.0001893507578643039
1782846147082201600,0.11120166015625,0.0030421288684010506,-0.008050469681620598,-0.0029017801862210035
1782846147092206600,0.12120654296875,0.0020543625578284264,-0.006607302464544773,-0.00333267985843122
1782846147102211800,0.1312119140625,0.0027659591287374496,0.0010788465151563287,0.0013928331900388002
1782846147112216800,0.141216796875,0.00373135507106781,-0.001136637176387012,-0.0017571536591276526
1782846147122221800,0.151221923828125,0.0007294398383237422,-0.004932706709951162,-0.005814746022224426
1782846147132226800,0.161226806640625,0.002671416848897934,-0.003736681304872036,-0.00014168016787152737
1782846147142231800,0.171231689453125,0.0009100021561607718,0.0009539442835375667,-0.0009147958480753005
1782846147152236800,0.18123681640625,0.001615207176655531,-0.0031342741567641497,-0.0005542038124985993
1782846147162241800,0.19124169921875,0.002998719457536936,-0.00803209375590086,-0.0024794030468910933
1782846147172246800,0.201246826171875,0.0017784589435905218,-0.001181378262117505,-0.000782436749432236
1782846147182251800,0.211251708984375,0.0036581179592758417,-0.00038962045800872147,-0.00038589202449657023
1782846147192256800,0.2212568359375,0.0037476003635674715,-0.004568386357277632,-0.00035952674807049334
1782846147202261800,0.23126171875,0.0030655646696686745,-0.003484213724732399,-0.0011347729014232755
1782846147212266800,0.241266845703125,0.003498594742268324,0.0002695118892006576,-0.0003147856332361698
1782846147222271700,0.251271728515625,0.0023411849979311228,-0.002528671408072114,-0.0018690064316615462
1782846147232276700,0.26127685546875,0.002382996492087841,-0.0031790153589099646,-0.00020586235041264445
1782846147242281700,0.27128173828125,0.0009361011325381696,-0.003320162883028388,0.0019379822770133615
1782846147252286700,0.28128662109375,0.0009214537567459047,-0.0007475492893718183,-0.002641855739057064
1782846147262291700,0.291291748046875,0.0017116136150434613,-0.0005637911963276565,-0.0016317188274115324
1782846147272296700,0.301296630859375,0.002764627570286393,-0.003481017891317606,-0.0029526466969400644
1782846147282301700,0.3113017578125,0.002799514913931489,-0.002779274946078658,-0.002124669961631298
1782846147292306700,0.321306640625,0.00018508969515096396,-0.0025457157753407955,-0.00014514227223116904
1782846147302311700,0.331311767578125,0.0014602112350985408,-0.00279046013019979,-0.0015070828376337886
1782846147312316700,0.341316650390625,0.002091646660119295,-0.0027531760279089212,-0.002414954360574484
1782846147322321700,0.35132177734375,0.0018303906545042992,-0.0016146745765581727,-0.002160090021789074
1782846147332326700,0.36132666015625,-0.0004093278548680246,-0.00304718897677958,0.0011163970921188593
1782846147342331600,0.37133154296875,0.0013579458463937044,-0.0027332021854817867,-0.00355851580388844
1782846147352336600,0.381336669921875,0.0009134642314165831,-0.004993693437427282,-0.000627973407972604
1782846147362341600,0.391341552734375,0.0033156354911625385,-0.0033510555513203144,-0.002954510971903801
1782846147372346600,0.4013466796875,0.0016476977616548538,-0.00321843009442091,-0.0011978897964581847
1782846147382351600,0.4113515625,0.0028490496333688498,-0.0012634035665541887,-0.0016636766958981752
1782846147392356600,0.421356689453125,0.001279382617212832,-0.003359045134857297,-0.002380067016929388
1782846147402361600,0.431361572265625,0.0012508867075666785,-0.0033984598703682423,-0.003686081152409315
1782846147412366600,0.44136669921875,0.002280997345224023,-0.0018895127577707171,-0.002216548891738057
1782846147422371600,0.45137158203125,0.0010431602131575346,-0.0033720945939421654,0.00018429075134918094
1782846147432376600,0.46137646484375,0.0033510555513203144,-0.0034091125708073378,0.0005392901366576552
1782846147442381600,0.471381591796875,0.0025662221014499664,-0.0019979034550487995,-0.0012780509423464537
1782846147452386600,0.481386474609375,-0.00022397184511646628,-0.0016578177455812693,0.0012772521004080772
1782846147462391600,0.4913916015625,0.001978195970878005,-0.003481017891317606,-0.00019041601626668125
1782846147472396500,0.501396484375,0.0013052152935415506,-0.0019600866362452507,0.00027031084755435586
1782846147482401500,0.511401611328125,0.0031153657473623753,-0.0032842103391885757,-0.0018282600212842226
1782846147492406500,0.521406494140625,0.0010921623324975371,-0.002375007141381502,-0.0018908443162217736
1782846147502411500,0.53141162109375,0.004434429574757814,-0.00318966805934906,-0.0017566210590302944
1782846147512416500,0.54141650390625,0.002710032742470503,-0.007836351171135902,-0.0012314456980675459
1782846147522421500,0.55142138671875,0.003811249742284417,-0.00401551416143775,-0.0025361282750964165
1782846147532426500,0.561426513671875,0.002627208363264799,-0.0000023968450477696024,0.0006737797521054745
1782846147542431500,0.571431396484375,0.0024256070610135794,-0.0012929646763950586,0.0000013315805063029984
1782846147552436500,0.5814365234375,0.0009515474666841328,-0.004772917367517948,-0.0010250506456941366
1782846147562441500,0.59144140625,0.00007723167072981596,-0.002252768026664853,-0.0026559706311672926
1782846147572446500,0.601446533203125,0.001136370818130672,-0.002030926523730159,-0.0005824333056807518
1782846147582451500,0.611451416015625,0.0007832356495782733,-0.0038626487366855145,-0.000645550258923322
1782846147592456700,0.621456787109375,0.0024434502702206373,-0.002266616327688098,-0.0016447682864964008
1782846147602461700,0.631461669921875,0.003707652911543846,-0.0009329052991233766,0.00042024682625196874
1782846147612466700,0.641466796875,0.0027928571216762066,-0.0032826124224811792,-0.002495914464816451
1782846147622471700,0.6514716796875,0.003556119045242667,-0.005404352676123381,-0.0007819040911272168
1782846147632476700,0.6614765625,0.0013781858142465353,-0.00487145408987999,0.001008539111353457
1782846147642481700,0.671481689453125,0.002033855998888612,-0.00166607357095927,-0.0010255833622068167
1782846147652486700,0.681486572265625,0.0038599856197834015,-0.0038077877834439278,-0.0031007183715701103
1782846147662491600,0.69149169921875,0.0017840516520664096,-0.0046964846551418304,-0.0025190841406583786
1782846147672496600,0.70149658203125,0.001969141187146306,-0.005519667640328407,0.000150202278746292
1782846147682501600,0.711501708984375,0.0034791536163538694,-0.005560946650803089,-0.0013017531018704176
1782846147692506600,0.721506591796875,0.0020189424976706505,-0.005682120565325022,0.00038535939529538155
1782846147702511600,0.73151171875,0.0012860405258834362,-0.001969673903658986,-0.003492203075438738
1782846147712516600,0.7415166015625,0.0012173309223726392,-0.003852528752759099,-0.0011925635626539588
1782846147722521600,0.751521484375,0.0027025758754462004,-0.003023753175511956,-0.0036727653350681067
1782846147732526600,0.761526611328125,0.0029260150622576475,-0.003261040663346648,0.0008511462947353721
1782846147742531600,0.771531494140625,0.0028578380588442087,-0.00364666641689837,-0.0007115966291166842
1782846147752536600,0.78153662109375,0.0020927118603140116,-0.0018333201296627522,-0.0008428904693573713
1782846147762541600,0.79154150390625,0.00330311874859035,-0.00222001108340919,-0.0046331011690199375
1782846147772546600,0.801546630859375,-0.00006205165118444711,-0.00538517814129591,0.0007637945818714797
1782846147782551600,0.811551513671875,0.0017457021167501807,-0.003358246060088277,-0.003716707695275545
1782846147792556500,0.821556640625,0.0029321403708308935,-0.0032866070978343487,0.0014591459184885025
1782846147802561500,0.8315615234375,0.0025214808993041515,-0.004070375580340624,0.0008088020258583128
1782846147812566500,0.84156640625,0.0009451558580622077,-0.002665025182068348,-0.0009912285022437572
1782846147822571500,0.851571533203125,0.001990979304537177,-0.004720453172922134,0.00005299690383253619
1782846147832576500,0.861576416015625,0.0021526331547647715,-0.0012809804175049067,-0.0005036037764512002
1782846147842581500,0.87158154296875,0.0011526161106303334,-0.0027947211638092995,0.0007925567333586514
1782846147852586500,0.88158642578125,0.0002061286650132388,-0.0048767803236842155,-0.001281779375858605
1782846147862591500,0.891591552734375,-0.0014793860027566552,-0.004507932811975479,-0.00045380264054983854
1782846147872596500,0.901596435546875,0.0021843246649950743,-0.0020743361674249172,-0.0034466630313545465
1782846147882601500,0.9116015625,0.0019265307346358895,-0.0035595810040831566,-0.00034727618913166225
1782846147892606500,0.9216064453125,0.0029233519453555346,-0.001889246515929699,-0.00105301383882761
1782846147902611500,0.931611572265625,0.0016594156622886658,-0.0030959248542785645,-0.0015038870042189956
1782846147912616400,0.941616455078125,0.0011587414192035794,-0.0013259878614917397,-0.001210673013702035
1782846147922621400,0.951621337890625,0.00321869645267725,-0.0044205812737345695,-0.0005571332876570523
1782846147932626400,0.96162646484375,0.001127582392655313,-0.0030828751623630524,-0.0018953717080876231
1782846147942631400,0.97163134765625,0.0019979034550487995,-0.002472745021805167,-0.0002777676854748279
1782846147952636400,0.981636474609375,0.002831206424161792,-0.003224821761250496,0.001306014135479927
1782846147962641400,0.991641357421875,0.005264536943286657,-0.00475587323307991,-0.002216815249994397
1782846147972646400,1.001646484375,-0.00019254654762335122,-0.005652559455484152,0.000010918960470007733
1782846147982651400,1.0116513671875,0.0021869877818971872,-0.003371029393747449,0.0000804274677648209
1782846147992656400,1.021656494140625,0.0036727653350681067,-0.003090598387643695,-0.0025446503423154354
1782846148002661400,1.031661376953125,-0.00041278995922766626,-0.004487160127609968,0.00005858954318682663
1782846148012666400,1.041666259765625,0.002380333375185728,-0.003968908917158842,-0.0036360137164592743
1782846148022671400,1.05167138671875,0.0000500674286740832,-0.0026612968649715185,0.0005004079430364072
1782846148032676400,1.06167626953125,0.0023158849216997623,-0.004357730504125357,-0.0017156084068119526
1782846148042681300,1.071681396484375,0.0036482643336057663,-0.002171807922422886,-0.003096457337960601
1782846148052686300,1.081686279296875,0.0021552962716668844,-0.000871652620844543,-0.0008239820599555969
1782846148062691300,1.09169140625,0.0007464840309694409,-0.002971821464598179,0.002569950418546796
1782846148072696300,1.1016962890625,0.0008594020619057119,-0.0022887205705046654,-0.002261290093883872
1782846148082701600,1.11170166015625,0.003620301140472293,-0.0033750240691006184,-0.0013603427214547992
1782846148092706600,1.12170654296875,0.0017707358347252011,-0.003138535423204303,-0.00011691277177305892
1782846148102711600,1.131711669921875,0.003427221905440092,-0.002999251941218972,-0.0008167914929799736
1782846148112716500,1.141716552734375,0.002916427794843912,-0.0018788601737469435,-0.002572879893705249
1782846148122721500,1.151721435546875,0.002808303339406848,-0.0021254688035696745,-0.0013749900972470641
1782846148132726500,1.1617265625,0.0007827030494809151,-0.007348726503551006,-0.0010341054294258356
1782846148142731500,1.1717314453125,0.003492469433695078,-0.005665875039994717,-0.001871136948466301
1782846148152736500,1.181736572265625,0.0026724820490926504,-0.0025451830588281155,-0.0024865935556590557
1782846148162741500,1.191741455078125,0.00256462418474257,-0.004024302586913109,0.00063383235828951
1782846148172746500,1.20174658203125,0.003718305379152298,-0.0036280243657529354,0.0015715312911197543
1782846148182751500,1.21175146484375,0.002042910782620311,-0.0041547976434230804,-0.0008293083519674838
1782846148192756500,1.221756591796875,0.0031372036319226027,-0.0026264095213264227,-0.005471464246511459
1782846148202761500,1.231761474609375,0.0019124159589409828,-0.0024349282030016184,-0.0032642364967614412
1782846148212766500,1.241766357421875,0.000847950461320579,-0.002523611532524228,-0.0023435817565768957
1782846148222771500,1.251771484375,0.002246909076347947,-0.003177151083946228,0.0004623247659765184
1782846148232776400,1.2617763671875,0.0024799355305731297,-0.000723048229701817,-0.00315930787473917
1782846148242781400,1.271781494140625,0.0008631304954178631,-0.0024341291282325983,0.00014993596414569765
1782846148252786400,1.281786376953125,0.004282363224774599,-0.0038432078436017036,-0.0024615598376840353
1782846148262791400,1.29179150390625,0.001362473238259554,-0.0026783409994095564,-0.0020040287636220455
1782846148272796400,1.30179638671875,0.002590723102912307,-0.0014767227694392204,-0.004622981417924166
1782846148282801400,1.311801513671875,0.0014671353856101632,-0.002910036128014326,-0.000532632227987051
1782846148292806700,1.321806640625,0.003707386553287506,-0.0031103058718144894,-0.0008918926469050348
1782846148302811600,1.331811767578125,0.0006711165769957006,-0.003623763332143426,-0.0016335829859599471
1782846148312816600,1.341816650390625,0.0023307986557483673,-0.0008804410463199019,-0.0018184063956141472
1782846148322821600,1.351821533203125,0.0022205437999218702,-0.0005499427788890898,-0.0007861651247367263
1782846148332826600,1.36182666015625,0.002145442645996809,-0.0023664848413318396,-0.0030956584960222244
1782846148342831600,1.37183154296875,0.0011385013349354267,-0.0017363809747621417,-0.0013278521364554763
1782846148352836600,1.381836669921875,0.0027025758754462004,-0.002635730430483818,-0.0004695153038483113
1782846148362841600,1.391841552734375,0.0033726270776242018,-0.003191798459738493,-0.0006785734440200031
1782846148372846600,1.4018466796875,0.0013187973527237773,-0.004254133440554142,-0.002737196860834956
1782846148382851600,1.4118515625,0.004141481593251228,-0.0012626046082004905,-0.0017803232185542583
1782846148392856600,1.421856689453125,0.00017017599020618945,-0.002180596347898245,-0.0007912251749075949
1782846148402861600,1.431861572265625,0.0014650048688054085,-0.001535046030767262,-0.0013933659065514803
1782846148412866600,1.441866455078125,0.0014117417158558965,-0.0038754320703446865,0.0004237089306116104
1782846148422871600,1.45187158203125,0.00016058860637713224,-0.004496481269598007,-0.001585912425071001
1782846148432876300,1.461876220703125,0.0015494271647185087,-0.003495398908853531,-0.0015198660548776388
1782846148442881300,1.47188134765625,0.002371278591454029,-0.0005608617211692035,-0.0006711165769957006
1782846148452886300,1.48188623046875,0.00250576832331717,-0.003102849004790187,0.0025784724857658148
1782846148462891300,1.491891357421875,0.002540122950449586,-0.0021262678783386946,-0.0012532835826277733
1782846148472896300,1.501896240234375,0.0033036512322723866,-0.005654956214129925,0.002088983543217182
1782846148482901200,1.5119013671875,0.00148151651956141,-0.0037055222783237696,-0.001555552356876433
1782846148492906200,1.52190625,0.001820270554162562,-0.005648031830787659,0.00015952334797475487
1782846148502911200,1.5319111328125,0.0013883059145882726,-0.003316700691357255,0.0009526127250865102
1782846148512916200,1.541916259765625,0.0023433153983205557,-0.0031033814884722233,-0.001213602488860488
1782846148522921200,1.551921142578125,0.0008396946941502392,-0.002831472782418132,0.0003478088474366814
1782846148532926200,1.56192626953125,0.0029284118209034204,-0.003468500915914774,-0.0005438174703158438
1782846148542931200,1.57193115234375,0.0037798245903104544,0.00020373181905597448,-0.001853560097515583
1782846148552936200,1.581936279296875,0.0032418658956885338,-0.0025486452504992485,-0.00040746363811194897
1782846148562941400,1.59194140625,0.0025161546654999256,-0.0041401502676308155,-0.00038003307417966425
1782846148572946400,1.601946533203125,0.0035052525345236063,-0.002685797866433859,-0.003614708548411727
1782846148582951400,1.611951416015625,0.0027302727103233337,-0.0017683389596641064,-0.00261868629604578
1782846148592956400,1.621956298828125,0.0034903388004750013,-0.001865011639893055,-0.0021411816123872995
1782846148602961400,1.63196142578125,0.0033744913525879383,-0.0032985913567245007,-0.003064765827730298
1782846148612966400,1.64196630859375,0.0035686357878148556,-0.004128965083509684,-0.0008255799184553325
1782846148622971400,1.651971435546875,0.0023012375459074974,-0.0019105518003925681,0.00008229167724493891
1782846148632976400,1.661976318359375,0.002126534003764391,-0.005605954211205244,0.0012950951931998134
1782846148642981400,1.6719814453125,0.0032077773939818144,-0.003376621985808015,-0.003079679561778903
1782846148652986400,1.681986328125,0.0007163903210312128,-0.0027779433876276016,-0.0009755159262567759
1782846148662991400,1.691991455078125,0.0034850125666707754,-0.0022503710351884365,0.000365918327588588
1782846148672996400,1.701996337890625,0.0027984497137367725,-0.00242214510217309,-0.0010434264549985528
1782846148683001300,1.71200146484375,0.0016913736471906304,-0.00299259414896369,-0.0002103897277265787
1782846148693006300,1.72200634765625,0.0018239989876747131,-0.0007478156476281583,-0.003007774008437991
1782846148703011300,1.73201123046875,0.002276470186188817,-0.002948119305074215,-0.0004625910660251975
1782846148713016300,1.742016357421875,0.001317998394370079,-0.00358807691372931,0.0013709953054785728
1782846148723021300,1.752021240234375,0.0018900453578680754,-0.0015765913994982839,-0.0012191950809210539
1782846148733026300,1.7620263671875,0.0026969832833856344,-0.005132976453751326,-0.0005938849062658846
1782846148743031300,1.77203125,0.0011614045361056924,-0.00336117553524673,-0.0001715075777610764
1782846148753036300,1.782036376953125,0.0021494373213499784,-0.0037912761326879263,0.0008910936885513365
1782846148763041300,1.792041259765625,0.003304982790723443,-0.0019315907265990973,-0.000609863898716867
1782846148773046300,1.80204638671875,-0.00004314320904086344,-0.0017457021167501807,-0.0012064119800925255
1782846148783051300,1.81205126953125,0.0017568873008713126,-0.0033252229914069176,-0.0010458233300596476
1782846148793056300,1.82205615234375,0.0019678096286952496,-0.001654089312069118,-0.004523645620793104
1782846148803061200,1.832061279296875,0.0007619303651154041,-0.004054396413266659,-0.0023989754263311625
1782846148813066200,1.842066162109375,-0.00042211104300804436,-0.005119128152728081,-0.002222407842054963
1782846148823071200,1.8520712890625,0.0010455570882186294,-0.002560629276558757,-0.0013630058383569121
1782846148833076200,1.862076171875,0.001654355670325458,-0.0005046690348535776,0.00012889699428342283
1782846148843081200,1.872081298828125,0.0029822078067809343,-0.0004809668753296137,-0.0024825986474752426
1782846148853086200,1.882086181640625,0.001978462329134345,-0.002743322169408202,-0.0019632822368294
1782846148863091200,1.89209130859375,0.003715908620506525,-0.000818123109638691,0.0018421085551381111
1782846148873096200,1.90209619140625,0.003649862250313163,-0.0012029499048367143,0.0002556634717620909
1782846148883101200,1.91210107421875,0.0015217302134260535,-0.005033907014876604,0.0023792681749910116
1782846148893106200,1.922106201171875,0.0016197345685213804,-0.0046482812613248825,-0.002086320426315069
1782846148903111200,1.932111083984375,0.003293264890089631,-0.0036940707359462976,0.0016194682102650404
1782846148913116200,1.9421162109375,0.001674861996434629,-0.004706870764493942,-0.0036645096261054277
1782846148923121200,1.95212109375,0.0031214910559356213,-0.0017899106023833156,-0.0005661880713887513
1782846148933126100,1.962126220703125,0.001755023142322898,-0.006023005116730928,-0.003935885615646839
1782846148943131100,1.972131103515625,0.005723932292312384,-0.0027425233274698257,-0.00126739835832268
1782846148953136000,1.98213623046875,0.0032437301706522703,-0.002888730727136135,0.001392300589941442
1782846148963141000,1.99214111328125,0.00011691277177305892,-0.004892493132501841,0.0006828344776295125
1782846148973146000,2.00214599609375,0.0014016216155141592,-0.0033902039285749197,-0.002275937469676137
1782846148983151000,2.012151123046875,0.0015776565996930003,-0.002721750643104315,-0.0016282566357403994
1782846148993156000,2.022156005859375,0.0031241541728377342,-0.0043870252557098866,0.0007877630414441228
1782846149003161000,2.0321611328125,0.001621066126972437,-0.0023302659392356873,-0.0014436995843425393
1782846149013166000,2.042166015625,0.0036040558479726315,-0.0033846113365143538,-0.0011323761427775025
1782846149023171000,2.052171142578125,0.0021939121652394533,-0.0030716899782419205,-0.0025097629986703396
1782846149033176000,2.062176025390625,0.0037292244378477335,-0.0017246630741283298,-0.0026040389202535152
1782846149043181000,2.07218115234375,0.0009827064350247383,-0.002561428351327777,0.0015241270884871483
1782846149053186300,2.082186279296875,0.0036128442734479904,-0.0037262949626892805,0.00018562232435215265
1782846149063191300,2.09219140625,0.001110005541704595,-0.003939347807317972,-0.00452923821285367
1782846149073196300,2.1021962890625,0.0016548882704228163,-0.002229065867140889,-0.000901480030734092
1782846149083201300,2.112201171875,0.0023031015880405903,-0.005329518113285303,0.0029582392890006304
1782846149093206300,2.122206298828125,0.002823217073455453,-0.0007590008899569511,-0.0024895230308175087
1782846149103211300,2.132211181640625,0.0019981698133051395,-0.0022152173332870007,0.000036218989407643676
1782846149113216300,2.14221630859375,0.00032650353386998177,-0.006804376374930143,0.0011456918437033892
1782846149123221200,2.15222119140625,0.002296976512297988,-0.004908738657832146,-0.0036072516813874245
1782846149133226200,2.162226318359375,0.0034751589410007,-0.005453887395560741,0.0020791299175471067
1782846149143231200,2.172231201171875,0.0013451626291498542,-0.004339354578405619,-0.003005377249792218
1782846149153236200,2.182236328125,0.0018748653819784522,-0.0054392400197684765,-0.0024889903143048286
1782846149163241200,2.1922412109375,0.004824316129088402,-0.003037601476535201,-0.0004239752306602895
1782846149173246200,2.20224609375,0.0007683219737373292,-0.0023041670210659504,-0.00010519486386328936
1782846149183251200,2.212251220703125,0.0014405038673430681,-0.002416019793599844,0.0002324939559912309
1782846149193256200,2.222256103515625,0.0041036647744476795,-0.0019566244445741177,-0.0025931198615580797
1782846149203261400,2.232261474609375,0.0008040083339437842,-0.001704955706372857,-0.002243180526420474
1782846149213266400,2.242266357421875,0.0008950884221121669,-0.0027145601343363523,-0.0010455570882186294
1782846149223271400,2.252271484375,0.0028687571175396442,-0.00301736150868237,0.0007731156656518579
1782846149233276400,2.2622763671875,0.002167813014239073,-0.0020905814599245787,-0.0015299860388040543
1782846149243281400,2.272281494140625,0.000940095866099,-0.0026876621413975954,0.00021278657368384302
1782846149253286400,2.282286376953125,0.0020655477419495583,-0.002659965306520462,-0.0015331818722188473
1782846149263291400,2.29229150390625,0.0020000338554382324,-0.0056799896992743015,-0.0007653924985788763
1782846149273296400,2.30229638671875,0.0018285263795405626,-0.005073321983218193,-0.0014948323369026184
1782846149283301400,2.31230126953125,0.00464721629396081,-0.0030575753189623356,-0.0024232103023678064
1782846149293306400,2.322306396484375,0.0036940707359462976,-0.0036703685764223337,-0.001213868847116828
1782846149303311400,2.332311279296875,0.0036096484400331974,-0.0020762004423886538,-0.0017899106023833156
1782846149313316400,2.34231640625,0.0012290488230064511,-0.003299922915175557,-0.00021731393644586205
1782846149323321300,2.3523212890625,0.0017132115317508578,-0.004551874939352274,-0.0024913870729506016
1782846149333326300,2.362326416015625,0.004582235123962164,-0.004421646241098642,0.0023523701820522547
1782846149343331300,2.372331298828125,0.0023526365403085947,-0.0007648598402738571,-0.00213665422052145
1782846149353336300,2.38233642578125,0.0019198728259652853,-0.0026642263401299715,-0.0007424892974086106
1782846149363341300,2.39234130859375,0.003906324505805969,-0.0016263924771919847,0.00005193164179218002
1782846149373346300,2.40234619140625,0.0022338596172630787,-0.0031196267809718847,-0.0022828616201877594
1782846149383351300,2.412351318359375,0.0032868734560906887,-0.004984905011951923,-0.0003968109958805144
1782846149393356300,2.422356201171875,0.0025217472575604916,-0.002834668615832925,-0.0015816513914614916
1782846149403361300,2.432361328125,-0.0006647250265814364,-0.003207511268556118,-0.0021664814557880163
1782846149413366300,2.4423662109375,0.000731836655177176,-0.002255697501823306,-0.00019148127466905862
1782846149423371300,2.452371337890625,0.001898034941405058,-0.00216488353908062,0.0015659386990591884
1782846149433375700,2.462375732421875,0.0021281319204717875,-0.002784867538139224,-0.0007283745799213648
1782846149443380700,2.472380615234375,0.0007387608638964593,-0.004311391618102789,-0.0012602078495547175
1782846149453385700,2.4823857421875,0.0016551546286791563,-0.003934287931770086,-0.0013134710025042295
1782846149463390700,2.492390625,0.003757453989237547,-0.0006708502769470215,-0.00173771264962852
1782846149473395700,2.502395751953125,0.0023158849216997623,-0.0013129384024068713,-0.004281297791749239
1782846149483400700,2.512400634765625,0.0033244239166378975,-0.004773982334882021,0.0013113404856994748
1782846149493405700,2.52240576171875,0.0009054747642949224,-0.0032890038564801216,0.00004900216299574822
1782846149503411000,2.532410888671875,0.0034589136485010386,-0.006160157732665539,0.0013917679898440838
1782846149513416000,2.542416015625,0.0015784555580466986,-0.004427771549671888,-0.00019574233738239855
1782846149523421000,2.5524208984375,0.00138084904756397,-0.0023875238839536905,-0.0013017531018704176
1782846149533426000,2.562426025390625,0.0022269352339208126,-0.0010229201288893819,-0.0002668487431947142
1782846149543431000,2.572430908203125,0.001401089015416801,-0.0031140341889113188,0.00026365293888375163
1782846149553436000,2.582435791015625,0.001793905277736485,-0.004013117402791977,0.0005089300684630871
1782846149563441000,2.59244091796875,0.0022146848496049643,-0.0031103058718144894,-0.00021917815320193768
1782846149573446000,2.60244580078125,-0.0010596717474982142,-0.00538571085780859,-0.0035902075469493866
1782846149583451000,2.612450927734375,0.0028399948496371508,-0.001531850197352469,-0.0005760417552664876
1782846149593455900,2.622455810546875,-0.0005017395596951246,-0.0024074974935501814,0.0015867113834246993
1782846149603460900,2.6324609375,0.0004540689697023481,-0.0017145430902019143,0.002127865795046091
1782846149613465900,2.6424658203125,0.0034738273825496435,-0.004564125556498766,-0.00022983079543337226
1782846149623470800,2.652470947265625,0.003212304785847664,-0.004776113200932741,-0.0008258462767116725
1782846149633475800,2.662475830078125,0.0034144388046115637,-0.003907389938831329,0.0005446164286695421
1782846149643480800,2.672480712890625,0.0031547807157039642,-0.0011648666113615036,-0.0032431974541395903
1782846149653485800,2.68248583984375,0.002067412016913295,-0.00370179396122694,0.00022024342615623027
1782846149663490800,2.69249072265625,0.001677525113336742,-0.004244812298566103,-0.0003475425182841718
1782846149673495800,2.702495849609375,0.004222974646836519,-0.002752110594883561,-0.002171275205910206
1782846149683500800,2.712500732421875,0.0024498419370502234,-0.0030455910600721836,0.0003510046226438135
1782846149693505800,2.722505859375,0.0044235107488930225,-0.003988882526755333,-0.0015747271245345473
1782846149703510800,2.7325107421875,0.0017571536591276526,-0.0035577169619500637,-0.001076715998351574
1782846149713515800,2.742515869140625,0.0012737899087369442,-0.003355849301442504,0.0003105245705228299
1782846149723520800,2.752520751953125,0.0023451796732842922,-0.0037790255155414343,-0.0014439659425988793
1782846149733525800,2.76252587890625,0.002469815546646714,-0.0015267902053892612,-0.0023121563717722893
1782846149743530800,2.77253076171875,0.0017329188995063305,-0.004168912302702665,0.000254331884207204
1782846149753535700,2.78253564453125,0.002758502261713147,-0.0034519892651587725,-0.001261805766262114
1782846149763540700,2.792540771484375,0.0018314558546990156,-0.0020660804584622383,-0.002507632365450263
1782846149773545700,2.802545654296875,0.0015763250412419438,-0.00404480891302228,-0.0011768508702516556
1782846149783550700,2.81255078125,0.0023489079903811216,-0.003254915354773402,0.0015126754296943545
1782846149793555700,2.8225556640625,0.002025866648182273,-0.0037939392495900393,-0.0035081820096820593
1782846149803560700,2.832560791015625,0.001957689644768834,-0.0035350800026208162,-0.0025779400020837784
1782846149813565700,2.842565673828125,0.0028541097417473793,-0.003486077766865492,-0.00004234426160110161
1782846149823570700,2.85257080078125,0.0025238776579499245,-0.00390259618870914,-0.0012098740553483367
1782846149833575700,2.86257568359375,0.003668504301458597,-0.007227818947285414,-0.0015371765475720167
1782846149843580700,2.87258056640625,0.002674079965800047,-0.0037619813811033964,-0.003955060616135597
1782846149853585700,2.882585693359375,0.0017451694002375007,-0.0035459990613162518,0.0003842941368930042
1782846149863590700,2.892590576171875,0.0031973912846297026,-0.003605387406423688,-0.0018993664998561144
1782846149873595600,2.902595703125,0.0016144082183018327,-0.0016953683225437999,-0.002624545246362686
1782846149883600600,2.9126005859375,-0.0010804444318637252,-0.003989947959780693,-0.0007480819476768374
1782846149893605600,2.922605712890625,0.005004612263292074,-0.002008023438975215,-0.0013017531018704176
1782846149903610600,2.932610595703125,0.003567037871107459,-0.003658917034044862,0.0015614113071933389
1782846149913615600,2.94261572265625,0.0022330605424940586,-0.0021587584633380175,-0.0020058928057551384
1782846149923620600,2.95262060546875,0.0007771103992126882,-0.005653890781104565,-0.0004601942200679332
1782846149933625600,2.96262548828125,0.0026876621413975954,-0.0031856733839958906,-0.0024381240364164114
1782846149943630600,2.972630615234375,0.003442934714257717,-0.0043990095146000385,0.0002311623829882592
1782846149953635600,2.982635498046875,0.0015241270884871483,-0.004087952431291342,-0.0012929646763950586
1782846149963640600,2.992640625,-0.00047377636656165123,-0.002255431143566966,-0.0012692625168710947
1782846149973645600,3.0026455078125,-0.000015978966985130683,-0.003388606244698167,-0.001844771672040224
1782846149983650600,3.012650634765625,0.0010815097484737635,-0.001960619119927287,-0.003418433479964733
1782846149993655800,3.02265576171875,0.004479170776903629,-0.0023606258910149336,-0.00020053602929692715
1782846150003660800,3.032660888671875,0.0012903015594929457,-0.005589975044131279,-0.0028876655269414186
1782846150013665800,3.042665771484375,0.0006114617572166026,-0.0029196233954280615,-0.0021694109309464693
1782846150023670800,3.0526708984375,0.0019853864796459675,-0.003471164032816887,0.000975782226305455
1782846150033676000,3.062676025390625,0.0032985913567245007,-0.0036751623265445232,-0.003422162029892206
1782846150043681000,3.072680908203125,0.0036131106317043304,-0.0024439829867333174,-0.0014652712270617485
1782846150053686000,3.08268603515625,0.0033135050907731056,-0.003867442486807704,-0.0006356965750455856
1782846150063691000,3.09269091796875,0.0027118970174342394,-0.0021350563038140535,-0.00410473020747304
1782846150073696000,3.102696044921875,0.0041497377678751945,0.000597879639826715,-0.002217081608250737
1782846150083701000,3.112700927734375,0.0019478360190987587,-0.0021076255943626165,-0.0012330436147749424
1782846150093706000,3.1227060546875,0.0023752732668071985,-0.00347435986623168,-0.0010937602492049336
1782846150103711000,3.1327109375,0.0018096179701387882,-0.0027957865968346596,-0.0011358382180333138
1782846150113716000,3.142716064453125,0.0023273364640772343,-0.0005539375124499202,-0.0020413128659129143
1782846150123721000,3.152720947265625,0.0012538161827251315,-0.0019385149935260415,-0.0006780407857149839
1782846150133726000,3.162725830078125,0.004197141621261835,-0.00395665830001235,-0.0004063983797095716
1782846150143731000,3.17273095703125,0.0021028320770710707,-0.001636246219277382,-0.001136370818130672
1782846150153736000,3.18273583984375,0.002844256116077304,-0.0046299053356051445,0.000036751622246811166
1782846150163741000,3.192740966796875,0.004069576505571604,-0.0031201594974845648,-0.003091131104156375
1782846150173746000,3.202745849609375,0.0006921555614098907,-0.00529622845351696,-0.0035233621019870043
1782846150183751000,3.2127509765625,-0.0009914948605000973,-0.003822967642918229,-0.0010993528412654996
1782846150193756000,3.222755859375,0.0036599822342395782,-0.005345496814697981,-0.0011179950088262558
1782846150203761000,3.232760986328125,0.0039049931801855564,-0.0031132353469729424,0.001540904981084168
1782846150213766000,3.242765869140625,0.0011760519118979573,-0.0035358788445591927,-0.0004183826094958931
1782846150223771000,3.25277099609375,0.00185089698061347,-0.003038134193047881,-0.0013899037148803473
1782846150233775900,3.26277587890625,0.0023731428664177656,-0.0049494849517941475,-0.0016756609547883272
1782846150243780900,3.27278076171875,0.0008050735923461616,-0.002692722249776125,0.0012535499408841133
1782846150253785900,3.282785888671875,0.00270630419254303,-0.004732969682663679,-0.001770469476468861
1782846150263790800,3.292790771484375,0.0017012272728607059,-0.0025654230266809464,-0.0032692966051399708
1782846150273795800,3.3027958984375,0.0011949603212997317,-0.0026940538082271814,-0.002808303339406848
1782846150283800800,3.31280078125,0.004346811678260565,-0.00580782163888216,-0.0006785734440200031
1782846150293805800,3.322805908203125,0.0014887070283293724,-0.0020671456586569548,-0.0016189356101676822
1782846150303810800,3.332810791015625,0.0018370485631749034,-0.00375958438962698,-0.00034354778472334146
1782846150313815800,3.34281591796875,0.0010775149567052722,-0.0022295983508229256,-0.0018916432745754719
1782846150323820800,3.35282080078125,0.0035265579354017973,-0.0015214639715850353,-0.001731587341055274
1782846150333825800,3.36282568359375,0.0020991035271435976,-0.0041249701753258705,-0.0025563682429492474
1782846150343830800,3.372830810546875,0.0008524778531864285,-0.002965962514281273,-0.0013757890556007624
1782846150353835800,3.382835693359375,0.003698065411299467,-0.004610198084264994,-0.002251702593639493
1782846150363840800,3.3928408203125,0.0030868700705468655,-0.0036876790691167116,-0.0007246461464092135
1782846150373845800,3.402845703125,0.003102849004790187,-0.004081028047949076,0.0014274542918428779
1782846150383850800,3.412850830078125,0.0026849990244954824,-0.004609665367752314,-0.0009539442835375667
1782846150393855700,3.422855712890625,0.0012487561907619238,-0.0019627497531473637,-0.0010524812387302518
1782846150403860700,3.43286083984375,0.0029784792568534613,-0.003768905531615019,-0.0025979136116802692
1782846150413865700,3.44286572265625,0.0029169602785259485,-0.0041308291256427765,-0.001341966912150383
1782846150423870700,3.45287060546875,0.0035111114848405123,-0.00444002216681838,-0.0024173513520509005
1782846150433877200,3.462877197265625,0.0030298782512545586,-0.0022208099253475666,-0.00012197277828818187
1782846150443882200,3.47288232421875,0.0006900250446051359,-0.0033726270776242018,-0.001272990950383246
1782846150453887200,3.48288720703125,0.00446878420189023,-0.00019654128118418157,-0.0010980212828144431
1782846150463892200,3.492892333984375,0.0013704627053812146,-0.0032692966051399708,-0.0010106696281582117
1782846150473897200,3.502897216796875,0.0035177695099264383,-0.003136138431727886,-0.0024762072134763002
1782846150483902200,3.512902099609375,0.0032711606472730637,-0.002549976808950305,0.001484445994719863
1782846150493907200,3.5229072265625,0.002335858531296253,-0.002529470482841134,-0.00005885586142539978
1782846150503912200,3.532912109375,0.0009616674506105483,-0.001505751279182732,-0.0037462685722857714
1782846150513917200,3.542917236328125,0.002805107505992055,-0.003204581793397665,-0.0004090615548193455
1782846150523922200,3.552922119140625,0.0031587753910571337,-0.001751827308908105,0.0011720572365447879
1782846150533927200,3.56292724609375,0.0028913940768688917,-0.002177666872739792,-0.0019267969764769077
1782846150543932200,3.57293212890625,0.001044758129864931,-0.004574511665850878,0.00011265171633567661
1782846150553937200,3.582937255859375,0.0010327738709747791,-0.002689792774617672,-0.0008689894457347691
1782846150563942100,3.592942138671875,0.0035665053874254227,-0.0019678096286952496,-0.0020751350093632936
1782846150573947100,3.602947021484375,0.0026053704787045717,-0.0034794199746102095,-0.0017715347930788994
1782846150583952100,3.6129521484375,0.00233266269788146,-0.0020210728980600834,-0.00004926848123432137
1782846150593957000,3.62295703125,0.004077565856277943,-0.0028101676143705845,0.00023196132679004222
1782846150603962000,3.632962158203125,0.004070375580340624,-0.0014088122406974435,-0.0010370349045842886
1782846150613967400,3.64296728515625,0.002901247702538967,-0.0025814019609242678,0.000571248063351959
1782846150623972400,3.652972412109375,0.002272475278005004,-0.003531884169206023,-0.0014405038673430681
1782846150633977300,3.662977294921875,0.0024658208712935448,-0.004538026638329029,-0.0035976641811430454
1782846150643982300,3.672982421875,0.003560912562534213,0.00014434332842938602,-0.0026903252582997084
1782846150653987300,3.6829873046875,-0.0002948119363281876,-0.0017568873008713126,-0.0036709012929350138
1782846150663992300,3.692992431640625,0.003719637170433998,-0.0036155073903501034,-0.0023126890882849693
1782846150673997300,3.702997314453125,0.003441869281232357,-0.0019254654180258512,-0.00138031633105129
1782846150684002300,3.713002197265625,0.0006157228490337729,-0.004876514431089163,-0.0007158577209338546
1782846150694007300,3.72300732421875,0.0011326423846185207,-0.0035430695861577988,-0.001743305241689086
1782846150704012300,3.73301220703125,0.0014122743159532547,-0.004367318004369736,-0.0000031957933970261365
1782846150714017300,3.743017333984375,0.002502572489902377,-0.0013736584223806858,-0.0012841762509196997
1782846150724022300,3.753022216796875,0.0014953649369999766,-0.0031092404387891293,0.0004644552827812731
1782846150734027300,3.76302734375,0.0001430117554264143,-0.0024525050539523363,-0.0011028150329366326
1782846150744032300,3.7730322265625,0.0030043120495975018,-0.005528722424060106,0.0004844290087930858
1782846150754037500,3.78303759765625,0.003305515507236123,-0.005614476278424263,-0.0008476841612718999
1782846150764042500,3.79304248046875,0.0031824775505810976,-0.004704740364104509,-0.0013930995482951403
1782846150774047500,3.803047607421875,0.0020940436515957117,-0.002782204421237111,-0.003485811408609152
1782846150784052500,3.813052490234375,0.0017859158106148243,-0.0034461303148418665,-0.0016231966437771916
1782846150794057500,3.823057373046875,0.0030509172938764095,-0.00436145905405283,-0.0021845910232514143
1782846150804062500,3.8330625,0.0006079996819607913,-0.00564004248008132,-0.002478870330378413
1782846150814067500,3.8430673828125,0.002377670258283615,-0.003605387406423688,-0.0034117756877094507
1782846150824072400,3.853072509765625,0.0006202502408996224,-0.0043990095146000385,0.0006687197601422668
1782846150834077400,3.863077392578125,0.0021664814557880163,-0.0037579864729195833,-0.002426672261208296
1782846150844082400,3.87308251953125,-0.0006580671179108322,-0.0026144252624362707,-0.0007898935582488775
1782846150854087400,3.88308740234375,0.002275937469676137,-0.00381471193395555,0.000368847802747041
1782846150864092400,3.893092529296875,0.0003174488083459437,-0.005330316722393036,0.00008602010348113254
1782846150874097400,3.903097412109375,0.002144909929484129,-0.003471430391073227,0.0004114583716727793
1782846150884102400,3.913102294921875,0.002960103563964367,-0.003596865339204669,-0.0011765845119953156
1782846150894107400,3.923107421875,0.0034586472902446985,-0.0020791299175471067,-0.0018157431622967124
1782846150904112400,3.9331123046875,0.0007145261042751372,-0.0046512107364833355,-0.0014689996605738997
1782846150914117400,3.943117431640625,0.002752110594883561,-0.004683168604969978,0.000075101139373146
1782846150924122400,3.953122314453125,0.002049302449449897,-0.004143878817558289,-0.00301709515042603
1782846150934127400,3.96312744140625,0.004449076950550079,-0.003492469433695078,-0.0015193333383649588
1782846150944132400,3.97313232421875,0.0012218583142384887,-0.0013017531018704176,-0.0025132251903414726
1782846150954137300,3.983137451171875,0.0027976506389677525,-0.0023371900897473097,-0.0023731428664177656
1782846150964142300,3.993142333984375,0.0014088122406974435,-0.003835218260064721,-0.0001893507578643039
1782846150974147300,4.003147216796875,0.003326021833345294,-0.004064250271767378,-0.003448527306318283
1782846150984152300,4.01315234375,0.0013243899447843432,-0.0015662050573155284,-0.002862099092453718
1782846150994157300,4.0231572265625,0.0008580705034546554,-0.000054328484111465514,-0.002447977662086487
1782846151004162300,4.033162353515625,0.005434979218989611,-0.0033422671258449554,-0.0018157431622967124
1782846151014167300,4.043167236328125,0.00216488353908062,-0.0008199872681871057,-0.0027206854429095984
1782846151024172300,4.05317236328125,0.0007126618875190616,-0.00418249424546957,-0.0023033679462969303
1782846151034177300,4.06317724609375,0.0013819142477586865,-0.003915645647794008,0.00008069378236541525
1782846151044182300,4.073182373046875,0.0036213663406670094,-0.0018943065078929067,-0.00038828887045383453
1782846151054187300,4.083187255859375,0.0041281660087406635,-0.002251702593639493,-0.0008639294537715614
1782846151064192300,4.093192138671875,0.0026232136879116297,-0.003239735495299101,-0.0015478292480111122
1782846151074197200,4.103197265625,0.00119602563790977,-0.0033361418172717094,-0.00046099317842163146
1782846151084202200,4.1132021484375,0.0016618125373497605,-0.002950782421976328,-0.001413339632563293
1782846151094207200,4.123207275390625,0.00024154871061909944,-0.001392300589941442,-0.001243696198798716
1782846151104212200,4.133212158203125,0.002939330879598856,-0.0027377295773476362,-0.0026146916206926107
1782846151114217200,4.14321728515625,0.003242132253944874,-0.0020391824655234814,-0.00022130868455860764
1782846151124222200,4.15322216796875,0.0017417073249816895,-0.0048861014656722546,-0.00016724651504773647
1782846151134227200,4.163227294921875,0.0037942056078463793,-0.002995789982378483,-0.0038338867016136646
1782846151144232200,4.173232177734375,0.003453587181866169,-0.005627259146422148,0.0004916195175610483
1782846151154237200,4.1832373046875,0.002841060282662511,-0.0017683389596641064,-0.000355532014509663
1782846151164242200,4.1932421875,0.00398648576810956,-0.004742823541164398,-0.004435494542121887
1782846151174247200,4.2032470703125,0.0028703550342470407,-0.0035119105596095324,-0.0009528790251351893
1782846151184252200,4.213252197265625,0.004736964590847492,-0.004581968765705824,-0.0003307645965833217
1782846151194257200,4.223257080078125,0.003073021536692977,-0.003418167121708393,-0.0013938985066488385
1782846151204263200,4.23326318359375,0.0007749798824079335,-0.004442951641976833,0.0003067961661145091
1782846151214267100,4.24326708984375,0.0020415792241692543,-0.0026578346733003855,-0.003022687742486596
1782846151224272100,4.253272216796875,0.002189651131629944,-0.0034171019215136766,-0.0014357101172208786
1782846151234277400,4.26327734375,-0.00041305628838017583,-0.0033808830194175243,-0.0012061456218361855
1782846151244282400,4.273282470703125,-0.00013076121103949845,-0.004475175868719816,-0.00013076121103949845
1782846151254287400,4.283287353515625,0.0036666402593255043,-0.005287972744554281,0.0012128035305067897
1782846151264292400,4.293292236328125,0.004065581597387791,-0.0007344998302869499,0.00011531487689353526
1782846151274297300,4.30329736328125,-0.00030360036180354655,-0.005690376274287701,-0.0008026767172850668
1782846151284302300,4.31330224609375,0.003658917034044862,-0.0022130869328975677,0.0012237224727869034
1782846151294307300,4.323307373046875,0.0008122641011141241,-0.005103948060423136,-0.0015267902053892612
1782846151304312300,4.333312255859375,0.0013763216556981206,-0.004285026341676712,-0.0011579424608498812
1782846151314317300,4.3433173828125,0.0018050905782729387,-0.005375856999307871,-0.00009640643111197278
1782846151324322300,4.353322265625,0.001976331928744912,-0.00245090713724494,-0.0015574166318401694
1782846151334327300,4.363327392578125,0.00130947632715106,-0.003689010627567768,-0.0014327806420624256
1782846151344332300,4.373332275390625,0.0035020567011088133,-0.0026040389202535152,-0.0003304982965346426
1782846151354337300,4.383337158203125,0.001460477476939559,-0.004295146092772484,-0.00046924897469580173
1782846151364342300,4.39334228515625,0.001859152689576149,-0.004177434369921684,0.0012980246683582664
1782846151374348300,4.403348388671875,0.0024197481106966734,-0.0043532028794288635,-0.0008261125767603517
1782846151384352300,4.413352294921875,0.0033859428949654102,-0.003581951605156064,-0.00021731393644586205
1782846151394358300,4.423358154296875,0.001975000137463212,-0.003522030543535948,-0.0028075044974684715
1782846151404362200,4.4333623046875,0.0013129384024068713,-0.0017382452497258782,-0.001981924520805478
1782846151414367200,4.4433671875,0.0009720537927933037,-0.0034019220620393753,-0.0020751350093632936
1782846151424372200,4.453372314453125,0.0005715143634006381,-0.004334827419370413,-0.0008559399866499007
1782846151434377000,4.463376953125,0.0020000338554382324,-0.0023851271253079176,-0.0015968313673511147
1782846151444382000,4.4733818359375,0.0035569178871810436,-0.00606481684371829,0.002615490462630987
1782846151454387000,4.483386962890625,0.0019267969764769077,-0.0022626216523349285,-0.0003251719754189253
1782846151464392000,4.493391845703125,0.00180855265352875,-0.003819771809503436,-0.003335609333589673
1782846151474397000,4.50339697265625,0.0014117417158558965,-0.005406217183917761,-0.003204581793397665
1782846151484402000,4.51340185546875,0.00216568261384964,-0.002478337613865733,-0.0020330571569502354
1782846151494407000,4.523406982421875,0.001749430550262332,-0.002971288748085499,0.00010492854926269501
1782846151504412000,4.533411865234375,-0.0005313006113283336,-0.0021971079986542463,-0.0011385013349354267
1782846151514417000,4.5434169921875,0.0005608617211692035,-0.0030189594253897667,-0.0006948187365196645
1782846151524422000,4.553421875,0.0027321369852870703,-0.00336117553524673,0.0020591560751199722
1782846151534427000,4.563427001953125,0.0012386362068355083,-0.0025422535836696625,0.00009028115891851485
1782846151544431900,4.573431884765625,0.0017571536591276526,-0.00401604687795043,0.001383778522722423
1782846151554436900,4.583436767578125,0.0012532835826277733,-0.003594468580558896,-0.0012463594321161509
1782846151564441900,4.59344189453125,0.002487925114110112,-0.0032141690608114004,0.0005848301807418466
1782846151574446800,4.60344677734375,0.0009805759182199836,-0.0033302828669548035,-0.0017310547409579158
1782846151584451800,4.613451904296875,0.0006056028068996966,-0.004306863993406296,-0.001145159243606031
1782846151594456800,4.623456787109375,0.0006916229031048715,-0.006451773922890425,0.00020879182557109743
1782846151604461800,4.6334619140625,0.003724963404238224,-0.0007233145297504961,-0.0031846079509705305
1782846151614466800,4.643466796875,0.0028913940768688917,-0.004584365524351597,-0.0006149238906800747
1782846151624471800,4.653471923828125,0.0020042951218783855,-0.004761465825140476,0.0006894923863001168
1782846151634476800,4.663476806640625,0.0018136126454919577,-0.0033902039285749197,-0.0010900318156927824
1782846151644481800,4.673481689453125,0.002558232517912984,-0.004745753016322851,-0.0034205641131848097
1782846151654486800,4.68348681640625,0.0037912761326879263,-0.0023273364640772343,-0.0019076223252341151
1782846151664491800,4.69349169921875,0.003418433479964733,-0.003067695302888751,0.0003158508916385472
1782846151674496800,4.703496826171875,0.0023031015880405903,-0.0034194989129900932,-0.0005970807396806777
1782846151684501800,4.713501708984375,0.002368881832808256,-0.002772350562736392,-0.001600559800863266
1782846151694507000,4.723507080078125,0.004879177547991276,-0.003172357566654682,-0.0032112395856529474
1782846151704512000,4.733511962890625,0.0006716492353007197,-0.004858138505369425,0.0003587277897167951
1782846151714517000,4.74351708984375,0.0009930927772074938,-0.0023126890882849693,0.001469532260671258
1782846151724522000,4.75352197265625,0.0016815199051052332,-0.003067961661145091,-0.0010924286907538772
1782846151734527000,4.76352685546875,0.002406698651611805,-0.0025337315164506435,-0.0025065671652555466
1782846151744532000,4.773531982421875,0.003638677066192031,-0.0014000238152220845,0.00040746363811194897
1782846151754537000,4.783536865234375,0.003058906877413392,-0.002394980750977993,0.0015491608064621687
1782846151764542000,4.7935419921875,0.0037348170299082994,-0.0023875238839536905,-0.002258360618725419
1782846151774547000,4.803546875,0.0010940266074612737,-0.003370230318978429,-0.000556600687559694
1782846151784552000,4.813552001953125,0.003355050226673484,0.000015180017726379447,-0.0010436928132548928
1782846151794557000,4.823556884765625,-0.00037390782381407917,-0.004572913981974125,0.0008783105295151472
1782846151804562000,4.83356201171875,0.001680720946751535,-0.002948652021586895,-0.0022269352339208126
1782846151814567000,4.84356689453125,0.00330338510684669,-0.0035574506036937237,-0.005630987696349621
1782846151824572000,4.853572021484375,0.003879959462210536,-0.002654106356203556,0.00039468047907575965
1782846151834577000,4.863576904296875,0.0006167881074361503,-0.004333761986345053,-0.001246892032213509
1782846151844582000,4.873581787109375,0.0030099046416580677,-0.001434112200513482,-0.0013683321885764599
1782846151854587000,4.8835869140625,-0.0013574132462963462,-0.006894924212247133,-0.0003174488083459437
1782846151864592000,4.893591796875,0.002338521648198366,-0.00281975488178432,-0.0008431567694060504
1782846151874596900,4.903596923828125,0.00115421402733773,-0.002748914761468768,-0.0017992316279560328
1782846151884601900,4.913601806640625,0.0022623552940785885,-0.0033483924344182014,-0.001981924520805478
1782846151894606800,4.92360693359375,0.0005760417552664876,-0.004060521721839905,-0.0007416903390549123
1782846151904611800,4.93361181640625,0.0015414375811815262,-0.0027686222456395626,-0.0011518171522766352
1782846151914616800,4.943616943359375,0.0033425334841012955,-0.004939098376780748,-0.0003299656673334539
1782846151924621800,4.953621826171875,0.0010381002211943269,-0.002692455891519785,0.0010793792316690087
1782846151934626800,4.963626708984375,0.00036245622322894633,-0.005321528296917677,-0.00035180358099751174
1782846151944631800,4.9736318359375,0.0033190976828336716,-0.0049193911254405975,-0.0023694143164902925
1782846151954636800,4.98363671875,0.003409645054489374,-0.003026416292414069,-0.0006641923682764173
1782846151964641800,4.993641845703125,0.0032200280111283064,-0.00310604483820498,-0.003680754918605089
1782846151974646800,5.003646728515625,-0.00030866035376675427,-0.006835269276052713,-0.0009717874927446246
1782846151984651800,5.01365185546875,-0.0000673779723001644,-0.0024085629265755415,-0.00039760995423421264
1782846151994656800,5.02365673828125,0.003340935567393899,-0.0043859598226845264,0.000523577444255352
1782846152004661800,5.033661865234375,0.0022003035992383957,-0.0038448055274784565,-0.0005608617211692035
1782846152014666800,5.043666748046875,0.0000953411654336378,-0.006352704484015703,-0.0011859056539833546
1782846152024671700,5.053671630859375,0.0036069853231310844,-0.002695119008421898,-0.002508964156731963
1782846152034676700,5.0636767578125,0.0025997778866440058,-0.003935352899134159,0.00045380264054983854
1782846152044681700,5.073681640625,0.0013366405619308352,-0.003718305379152298,-0.004551608581095934
1782846152054686700,5.083686767578125,0.002921221312135458,-0.0027688886038959026,-0.0012098740553483367
1782846152064691700,5.093691650390625,0.0016458334866911173,-0.003338272450491786,-0.000660463934764266
1782846152074696700,5.10369677734375,0.004400873556733131,-0.00355904852040112,-0.001764344167895615
1782846152084701700,5.11370166015625,0.0016058861510828137,-0.002642122097313404,0.00041492050513625145
1782846152094706700,5.123706787109375,0.0016844493802636862,-0.002960103563964367,-0.00010918960470007733
1782846152104711700,5.133711669921875,0.004437625408172607,-0.0032474587205797434,-0.0016029566759243608
1782846152114716700,5.143716552734375,0.003349990351125598,-0.003065032185986638,-0.0017904432024806738
1782846152124721700,5.1537216796875,0.002968625631183386,-0.0034402713645249605,-0.0010362359462305903
1782846152134727000,5.163726806640625,0.001398425898514688,-0.00515801040455699,0.0021201425697654486
1782846152144732000,5.17373193359375,0.0006106628570705652,-0.0015329155139625072,-0.00020532972121145576
1782846152154737000,5.18373681640625,0.0018868496408686042,-0.0020535634830594063,-0.00018508969515096396
1782846152164742000,5.193741943359375,0.0008681904873810709,-0.003227484878152609,-0.0020090886391699314
1782846152174747000,5.203746826171875,0.002439455594867468,-0.0018903117161244154,-0.0013781858142465353
1782846152184751900,5.213751953125,0.0022855247370898724,-0.001743571599945426,-0.0017409083666279912
1782846152194756900,5.2237568359375,0.0026642263401299715,-0.0029790119733661413,-0.0027020431589335203
1782846152204761900,5.233761962890625,0.0018836538074538112,-0.0032296155113726854,-0.0008101335843093693
1782846152214767000,5.24376708984375,0.0041033984161913395,-0.00307595101185143,-0.003553189570084214
1782846152224772000,5.253772216796875,0.0022658174857497215,-0.0036826191935688257,-0.0023150858469307423
1782846152234777000,5.263777099609375,0.0020575581584125757,-0.0020852552261203527,0.0007635282818228006
1782846152244782000,5.273781982421875,0.000943025341257453,-0.003914314322173595,0.0013632721966132522
1782846152254787000,5.283787109375,0.0023076289799064398,-0.002374740783125162,-0.002971288748085499
1782846152264792000,5.2937919921875,0.0019036275334656239,-0.0021723404061049223,-0.0014857775531709194
1782846152274797000,5.303797119140625,0.002502572489902377,-0.0036330842413008213,-0.0028674255590885878
1782846152284802000,5.313802001953125,0.0033545177429914474,-0.0017390442080795765,0.00025486451340839267
1782846152294807000,5.32380712890625,0.0036432044580578804,-0.004239752423018217,-0.00012996226723771542
1782846152304812000,5.33381201171875,0.0026517093647271395,-0.0026075011119246483,-0.0020663465838879347
1782846152314817000,5.343817138671875,0.0023848607670515776,-0.0019068233668804169,-0.0016519587952643633
1782846152324822000,5.353822021484375,0.0028125643730163574,-0.0038011297583580017,-0.0020599551498889923
1782846152334827000,5.363826904296875,0.0029758161399513483,-0.00390259618870914,-0.0009606021922081709
1782846152344832000,5.37383203125,0.0009760485263541341,-0.0049026133492589,-0.0011938951211050153
1782846152354837000,5.3838369140625,0.0010128001449629664,-0.0016165387351065874,-0.00398755120113492
1782846152364842000,5.393842041015625,0.0015371765475720167,-0.003855191869661212,0.00018482338055036962
1782846152374847000,5.403846923828125,0.003576092654839158,-0.0029617014806717634,0.000054861116950633004
1782846152384852000,5.41385205078125,0.003162503708153963,-0.004453604109585285,0.0008735168376006186
1782846152394857000,5.42385693359375,0.0031470574904233217,-0.004544950556010008,-0.0027174896094948053
1782846152404862000,5.433862060546875,0.00307621737010777,-0.004620584659278393,-0.0008146609761752188
1782846152414867000,5.443866943359375,0.0014940333785489202,-0.003365170443430543,0.0004905542591586709
1782846152424872000,5.453871826171875,0.0027888622134923935,-0.00261868629604578,-0.000029827404432580806
1782846152434878000,5.4638779296875,0.003573695896193385,-0.0031734227668493986,-0.004291151650249958
1782846152444883000,5.473883056640625,0.0009803095599636436,-0.003335609333589673,-0.00481419637799263
1782846152454888000,5.483887939453125,0.0019177423091605306,-0.001671666163019836,0.000568318588193506
1782846152464893000,5.493892822265625,0.0025947177782654762,-0.005083441734313965,-0.0029710223898291588
1782846152474898000,5.50389794921875,0.002375007141381502,-0.002969424705952406,0.0012988236267119646
1782846152484903000,5.51390283203125,0.0015012238873168826,-0.0025561018846929073,-0.0009824400767683983
1782846152494908000,5.523907958984375,0.0009976201690733433,-0.0027332021854817867,-0.000437291048001498
1782846152504913000,5.533912841796875,0.0037702370900660753,-0.004030427895486355,-0.001820270554162562
1782846152514918000,5.54391796875,0.00299259414896369,-0.004281297791749239,-0.0007542071980424225
1782846152524923000,5.5539228515625,0.00279099284671247,-0.0024857944808900356,-0.0011720572365447879
1782846152534928000,5.563927978515625,0.002680737990885973,-0.0019736685790121555,-0.0013723268639296293
1782846152544932900,5.573932861328125,0.0037468012887984514,-0.0037611823063343763,-0.003434146288782358
1782846152554937900,5.583937744140625,0.004248008131980896,-0.000821318884845823,-0.00256382510997355
1782846152564942800,5.59394287109375,0.0009345032158307731,-0.003978230059146881,0.0006490123341791332
1782846152574947800,5.60394775390625,0.0026080335956066847,-0.002507898723706603,-0.00001864212754298933
1782846152584952800,5.613952880859375,0.003727892879396677,-0.00395612558349967,-0.0015997608425095677
1782846152594957800,5.623957763671875,0.002124137245118618,-0.0016016251174733043,-0.003484213724732399
1782846152604962800,5.633962890625,0.002615224104374647,-0.002924417145550251,-0.0021614215802401304
1782846152614967800,5.6439677734375,0.0014950985787436366,-0.0021145499777048826,-0.00006844323797849938
1782846152624972800,5.653972900390625,0.0020865867845714092,-0.004396346397697926,-0.002519350266084075
1782846152634977800,5.663977783203125,0.002885801251977682,-0.0002641855680849403,-0.0031973912846297026
1782846152644982800,5.673982666015625,0.003239202778786421,-0.0022096247412264347,-0.00038695731200277805
1782846152654987800,5.68398779296875,0.0006548712844960392,-0.003035471076145768,0.00044661210267804563
1782846152664992800,5.69399267578125,0.0034975295420736074,-0.0018013621447607875,-0.003293264890089631
1782846152674997800,5.703997802734375,0.0007329019135795534,-0.0035657063126564026,-0.00227806787006557
1782846152685002800,5.714002685546875,0.0020069582387804985,-0.002329467097297311,-0.0033017871901392937
1782846152695007700,5.7240078125,0.0015094797126948833,-0.0024519723374396563,-0.003465571440756321
1782846152705012700,5.7340126953125,0.002174737397581339,-0.002287655370309949,-0.0017116136150434613
1782846152715017700,5.744017822265625,0.003335076617076993,-0.0016969662392511964,0.0010183927370235324
1782846152725022700,5.754022705078125,0.002829342382028699,-0.0029531794134527445,-0.0018077536951750517
1782846152735027700,5.76402783203125,0.0038690404035151005,-0.003763312939554453,-0.0033372072502970695
1782846152745032700,5.77403271484375,0.0012253203894942999,-0.0020389161072671413,0.001469532260671258
1782846152755037700,5.78403759765625,0.0018186726374551654,-0.0027598338201642036,-0.0021137509029358625
1782846152765042700,5.794042724609375,0.0010428938549011946,-0.0033755565527826548,0.0007909588166512549
1782846152775047700,5.804047607421875,0.003329217666760087,-0.002231728984043002,-0.0014998923288658261
1782846152785052700,5.814052734375,0.0031403994653373957,-0.0029848709236830473,-0.0025920546613633633
1782846152795057700,5.8240576171875,0.0009201221400871873,-0.0020631509833037853,0.0007358313887380064
1782846152805062700,5.834062744140625,0.002150502521544695,-0.002174471039324999,0.0006026733317412436
1782846152815067600,5.844067626953125,0.0030977888964116573,-0.0028599686920642853,-0.0011379687348380685
1782846152825072600,5.85407275390625,0.003266899613663554,-0.0025995115283876657,-0.0035545211285352707
1782846152835078000,5.864077880859375,0.002144377212971449,-0.0027811392210423946,-0.0026112294290214777
1782846152845083000,5.874082763671875,-0.0001906823308672756,-0.0044227116741240025,0.0021555626299232244
1782846152855087900,5.884087890625,0.002891660202294588,-0.0026583673898130655,0.000985103310085833
1782846152865093000,5.894093017578125,0.002353435382246971,-0.002239984693005681,-0.0017259946325793862
1782846152875098000,5.90409814453125,0.0025331987999379635,-0.00324852392077446,-0.0015654060989618301
1782846152885103000,5.91410302734375,0.001806155894882977,-0.0028690234757959843,-0.003239202778786421
1782846152895108000,5.924108154296875,0.0012042814632877707,-0.0035867453552782536,-0.001529187080450356
1782846152905113000,5.934113037109375,0.0020516992080956697,-0.004728708881884813,-0.0008135957177728415
1782846152915118000,5.9441181640625,0.0010668623726814985,-0.0029321403708308935,-0.0009680590592324734
1782846152925123000,5.954123046875,0.0017382452497258782,-0.003209375310689211,0.0005270395777188241
1782846152935128000,5.964128173828125,0.002097771968692541,-0.0021515677217394114,-0.0003480751474853605
1782846152945133000,5.974133056640625,0.0018540926976129413,-0.0025395904667675495,-0.0009747169679030776
1782846152955138000,5.984137939453125,0.0006340986583381891,-0.004572114907205105,0.00017869810108095407
1782846152965143000,5.99414306640625,-0.0014612764352932572,-0.005258411634713411,-0.0025153555907309055
1782846152975148000,6.00414794921875,0.0009078715811483562,-0.006455236114561558,-0.00030413299100473523
1782846152985153000,6.014153076171875,0.003322825999930501,-0.001901230658404529,-0.0014101437991485
1782846152995158000,6.024157958984375,0.004228567238897085,-0.0021965752821415663,0.0020964404102414846
1782846153005163000,6.0341630859375,0.0009398295660503209,-0.0026671558152884245,-0.0009864348685368896
1782846153015168000,6.04416796875,0.0021049624774605036,-0.0006756439688615501,-0.004190484061837196
1782846153025173000,6.054173095703125,0.002612294629216194,-0.0026841999497264624,0.0002796319022309035
1782846153035178000,6.064177978515625,-0.00032197617110796273,-0.0017299894243478775,-0.0008644621120765805
1782846153045183000,6.074182861328125,0.0025632926262915134,-0.004325239919126034,-0.00038642468280158937
1782846153055188000,6.08418798828125,0.0015779229579493403,-0.0060142166912555695,0.0001699096756055951
1782846153065193000,6.09419287109375,0.0008788431296125054,-0.0036706349346786737,0.00010945591930067167
1782846153075198000,6.104197998046875,0.005593969952315092,-0.0036456012167036533,-0.0020991035271435976
1782846153085203000,6.114202880859375,-0.0005041363765485585,-0.0035598473623394966,-0.0007464840309694409
1782846153095208000,6.1242080078125,-0.00044821001938544214,-0.0020746025256812572,-0.0034796863328665495
1782846153105213000,6.134212890625,0.004601676017045975,-0.0010040117194876075,-0.00006870955257909372
1782846153115218000,6.144218017578125,0.002400306984782219,-0.0028783443849533796,-0.002865028567612171
1782846153125223000,6.154222900390625,0.002755839144811034,-0.0005014732014387846,-0.0014897723449394107
1782846153135228000,6.164227783203125,0.0034586472902446985,-0.0023457121569663286,-0.0010434264549985528
1782846153145233000,6.17423291015625,0.004418450407683849,-0.0034759577829390764,-0.002674612682312727
1782846153155238000,6.18423779296875,0.0007270429632626474,-0.002320678671821952,-0.0004575310740619898
1782846153165243000,6.194242919921875,0.0006740460521541536,-0.0032296155113726854,-0.0026647590566426516
1782846153175248000,6.204247802734375,0.0005435511702671647,-0.0024924525059759617,-0.0005507417372427881
1782846153185252900,6.2142529296875,0.0022804648615419865,-0.0029939257074147463,-0.0012069445801898837
1782846153195257900,6.2242578125,0.0012253203894942999,-0.0032871398143470287,-0.0024748756550252438
1782846153205262800,6.234262939453125,0.003108974313363433,-0.0033997914288192987,0.00021305288828443736
1782846153215267800,6.244267822265625,0.0009632653673179448,-0.0018431737553328276,-0.0024535702541470528
1782846153225272800,6.25427294921875,0.003591006388887763,-0.0010330402292311192,0.0004572647449094802
1782846153235277800,6.26427783203125,0.0014381069922819734,-0.003215500619262457,-0.000666589243337512
1782846153245282800,6.27428271484375,0.0014333132421597838,-0.0023185480386018753,-0.0009334379574283957
1782846153255287800,6.284287841796875,0.0023877902422100306,-0.0022359900176525116,0.0007893609581515193
1782846153265292800,6.294292724609375,-0.0003992078418377787,-0.002151035238057375,-0.002025333931669593
1782846153275297800,6.3042978515625,0.004674912896007299,-0.001353418454527855,-0.002513491315767169
1782846153285302800,6.314302734375,0.0031164311803877354,-0.0020940436515957117,0.0010868359822779894
1782846153295307800,6.324307861328125,-0.0004290352517273277,-0.002266616327688098,-0.0027651600539684296
1782846153305312800,6.334312744140625,0.0016197345685213804,-0.003820038167759776,-0.0013145363191142678
1782846153315317800,6.34431787109375,0.000606668065302074,-0.0020695424173027277,-0.0036847495939582586
1782846153325322800,6.35432275390625,0.004234958905726671,-0.004626177251338959,-0.0013086773687973619
1782846153335327700,6.36432763671875,0.002695119008421898,-0.0018314558546990156,-0.0012562130577862263
1782846153345332700,6.374332763671875,0.0022122878581285477,-0.001728391507640481,-0.0008535431115888059
1782846153355338000,6.384337890625,0.004808870144188404,-0.0036272252909839153,0.00004447478931979276
1782846153365343000,6.394343017578125,0.0041281660087406635,-0.0021763353142887354,-0.0005507417372427881
1782846153375348000,6.404347900390625,0.001817873795516789,-0.00034434671397320926,-0.0010040117194876075
1782846153385353000,6.41435302734375,0.003221093211323023,-0.002930808812379837,-0.0005866943974979222
1782846153395358000,6.42435791015625,0.001838646363466978,-0.0029912625905126333,-0.0018229337874799967
1782846153405363000,6.434363037109375,0.0013677994720637798,-0.004525509662926197,-0.0002798982313834131
1782846153415368000,6.444367919921875,0.0025835325941443443,-0.002237854292616248,-0.0024445154704153538
1782846153425373000,6.454373046875,0.002365153282880783,-0.0012900352012366056,-0.0034024545457214117
1782846153435376600,6.464376708984375,0.00040426786290481687,-0.002683134749531746,-0.0019718045368790627
1782846153445381600,6.474381591796875,0.001202150946483016,-0.004328435752540827,0.0010404969798400998
1782846153455386600,6.48438671875,0.002335592173039913,-0.0035750274546444416,-0.0005360943032428622
1782846153465391900,6.494391845703125,0.004788363818079233,-0.003005377249792218,0.0006554039428010583
1782846153475396900,6.50439697265625,0.0018455706303939223,-0.004214984830468893,0.0008958873804658651
1782846153485401900,6.51440185546875,0.0013672668719664216,-0.003912982530891895,0.00245143985375762
1782846153495406800,6.52440673828125,0.002689260058104992,-0.002281263703480363,-0.0023784691002219915
1782846153505411800,6.534411865234375,0.0010037453612312675,-0.004245877731591463,-0.0010005496442317963
1782846153515416800,6.544416748046875,0.0018706043483689427,-0.004575310740619898,-0.0046173888258636
1782846153525421800,6.554421875,0.002968891989439726,-0.004205397795885801,-0.004030960611999035
1782846153535426800,6.5644267578125,0.0036855486687272787,-0.0022154836915433407,-0.001115598133765161
1782846153545431800,6.574431884765625,0.001278849900700152,-0.0013928331900388002,0.00043888893560506403
1782846153555436800,6.584436767578125,0.0027859327383339405,-0.0023997745011001825,-0.0006527407676912844
1782846153565441800,6.59444189453125,0.000036218989407643676,-0.003427754621952772,-0.0024716798216104507
1782846153575446800,6.60444677734375,0.0037316211964935064,-0.0030535804107785225,-0.0018490327056497335
1782846153585451800,6.61445166015625,0.003952663857489824,-0.0017411747248843312,-0.0004213120846543461
1782846153595456800,6.624456787109375,0.0015811186749488115,-0.0014421016676351428,-0.0021973741240799427
1782846153605461800,6.634461669921875,0.0020655477419495583,-0.0016439693281427026,-0.0010274475207552314
1782846153615466800,6.644466796875,0.0022778017446398735,-0.0025486452504992485,-0.0018277274211868644
1782846153625471700,6.6544716796875,0.0017600831342861056,-0.002846652874723077,-0.0009752495680004358
1782846153635476700,6.664476806640625,0.0018812569323927164,-0.0018154769204556942,-0.0014498248929157853
1782846153645481700,6.674481689453125,-0.00013901700731366873,-0.0022149509750306606,0.0015150723047554493
1782846153655486700,6.68448681640625,0.0011371697764843702,-0.002167813014239073,-0.0036663739010691643
1782846153665491700,6.69449169921875,0.005828594323247671,-0.0003640541108325124,-0.003073820611461997
1782846153675496700,6.70449658203125,-0.0005459480453282595,-0.0012516856659203768,-0.00041571943438611925
1782846153685501700,6.714501708984375,0.0027574370615184307,-0.0007384945638477802,0.000996554852463305
1782846153695506700,6.724506591796875,0.0011699266033247113,-0.005676794331520796,-0.002371811307966709
1782846153705512000,6.734511962890625,0.002426672261208296,-0.005596899427473545,-0.0033928672783076763
1782846153715517000,6.744516845703125,0.0006910903030075133,-0.003139334265142679,-0.0013677994720637798
1782846153725522000,6.75452197265625,0.0036583843175321817,-0.004116448108106852,-0.0008580705034546554
1782846153735527000,6.76452685546875,0.0030091057997196913,-0.0016682040877640247,0.00023755396250635386
1782846153745532000,6.774531982421875,0.0028999161440879107,-0.0018615495646372437,-0.0028762139845639467
1782846153755537000,6.784536865234375,0.004713262431323528,-0.00532605592161417,0.0012423646403476596
1782846153765542000,6.7945419921875,-0.0001323590986430645,-0.0032415995374321938,-0.0018319884547963738
1782846153775547000,6.804546875,0.0009241168736480176,-0.0046389601193368435,-0.001597896683961153
1782846153785552000,6.8145517578125,0.0024578312877565622,-0.0017840516520664096,-0.0017443705582991242
1782846153795556900,6.824556884765625,0.002950516063719988,-0.00310604483820498,-0.0030983216129243374
1782846153805561900,6.834561767578125,0.0036637107841670513,-0.00221921200864017,-0.0030655646696686745
1782846153815566800,6.84456689453125,0.003257844829931855,-0.0030091057997196913,-0.0004463458026293665
1782846153825571800,6.85457177734375,0.002915096003562212,0.0004644552827812731,-0.00242081331089139
1782846153835576800,6.864576904296875,0.004150802735239267,-0.002094309777021408,-0.0013105415273457766
1782846153845581800,6.874581787109375,0.003465571440756321,-0.003300189273431897,0.0001155811914941296
1782846153855586800,6.8845869140625,0.00279019377194345,-0.0018282600212842226,0.0008343683439306915
1782846153865591800,6.894591796875,0.0020530307665467262,-0.0028125643730163574,-0.0010780475568026304
1782846153875596800,6.9045966796875,0.00065460498444736,-0.005230714567005634,0.001862614881247282
1782846153885601800,6.914601806640625,0.002205097349360585,-0.0019185412675142288,-0.0015531554818153381
1782846153895606800,6.924606689453125,0.0030000510159879923,-0.004348942078649998,-0.0014436995843425393
1782846153905611800,6.93461181640625,0.0024716798216104507,-0.001166198286227882,0.000580036488827318
1782846153915616800,6.94461669921875,0.003713245503604412,-0.004568386357277632,-0.0023912524338811636
1782846153925621800,6.954621826171875,0.0021797972731292248,-0.0028455876745283604,-0.0012274509062990546
1782846153935626800,6.964626708984375,0.0017648768844082952,-0.0009353021741844714,-0.0012301141396164894
1782846153945631700,6.9746318359375,0.0005792375304736197,-0.0054299188777804375,-0.0036847495939582586
1782846153955636700,6.98463671875,0.0022514364682137966,-0.0025132251903414726,-0.000472977408207953
1782846153965641700,6.994641845703125,0.000913197931367904,-0.0029324067290872335,-0.0026575683150440454
1782846153975646700,7.004646728515625,0.0006854976527392864,-0.004219778813421726,0.00017550231132190675
1782846153985651700,7.014651611328125,0.0017267935909330845,-0.002877012826502323,-0.0001102548703784123
1782846153995656700,7.02465673828125,0.0010823087068274617,-0.0005720470217056572,-0.004854143597185612
1782846154005661700,7.03466162109375,0.0034589136485010386,-0.0015403723809868097,-0.0030807447619736195
1782846154015666700,7.044666748046875,0.002335858531296253,-0.002403502818197012,-0.0022128205746412277
1782846154025671700,7.054671630859375,0.0029289445374161005,-0.002644785214215517,-0.0008777778712101281
1782846154035676700,7.0646767578125,0.0027081684675067663,-0.0017417073249816895,-0.0006442186422646046
1782846154045681700,7.074681640625,0.004222441930323839,-0.0025502429343760014,-0.00038775624125264585
1782846154055686700,7.084686767578125,0.002368881832808256,-0.002481267089024186,-0.0008024104172363877
1782846154065691600,7.094691650390625,0.004022172186523676,-0.0031702269334346056,-0.0006298375665210187
1782846154075696600,7.104696533203125,0.0013137373607605696,-0.004532167688012123,0.001845038030296564
1782846154085701600,7.11470166015625,0.0011981561547145247,-0.0025158883072435856,-0.000806138850748539
1782846154095706600,7.12470654296875,0.0009302421822212636,-0.002612294629216194,0.0011515507940202951
1782846154105711600,7.134711669921875,0.002864762442186475,-0.0022567627020180225,-0.0014852449530735612
1782846154115716600,7.144716552734375,0.0010072075529024005,-0.002522546099498868,-0.0024530377704650164
1782846154125721600,7.1547216796875,0.0021044297609478235,-0.000391218374716118,0.0009616674506105483
1782846154135726600,7.1647265625,0.0017323862994089723,-0.0037121803034096956,-0.0017627463676035404
1782846154145731600,7.174731689453125,0.0013526194961741567,-0.0035606464371085167,-0.0014407701091840863
1782846154155736600,7.184736572265625,0.003879959462210536,-0.0034085798542946577,-0.0007416903390549123
1782846154165741600,7.194741455078125,-0.0004087952256668359,-0.0016306535108014941,-0.0004700479330495
1782846154175746600,7.20474658203125,0.0020471718162298203,-0.004653341136872768,0.001422128058038652
1782846154185751600,7.21475146484375,0.0046727824956178665,-0.004024036228656769,0.001344630029052496
1782846154195756800,7.2247568359375,0.0012263857061043382,-0.003853061469271779,0.00015339808305725455
1782846154205761800,7.23476171875,0.0010159959783777595,-0.0027363980188965797,-0.0025867284275591373
1782846154215766800,7.244766845703125,0.0021992383990436792,-0.003379817819222808,-0.00035206988104619086
1782846154225771800,7.254771728515625,0.003656520042568445,-0.0006109291571192443,-0.0018724685069173574
1782846154235776800,7.26477685546875,0.0006852313526906073,-0.002433596644550562,-0.0026370619889348745
1782846154245781800,7.27478173828125,0.00043063313933089375,-0.002663161139935255,-0.000996821210719645
1782846154255786800,7.284786865234375,0.0032461269292980433,-0.0030458574183285236,-0.0033252229914069176
1782846154265791700,7.294791748046875,0.0014351775171235204,-0.0033955303952097893,-0.0009384979493916035
1782846154275796700,7.304796630859375,0.003090332029387355,-0.0021339908707886934,-0.004509530495852232
1782846154285801700,7.3148017578125,0.002058623591437936,-0.00129695946816355,-0.00011877698125317693
1782846154295806700,7.324806640625,0.0019489012192934752,-0.0023734092246741056,-0.00015393071225844324
1782846154305811700,7.334811767578125,0.0019462381023913622,-0.002965429797768593,-0.0021286646369844675
1782846154315816700,7.344816650390625,-0.00005965480886516161,-0.002841060282662511,0.0002508697798475623
1782846154325822000,7.354822021484375,0.0035987296141684055,-0.0035451999865472317,0.0002993392990902066
1782846154335827000,7.364826904296875,0.0017478326335549355,-0.002275404753163457,-0.001086037140339613
1782846154345832000,7.37483203125,0.00012064119800925255,-0.0021875204984098673,-0.0010836402652785182
1782846154355837000,7.3848369140625,0.0032083101104944944,-0.0033273533917963505,-0.002010952914133668
1782846154365842000,7.394842041015625,0.004486627411097288,-0.0012634035665541887,0.00025726135936565697
1782846154375847000,7.404846923828125,0.002953978255391121,-0.006201969459652901,-0.0012626046082004905
1782846154385852000,7.414851806640625,0.0030178942251950502,-0.0031150993891060352,0.0010785802733153105
1782846154395857000,7.42485693359375,0.0017278589075431228,-0.003637877991423011,0.0010149306617677212
1782846154405862000,7.43486181640625,0.002802977105602622,-0.0007273092633113265,-0.00029880666988901794
1782846154415867000,7.444866943359375,0.004596349783241749,-0.0052176653407514095,-0.001395496423356235
1782846154425872000,7.454871826171875,0.002919090911746025,-0.0033361418172717094,-0.0034914042335003614
1782846154435876900,7.464876953125,0.0007837683078832924,-0.0051710596308112144,-0.0015611450653523207
1782846154445881900,7.4748818359375,0.0031728900503367186,-0.0035859462805092335,-0.0007113303290680051
1782846154455886800,7.484886962890625,0.0009547432418912649,-0.004508199170231819,0.00009267800487577915
1782846154465891800,7.494891845703125,0.0015251922886818647,-0.0026794064324349165,-0.0012085424968972802
1782846154475896800,7.504896728515625,0.0013968279818072915,-0.004736964590847492,-0.0029614351224154234
1782846154485901800,7.51490185546875,0.002201369032263756,-0.003139067906886339,-0.0028421254828572273
1782846154495906800,7.52490673828125,0.000660463934764266,-0.0035627768374979496,-0.002104163635522127
1782846154505911800,7.534911865234375,0.001341966912150383,-0.0031292142812162638,-0.0010040117194876075
1782846154515916800,7.544916748046875,0.003552124137058854,-0.0007832356495782733,-0.0014684670604765415
1782846154525921800,7.554921875,0.0000953411654336378,-0.003224022686481476,-0.002576608443632722
1782846154535926800,7.5649267578125,0.0002793656021822244,-0.003641073824837804,-0.00002157160452043172
1782846154545931800,7.574931884765625,-0.00016937704640440643,-0.0036935380194336176,-0.000011451592399680521
1782846154555936800,7.584936767578125,0.0023995081428438425,-0.004425374791026115,-0.004430434666574001
1782846154565941800,7.594941650390625,0.0036248285323381424,-0.001654355670325458,-0.004502340219914913
1782846154575946800,7.60494677734375,0.002558232517912984,-0.002745985286310315,-0.004430434666574001
1782846154585952000,7.614951904296875,0.004071706905961037,-0.0019068233668804169,-0.0015417039394378662
1782846154595957000,7.62495703125,0.0011819108622148633,-0.0018186726374551654,-0.0025939189363271
1782846154605962000,7.6349619140625,0.0000577905957470648,-0.0030863373540341854,0.00042637207661755383
1782846154615967000,7.644967041015625,0.0008817726047709584,-0.0018767296569421887,0.0002716424351092428
1782846154625972000,7.654971923828125,0.0016972325975075364,-0.005154281854629517,-0.0017979000695049763
1782846154635977000,7.66497705078125,0.002692189533263445,-0.0016495619202032685,-0.0013547500129789114
1782846154645982000,7.67498193359375,0.0008729841792955995,-0.0017174725653603673,-0.0019403791520744562
1782846154655987000,7.684987060546875,0.0014583469601348042,-0.0030218889005482197,0.0003246393462177366
1782846154665992000,7.694991943359375,0.0012892362428829074,-0.0032120386604219675,-0.0015361113473773003
1782846154675997000,7.704996826171875,0.0025832662358880043,-0.002752110594883561,0.0001757686259225011
1782846154686002000,7.715001953125,0.0021544971968978643,-0.003724164329469204,-0.003692206460982561
1782846154696007000,7.7250068359375,0.0006018743733875453,-0.002823217073455453,0.0012034825049340725
1782846154706012000,7.735011962890625,0.0019148128340020776,-0.0035025894176214933,-0.0014956312952563167
1782846154716017000,7.745016845703125,0.0036762275267392397,-0.003936951048672199,-0.0005856291390955448
1782846154726022000,7.75502197265625,0.002121474128216505,-0.003579288488253951,-0.0016223976854234934
1782846154736027000,7.76502685546875,0.0026346652302891016,-0.003747866488993168,-0.0005291700945235789
1782846154746031900,7.775031982421875,0.0040884846821427345,-0.0017907095607370138,-0.002156361471861601
1782846154756037000,7.785037109375,0.0019217369845137,-0.0023880566004663706,-0.0036517265252768993
1782846154766042000,7.7950419921875,0.002415487077087164,-0.0032687638886272907,-0.0012183962389826775
1782846154776047000,7.805047119140625,0.0030810111202299595,-0.002965163439512253,0.00047617321251891553
1782846154786052000,7.815052001953125,0.0020804614759981632,-0.0007225155713967979,-0.0006215817993506789
1782846154796057000,7.82505712890625,0.0024232103023678064,-0.0057127466425299644,-0.00044554684427566826
1782846154806062000,7.83506201171875,0.004406466148793697,-0.002877012826502323,-0.0011954930378124118
1782846154816067000,7.845067138671875,0.000598145998083055,-0.003287938656285405,0.0002665824140422046
1782846154826072000,7.855072021484375,0.0018703379901126027,-0.004036819562315941,-0.002058889716863632
1782846154836077000,7.8650771484375,0.0009739180095493793,-0.0031497206073254347,-0.0032461269292980433
1782846154846082000,7.87508203125,0.0027244137600064278,-0.0028157602064311504,-0.0018658105982467532
1782846154856087000,7.885087158203125,0.0016295883106067777,-0.0010154632618650794,-0.0025774072855710983
1782846154866092000,7.895092041015625,0.0018847191240638494,-0.004764395300298929,-0.00031798143754713237
1782846154876097000,7.905096923828125,0.003707120195031166,-0.0021196098532527685,-0.0004498079069890082
1782846154886102000,7.91510205078125,0.0012428972404450178,-0.0036701022181659937,-0.001972070662304759
1782846154896107000,7.92510693359375,0.0012548814993351698,-0.004554005339741707,-0.0013291836949065328
1782846154906112000,7.935112060546875,0.0021797972731292248,-0.004673847462981939,-0.001213868847116828
1782846154916117000,7.945116943359375,0.002266349969431758,-0.002205097349360585,0.00012490226072259247
1782846154926122000,7.9551220703125,0.0019110844004899263,-0.005816343706101179,0.0011414308100938797
1782846154936127000,7.965126953125,0.0008391620358452201,-0.0046791741624474525,-0.0013994910987094045
1782846154946132000,7.975132080078125,0.0025592977181077003,-0.003611779073253274,-0.0022122878581285477
1782846154956137000,7.985136962890625,0.003102582646533847,-0.003035204717889428,0.00004793690095539205
1782846154966142000,7.995141845703125,0.001945705502294004,-0.00577719509601593,0.00013156015484128147
1782846154976147000,8.00514697265625,0.0003933488915208727,-0.0018157431622967124,-0.0009720537927933037
1782846154986152000,8.01515185546875,0.001812014845199883,-0.004442152567207813,-0.0032951291650533676
1782846154996157000,8.025156982421874,0.0027712853625416756,-0.003023753175511956,-0.0021398498211055994
1782846155006162000,8.035161865234375,0.002228533150628209,-0.004811533261090517,-0.0035984632559120655
1782846155016167000,8.0451669921875,0.0003217098710592836,-0.0031244205310940742,-0.0006969492533244193
1782846155026172000,8.055171875,0.0031883365008980036,-0.0054123420268297195,-0.0017592841759324074
1782846155036177000,8.065177001953124,0.0016024239594116807,-0.0011116034584119916,-0.001998702296987176
1782846155046182000,8.075181884765625,0.0033417344093322754,-0.0008780442294664681,-0.003141997382044792
1782846155056187000,8.085186767578126,0.002020007697865367,-0.0027507790364325047,-0.0022567627020180225
1782846155066192000,8.09519189453125,0.003628556849434972,-0.0036333505995571613,-0.003349990351125598
1782846155076196900,8.10519677734375,0.00412390474230051,-0.002383529208600521,-0.0002609897928778082
1782846155086201900,8.115201904296875,0.0022330605424940586,-0.003650128608569503,-0.0019438412273302674
1782846155096206800,8.125206787109375,0.0007906925166025758,-0.004393683280795813,-0.0012713931500911713
1782846155106211800,8.1352119140625,0.005630188621580601,-0.002273007994517684,-0.0015427692560479045
1782846155116216800,8.145216796875,0.0025537051260471344,-0.003553189570084214,-0.002591521944850683
1782846155126221800,8.155221923828124,0.002213619416579604,-0.0035420041531324387,-0.0015044197207316756
1782846155136226800,8.165226806640625,0.003099653171375394,-0.0017893778858706355,0.00006950850365683436
1782846155146231800,8.175231689453126,0.0038962047547101974,-0.0031763522420078516,-0.0012274509062990546
1782846155156236800,8.18523681640625,0.002287122653797269,-0.001806155894882977,0.0025220136158168316
1782846155166241800,8.19524169921875,0.0033334787003695965,-0.0008620652370154858,-0.0001507349224993959
1782846155176246800,8.205246826171875,0.0022386531345546246,-0.0025417208671569824,-0.0008940231637097895
1782846155186251800,8.215251708984376,-0.000051399008953012526,-0.0031886028591543436,0.000027963191314483993
1782846155196256800,8.2252568359375,-0.00024527712957933545,-0.003224555402994156,-0.0024831313639879227
1782846155206261800,8.23526171875,0.0035084483679383993,-0.002161954063922167,-0.0018975022248923779
1782846155216266800,8.245266845703124,0.0046906257048249245,-0.004895688965916634,-0.0026264095213264227
1782846155226271700,8.255271728515625,0.004658934194594622,-0.004658934194594622,-0.0004916195175610483
1782846155236277000,8.265277099609374,0.0006532734259963036,-0.0037590519059449434,-0.0009717874927446246
1782846155246282000,8.275281982421875,0.0007454187725670636,-0.004733236040920019,-0.0002479403046891093
1782846155256287000,8.285286865234376,0.004324973560869694,-0.003231213428080082,-0.003145459573715925
1782846155266292000,8.2952919921875,0.0021433120127767324,-0.004525776021182537,-0.0002825613773893565
1782846155276297000,8.305296875,0.0008162588928826153,-0.005315402988344431,-0.000179230744834058
1782846155286302000,8.315302001953125,0.004219246096909046,0.00008655273268232122,-0.0020714066922664642
1782846155296307000,8.325306884765626,0.0029609024059027433,-0.0030684941448271275,-0.00001757686368364375
1782846155306312000,8.33531201171875,0.0020186761394143105,-0.003754790872335434,0.0003784351865760982
1782846155316317000,8.34531689453125,0.0025923210196197033,-0.002335592173039913,-0.0015211976133286953
1782846155326322000,8.355322021484374,0.0028575719334185123,-0.004167846869677305,0.0011150655336678028
1782846155336327000,8.365326904296875,0.0021880532149225473,-0.002585396869108081,-0.0013813816476613283
1782846155346332000,8.375331787109374,0.002046106616035104,-0.003070358419790864,-0.0018098842119798064
1782846155356337000,8.3853369140625,0.00461712246760726,-0.001014131703414023,-0.0021286646369844675
1782846155366342000,8.395341796875,0.0009294432238675654,-0.0008394283941015601,-0.0015941682504490018
1782846155376347000,8.405346923828125,0.00042530681821517646,-0.002950516063719988,0.00035446672700345516
1782846155386351900,8.415351806640626,0.0033246902748942375,-0.0032767534721642733,-0.002463157754391432
1782846155396356900,8.42535693359375,0.0012186624808236957,-0.003044259501621127,-0.0016796556301414967
1782846155406361900,8.43536181640625,0.0028154938481748104,-0.001050084363669157,-0.003369697602465749
1782846155416366800,8.445366943359375,0.002629871480166912,-0.0026647590566426516,-0.002889529801905155
1782846155426371800,8.455371826171875,0.004083424806594849,-0.004458930809050798,-0.0016346483025699854
1782846155436376800,8.465376953125,0.001169394003227353,-0.003632551757618785,-0.001532382913865149
1782846155446381600,8.475381591796875,0.003081809962168336,-0.001904160133562982,-0.001210406655445695
1782846155456386600,8.485386474609374,0.004388356581330299,-0.0031561122741550207,-0.0009707222343422472
1782846155466391600,8.4953916015625,0.00440966198220849,-0.0031302794814109802,-0.0007488809060305357
1782846155476396500,8.505396484375,0.0013741911388933659,-0.004230431281030178,0.0011065434664487839
1782846155486401500,8.515401611328125,0.00358781055547297,-0.005357481073588133,-0.0011941614793613553
1782846155496406500,8.525406494140626,0.0025875272694975138,-0.004516721237450838,0.0015425028977915645
1782846155506411500,8.53541162109375,0.0009683253592811525,-0.00304638990201056,0.00210735946893692
1782846155516416500,8.54541650390625,0.0006452839006669819,-0.0052019525319337845,-0.0011257182341068983
1782846155526421500,8.55542138671875,0.003463707398623228,-0.0018367822049185634,-0.002210956299677491
1782846155536426500,8.565426513671875,0.0006918892613612115,-0.00344586418941617,-0.0005478122038766742
1782846155546431500,8.575431396484374,0.002132925670593977,-0.0020722055342048407,-0.0035228293854743242
1782846155556436500,8.5854365234375,0.003400856629014015,-0.0011270497925579548,-0.003552390495315194
1782846155566441500,8.59544140625,0.0036389431916177273,-0.003861317178234458,-0.0011044129496440291
1782846155576446500,8.605446533203125,0.0015952334506437182,0.005835785064846277,0.007681355345994234
1782846155586451500,8.615451416015626,-0.005798500496894121,0.04133731871843338,-0.0044227116741240025
1782846155596456400,8.62545654296875,0.005524461157619953,-0.04039003327488899,-0.01127955224364996
1782846155606461400,8.63546142578125,0.005376921966671944,0.00811891257762909,-0.010063020512461662
1782846155616466400,8.645466552734375,0.0007238471880555153,-0.02731258049607277,-0.007408914156258106
