time,seconds_elapsed,z,y,x
1782845863986326800,0.077326904296875,0.000779167678952217,0.046935061915218824,0.052104938833788035
1782845863996331800,0.087331787109375,0.028737434184551238,0.03480784013941884,0.03440736957974732
1782845864006336800,0.097336669921875,0.07820376814305782,0.005752279916405678,-0.0033103666570037603
1782845864016341800,0.107341796875,0.12747545631229876,0.00009819967746734619,-0.045395723518729204
1782845864026346800,0.1173466796875,0.1682429355084896,0.0007065408341586589,-0.07169533609710634
1782845864036351700,0.127351806640625,0.16882979548573493,-0.024901947674900293,-0.09419789448007941
1782845864046355700,0.137355712890625,0.14782266329228877,-0.02012041248679161,-0.12898534941859544
1782845864056360700,0.147360595703125,0.1048608889222145,0.00766468940898776,-0.16139431172274052
1782845864066365700,0.15736572265625,0.03597206161320209,0.038595688115060325,-0.18110709325671195
1782845864076370700,0.16737060546875,-0.01743336535990238,0.05511120797768235,-0.15568937807939945
1782845864086375700,0.177375732421875,-0.033435236611962314,0.042241935662925244,-0.10829261693656445
1782845864096380700,0.187380615234375,-0.04720598781108856,0.026127982338517902,-0.052367096901312464
1782845864106385700,0.1973857421875,-0.0507335774153471,0.03234861041903496,0.0008477759357541799
1782845864116390700,0.207390625,-0.02619067231118679,0.035392215898633,0.041830432252585883
1782845864126395600,0.217395751953125,0.02523205641210079,0.030002924075722692,0.05251425028704106
1782845864136400600,0.227400634765625,0.06489128210544585,0.02858253588378429,0.054561392075195905
1782845864146404900,0.23740478515625,0.10164368044137954,0.05730696445629,0.048726986833289264
1782845864156409900,0.247409912109375,0.13037410036325453,0.06639350336194039,0.05050225287750363
1782845864166414000,0.2574140625,0.18766601338088512,0.0634698710002005,0.026068653366714715
1782845864176419000,0.267419189453125,0.22869828099310396,0.06469385983720422,0.022960604348778724
1782845864186424000,0.277424072265625,0.29483868637681004,0.058884881297498935,-0.013861279026791453
1782845864196429000,0.287428955078125,0.3352612976580858,0.041016339390724896,-0.04919117027893662
1782845864206434000,0.29743408203125,0.31041093403995035,0.033553017772734166,-0.05946231585927307
1782845864216439300,0.307439208984375,0.2860615056812763,0.010660071832686663,-0.05180201036445796
1782845864226444300,0.3174443359375,0.235751706635952,-0.021605536478012798,-0.04406308667548001
1782845864236449300,0.32744921875,0.1836702217429876,-0.010632891564816236,-0.02898008383400738
1782845864246453000,0.337452880859375,0.12680500970482825,0.0016927753925323485,-0.043301746914163226
1782845864256458000,0.3474580078125,0.0388864877551794,0.01970057963952422,-0.047024859090521925
1782845864266463000,0.357462890625,-0.01539163039922714,0.021993074490875005,-0.07681552865505219
1782845864276468000,0.367468017578125,-0.0607721563488245,0.019311141930520533,-0.08574052032344043
1782845864286473000,0.377472900390625,-0.061789224436879155,0.018528174859285353,-0.07357267427630722
1782845864296478000,0.38747802734375,-0.04656418277621269,0.01563742185384035,-0.027022081634029745
1782845864306483000,0.39748291015625,-0.03418400915265083,0.0025958617120981214,0.023922435118258
1782845864316488000,0.407488037109375,-0.014568039056658743,-0.008830664448440075,0.030848361923918127
1782845864326493000,0.417492919921875,0.06292144333720207,-0.023735826504975556,0.04130699290037155
1782845864336497200,0.4274970703125,0.08167582816779613,-0.01120484623387456,0.06224595522843301
1782845864346502100,0.437502197265625,0.10273790541887283,-0.007205109073221683,0.07547463544011115
1782845864356507100,0.447507080078125,0.10766600947082042,0.017032529474049804,0.07701660418510436
1782845864366512000,0.45751220703125,0.056278936582803724,0.04608516708761454,0.05235774455107748
1782845864376517000,0.46751708984375,0.02762450450658798,0.043054421089589595,0.03536138236895203
1782845864386522000,0.477522216796875,0.08292436692416667,0.04642667400166392,0.01912891723141074
1782845864396527000,0.487527099609375,0.11132570102214813,0.02678469268158078,0.028530221174657342
1782845864406532000,0.497531982421875,0.12648118457794189,0.02034779150187969,0.01890804102234542
1782845864416537000,0.507537109375,0.1528109730988741,0.029745588313788172,0.010163520487397909
1782845864426542000,0.5175419921875,0.1701250959932804,0.0342844007872045,-0.002998597294092178
1782845864436546000,0.527546142578125,0.14546704007685182,0.0013104980766773223,0.0027929186541587113
1782845864446551000,0.537551025390625,0.0878682530671358,-0.001794189940392971,-0.016744944704324007
1782845864456556000,0.54755615234375,0.02225099477469921,0.005073211611062288,0.004817921675741672
1782845864466561000,0.55756103515625,-0.02148994727432728,0.01873451108634472,0.0027982524164021014
1782845864476566000,0.56756591796875,-0.0354752180069685,0.03579349017590284,-0.01829794629998505
1782845864486571000,0.577571044921875,-0.017300094369053838,0.03672375676333904,-0.02379135608449578
1782845864496576000,0.587575927734375,0.012371990317106247,0.048426761777698994,-0.0554443854548037
1782845864506581000,0.5975810546875,0.014671499431133269,0.055444531585276124,-0.040817236622050404
1782845864516586000,0.6075859375,0.02447568508684635,0.06441065898165106,-0.013547463837265968
1782845864526591000,0.617591064453125,0.04717442362904548,0.05963672257810831,0.0014065057970583438
1782845864536595200,0.62759521484375,0.08733750719130039,0.04767082884386181,0.05345131194144487
1782845864546600200,0.63760009765625,0.09712649527788161,0.04176189706102013,0.06939093161225318
1782845864556605200,0.647605224609375,0.12374679117798805,0.059682607546448704,0.06406827528476715
1782845864566610200,0.657610107421875,0.11137012468576431,0.05567673290595412,0.09052987349182366
1782845864576615200,0.667615234375,0.07173603343367577,0.067052551792562,0.10074439351409673
1782845864586620200,0.6776201171875,0.05132920522093773,0.06497603777945041,0.1155913956426084
1782845864596625200,0.687625244140625,0.04927577982246875,0.03668006375208497,0.1540511093530804
1782845864606630100,0.697630126953125,0.08069616948068141,0.025628946775197982,0.16234006814025342
1782845864616635100,0.70763525390625,0.13258651571571825,0.03822144797518849,0.1507730375304818
1782845864626639000,0.71763916015625,0.16869944710433482,0.05982391571328043,0.09529109654426574
1782845864636644000,0.72764404296875,0.19385142401754854,0.056389703480899334,0.07636281645148991
1782845864646649000,0.737649169921875,0.20404957742691038,0.040300738467276095,0.0611029957383871
1782845864656654000,0.747654052734375,0.19695757333934305,0.02855594013780355,0.050358825818821784
1782845864666659000,0.7576591796875,0.15952128439247606,0.02752235930636525,0.030410555028542875
1782845864676664000,0.7676640625,0.11740122154355048,0.04520604616552591,0.019214476623013614
1782845864686669000,0.7776689453125,0.10292436790168284,0.02268602519109845,-0.016420096664130687
1782845864696674000,0.787674072265625,0.07886895405352115,-0.0011554536454379558,-0.014056874664127826
1782845864706679000,0.797678955078125,0.003750292444229126,0.026607582549005745,-0.01611599915102124
1782845864716684000,0.80768408203125,-0.04152735765278339,0.022740824118256567,-0.03870272868610918
1782845864726688300,0.817688232421875,-0.08118132264912128,0.00341331557482481,-0.0011085457637906074
1782845864736693200,0.827693359375,-0.08778934261202812,0.007670680758357047,0.01368701843842864
1782845864746698200,0.8376982421875,-0.07789163345396519,0.01144917638376355,0.015813509073108432
1782845864756703200,0.847703125,-0.027236966493725773,0.03208952109143138,0.006904445626214146
1782845864766708200,0.857708251953125,0.03474690373241901,0.03168240159526467,0.01432085936255753
1782845864776713200,0.867713134765625,0.07381459327340126,0.046495647584646936,0.03915346812829375
1782845864786718200,0.87771826171875,0.11696809082329272,0.05421002135425806,0.05888853455930948
1782845864796723200,0.88772314453125,0.16478081235587597,0.024080840550363063,0.05444273413158953
1782845864806728200,0.897728271484375,0.18011632865369318,0.03263561066687107,0.07143580837808548
1782845864816732200,0.907732177734375,0.21220015065670012,0.029541736304759977,0.06201477682106196
1782845864826737200,0.917737060546875,0.23398528148531914,0.02189472868293524,0.03952646615915
1782845864836742100,0.9277421875,0.23936931261122224,0.032994945498555896,0.029237054269760844
1782845864846747100,0.9377470703125,0.20826398025155066,0.026574849323183297,-0.004851970075815916
1782845864856752000,0.947752197265625,0.1455997265458107,0.009932780471444129,-0.02560936529189348
1782845864866757000,0.957757080078125,0.11853636305332182,0.028013065432757136,-0.006833499281853437
1782845864876762000,0.96776220703125,0.06778934163451195,0.024212942497432232,-0.03318783772215247
1782845864886767000,0.97776708984375,0.020090601870417595,0.013240005323290824,-0.05238397497087717
1782845864896772000,0.987772216796875,0.011014730489253997,0.007766688478738069,-0.06856156811602414
1782845864906776000,0.997776123046875,0.018538111731410026,-0.001668225473165512,-0.06282200155071914
1782845864916781300,1.00778125,0.010643559089303017,-0.012055910105258225,-0.07290463882163166
1782845864926786300,1.017786376953125,0.033817513927817344,0.007156447625905275,-0.07116568619981407
1782845864936791300,1.027791259765625,0.05594634362757206,0.009344459189474581,-0.04639474449343979
1782845864946796300,1.03779638671875,0.07918751848340035,0.002052694746106863,-0.0378583137512207
1782845864956801300,1.04780126953125,0.10134674332141876,0.044504327636957164,-0.04189166092053055
1782845864966806300,1.05780615234375,0.1335258423924446,0.03871390766724944,-0.03082629622258246
1782845864976811300,1.067811279296875,0.1198316635608673,0.029957769759744405,-0.024474223782122134
1782845864986816300,1.077816162109375,0.12924480407238007,0.03018719460144639,-0.02700140417218208
1782845864996821200,1.0878212890625,0.08612813140153884,0.01829801936522126,-0.025089433071017263
1782845865006825200,1.0978251953125,0.04427694862186909,0.02114405644610524,-0.011208280299976467
1782845865016830200,1.107830322265625,0.0282031811773777,0.019467501536011695,0.006401683735847472
1782845865026835200,1.117835205078125,0.029855040037631987,-0.005203413861989975,-0.004192410188540816
1782845865036840200,1.127840087890625,0.026721418187022207,-0.012728110278397797,-0.028230215314775705
1782845865046845200,1.13784521484375,0.06936053647398949,-0.004140899197012186,-0.013200257834792136
1782845865056850200,1.14785009765625,0.08702887963354587,-0.014948562806844711,0.014806231726706027
1782845865066855200,1.157855224609375,0.11774433589279651,-0.04480374897494912,0.0227977419372648
1782845865076860200,1.167860107421875,0.11011281810104846,-0.038938948594778776,0.027026392482966184
1782845865086865200,1.177865234375,0.09309037162959576,-0.00985474679917097,0.04259345251433551
1782845865096869000,1.187869140625,0.09092647159397602,-0.005347790768742561,0.04604556572958827
1782845865106874000,1.1978740234375,0.0933586671769619,0.001649228511750698,0.020027765767276287
1782845865116879000,1.207879150390625,0.11087854177653789,0.023957798692584038,0.002630640764534473
1782845865126884000,1.217884033203125,0.09406535414159298,0.026302023731172082,-0.0338753085296601
1782845865136889300,1.227889404296875,0.07631868504881859,0.03514277118220925,-0.030337124466150996
1782845865146894300,1.237894287109375,0.05521159961223602,0.039059506234526635,0.0048173371538519855
1782845865156899300,1.2478994140625,0.06638298196792602,0.014268325457721947,0.007397051448747515
1782845865166904600,1.257904541015625,0.054098669934272765,0.034780075349658726,0.030813071414828298
1782845865176909600,1.26790966796875,0.050824762830138204,0.027045973966270682,0.06007642916962504
1782845865186913500,1.27791357421875,0.06232347744405269,0.01071326332464814,0.10277706838548183
1782845865196918500,1.28791845703125,0.06295242299735546,-0.007982523186504841,0.12284984233826399
1782845865206923500,1.297923583984375,0.09607143326699732,-0.02158537047281861,0.10800824703723191
1782845865216928500,1.307928466796875,0.12094634680449962,0.0008054711639881133,0.08959164279364049
1782845865226933500,1.31793359375,0.12150339616537094,0.038098113856464624,0.06328713484443724
1782845865236938500,1.3279384765625,0.09395604854822158,0.029884412262588738,0.045728316473960876
1782845865246943500,1.337943603515625,0.06261164673566817,0.0585652939543128,0.045539588968828315
1782845865256948500,1.347948486328125,0.025652327650785445,0.05633125129193067,0.07452858676165341
1782845865266953500,1.357953369140625,0.048991702184081075,0.058399728129059074,0.04309716425277293
1782845865276958500,1.36795849609375,0.07521510772109032,0.05042582664042711,0.00960442529991269
1782845865286962400,1.37796240234375,0.15314824222922324,0.05943477026522159,0.01525572905987501
1782845865296967400,1.387967529296875,0.1821469576984644,0.029972236676514146,0.05042597277089953
1782845865306972400,1.397972412109375,0.19798750090897083,0.006113076052814722,0.058647638475522394
1782845865316977400,1.407977294921875,0.19121172316372392,0.020284078615903853,0.06487484242729842
1782845865326982400,1.417982421875,0.13730477640926836,0.04895516956597566,0.03844407774992287
1782845865336987400,1.4279873046875,0.051180736660957335,0.06010550913363695,0.044836993657425044
1782845865346992400,1.437992431640625,-0.0036550153762102125,0.05736950829848647,0.04000745460912585
1782845865356997400,1.447997314453125,-0.07820961336195469,0.05654387112930417,0.01782104950323701
1782845865367002400,1.45800244140625,-0.13865736006200313,0.07212415596842765,0.03244878285787999
1782845865377006600,1.468006591796875,-0.0860164877206087,0.05136734527423978,0.073776380154863
1782845865387011600,1.478011474609375,-0.03534486962556839,0.018865590120106933,0.060378626986593006
1782845865397016600,1.4880166015625,0.057204819256067276,0.0034596389345824714,0.06369746921099723
1782845865407021600,1.498021484375,0.14133330127298832,-0.00423003878518939,0.04848177990056574
1782845865417026600,1.508026611328125,0.1620347285181284,0.02073284529671073,0.015061156335845588
1782845865427031600,1.518031494140625,0.14967092150747774,0.05807005778327584,-0.0355711526621133
1782845865437036500,1.52803662109375,0.12954641736745834,0.06752703743651509,-0.06626220513246953
1782845865447041500,1.53804150390625,0.10418342805206775,0.07171309094950556,-0.07785071692168712
1782845865457046500,1.548046630859375,0.07982873899638653,0.08670183963626622,-0.057267290033027524
1782845865467051500,1.558051513671875,0.06609539719820022,0.07522942850738763,-0.03789470023885369
1782845865477055200,1.56805517578125,0.08666939867138862,0.05554828422069549,-0.029334742490574717
1782845865487060200,1.578060302734375,0.13158522971868514,0.01554331382960081,0.013467676599323748
1782845865497065200,1.588065185546875,0.15929624346494672,-0.003398410266637802,0.02296644956767559
1782845865507070200,1.5980703125,0.16422668560445308,0.011226765804737806,0.03128879916779697
1782845865517075500,1.608075439453125,0.14299275891780852,0.05382847469076514,0.009291413827985524
1782845865527080400,1.61808056640625,0.08260755605995655,0.06040960664674639,-0.008678981018066407
1782845865537085400,1.62808544921875,0.006644844841957092,0.06836611860916018,-0.03630772330835461
1782845865547090400,1.63809033203125,-0.03434825980365276,0.07885901718139648,-0.01779284632205963
1782845865557095400,1.648095458984375,-0.08077917158901692,0.04694646009206772,0.02919679532460868
1782845865567099400,1.658099365234375,-0.03944938233494758,0.02635404617935419,0.047875192309543485
1782845865577104400,1.6681044921875,0.025063714107871053,0.008384528116136788,0.04754902909509837
1782845865587109400,1.678109375,0.10174480272829532,0.008410831601172685,0.03267119343690574
1782845865597114400,1.6881142578125,0.19007015191316604,0.0024149521872401237,0.016435294233262537
1782845865607119400,1.698119384765625,0.26572014392018317,-0.006082388653606176,0.011047902106493711
1782845865617124400,1.708124267578125,0.2885638438910246,-0.0004800386019051075,0.0006759995654225349
1782845865627129300,1.71812939453125,0.2781020711094141,0.012638824559748171,0.004963175365328788
1782845865637134300,1.72813427734375,0.18777707253992557,0.033330314932763574,-0.02495250881835818
1782845865647139300,1.738139404296875,0.12514438301622866,0.04440422826334834,-0.049939796689152716
1782845865657143300,1.748143310546875,0.08704349268078804,0.04958060798794031,-0.04972644619941711
1782845865667148300,1.758148193359375,0.034142508098483085,0.028704700958728787,-0.08483991822190583
1782845865677153300,1.7681533203125,-0.03572130172252655,0.014059505012631415,-0.0566028347749263
1782845865687158300,1.778158203125,-0.11191606813073157,0.0161744513399899,-0.06457512882836162
1782845865697163300,1.788163330078125,-0.1224023908317089,0.026669541869312523,-0.03215608352161944
1782845865707168300,1.798168212890625,-0.04049684556126594,0.003070785747468471,-0.03261807501018047
1782845865717173200,1.80817333984375,0.040816579034924506,-0.016763357143849134,-0.036792803411558266
1782845865727178200,1.81817822265625,0.11374562164545059,0.007008125196397304,-0.043930473271757364
1782845865737183200,1.828183349609375,0.11688275062739849,0.014984364772588014,-0.05898899925909936
1782845865747187500,1.8381875,0.0683838003963232,0.021977000138908624,-0.04621653838232159
1782845865757192400,1.8481923828125,0.04787117372155189,0.006381079339236021,0.009691445996239782
1782845865767197400,1.858197509765625,0.010638298392295837,0.01881912062987685,0.045366935815662146
1782845865777202400,1.868202392578125,-0.01025952820777893,0.029704087259620426,0.0630498920224607
1782845865787207400,1.87820751953125,-0.013518822264671325,0.026087211936712262,0.07951097828410565
1782845865797212400,1.88821240234375,0.028667876079678533,0.009523176757246255,0.0953049789391458
1782845865807217400,1.898217529296875,0.08672551277279854,0.011872077970951795,0.06023439621031284
1782845865817222400,1.908222412109375,0.17220657844245432,0.02398731704801321,0.029875059912353754
1782845865827227400,1.918227294921875,0.2280354331701994,0.02369067218899727,-0.026733620081469414
1782845865837232400,1.928232421875,0.2820703902184963,0.04033639430254698,-0.07556618618108332
1782845865847236400,1.938236328125,0.2899409774631262,0.040480917339771987,-0.10102854421772062
1782845865857241300,1.948241455078125,0.22519933296144007,0.03495221704617142,-0.1123091591015458
1782845865867246300,1.958246337890625,0.17457155400812624,0.043966275237500664,-0.10397884539067745
1782845865877251300,1.968251220703125,0.10626491050124168,0.012939853332936763,-0.0654983811531216
1782845865887256300,1.97825634765625,0.020476970839500425,0.012047580668330192,-0.03656871233209968
1782845865897261300,1.98826123046875,-0.07382043849229812,0.032049189081043004,-0.02429638299718499
1782845865907266300,1.998266357421875,-0.08400280981063843,0.012547346884012222,0.0015485446162521838
1782845865917271300,2.008271240234375,-0.07578793917298317,0.012826456086337566,0.0016791121933609247
1782845865927276300,2.0182763671875,-0.0037526305317878723,-0.0020920038431882855,-0.00282565187998116
1782845865937280500,2.028280517578125,0.06064940675199031,0.014163257648050783,-0.02388349134735763
1782845865947285500,2.038285400390625,0.06447276443243026,0.015981266855448484,-0.012279562793299555
1782845865957290500,2.04829052734375,0.05325520484745502,0.040853842305392025,0.016381883545592425
1782845865967295500,2.05829541015625,0.04761982930898666,0.02830094246342778,0.04126731847710907
1782845865977300500,2.068300537109375,0.07276654552519321,0.05776303766071796,0.08143778162822127
1782845865987305500,2.078305419921875,0.0725625473856926,0.07238426820933819,0.11033398657105863
1782845865997310500,2.088310546875,0.07711246577501296,0.08016644651815295,0.09893551746122538
1782845866007315500,2.0983154296875,0.10045359387397766,0.05621843856722116,0.07993461052365601
1782845866017320400,2.108320556640625,0.14118775532245637,0.04565378993302584,0.06249291572682559
1782845866027324400,2.118324462890625,0.1824035628080368,0.04033902465105056,0.06083199677728116
1782845866037329400,2.128329345703125,0.1713578526586294,0.04200301234051585,0.021442747131735086
1782845866047334400,2.13833447265625,0.1711532699972391,0.038817514172196387,0.02413213234618306
1782845866057339400,2.14833935546875,0.15290917277634142,0.044327655895799394,-0.004670037637650966
1782845866067344400,2.158344482421875,0.15308160673379897,0.06068053254261613,-0.015953867391869426
1782845866077349400,2.168349365234375,0.11311667609214782,0.04880889296308159,-0.04116341971121728
1782845866087354400,2.178354248046875,0.07744155159890652,0.06023907238543033,-0.04869374215081334
1782845866097359400,2.188359375,0.025841712743043897,0.07017404481396079,-0.05693791194818914
1782845866107364400,2.1983642578125,-0.012014847442507743,0.08120908743888139,-0.05435301002152264
1782845866117369300,2.208369384765625,0.0009340659797191619,0.05959244504496455,-0.07164967032447457
1782845866127373600,2.21837353515625,0.021675240713357923,0.02990677022486925,-0.05921762038320302
1782845866137378600,2.228378662109375,0.06521861436367035,0.012472089690715074,-0.033510566870495674
1782845866147383600,2.238383544921875,0.08930851500332355,-0.011822539740800856,0.00033646541275084016
1782845866157388500,2.248388427734375,0.09043781129419803,-0.03537234215438366,0.004121317713707685
1782845866167394600,2.25839453125,0.09564882394075393,-0.014069588015228509,0.04280848350450396
1782845866177399600,2.268399658203125,0.05449439125359058,-0.009167933578789233,0.06826397340893745
1782845866187404500,2.278404541015625,0.010535422539710997,-0.0002678571559488773,0.056316126788035034
1782845866197409500,2.288409423828125,-0.011674655702710151,0.03127294401153922,0.005687836378067732
1782845866207414500,2.29841455078125,-0.00699088180065155,0.05834405241906643,-0.03264057910293341
1782845866217418800,2.308418701171875,0.04092822271585464,0.060754182300716636,-0.046852571263536806
1782845866227423700,2.318423828125,0.08785773167312144,0.034553426986932756,-0.06645202861614526
1782845866237428700,2.3284287109375,0.11430208648443221,0.017056494871526957,-0.02148651320822537
1782845866247433700,2.338433837890625,0.17026187411546706,-0.011637100171297788,0.021888591203093527
1782845866257438700,2.348438720703125,0.16313538323640822,-0.015799334417283536,0.0025957886468619107
1782845866267443700,2.358443603515625,0.14223638759255408,0.009292875132709742,-0.031870106187090276
1782845866277448700,2.36844873046875,0.09449673129618168,0.03821604114770889,-0.02514401280246675
1782845866287453700,2.37845361328125,0.04486731573045254,0.05285553800538182,-0.05158917133137583
1782845866297458700,2.388458740234375,0.0218026664853096,0.07066328963562846,-0.05626746534071862
1782845866307462700,2.398462646484375,0.014943886631727217,0.058637920799106354,-0.04944046886488795
1782845866317467600,2.408467529296875,0.03897065890729427,0.017415975833684205,-0.05618570534139871
1782845866327472600,2.41847265625,0.06705459761917591,0.007714666030555963,-0.042333486403897405
1782845866337477600,2.4284775390625,0.10984043090045452,-0.026146102517098188,-0.026568784908577798
1782845866347482600,2.438482666015625,0.09146130912303924,-0.028912206229567528,-0.009890987156331538
1782845866357487600,2.448487548828125,0.07468085471391678,-0.019287907185405493,0.03323627997376025
1782845866367492600,2.45849267578125,0.04852174658477306,0.009328092576563357,0.06852342806272209
1782845866377497600,2.46849755859375,0.03647358139455318,0.039500674130767584,0.02291340420618653
1782845866387502600,2.478502685546875,0.07795943799316883,0.06312398017197847,-0.00007350362762808799
1782845866397506800,2.4885068359375,0.12598258740603924,0.06865194981321691,-0.012634805971756577
1782845866407511800,2.49851171875,0.13751988046467303,0.03623188159316778,-0.04984371590353548
1782845866417516800,2.508516845703125,0.121740127530694,0.031065731001645325,-0.06134148066937923
1782845866427521800,2.518521728515625,0.08345160566866397,0.033786826528608795,-0.05768938790261745
1782845866437526800,2.52852685546875,0.08085282134711742,0.017563421480357645,-0.0027422113802284
1782845866447531800,2.53853173828125,0.06750701756179332,-0.025883506058156487,0.026609409179911017
1782845866457536800,2.548536865234375,0.07879588881731033,-0.011506021137535571,0.045208018926903605
1782845866467541800,2.558541748046875,0.07817512657046317,-0.0019293606273829936,0.024920213983953
1782845866477546800,2.568546630859375,0.08083879282176494,0.024712416452169417,0.015505392972007393
1782845866487551700,2.5785517578125,0.09501578673422335,0.016800182022899388,0.002745572381094098
1782845866497555700,2.5885556640625,0.08698796310126782,0.051566374977678055,-0.028175051061436533
1782845866507560700,2.598560791015625,0.06456862602233886,0.07326222008764743,-0.03291720408722758
1782845866517565700,2.608565673828125,0.058443421140313145,0.07113806754052639,-0.040760537998750804
1782845866527570700,2.61857080078125,0.06288929463326931,0.0879202755153179,-0.029734628528356552
1782845866537575700,2.62857568359375,0.07837970923185349,0.07359802791327237,-0.013581877563521265
1782845866547580700,2.63858056640625,0.05769757120907306,0.03848492121696472,0.031505291462689634
1782845866557585700,2.648585693359375,0.10995616623461246,0.0068806994244456285,0.06279781695753335
1782845866567590700,2.658590576171875,0.0843564455538988,-0.011310352434962987,0.08386647007986903
1782845866577595600,2.668595703125,0.09846271231770515,-0.014032909266650675,0.0580225653797388
1782845866587599600,2.678599609375,0.1026566568762064,0.007071107430011034,0.028945597042515873
1782845866597604600,2.6886044921875,0.08866963257789612,0.039041239925473925,-0.029624811478331684
1782845866607609600,2.698609619140625,0.08362813127934932,0.05229176664277911,-0.05369703033082187
1782845866617614800,2.70861474609375,0.06865151142179965,0.07328808518126606,-0.0822075969569385
1782845866627619800,2.718619873046875,0.07618249144852161,0.07507336116284131,-0.07551774392947554
1782845866637624800,2.728624755859375,0.060714873203635215,0.04598185284361243,-0.04466835909225046
1782845866647629800,2.7386298828125,0.08808101903498172,0.04438479291051626,0.006925634544715285
1782845866657634800,2.748634765625,0.08754851959347724,0.02134644715040922,0.06489391245394945
1782845866667639800,2.758639892578125,0.07480652692019939,0.023556232154369354,0.09350625895410776
1782845866677643500,2.7686435546875,0.09091478115618229,0.019431261178851127,0.09743117731288074
1782845866687648500,2.7786484375,0.0953799438714981,0.02319748184457421,0.0782725225303322
1782845866697653500,2.788653564453125,0.11828209603130817,0.04580591175481677,0.042470264526084066
1782845866707658500,2.798658447265625,0.10359422998726367,0.061644409138709305,0.01429777074791491
1782845866717663500,2.80866357421875,0.10341653533279895,0.08603855342194437,-0.016628844043985007
1782845866727668500,2.81866845703125,0.11671849997639655,0.08115370398983358,-0.016922200967371463
1782845866737673500,2.828673583984375,0.10956921274363994,0.06348828343972564,-0.02631583306081593
1782845866747678500,2.838678466796875,0.12595219226777551,0.0440725120909512,-0.003819192961975932
1782845866757683500,2.848683349609375,0.11863280916512012,0.023193536321818826,0.016830284900218248
1782845866767687700,2.858687744140625,0.11398702918589114,-0.0028002982430160046,0.05629734902232885
1782845866777692700,2.868692626953125,0.09939619377553463,-0.02265402261763811,0.07593816129863262
1782845866787697700,2.87869775390625,0.055391047832369804,-0.045957302924245595,0.05500416740663349
1782845866797702700,2.88870263671875,0.012719780841469764,-0.022180413756519555,0.024034809451550242
1782845866807707600,2.898707763671875,-0.010648235264420509,0.010777560732513666,-0.012223740952834487
1782845866817712600,2.908712646484375,0.010763386076688766,0.027589433193206784,-0.04357084617912769
1782845866827717600,2.918717529296875,0.024278116688132286,0.029315234072506427,-0.07112389288470149
1782845866837722600,2.92872265625,0.01941547908782959,0.03319149098396301,-0.09892024682685732
1782845866847727600,2.9387275390625,0.031772271835803986,0.04565817384719848,-0.07506627383492886
1782845866857732600,2.948732666015625,0.1121586447149515,0.029785043541342017,-0.06707403297200798
1782845866867736600,2.958736572265625,0.16204875704348087,-0.009354249931126832,-0.02422368308715522
1782845866877741600,2.968741455078125,0.16325053404867648,-0.0014306173250079155,-0.037697131840139626
1782845866887746600,2.97874658203125,0.1249643502742052,-0.0056380058869719505,-0.03814991710893809
1782845866897751600,2.98875146484375,0.05848433767259121,0.006410451564192772,-0.013608254113793372
1782845866907756500,2.998756591796875,0.04279752371907234,0.013164894260466098,-0.001685176607966423
1782845866917761500,3.008761474609375,0.041433249628543854,0.02059811300113797,0.03512742748260498
1782845866927766500,3.0187666015625,0.0443242948949337,0.023199527671188113,0.017973317455500362
1782845866937771500,3.028771484375,0.0650198769211769,0.03455605733543634,0.029789719716459512
1782845866947775500,3.038775390625,0.10800444764494896,0.04871639237403869,0.02713175255358219
1782845866957780500,3.048780517578125,0.15480419274270535,0.0272816824182868,0.013624182335287331
1782845866967785500,3.058785400390625,0.16800561962127686,0.01741553744226694,0.014056728533655404
1782845866977790700,3.068790771484375,0.12544482726752756,0.02476078563854098,0.05075403568148613
1782845866987795700,3.078795654296875,0.06304185484647751,0.03860314076915383,0.04976034846901893
1782845866997800700,3.08880078125,0.02682838569283485,0.02577259302958846,0.06635463265627622
1782845867007805700,3.0988056640625,0.056257893794775006,0.029247575663775203,0.04153977874293923
1782845867017810700,3.108810791015625,0.08447159636616706,0.032826310933381314,0.018362316773086786
1782845867027815700,3.118815673828125,0.12136018830239773,0.03383154245316982,-0.017301117282360792
1782845867037820700,3.128820556640625,0.16019699169695376,0.02866670703589916,-0.03739946406781673
1782845867047824600,3.13882470703125,0.14775953492820262,0.01833630554899573,-0.040258214499801395
1782845867057829600,3.14882958984375,0.14380992051959038,0.025030104099214075,-0.02538096336349845
1782845867067834600,3.158834716796875,0.17027940977215766,0.03036328182071447,-0.005126549233496189
1782845867077839600,3.168839599609375,0.15201193167567253,-0.0005948971532285213,-0.02536956518664956
1782845867087844600,3.1788447265625,0.13195055589973925,0.00275017549097538,-0.03553308567404747
1782845867097849600,3.188849609375,0.11219546959400176,0.003513999470323324,-0.021801497441530225
1782845867107854600,3.1988544921875,0.061464230266213414,0.007906681471318006,-0.034900048467516896
1782845867117859600,3.208859619140625,-0.02176467256247997,0.03455678798779845,-0.034805794312804936
1782845867127864600,3.218864501953125,-0.06831658037900924,0.04897445878833532,-0.010369126062095165
1782845867137868500,3.22886865234375,-0.0771370156943798,0.026300416295975446,0.00017038813084363936
1782845867147873500,3.23887353515625,-0.08634089736938476,0.029226386745274065,0.0005287000492215156
1782845867157878500,3.24887841796875,-0.04321896400153637,0.042478667028248304,0.03746098499670625
1782845867167882500,3.258882568359375,0.020211597901582716,0.023282091388106343,0.05990574877783656
1782845867177887500,3.268887451171875,0.0751893887579441,0.014059505012631415,0.09249269799739122
1782845867187892500,3.278892578125,0.18563363077044487,0.005662263545393943,0.0884305631250143
1782845867197897500,3.2888974609375,0.26626141119003294,0.0053669338606297965,0.09289075740426778
1782845867207902500,3.29890234375,0.27900983360409737,0.023325492138415574,0.05519318717271089
1782845867217907500,3.308907470703125,0.26033961992561816,0.049103345865011215,0.012310907779633997
1782845867227911400,3.318911376953125,0.19083938271999357,0.06969049908071756,-0.0317716873139143
1782845867237916400,3.32891650390625,0.08335866668820381,0.07444222365245223,-0.05709960531592369
1782845867247921400,3.33892138671875,-0.007477788534760475,0.08776391590982675,-0.06437821801677346
1782845867257926400,3.348926513671875,-0.08943418720960616,0.06276420694887638,-0.03243672709390521
1782845867267931400,3.358931396484375,-0.08612813140153884,0.05624444979131221,0.007384849554300308
1782845867277936400,3.368936279296875,-0.06811842745840549,0.04875394790545105,0.03291413534730673
1782845867287941400,3.37894140625,0.031712650603055954,0.016085604012757538,0.026546353881061076
1782845867297946400,3.3889462890625,0.08319441603720187,-0.016997750421613455,0.008673720321059227
1782845867307951400,3.398951416015625,0.14410685763955117,-0.005348813682049512,0.012857728007435797
1782845867317955600,3.40895556640625,0.1760018790721893,0.0025695582270622254,0.02246113039404154
1782845867327960600,3.418960693359375,0.1885159082084894,0.003700608083605766,-0.008583850080519914
1782845867337965600,3.428965576171875,0.17279519198536872,0.021566227380931377,0.026755758848041294
1782845867347970600,3.438970458984375,0.12869476897418497,0.029614947671443223,0.03544204638972878
1782845867357975600,3.4489755859375,0.032520459854602814,0.04049129260331392,0.040174043347686525
1782845867367980500,3.45898046875,-0.013479659298062325,0.04916501292437315,0.06699497638642787
1782845867377985500,3.468985595703125,-0.05880465566813945,0.047604777870327235,0.08563830205798148
1782845867387990500,3.478990478515625,-0.026924831804633138,0.03847235399633646,0.08846519604697824
1782845867397995500,3.48899560546875,0.023229484418034553,0.027635756552964446,0.05311258150637149
1782845867407999500,3.49899951171875,0.10000818819403648,0.022909312552958725,0.0514066543713212
1782845867418004500,3.50900439453125,0.1872580171018839,-0.0003492518290877342,0.030325360963121054
1782845867428009500,3.519009521484375,0.22972470143139362,-0.0030872984908521172,0.014944325023144482
1782845867438014500,3.529014404296875,0.2277291437000036,0.022958996913582084,0.008530001001432537
1782845867448019500,3.53901953125,0.21112229229211807,0.01867445146217942,0.003404693876951933
1782845867458024400,3.5490244140625,0.17243103484809397,0.01362842011898756,0.015033976067975163
1782845867468029400,3.559029541015625,0.09550561607778071,0.010999386789649724,-0.0016143033288419245
1782845867478034400,3.569034423828125,0.009705401456356047,0.020999387278407812,-0.016722586742043494
1782845867488039400,3.579039306640625,-0.027107202634215354,0.03132131319791078,-0.013081015369296073
1782845867498043600,3.589043701171875,-0.031761750441789624,0.019559855994582175,-0.009045403177663683
1782845867508048600,3.599048583984375,-0.025852818658947944,0.01376242176219821,-0.019460341142863033
1782845867518053600,3.6090537109375,0.003301379632949829,0.01761529779806733,-0.044282428514584894
1782845867528058600,3.61905859375,0.017705752560496328,0.027715397660434245,-0.06521876049414277
1782845867538063600,3.629063720703125,0.07797171295285224,0.02948343024626374,-0.052575917346402996
1782845867548068600,3.639068603515625,0.09444646241366862,0.05227700746506452,-0.03370623557306826
1782845867558073600,3.649073486328125,0.09468436282277107,0.051890200104564424,-0.02574095578230917
1782845867568078600,3.65907861328125,0.09404080422222613,0.06503025218471885,-0.0290517608307302
1782845867578083600,3.66908349609375,0.08410276305377483,0.0664274056315422,-0.004609539622068405
1782845867588087600,3.679087646484375,0.08533844232857227,0.032180121984332795,0.007980185098946093
1782845867598092500,3.689092529296875,0.053498950475454325,0.025185148530453443,0.04177117634601891
1782845867608097500,3.69909765625,0.05445815089643001,0.04634600998088717,0.059212286620959634
1782845867618102500,3.7091025390625,0.07209317630827426,0.03469312771856785,0.09812544318735598
1782845867628107500,3.719107421875,0.11091945830881594,0.03774725459218025,0.09738660751879215
1782845867638112500,3.729112548828125,0.16268413233757018,0.05852540033534169,0.08492598907016218
1782845867648117500,3.739117431640625,0.2005155580818653,0.041526334739476436,0.07166347965411841
1782845867658122500,3.74912255859375,0.19422201089560984,0.02907587235867977,0.04761208439394831
1782845867668127500,3.75912744140625,0.17841770804226398,0.04399024063497781,0.007563347926363349
1782845867678131500,3.76913134765625,0.1271861179769039,0.03709522042423487,0.01155022560544312
1782845867688136700,3.77913671875,0.08784487219154834,0.035236294684559105,0.015712386786192654
1782845867698141700,3.7891416015625,0.07957914814949035,0.0453153517588973,0.009097790952026844
1782845867708146700,3.799146728515625,0.09263736716508865,0.04792071195170283,0.017034136909246444
1782845867718151700,3.809151611328125,0.07882043873667717,0.04110694028362632,-0.028591815168783067
1782845867728156700,3.81915673828125,0.06308744755387306,0.03042714083716273,-0.01355214001238346
1782845867738161700,3.82916162109375,0.053603579893708224,-0.006280395443737506,0.009068564857542514
1782845867748166700,3.839166748046875,0.03180909671485424,0.004129939411580562,-0.02015796801820397
1782845867758171600,3.849171630859375,0.019016835159063338,0.023119740433245897,-0.030826003961637614
1782845867768175600,3.859175537109375,0.012376081970334052,0.04698664597198367,-0.033707550747320056
1782845867778180600,3.8691806640625,-0.02109071882367134,0.05276552163437009,-0.03128383073173463
1782845867788185600,3.879185546875,-0.005861000987887382,0.06724106010198592,-0.01445040402635932
1782845867798190600,3.889190673828125,0.014377484920620917,0.043081016835570335,0.016708119825273753
1782845867808195600,3.899195556640625,0.0805137986510992,0.014511194302886724,0.05379099222458899
1782845867818200600,3.90920068359375,0.09781038588881492,-0.03647621174305677,0.08292612048983573
1782845867828205600,3.91920556640625,0.12881810309290886,-0.04607186921462417,0.08313282204307615
1782845867838210600,3.92921044921875,0.15210662422180174,-0.03212269270867109,0.06964950948320328
1782845867848215600,3.939215576171875,0.14510054485201834,-0.01052139401435852,0.021684300802648066
1782845867858219300,3.94921923828125,0.11696575273573398,0.045290217317640775,-0.01948021488711238
1782845867868224500,3.959224609375,0.08087737126648425,0.07475114347115158,-0.061974444810673594
1782845867878229500,3.9692294921875,0.05205693497359752,0.07981266464442015,-0.09524075459651649
1782845867888234500,3.979234375,0.020875614768266677,0.06487053157836198,-0.05974924304187298
1782845867898239500,3.989239501953125,0.013874796095490454,0.035597675342857835,-0.02465476798079908
1782845867908244700,3.99924462890625,0.037860651838779444,0.015946926194429396,0.026664500368013978
1782845867918249700,4.009249755859375,0.050072483158111566,-0.016276158148795364,0.04259155281819403
1782845867928254700,4.019254638671875,0.07028583462536335,-0.03579129821881652,0.05720467312559485
1782845867938259700,4.029259765625,0.08825345299243927,-0.025798019731789825,0.04321436089165508
1782845867948263400,4.039263427734375,0.08169687095582484,0.010467033478617667,-0.0036257162164896723
1782845867958268400,4.049268310546875,0.06202361771464347,0.02231748413965106,-0.018630100863799452
1782845867968273400,4.0592734375,0.03561842586994171,0.03676248133853078,-0.028417919906601308
1782845867978278400,4.0692783203125,0.006680500677227973,0.049640813742578026,-0.031465397843718525
1782845867988283400,4.079283447265625,0.0032557869255542752,0.04724325108155608,-0.008993746055662631
1782845867998288400,4.089288330078125,0.0350742359906435,0.03459390512779355,-0.0005572685565799475
1782845868008293400,4.09929345703125,0.07930968355834483,0.023227730852365493,0.019716215600073337
1782845868018298400,4.10929833984375,0.11037059225440024,0.031265345226973294,0.027408304472640154
1782845868028303400,4.119303466796875,0.18232815948426723,0.03576835573464632,0.01541201560012996
1782845868038307300,4.129307373046875,0.21694413031339643,0.03018193390443921,0.0026698037311434744
1782845868048312300,4.139312255859375,0.22651216912567615,0.037097996903210875,-0.00755545688085258
1782845868058317300,4.1493173828125,0.21689678404033183,0.04300605190321803,-0.017663082462549207
1782845868068322300,4.159322265625,0.17081541634500025,0.053004006565362215,-0.014353665653616189
1782845868078327300,4.169327392578125,0.12095686819851398,0.04203136165216565,-0.01988784583993256
1782845868088332300,4.179332275390625,0.06586041939854621,0.022714812894165513,-0.005664966959133744
1782845868098337500,4.189337646484375,0.012698738053441046,0.015314473509788512,0.027178002848103643
1782845868108342500,4.199342529296875,-0.017501169899106026,0.033641134447604415,0.03027516514584422
1782845868118347500,4.209347412109375,-0.04463993671536445,0.03004179478138685,0.0005994271978735923
1782845868128351500,4.2193515625,-0.05285714544057846,0.025001462526619434,0.008161313819512725
1782845868138356500,4.2293564453125,-0.0178203188508749,0.02876797545328736,0.01004902726225555
1782845868148361500,4.239361572265625,0.044777883881330485,0.04340294226631522,0.005871668512374162
1782845868158366500,4.249366455078125,0.11013619897663593,0.0538018789447844,-0.024540347820892927
1782845868168371200,4.25937109375,0.18069149819314478,0.04852437693327665,-0.016865429278835654
1782845868178376200,4.269376220703125,0.2638391524791717,0.011553075149655341,-0.006402779714390635
1782845868188381200,4.279381103515625,0.31539573671519755,0.004910276134312152,-0.030758857009559867
1782845868198386200,4.28938623046875,0.22995909470915793,0.011383709932118654,-0.04404503956213593
1782845868208391200,4.29939111328125,0.11264613597095012,0.03317629341483116,0.0015954524978995322
1782845868218395100,4.30939501953125,-0.009835749837756156,0.0043164018943905825,0.06210844645388424
1782845868228400000,4.319400146484375,-0.043832127463817594,-0.009305442353338002,0.08957133065797387
1782845868238405000,4.329405029296875,-0.04767945054173469,0.0012101064421236513,0.0710167061831802
1782845868248410000,4.33941015625,-0.029324878683686256,0.00828881265670061,0.032215558623895045
1782845868258415000,4.3494150390625,0.0071282444447278975,0.018361439990252255,-0.012228270997479557
1782845868268420000,4.359420166015625,0.04702887767851353,-0.00047083238214254376,-0.016651786528155205
1782845868278425300,4.36942529296875,0.08084229995310306,0.0030523733079433437,-0.041698914827406404
1782845868288430300,4.379430419921875,0.07058627887666225,0.03190495830476284,-0.04522051308229565
1782845868298435300,4.389435302734375,0.05939560729861259,0.05896437627449631,-0.02720708281211555
1782845868308439300,4.399439208984375,0.004792494973540306,0.08019932587444782,-0.008069763078540564
1782845868318444300,4.4094443359375,0.004217325434088707,0.06078560035228729,0.015300664180144667
1782845868328449300,4.41944921875,0.06520575488209725,0.037837563224136825,0.037107714579626916
1782845868338454300,4.429454345703125,0.10804828678667544,0.016991466811299323,0.04180500555038452
1782845868348459300,4.439459228515625,0.16269874538481235,-0.01603679643496871,0.06662862729206681
1782845868358464300,4.44946435546875,0.22022972785532474,-0.024894348890334365,0.07063172545358538
1782845868368469200,4.45946923828125,0.23322423398494718,-0.01914835258424282,0.03314363325424492
1782845868378474200,4.46947412109375,0.21607377721965312,0.004846563248336315,-0.019656813563033938
1782845868388479200,4.479479248046875,0.16294716718792915,0.029449381846189497,-0.03957790408544242
1782845868398483200,4.489483154296875,0.04957563955187797,0.06807225022912025,-0.04365962044112384
1782845868408488200,4.49948828125,-0.028287936851382253,0.06528291177153588,-0.007889657271280884
1782845868418493200,4.5094931640625,-0.07166998246014118,0.0416914621733129,0.026905615647509692
1782845868428498200,4.519498291015625,-0.026799159598350525,0.029269202973693606,0.034154929188638924
1782845868438503200,4.529503173828125,0.06324468394219875,0.018667437199503183,0.04549180430434644
1782845868448508200,4.539508056640625,0.1034060139387846,0.004668868593871593,0.010587591118365526
1782845868458513200,4.54951318359375,0.15499942305386066,-0.011378449235111474,0.011442381316795945
1782845868468518100,4.55951806640625,0.142253338727355,-0.0166449914611876,0.019481310865655542
1782845868478523100,4.569523193359375,0.08832476466298103,0.0045204000338912005,0.0050970308780670165
1782845868488528100,4.579528076171875,0.047507601106166836,0.03644596273526549,0.002404576923698187
1782845868498532000,4.589531982421875,0.01689268261194229,0.04674553069248795,-0.002411371990665793
1782845868508537000,4.599537109375,-0.020441315004229545,0.04428732388541102,-0.021448007828742264
1782845868518542000,4.6095419921875,-0.0262076234459877,0.06003551263734698,-0.01995002435594797
1782845868528547300,4.61954736328125,-0.037545594540238376,0.054945496021956204,0.0008680880714207887
1782845868538552300,4.62955224609375,0.01228431203365326,0.03199292884916067,-0.0032179391331970688
1782845868548557300,4.639557373046875,0.05632102215886116,0.027054011142253875,0.0024204320799559352
1782845868558562300,4.649562255859375,0.10970482182204723,0.01171893323585391,0.011684957901015878
1782845868568567300,4.6595673828125,0.15644553020894528,0.021666180624067784,0.012727160430327056
1782845868578571000,4.669571044921875,0.18992928213775156,0.019579729738831517,0.030653496938943862
1782845868588576000,4.679575927734375,0.17664076149761676,0.04037394983395934,0.006607581571489572
1782845868598581000,4.6895810546875,0.18090835581421852,0.05765709306821227,0.0038186084400862455
1782845868608586000,4.6995859375,0.129830495005846,0.06540843784734607,0.014956746113300322
1782845868618591000,4.709591064453125,0.07291442956328392,0.056104310668259855,0.012832520500943063
1782845868628596000,4.719595947265625,0.045611412096023554,0.056632572326064105,0.007373743638396262
1782845868638601000,4.72960107421875,0.03277589592039585,0.05658244957402348,0.027948110437765714
1782845868648606000,4.73960595703125,0.03386369115710258,0.04274579353183508,0.04278188775852322
1782845868658611000,4.74961083984375,0.090064886328578,0.014865414568036793,0.04060549356751144
1782845868668615200,4.759615234375,0.14979776275753975,0.010995149005949497,0.029254589926451444
1782845868678620200,4.7696201171875,0.18638883305191992,0.01297229429781437,0.008792086003720759
1782845868688625200,4.779625244140625,0.16812369304299354,0.02819017556533217,-0.011797624495252967
1782845868698630100,4.789630126953125,0.11869243039786814,0.02995747749879956,-0.036887276761978866
1782845868708635100,4.79963525390625,0.08408405835330486,0.05761076970845461,-0.05660268864445388
1782845868718640000,4.80964013671875,0.03261339883506298,0.071571490521729,-0.06531608338877558
1782845868728645000,4.81964501953125,0.030630700585246085,0.04631166931986808,-0.048739407923445104
1782845868738650000,4.829650146484375,0.01313479138314724,0.04083689117059111,-0.029434695733711123
1782845868748655000,4.839655029296875,-0.0035340193450450895,0.04034457760900259,0.012613982379436492
1782845868758659000,4.8496591796875,0.03230184866786003,0.025791589991003273,0.04269413640983402
1782845868768664000,4.8596640625,0.05529927789568901,0.009371054935455321,0.07133519754782319
1782845868778669000,4.8696689453125,0.09766951611340045,0.0005611410140991211,0.07298917529992759
1782845868788674000,4.879674072265625,0.12928747417032718,0.001216536182910204,0.042719636177271605
1782845868798679000,4.889678955078125,0.13099252452254295,0.022044804678112265,0.01919905985817313
1782845868808684000,4.89968408203125,0.11145838749110698,0.042185237039625643,0.0009440759170800447
1782845868818689000,4.90968896484375,0.10925181735754012,0.04273249565884471,0.036394817069917915
1782845868828694000,4.919694091796875,0.08907003007233143,0.030223142697662114,0.047246100625768304
1782845868838699000,4.929698974609375,0.07610708812475205,0.03400806806385517,0.057539165776968
1782845868848703200,4.939703125,0.10697042842209338,0.024525807838886974,0.08566898945719004
1782845868858708200,4.949708251953125,0.14319208088219165,0.023253888206928967,0.07144603751115501
1782845868868713200,4.959713134765625,0.1655102956742048,-0.0024143676653504372,0.03320135479085147
1782845868878718200,4.96971826171875,0.1783510725468397,0.023505671010911465,-0.0166794051874429
1782845868888723200,4.97972314453125,0.1746563096821308,0.021924977690726516,-0.0341662543002516
1782845868898728200,4.989728271484375,0.12229308523833751,0.018026947338879107,-0.08129143196009099
1782845868908733200,4.999733154296875,0.07162906592786311,0.027500731996446846,-0.09657923665866255
1782845868918738200,5.00973828125,0.004647533544898033,0.03259644770026207,-0.0653479398317635
1782845868928743200,5.0197431640625,-0.026263153025507927,0.01447363877147436,-0.025546821449697017
1782845868938747100,5.0297470703125,-0.029783143845200536,0.014985533816367387,-0.015931728625297546
1782845868948752100,5.039752197265625,-0.014718261182308196,-0.0009044014938175678,-0.00843267810679972
1782845868958757000,5.049757080078125,0.016157938596606254,0.0029378070175647736,-0.01028605088852346
1782845868968762000,5.05976220703125,0.04484627294242382,0.0001711187832057476,-0.001308159989118576
1782845868978767000,5.06976708984375,0.08591302734613418,-0.0038635435603559015,-0.020727292338758706
1782845868988772000,5.079772216796875,0.1312912152081728,0.028274492847919462,-0.04920929045751691
1782845868998777000,5.089777099609375,0.12009820554256438,0.03783113348335027,-0.06545717235989869
1782845869008782000,5.099781982421875,0.07889175040721892,0.02428761516883969,-0.04051891126260161
1782845869018787000,5.109787109375,0.07697334956526755,0.036291064434498546,-0.0018240005567669868
1782845869028791300,5.119791259765625,0.035657004314661025,0.034171734192967415,0.015618132631480692
1782845869038796300,5.12979638671875,0.011325111612677574,0.04610767118036747,0.055681847472488874
1782845869048801300,5.13980126953125,0.046563598254323005,0.0666258508130908,0.03794533444754779
1782845869058806300,5.14980615234375,0.08976035042405128,0.03710632634013891,0.051839638961106535
1782845869068811300,5.159811279296875,0.13351765908598898,-0.0018732465259730816,0.04589037516787648
1782845869078816300,5.169816162109375,0.1954430771231651,0.022080460513383148,0.004493073635548353
1782845869088821200,5.1798212890625,0.24014906481206416,0.010877075584232806,-0.018975991692021486
1782845869098826200,5.189826171875,0.21679975340664384,0.004003828813880682,-0.026222090362757442
1782845869108831200,5.199831298828125,0.17454992669820785,0.02739449514299631,-0.03186681825146079
1782845869118835200,5.209835205078125,0.11898761395215987,0.024568331806361674,-0.01737827417179942
1782845869128840200,5.219840087890625,0.030231472134590147,0.036693215494602915,-0.023228169243782758
1782845869138845200,5.22984521484375,-0.038566169759631154,0.06309460794702172,-0.037674993073567746
1782845869148850200,5.23985009765625,-0.07823007162809371,0.05361527033150196,-0.018628493428602812
1782845869158855200,5.249855224609375,-0.09700842185616493,0.022930647601932287,-0.011172405268996953
1782845869168860400,5.2598603515625,-0.09391805462539196,0.010246668726205825,0.01225683950483799
1782845869178865400,5.269865478515625,-0.02789280005395412,0.027135698076337575,0.02588978966847062
1782845869188870400,5.279870361328125,0.04141103779673576,0.00847790548801422,0.03294109641946852
1782845869198875400,5.28987548828125,0.10433189661204814,-0.0018881518341600893,0.030655688896030184
1782845869208879400,5.29987939453125,0.15099135645627976,-0.0033732758253812787,0.006866524768620729
1782845869218884400,5.30988427734375,0.1908212625414133,0.014973843378573656,0.01693973662406206
1782845869228889300,5.319889404296875,0.17321780131161213,0.028073125056922433,0.0050809565261006355
1782845869238894300,5.329894287109375,0.14309680381417272,0.03987096874788403,-0.00649995647855103
1782845869248899600,5.339899658203125,0.1259405018299818,0.060510728933662175,0.0031571488566696643
1782845869258904600,5.349904541015625,0.1118716444671154,0.06855681887567043,0.027247487887740132
1782845869268909600,5.35990966796875,0.12358487861454485,0.051447278642654415,0.03252886235676706
1782845869278914600,5.36991455078125,0.11519289784431457,0.021847382409870622,0.02188362276703119
1782845869288919600,5.37991943359375,0.13245149115920066,0.03202595433592796,0.010001096467301249
1782845869298923500,5.389923583984375,0.1309118605017662,0.00719502607062459,-0.008588380125164986
1782845869308928500,5.399928466796875,0.10650748708546161,0.013107757245749235,-0.01978380094356835
1782845869318933500,5.40993359375,0.11250292810797691,0.030199177300184964,-0.010269903471320866
1782845869328938500,5.4199384765625,0.08226444171071053,0.04216916268765926,-0.01258190674073994
1782845869338943500,5.429943603515625,0.016295885762572286,0.05305529836118221,0.0015204145003110169
1782845869348948500,5.439948486328125,-0.03784837687909603,0.045411359479278324,-0.0035962709262967107
1782845869358953500,5.449953369140625,-0.08197276528775692,0.03938055488243699,0.029362945671752093
1782845869368958500,5.45995849609375,-0.038355157357454296,0.02044175339564681,0.053314899145439264
1782845869378962200,5.469962158203125,0.02973287496268749,0.002637801157683134,0.04322561293803155
1782845869388967200,5.47996728515625,0.08808101903498172,0.030756665052473542,0.006445888203755021
1782845869398972200,5.48997216796875,0.14590543149411678,0.04203530717492103,0.004138414978981018
1782845869408977200,5.49997705078125,0.16551204923987387,0.03402677276432514,-0.0038998569827526806
1782845869418982100,5.509982177734375,0.16693886717259884,0.027885493530333042,0.01850019087381661
1782845869428987400,5.5199873046875,0.13760814327001572,0.0385131243981421,0.03475150684230029
1782845869438992400,5.529992431640625,0.11506254946291446,0.024175094705075024,0.058564344106242054
1782845869448997400,5.539997314453125,0.09162497525215148,0.036747283769398925,0.0660782999329269
1782845869459002400,5.55000244140625,0.07357435477674007,0.02713876681625843,0.08954948415234684
1782845869469006300,5.56000634765625,0.07799860095977783,0.047148996926844114,0.09280914353542029
1782845869479011300,5.57001123046875,0.06958557740151881,0.030707419083267448,0.057213148692995305
1782845869489016300,5.580016357421875,0.07540566185712815,0.0359052799873054,0.0194351336363703
1782845869499021300,5.590021240234375,0.09473580074906349,0.053014381828904146,-0.027968349508196114
1782845869509026300,5.6000263671875,0.12401684029102325,0.02600157947987318,-0.04583440719693899
1782845869519031300,5.61003125,0.16526362743675707,0.012530103488266468,-0.04749620292931795
1782845869529036300,5.620036376953125,0.16843582773208618,0.012148702955245972,-0.06189020059332251
1782845869539041300,5.630041259765625,0.15083412006795405,0.05194572968408465,-0.049605084842070934
1782845869549046300,5.64004638671875,0.10039280359745024,0.030119390062242745,-0.046514279219880696
1782845869559050200,5.65005029296875,0.04716624032258987,-0.01982815154194832,0.0006454582966864109
1782845869569055200,5.66005517578125,-0.0143564421325922,-0.003255933056026697,0.018933540789782998
1782845869579060200,5.670060302734375,-0.03378536522388458,0.023832272616773842,0.02974178892150521
1782845869589065200,5.680065185546875,-0.0867401258200407,0.044316988371312614,-0.011606047445908188
1782845869599070200,5.6900703125,-0.07608955246806144,0.03313552301302552,-0.04169767271839082
1782845869609075200,5.7000751953125,-0.013064064234495161,0.011965016951411962,-0.02688048120625317
1782845869619080200,5.710080078125,0.019160627543926237,0.016422434751689433,-0.02030307557731867
1782845869629085200,5.720085205078125,0.057529813426733016,0.016580547922849655,0.015744243229180572
1782845869639090200,5.730090087890625,0.0978372738957405,0.0085986092582345,0.028458398047462103
1782845869649094400,5.740094482421875,0.13287410048544407,0.012715981449186802,0.044910862611234184
1782845869659099400,5.750099365234375,0.17412673285007477,0.021985329575836658,0.03827493172809481
1782845869669104400,5.7601044921875,0.18555530483722685,0.019922259566187858,0.027187355198338627
1782845869679109400,5.770109375,0.1539952144473791,0.030368834778666493,0.03134586311727762
1782845869689114400,5.7801142578125,0.0731722037166357,0.04365501733124256,0.03854848797246813
1782845869699119400,5.790119384765625,0.01993044287264347,0.03524681607857346,0.043894744371250266
1782845869709124400,5.800124267578125,0.006759995654225349,0.029760932013392447,0.041908392859622834
1782845869719129300,5.81012939453125,0.021412790384888646,0.0457825308792293,0.010425167098268866
1782845869729134300,5.82013427734375,-0.0034779052436351775,0.04592588487267494,0.00676269906796515
1782845869739138300,5.83013818359375,-0.009526537758111953,0.06218085410296917,-0.0009279284998774528
1782845869749143300,5.840143310546875,-0.026479426124691962,0.046378012554347516,0.0331245632275939
1782845869759148300,5.850148193359375,-0.0017898060262203216,0.07092164831086993,0.012795111100003122
1782845869769153300,5.8601533203125,0.05602174695134163,0.05614610398337245,-0.028373277047276494
1782845869779158300,5.870158203125,0.10944587862491607,0.06638254357650876,-0.031173063833639023
1782845869789163300,5.880163330078125,0.18461071746349333,0.024665946961939335,-0.015511822712793945
1782845869799168300,5.890168212890625,0.2492272742807865,0.010766016425192355,-0.008708499373495578
1782845869809173200,5.90017333984375,0.27290567151010037,0.018164748374372718,0.01719546495079994
1782845869819178200,5.91017822265625,0.2771867098301649,-0.0003599193535745144,0.004930003748089075
1782845869829182500,5.920182373046875,0.22960487444400787,0.011318097350001334,0.0136408412091434
1782845869839187500,5.9301875,0.16516192062795162,0.030668694508075713,0.01809935498796403
1782845869849192400,5.9401923828125,0.10507131680250167,0.059415188781917094,0.008559080965444445
1782845869859197400,5.950197509765625,0.022133505874872207,0.0795167504377663,-0.004918678636476397
1782845869869202400,5.960202392578125,-0.013470306947827339,0.06449234591573476,0.006259060394763946
1782845869879207400,5.97020751953125,-0.036030513802170754,0.051641339910030365,0.0014855623826384543
1782845869889212400,5.98021240234375,-0.028764906713366508,0.04677899457067251,-0.021400880751386284
1782845869899217400,5.990217529296875,-0.007165653845667839,0.05258753471896052,-0.020683526262268423
1782845869909222400,6.000222412109375,0.02343172899186611,0.058524815813452,-0.02410736323110759
1782845869919226400,6.010226318359375,0.07296352940201759,0.03538096385225654,-0.006664791651442647
1782845869929231400,6.0202314453125,0.1504144333511591,0.03730725573971867,0.0032325521804392335
1782845869939236400,6.030236328125,0.18275369141995906,0.0321146555326879,-0.010584814639389515
1782845869949241300,6.040241455078125,0.15886895796358586,0.024408611200004815,-0.025818331867456433
1782845869959246300,6.050246337890625,0.14084814810454846,0.020337708499282597,-0.0055159869424998755
1782845869969251300,6.060251220703125,0.12688275111615657,0.0318270707629621,-0.01435023158751428
1782845869979256300,6.07025634765625,0.10979366914927959,0.03949073725864291,-0.03033449411764741
1782845869989261300,6.08026123046875,0.10009352838993071,0.04763371170386672,-0.0529107753239572
1782845869999265500,6.090265625,0.09774082778394222,0.014758739323168991,-0.04619169620200991
1782845870009270500,6.1002705078125,0.055554713961482045,-0.00479819406196475,-0.014144114556163549
1782845870019275500,6.110275634765625,0.017549100694060325,-0.007581979561597108,-0.00047550855726003643
1782845870029280500,6.120280517578125,-0.017701076385378836,-0.006246639304608106,-0.03126819477118552
1782845870039285500,6.130285400390625,-0.019673837763071057,-0.018840894070267677,-0.006136237732693553
1782845870049290500,6.14029052734375,0.017611060014367103,-0.01561170289069414,-0.01583250603452325
1782845870059295500,6.15029541015625,0.0697603494465351,-0.0029715631566941737,-0.01388422151096165
1782845870069300500,6.160300537109375,0.12342238152921199,0.016811287938803432,-0.04073255401328206
1782845870079305500,6.170305419921875,0.14172902259230613,0.013429098154604434,-0.07019830247238278
1782845870089309400,6.180309326171875,0.14291209489703177,0.02297814000546932,-0.04941211955323815
1782845870099314400,6.190314453125,0.135612001016736,0.017880816866457462,-0.02110927739366889
1782845870109319400,6.2003193359375,0.12381284215152263,-0.00778276283070445,-0.0010989742178469895
1782845870119324400,6.210324462890625,0.11193360378742218,-0.018103081315010785,-0.02714972660169005
1782845870129329400,6.220329345703125,0.09201718944013118,-0.007675941455364227,-0.03384476726092398
1782845870139334400,6.23033447265625,0.1074228483647108,-0.006183803201466799,-0.015038798373565077
1782845870149339400,6.24033935546875,0.050315644264221186,-0.006837883196026086,0.007821925797313452
1782845870159344400,6.250344482421875,0.010142623829841614,0.049223318982869385,0.04401690944619477
1782845870169348600,6.2603486328125,-0.03083177611529827,-0.04558014017492532,-0.0982375983249396
1782845870179352800,6.270352783203125,-0.0691156218022108,0.03654766954407096,0.01150952826887369
1782845870189357800,6.28035791015625,-0.027875264397263524,0.05195946594849229,0.02782338807955384
1782845870199362800,6.29036279296875,0.020341946282982824,0.016206307782977818,0.006208937642723322
1782845870209367800,6.300367919921875,0.05537994191646576,0.03388794881552458,0.03173939247950911
1782845870219372800,6.310372802734375,0.11533435214161872,0.056202948737144466,0.03170863201506436
1782845870229377800,6.320377685546875,0.15925006623566149,0.049934535992145535,0.03666077452972531
1782845870239382800,6.3303828125,0.19238778120577335,0.02366159222498536,0.07677899603694677
1782845870249387800,6.3403876953125,0.21571897243261337,0.03165025289133191,0.10295045219101011
1782845870259392800,6.350392822265625,0.19799100804030895,0.039110067377984524,0.11023162217512726
1782845870269396700,6.360396728515625,0.1423760883241892,0.02937339400053024,0.09454751163534819
1782845870279401700,6.370401611328125,0.06229015969634056,0.04551496598422527,0.11200557304508983
1782845870289406700,6.38040673828125,0.023746201768517494,0.06375277959480881,0.11455196959227323
1782845870299411700,6.39041162109375,0.01594283454120159,0.05365531008094549,0.06865757583640515
1782845870309416700,6.400416748046875,0.0172539171397686,0.0626759441435337,0.024984803652763364
1782845870319421700,6.410421630859375,0.08189210126698017,0.06682809538692236,0.027541283202543853
1782845870329426700,6.4204267578125,0.1388759712487459,0.05030497673973441,0.019506518372148274
1782845870339431700,6.430431640625,0.1599474008500576,0.053132893642038104,0.018174831376969812
1782845870349436700,6.440436767578125,0.1490191796004772,0.05931114388555288,0.010983166307210922
1782845870359441000,6.45044091796875,0.11744973686039448,0.05330751955658197,0.011626944103464484
1782845870369446000,6.46044580078125,0.09753975225389003,0.04331628689616918,0.040380891031399364
1782845870379451000,6.470450927734375,0.07126783140003681,0.0289329567566514,0.04724690434336662
1782845870389456000,6.480455810546875,0.012834931653738021,0.02425371289923787,0.06774528329707681
1782845870399460900,6.4904609375,-0.024048984107375142,0.03515723809897899,0.08570471835769712
1782845870409465900,6.5004658203125,-0.03711597095131874,0.03416574284359813,0.06780037448517978
1782845870419470800,6.510470947265625,-0.03261339883506298,0.035274726998805996,0.06152991591356694
1782845870429475800,6.520475830078125,0.015574001228809356,0.053823652385175225,0.039375951772555706
1782845870439479800,6.530479736328125,0.0840735369592905,0.03438406176939606,0.008218158573284744
1782845870449484800,6.54048486328125,0.1732183858335018,0.03413637061864137,0.012652560824155806
1782845870459489800,6.55048974609375,0.20129823289215565,0.02667187995687127,0.009110285107418894
1782845870469494800,6.560494873046875,0.2226888114452362,0.056498132291436194,-0.01246631753705442
1782845870479499800,6.570499755859375,0.23359131373167036,0.0627488632492721,-0.035891616788133976
1782845870489504800,6.5805048828125,0.1989034467101097,0.06657134414687753,-0.05050722131356597
1782845870499509800,6.590509765625,0.1249076516509056,0.06756999979540705,-0.04570237831510603
1782845870509514800,6.6005146484375,0.09803601133823395,0.04927841017097234,-0.013439911809563635
1782845870519519700,6.610519775390625,0.09404255778789519,0.04322539374232292,-0.0030523733079433437
1782845870529524000,6.62052392578125,0.07187222703397274,0.00241641349196434,-0.004155658374726772
1782845870539529000,6.630529052734375,0.027808628901839254,-0.016601882971823214,0.011933160508424042
1782845870549534000,6.640533935546875,0.0260550632327795,0.0003999591030180454,0.037152357438951726
1782845870559539000,6.6505390625,0.01009177042543888,0.0021928338691592215,0.03466835860349238
1782845870569544000,6.6605439453125,0.0400455946624279,-0.007229951253533363,0.019892887341231107
1782845870579549000,6.670548828125,0.08573007199466227,0.01941664813160896,-0.006160276195406913
1782845870589554000,6.680553955078125,0.09503682952225208,0.04396671362891793,-0.054196504285559055
1782845870599559000,6.690558837890625,0.10221475832760334,0.038741087935119864,-0.049008507188409565
1782845870609564000,6.70056396484375,0.10591185927987098,0.03555500524491072,-0.024696049839258192
1782845870619567900,6.71056787109375,0.05732698433101177,0.013279460550844668,0.006933817851170897
1782845870629572900,6.72057275390625,0.046886838859319685,0.013107611115276812,0.037566929589211935
1782845870639577900,6.730577880859375,0.08313654837012291,0.021815672097355125,0.053782297461479896
1782845870649582800,6.740582763671875,0.10949205585420131,0.010607903254032134,0.07128909338377416
1782845870659587800,6.750587890625,0.1602560284078121,0.006224281342327594,0.07363821379318833
1782845870669592800,6.7605927734375,0.19669570753276347,0.02552490187883377,0.053171252891048786
1782845870679597800,6.770597900390625,0.1764905393719673,0.009224632202088832,0.013469649360701441
1782845870689602800,6.780602783203125,0.13370762870013714,0.012099310855567454,-0.01339768010303378
1782845870699606800,6.790606689453125,0.11563947256803511,0.014125555986166,-0.025460531405732033
1782845870709611800,6.80061181640625,0.06054945350885391,0.030418665269762276,-0.036682328774407504
1782845870719616800,6.81061669921875,0.018326514807343482,0.020602204654365776,-0.05869140455201268
1782845870729621800,6.820621826171875,0.019135493102669716,0.023867928452044725,-0.03295731690190732
1782845870739626800,6.830626708984375,0.013877134183049202,0.010365911191701889,-0.004251373834162951
1782845870749631700,6.8406318359375,-0.001619125634431839,0.01822159312814474,0.019745587825030088
1782845870759636700,6.85063671875,0.003949614408612251,0.028766221887618303,0.0349858270548284
1782845870769641700,6.860641845703125,0.03672901746034622,0.009537935934960842,0.014199351874738931
1782845870779646700,6.870646728515625,0.02742050636708736,0.0026866087354719638,0.016888956284895538
1782845870789650700,6.880650634765625,0.04183247807919979,0.010980243697762489,-0.03372808207869529
1782845870799655700,6.89065576171875,0.03679565295577049,0.04406885882914066,-0.051438364683836696
1782845870809660700,6.90066064453125,0.05112871421277523,0.0647612259849906,-0.04309804103560746
1782845870819665700,6.910665771484375,0.08603577694296836,0.039766631590574975,-0.037790582277253265
1782845870829670700,6.920670654296875,0.09788462016880511,0.036099341254681346,-0.03023863252773881
1782845870839675600,6.930675537109375,0.14633914673626422,0.05755524012893438,-0.0066598962806165216
1782845870849680600,6.9406806640625,0.1580862831532955,0.04466127176433801,0.00008804360963404179
1782845870859685600,6.950685546875,0.14546704007685182,0.031724487171322105,-0.00867503549531102
1782845870869690600,6.960690673828125,0.15675883394181728,0.022755583295971153,-0.010933774207532405
1782845870879694600,6.970694580078125,0.12026947045624256,0.0007854512892663478,0.019123948795348403
1782845870889699600,6.980699462890625,0.07585106753706931,0.006145955409109592,0.017169965183362362
1782845870899704600,6.99070458984375,0.007077391040325165,0.02729761063978076,0.02246039974167943
1782845870909709600,7.00070947265625,-0.026953473377227782,0.06617386926189064,0.03915492943301797
1782845870919714800,7.01071484375,-0.04196048837304115,0.0588690992064774,0.03927621772512793
1782845870929719800,7.0207197265625,-0.01983107415139675,0.05326280363202095,0.033053178491815924
1782845870939724800,7.030724853515625,0.04576280326545238,0.05604425104409456,-0.002495835403725505
1782845870949729800,7.040729736328125,0.0995282957226038,0.05883782728537917,-0.002990048661455512
1782845870959733800,7.050733642578125,0.16240999157130717,0.021970570398122072,-0.0032318945933133363
1782845870969738800,7.06073876953125,0.2294382857054472,0.010562456677109002,-0.013636238099262118
1782845870979743700,7.07074365234375,0.26740064435303207,0.03960077350437641,-0.023931641338020563
1782845870989748700,7.080748779296875,0.2503074707329273,0.04565232862830162,-0.040257045456022024
1782845870999753700,7.090753662109375,0.16441665521860122,0.03288753960132599,-0.03159019326716661
1782845871009758700,7.1007587890625,0.09275427154302597,0.053798810204863545,-0.018312340151518582
1782845871019763700,7.110763671875,0.014143091642856598,0.06566358165219426,-0.015412234795838593
1782845871029768700,7.120768798828125,-0.04687339485585689,0.06389423389211296,0.009158581228554247
1782845871039773700,7.130773681640625,-0.07043079605400562,0.03280044583976269,0.017252090508863328
1782845871049777700,7.140777587890625,-0.047478959533572195,0.021798574832081793,0.04088087644279003
1782845871059782700,7.15078271484375,0.004283960929512978,0.00938873672261834,0.04790602583922445
1782845871069787600,7.16078759765625,0.05313771594762802,-0.011367051058262585,0.04156074846573174
1782845871079792600,7.170792724609375,0.09527356088757515,-0.017059125220030544,0.048445612608641386
1782845871089797600,7.180797607421875,0.14504267718493938,0.01575812562406063,0.03214592745378613
1782845871099802600,7.190802734375,0.14961013123095035,0.04851619362682104,0.004735284893587231
1782845871109807600,7.2008076171875,0.15512041908502577,0.037001989182829854,-0.02570690738223493
1782845871119812600,7.2108125,0.11443009677827358,0.045712388252466915,-0.04000833139196038
1782845871129817600,7.220817626953125,0.08827741838991641,0.05549509272873401,-0.04232976007685065
1782845871139821800,7.23082177734375,0.060547699943184846,0.040628216855973,-0.03621887598112225
1782845871149826800,7.240826904296875,0.07408639595210552,0.03775558402910829,-0.02076601691395044
1782845871159831800,7.250831787109375,0.06259528012275696,0.037067017243057485,0.00024900632500648496
1782845871169836800,7.2608369140625,0.0291354935914278,0.026736615756154058,0.009659589553251862
1782845871179842300,7.27084228515625,0.03159633074700832,0.014439736501872538,0.02336670093163848
1782845871189847300,7.280847412109375,0.0633861382395029,-0.020153730234503744,0.03818959153220057
1782845871199852300,7.290852294921875,0.06708849988877773,-0.012704875533282756,0.06378061744980514
1782845871209857300,7.300857177734375,0.07932955730259418,0.009711100544780492,0.03820427764467895
1782845871219861200,7.310861328125,0.052046413579583166,0.02353475097492337,0.03367635189145803
1782845871229866200,7.3208662109375,0.047476621446013445,0.02702346987351775,0.03686849899627268
1782845871239871200,7.330871337890625,0.04747779048979282,0.026579233237355945,0.0026156623911112544
1782845871249876200,7.340876220703125,0.08392331483364104,0.051972617691010234,-0.013281506377458572
1782845871259881200,7.350881103515625,0.11285422576367854,0.048491789837926624,-0.04783654079958796
1782845871269886200,7.36088623046875,0.10913608202338218,0.04329977415278554,-0.04486695040427148
1782845871279891200,7.37089111328125,0.09290332462489605,0.01977612909376621,-0.031372020471841094
1782845871289896200,7.380896240234375,0.07313537883758545,0.022534926282614467,-0.02220847080722451
1782845871299901200,7.390901123046875,0.06598083090782166,0.026345424481481312,-0.019853870505094528
1782845871309905400,7.400905517578125,0.0636649551808834,0.01926481857076287,-0.02585150348469615
1782845871319910400,7.410910400390625,0.08157938205599784,-0.011808511215448379,-0.021051117465645072
1782845871329915400,7.420915283203125,0.06565349864959716,0.003829933551698923,-0.011380860387906432
1782845871339920400,7.43092041015625,0.055390463310480115,0.035587592340260744,-0.013197189094871282
1782845871349925400,7.44092529296875,0.04458323809206485,0.04316796446666121,0.00784581812955439
1782845871359930400,7.450930419921875,0.051830725002288816,0.04972440037280321,0.03029116643257439
1782845871369935400,7.460935302734375,0.0940033948212862,0.05591375653222203,0.015069997229427099
1782845871379940400,7.4709404296875,0.08286708377897739,0.04709244443401694,-0.002098871975392103
1782845871389945300,7.4809453125,0.051374213406443596,0.06161839791461825,0.018395196129381657
1782845871399949300,7.49094921875,0.04320844260752201,0.052978579863160846,0.047544572115689514
1782845871409954300,7.500954345703125,0.06173018772602081,0.04523687969520688,0.042648178376257416
1782845871419959300,7.510959228515625,0.10446107594966887,0.03432853218987584,0.05104191271215677
1782845871429964300,7.52096435546875,0.16027414858639238,0.008297872745990753,0.036619931062683464
1782845871439969300,7.53096923828125,0.17542612501084803,-0.000374094009399414,0.025752427024394273
1782845871449974300,7.540974365234375,0.18123159641921519,0.021277765828371046,0.03754698277972639
1782845871459979300,7.550979248046875,0.15792261702418325,0.012859919964522123,0.05012224058397114
1782845871469984300,7.560984375,0.15589724867641924,0.011843728659301996,0.05075133226774633
1782845871479989200,7.5709892578125,0.12970657636523247,0.027919834191352126,0.026478110950440167
1782845871489993200,7.5809931640625,0.0942342809677124,0.05882569845616817,-0.014864610850438475
1782845871499998200,7.590998291015625,0.08037468244135379,0.0659480976819992,-0.03484773375838995
1782845871510003500,7.60100341796875,0.07691898902952671,0.07181582067161799,-0.0513945255421102
1782845871520008400,7.611008544921875,0.04320727356374263,0.05747004606351256,-0.06544087881222367
1782845871530013400,7.621013427734375,0.0325035087198019,0.046483226494491096,-0.04474880391731858
1782845871540018400,7.631018310546875,0.035684476843476295,0.040814533208310605,-0.014321005493029951
1782845871550023400,7.6410234375,0.03529693883061409,0.013907821582257746,0.005189312271401286
1782845871560028400,7.6510283203125,0.022895722419023514,-0.002376666003465652,0.011914675003662705
1782845871570032400,7.661032470703125,0.03949263695478439,-0.005641366887837648,0.04179331511259079
1782845871580037400,7.671037353515625,0.04546878875494003,-0.006922200478613376,0.06144179923869669
1782845871590042400,7.68104248046875,0.031930092746019365,0.01856529199928045,0.0571975857976824
1782845871600047400,7.69104736328125,0.046939445829391475,0.03397372740283608,0.03584061725325882
1782845871610052400,7.70105224609375,0.04380173232555389,0.0586618861965835,0.028813568160682916
1782845871620057300,7.711057373046875,0.08367547755241393,0.056592094185203314,0.03384374434761703
1782845871630062300,7.721062255859375,0.11471358989477157,0.043762130967527624,0.014228797164931892
1782845871640067300,7.7310673828125,0.12801789262592791,0.02847133059427142,0.032081410850211975
1782845871650072300,7.741072265625,0.16889117028415201,0.013262801676988602,0.01265467971600592
1782845871660076300,7.751076171875,0.14597498959898947,0.011076835940033197,-0.007012289914861321
1782845871670081300,7.761081298828125,0.14789455948472022,0.003277414235472679,-0.016457944456487895
1782845871680086300,7.771086181640625,0.14214286409020424,0.01647884111404419,-0.014429799629747867
1782845871690091300,7.78109130859375,0.1371907946407795,0.043538697475194926,-0.04079049474559724
1782845871700096300,7.79109619140625,0.11790624845623969,0.04314005354642868,-0.07005619058795273
1782845871710101200,7.801101318359375,0.10387187788486481,0.029027649302780626,-0.06658982965163886
1782845871720106200,7.811106201171875,0.06807400379478931,0.023254180467873812,-0.06454846001714468
1782845871730111500,7.821111572265625,0.04639233334064483,0.01575447236225009,-0.059566214625164864
1782845871740115500,7.831115478515625,0.009243629163503646,0.017522651078552005,-0.031638489388301966
1782845871750120400,7.841120361328125,-0.007509937238693237,-0.006279226399958133,0.011599179313704371
1782845871760125400,7.85112548828125,-0.013415361890196799,-0.004978226803988218,0.021524507131054995
1782845871770130400,7.86113037109375,-0.014178162956237791,-0.00042187867388129234,0.024995398112013935
1782845871780135400,7.871135498046875,-0.0023427637338638303,0.004931026661396026,0.02492394031099975
1782845871790140400,7.881140380859375,0.00756079064309597,0.010704933887720107,0.02337773378230631
1782845871800145400,7.8911455078125,0.027194880917668342,0.022752806816995142,0.022675722992792725
1782845871810150400,7.901150390625,0.07258768182694912,0.04318929951563477,0.028673136776685714
1782845871820155400,7.9111552734375,0.10410393307507038,0.03751154614016414,0.05015124748274684
1782845871830159000,7.9211591796875,0.13835983842015265,0.03190890382751822,0.04212466595880687
1782845871840164000,7.9311640625,0.18951017994284627,0.0471975122436881,0.03183898039646447
1782845871850169000,7.941169189453125,0.19291794255971909,0.05480024233236908,0.02092676043361425
1782845871860174000,7.951174072265625,0.18227438347041605,0.04297156511172652,0.020455635790526866
1782845871870179000,7.961178955078125,0.21292261971235274,0.033020372200757264,0.040125308835133905
1782845871880184300,7.971184326171875,0.2300263147264719,0.018764760094136,0.025029373446851966
1782845871890189300,7.981189208984375,0.24050679220855234,0.0028571429967880245,0.012786343271657823
1782845871900194300,7.9911943359375,0.18610007923841476,0.005045446821302175,-0.01598791579194367
1782845871910199300,8.00119921875,0.11970891396403312,0.022818857790529726,-0.025529651119187473
1782845871920203300,8.011203369140626,0.08112579306960105,0.021986644750088453,-0.02120338541790843
1782845871930208300,8.021208251953125,0.018432313269376752,0.03615823183506727,-0.025649916497990487
1782845871940213200,8.031213134765625,-0.022438626301288605,0.06904694048017262,-0.04240786681436002
1782845871950218200,8.04121826171875,-0.022577157989144322,0.045257922483235596,-0.040126770139858124
1782845871960223200,8.05122314453125,0.004107435318827629,0.0210891113884747,-0.04375774705335497
1782845871970228200,8.061228271484374,0.025142624562978742,0.01672594774290919,-0.04726758180521428
1782845871980233200,8.071233154296875,0.019708909076452254,0.013729396275430917,-0.05103044147007167
1782845871990238200,8.08123828125,0.004455810365080833,0.0071431497529149054,-0.013139175297319889
1782845872000242200,8.0912421875,0.001712064614892006,0.014543635267764329,0.014097718131169676
1782845872010247200,8.1012470703125,-0.00035538930892944334,0.009616992520540952,0.028756211950257418
1782845872020252200,8.111252197265625,0.03223988934755325,0.022224252898246047,0.03703011929877102
1782845872030257200,8.121257080078125,0.06538929475545882,0.04351970051378012,0.034917803319916126
1782845872040262100,8.13126220703125,0.09507423892319201,0.016138795504719017,0.027472090423852204
1782845872050267100,8.14126708984375,0.1388596046358347,0.012639847473055124,0.038933395636826754
1782845872060272000,8.151272216796874,0.14171440954506395,0.024888065280020237,-0.001263151803612709
1782845872070277000,8.161277099609375,0.13477964184582233,0.051059302238374946,0.0028797932200133798
1782845872080282000,8.1712822265625,0.1315261930078268,0.0364325187318027,0.0139871704287827
1782845872090286300,8.181286376953125,0.16883680974841117,0.04135039365068078,0.009507175470516086
1782845872100291300,8.191291259765626,0.17663140914738176,0.04166442803591489,-0.0011638561476022004
1782845872110296300,8.20129638671875,0.19293664726018905,0.023912205985188482,-0.00007072714865207672
1782845872120301300,8.21130126953125,0.18782208072543144,0.02042757873982191,0.021394012619182466
1782845872130306300,8.221306396484374,0.15540215863585471,0.030542583910375832,0.018799685277044773
1782845872140311300,8.231311279296875,0.08682838862538338,0.04183993073329329,0.02530928636677563
1782845872150316300,8.24131640625,0.017263269490003584,0.04676116665303707,0.03883541515506804
1782845872160321300,8.2513212890625,-0.03513035009205341,0.04188479278832674,0.034772695760801435
1782845872170325200,8.2613251953125,-0.06812193458974361,0.03868497383370995,0.05219809700995683
1782845872180329500,8.27132958984375,-0.03961947820484638,0.04594415118172764,0.046520197504013774
1782845872190334500,8.28133447265625,0.010393968242406845,0.02848185198828578,0.047677258584648365
1782845872200339500,8.29133935546875,0.03540332181453704,0.006506020893156528,0.037376667714118954
1782845872210344400,8.301344482421875,0.08180442298352718,0.02062543939948082,0.02318674125485122
1782845872220349400,8.311349365234374,0.0979991864591837,0.04193476940989494,0.007305792968720197
1782845872230354400,8.3213544921875,0.12735738289058207,-0.00002703413739800453,0.014697145329043268
1782845872240359400,8.331359375,0.15008943918049333,0.02074877351820469,0.015936039474233984
1782845872250364400,8.341364501953125,0.16930676534771918,0.029310996288806197,0.0030756811182945966
1782845872260368600,8.35136865234375,0.12875146759748457,0.025815116997063157,-0.00683108812905848
1782845872270373600,8.36137353515625,0.11981237433850765,0.03164236184582114,-0.012278686010465025
1782845872280378600,8.371378662109375,0.11162672979533672,0.029572423703968523,-0.017408523179590702
1782845872290383600,8.381383544921874,0.10693827971816063,0.0135645611025393,-0.016572583812102675
1782845872300388600,8.391388671875,0.09146364721059799,0.0026892390839755535,0.001139598489180207
1782845872310393600,8.4013935546875,0.04765665418803692,0.017773557099699973,0.004102759143710136
1782845872320398600,8.411398681640625,0.025729484540224074,0.03208776752576232,-0.024911153894662856
1782845872330403600,8.421403564453126,-0.008915127861499787,0.04642404365316033,-0.016962532977759837
1782845872340407600,8.431407470703125,-0.024842764833569526,0.04885711601898074,-0.025988793063536283
1782845872350412500,8.44141259765625,-0.0412263288795948,0.052164633131772276,-0.031702056143805384
1782845872360417500,8.45141748046875,0.0035018706411123275,0.05871303186193108,0.01301313776485622
1782845872370422500,8.461422607421875,0.04800035305917263,0.039369741227477786,0.04397402015253901
1782845872380427500,8.471427490234374,0.0767237587183714,0.022581688033789394,0.05260170937478542
1782845872390432500,8.4814326171875,0.13322715170681476,0.0010474632263183592,0.06023286184035241
1782845872400437500,8.4914375,0.15479191778302193,0.014080986192077398,0.07583857338167727
1782845872410442500,8.5014423828125,0.15137480281591414,0.026024375833570954,0.10942863522917032
1782845872420447500,8.511447509765626,0.1704647032111883,0.033710254161059855,0.11202610437646507
1782845872430451700,8.52145166015625,0.203529937466979,0.02402472644895315,0.10785649054162204
1782845872440456700,8.531456787109375,0.259396201595664,0.04712985383495688,0.07098543426208198
1782845872450461700,8.541461669921874,0.28371289672851563,0.06818769330233335,0.03920534444600343
1782845872460466700,8.551466796875,0.2152379109174013,0.06940919792130588,0.023890213349089025
1782845872470471700,8.5614716796875,0.17711013257503508,0.08272840596064925,0.004600333402305841
1782845872480476700,8.5714765625,0.11694120281636715,0.06533011191412806,-0.03965506097488105
1782845872490481700,8.581481689453126,0.04114449581503868,0.0603252893641591,-0.0544034250345081
1782845872500486700,8.591486572265625,0.0073895257294178006,0.026921763064712285,-0.0492618974275887
1782845872510490600,8.60149072265625,0.03820844236314296,0.013323445823043584,-0.02549399528391659
1782845872520495600,8.61149560546875,0.09463350941836833,-0.024893325977027415,-0.012834493262320756
1782845872530500600,8.62150048828125,0.09812310509979724,-0.023290274694561956,-0.04563077438361943
1782845872540505600,8.631505615234374,0.03772095110714435,0.022265900082886217,-0.0765300627771765
1782845872550510600,8.641510498046875,0.12537117750942706,0.035440438954532145,-0.04197714724689722
1782845872560515600,8.651515625,0.05125438641905784,-0.07087386364638805,-0.001395253750681877
1782845872570520600,8.6615205078125,-0.00538052399456501,-0.053728813708573575,0.10180902707092464
1782845872580525600,8.671525634765626,-0.06432371135056018,0.02154986076802015,0.08899543046616017
1782845872590530600,8.681530517578125,-0.08813771765828132,0.12418839746564626,-0.008525251761078835
1782845872600534800,8.69153466796875,-0.060600306913256644,0.13002660209983585,-0.028636019636690616
1782845872610539800,8.701539794921874,-0.05783727194070816,0.05969459024518728,0.003450286584347486
1782845872620544800,8.711544677734375,0.010054361024498939,0.04275558427348733,0.011209010952338576
1782845872630549800,8.7215498046875,0.0666150371581316,0.025544191101193426,0.02223682011887431
1782845872640554800,8.7315546875,0.1607610553205013,0.04045008381009101,0.030040260411426423
