time,seconds_elapsed,z,y,x
1782845863986326800,0.077326904296875,0.01466136984527111,0.0028436374850571156,0.0226212777197361
1782845863996331800,0.087331787109375,0.013869080692529678,0.00785011425614357,0.023688940331339836
1782845864006336800,0.097336669921875,0.012899016961455345,0.006125574000179768,0.02531999908387661
1782845864016341800,0.107341796875,0.0037763589061796665,0.003164138877764344,0.01696193404495716
1782845864026346800,0.1173466796875,-0.0028919721953570843,-0.0014257715083658695,0.008320551365613937
1782845864036351700,0.127351806640625,-0.012546463869512081,-0.0027379109524190426,-0.0013222215929999948
1782845864046355700,0.137355712890625,-0.02215554006397724,-0.0029851750005036592,-0.004265421070158482
1782845864056360700,0.147360595703125,-0.0343264564871788,-0.004804646596312523,-0.005174091551452875
1782845864066365700,0.15736572265625,-0.04297027736902237,-0.010731511749327183,0.004821284674108028
1782845864076370700,0.16737060546875,-0.04554395750164986,-0.010673987679183483,0.012248841114342213
1782845864086375700,0.177375732421875,-0.04462880641222,-0.006573613733053207,0.015431500971317291
1782845864096380700,0.187380615234375,-0.04187536612153053,-0.005729124881327152,0.025023406371474266
1782845864106385700,0.1973857421875,-0.033168625086545944,-0.00919816642999649,0.02871580980718136
1782845864116390700,0.207390625,-0.028776539489626884,-0.012405677698552608,0.03642592951655388
1782845864126395600,0.217395751953125,-0.021649694070219994,-0.008436296135187149,0.03798871114850044
1782845864136400600,0.227400634765625,-0.017397424206137657,-0.0039557949639856815,0.04066358879208565
1782845864146404900,0.23740478515625,-0.008180659264326096,-0.0029156391974538565,0.03808848559856415
1782845864156409900,0.247409912109375,0.0016336217522621155,-0.005543380044400692,0.03744692727923393
1782845864166414000,0.2574140625,0.008564245887100697,-0.010790053755044937,0.028955424204468727
1782845864176419000,0.267419189453125,0.01192195899784565,-0.011867301538586617,0.01525878719985485
1782845864186424000,0.277424072265625,0.016205711290240288,-0.016094673424959183,0.0044457633048295975
1782845864196429000,0.287428955078125,0.016117561608552933,-0.020757336169481277,-0.01410741452127695
1782845864206434000,0.29743408203125,0.011999807320535183,-0.01675962470471859,-0.025659967213869095
1782845864216439300,0.307439208984375,0.012988905422389507,-0.0192832350730896,-0.03680875897407532
1782845864226444300,0.3174443359375,0.010400187224149704,-0.025270944461226463,-0.045869238674640656
1782845864236449300,0.32744921875,0.0055849249474704266,-0.02875009924173355,-0.05143231526017189
1782845864246453000,0.337452880859375,0.0033015727531164885,-0.028892092406749725,-0.04818223416805267
1782845864256458000,0.3474580078125,-0.008191032335162163,-0.027673963457345963,-0.04251076653599739
1782845864266463000,0.357462890625,-0.015399605967104435,-0.022122452035546303,-0.02980942651629448
1782845864276468000,0.367468017578125,-0.025485262274742126,-0.023942457512021065,-0.019490208476781845
1782845864286473000,0.377472900390625,-0.029587343335151672,-0.019115498289465904,-0.008034608326852322
1782845864296478000,0.38747802734375,-0.029253648594021797,-0.016644084826111794,-0.00016336957924067974
1782845864306483000,0.39748291015625,-0.026567529886960983,-0.015314129181206226,0.007000478450208902
1782845864316488000,0.407488037109375,-0.028239194303750992,-0.012716216035187244,0.010143274441361427
1782845864326493000,0.417492919921875,-0.02179691195487976,-0.008956972509622574,0.007845668122172356
1782845864336497200,0.4274970703125,-0.016302011907100677,-0.009381746873259544,-0.0002229108940809965
1782845864346502100,0.437502197265625,-0.012453126721084118,-0.011532344855368137,-0.0023950692266225815
1782845864356507100,0.447507080078125,-0.009107130579650402,-0.010338183492422104,0.002077709883451462
1782845864366512000,0.45751220703125,-0.00912434421479702,-0.01010789442807436,0.002070154994726181
1782845864376517000,0.46751708984375,-0.006316839717328548,-0.008442886173725128,0.004208406899124384
1782845864386522000,0.477522216796875,-0.004985989071428776,-0.009249298833310604,0.0015465065371245146
1782845864396527000,0.487527099609375,-0.004944443702697754,-0.008100410923361778,-0.003200578037649393
1782845864406532000,0.497531982421875,-0.0045530968345701694,-0.009838376194238663,-0.009807741269469261
1782845864416537000,0.507537109375,-0.006583490874618292,-0.01036727987229824,-0.012913785874843597
1782845864426542000,0.5175419921875,-0.006485080346465111,-0.007317285053431988,-0.02271782048046589
1782845864436546000,0.527546142578125,-0.014637282118201256,-0.0019824400078505278,-0.026955442503094673
1782845864446551000,0.537551025390625,-0.015491962432861328,0.003268630476668477,-0.027026744559407234
1782845864456556000,0.54755615234375,-0.02134239487349987,-0.004337623715400696,-0.016749072819948196
1782845864466561000,0.55756103515625,-0.02261953428387642,-0.004362288396805525,-0.007212672382593155
1782845864476566000,0.56756591796875,-0.022887181490659714,-0.004762561991810799,0.002976315561681986
1782845864486571000,0.577571044921875,-0.025475451722741127,0.001041237497702241,0.0061371661722660065
1782845864496576000,0.587575927734375,-0.030354630202054977,0.009681064635515213,0.014118127524852753
1782845864506581000,0.5975810546875,-0.035192035138607025,0.012032683938741684,0.018456459045410156
1782845864516586000,0.6075859375,-0.03961634635925293,0.014726471155881882,0.017802651971578598
1782845864526591000,0.617591064453125,-0.036854758858680725,0.01359122060239315,0.017148157581686974
1782845864536595200,0.62759521484375,-0.03544994071125984,0.009289151057600975,0.011241799220442772
1782845864546600200,0.63760009765625,-0.03456658497452736,0.008513085544109344,0.007089676801115274
1782845864556605200,0.647605224609375,-0.03287468105554581,0.009523488581180573,0.0015460408758372068
1782845864566610200,0.657610107421875,-0.029819387942552567,0.01342842634767294,-0.004059223458170891
1782845864576615200,0.667615234375,-0.022877059876918793,0.013467041775584221,-0.00006501434836536646
1782845864586620200,0.6776201171875,-0.010526427067816257,0.011195412836968899,0.0056634871289134026
1782845864596625200,0.687625244140625,0.0021499532740563154,0.0110830282792449,0.009937327355146408
1782845864606630100,0.697630126953125,0.012228349223732948,0.01512955129146576,0.008481449447572231
1782845864616635100,0.70763525390625,0.014249688014388084,0.01916849985718727,0.00341904629021883
1782845864626639000,0.71763916015625,0.0188291072845459,0.023838456720113754,-0.0031412316020578146
1782845864636644000,0.72764404296875,0.021752990782260895,0.024305041879415512,-0.011396498419344425
1782845864646649000,0.737649169921875,0.025092313066124916,0.022992458194494247,-0.021753249689936638
1782845864656654000,0.747654052734375,0.02546915039420128,0.01567409187555313,-0.032195236533880234
1782845864666659000,0.7576591796875,0.020328031852841377,0.01165282167494297,-0.03360629454255104
1782845864676664000,0.7676640625,0.021331775933504105,0.0031147270929068327,-0.0370902419090271
1782845864686669000,0.7776689453125,0.019713595509529114,0.006563677452504635,-0.040385596454143524
1782845864696674000,0.787674072265625,0.011373373679816723,0.016568640246987343,-0.033292800188064575
1782845864706679000,0.797678955078125,0.008325206115841866,0.018946904689073563,-0.02515878900885582
1782845864716684000,0.80768408203125,0.004996521398425102,0.022565608844161034,-0.014554082415997982
1782845864726688300,0.817688232421875,0.0008811808656901121,0.02538185380399227,-0.001247107284143567
1782845864736693200,0.827693359375,0.0027935970574617386,0.01995859295129776,0.010456154122948647
1782845864746698200,0.8376982421875,0.002998154377564788,0.02005051262676716,0.014133951626718044
1782845864756703200,0.847703125,0.004756639711558819,0.020877424627542496,0.016749441623687744
1782845864766708200,0.857708251953125,0.005819717887789011,0.016565794125199318,0.021643057465553284
1782845864776713200,0.867713134765625,0.009631499648094177,0.01940685324370861,0.0220451932400465
1782845864786718200,0.87771826171875,0.013896665535867214,0.022267989814281464,0.01465560868382454
1782845864796723200,0.88772314453125,0.02117934450507164,0.02272339165210724,0.012694722972810268
1782845864806728200,0.897728271484375,0.02186763286590576,0.02375309355556965,0.0023364974185824394
1782845864816732200,0.907732177734375,0.027967870235443115,0.021370628848671913,-0.00441674655303359
1782845864826737200,0.917737060546875,0.03127939999103546,0.02006850577890873,-0.016832023859024048
1782845864836742100,0.9277421875,0.033113252371549606,0.016861261799931526,-0.02382708340883255
1782845864846747100,0.9377470703125,0.03293576091527939,0.013353114947676659,-0.03308677300810814
1782845864856752000,0.947752197265625,0.03509797900915146,0.005674688145518303,-0.03619867563247681
1782845864866757000,0.957757080078125,0.034567154943943024,0.0017392042791470885,-0.038025278598070145
1782845864876762000,0.96776220703125,0.030165748670697212,0.001547723077237606,-0.03346434608101845
1782845864886767000,0.97776708984375,0.02469676546752453,0.00007995963096618652,-0.026300529018044472
1782845864896772000,0.987772216796875,0.023583030328154564,0.0054140049032866955,-0.020200291648507118
1782845864906776000,0.997776123046875,0.01771911419928074,0.00972798466682434,-0.011524076573550701
1782845864916781300,1.00778125,0.008478477597236633,0.0065971724689006805,-0.005724244751036167
1782845864926786300,1.017786376953125,0.005499774590134621,0.0036098563577979803,-0.0019143687095493078
1782845864936791300,1.027791259765625,0.0008022249676287174,0.0029595124069601297,0.0012412108480930328
1782845864946796300,1.03779638671875,-0.0015813445206731558,-0.001824383856728673,-0.004494668450206518
1782845864956801300,1.04780126953125,-0.0055651674047112465,-0.009177371859550476,-0.006411345675587654
1782845864966806300,1.05780615234375,-0.008854536339640617,-0.01283770240843296,-0.011049670167267323
1782845864976811300,1.067811279296875,-0.010711826384067535,-0.012011857703328133,-0.0153389573097229
1782845864986816300,1.077816162109375,-0.015407469123601913,-0.014994911849498749,-0.018660228699445724
1782845864996821200,1.0878212890625,-0.016397632658481598,-0.01338210143148899,-0.012699807062745094
1782845865006825200,1.0978251953125,-0.018381336703896523,-0.016879726201295853,-0.004173514898866415
1782845865016830200,1.107830322265625,-0.019472166895866394,-0.018207577988505363,0.00040632288437336683
1782845865026835200,1.117835205078125,-0.020768819376826286,-0.010157846845686436,0.0005562176229432225
1782845865036840200,1.127840087890625,-0.024898849427700043,-0.010622302070260048,0.009086322039365768
1782845865046845200,1.13784521484375,-0.025342097505927086,-0.012203453108668327,0.007514087948948145
1782845865056850200,1.14785009765625,-0.023053642362356186,-0.004951666574925184,0.003475670702755451
1782845865066855200,1.157855224609375,-0.02328678034245968,-0.005960041657090187,-0.0004675576346926391
1782845865076860200,1.167860107421875,-0.01999484747648239,-0.004439643584191799,-0.005825571715831757
1782845865086865200,1.177865234375,-0.014217708259820938,-0.008421573787927628,-0.007484132889658213
1782845865096869000,1.187869140625,-0.012867486104369164,-0.00994623452425003,-0.005896889138966799
1782845865106874000,1.1978740234375,-0.011522380635142326,-0.007097314577549696,-0.006525071337819099
1782845865116879000,1.207879150390625,-0.013351972214877605,-0.0005845539271831512,-0.00785452127456665
1782845865126884000,1.217884033203125,-0.01518939808011055,-0.0010462910868227482,-0.005354766733944416
1782845865136889300,1.227889404296875,-0.014416549354791641,0.002507963450625539,-0.006346261594444513
1782845865146894300,1.237894287109375,-0.017401644960045815,0.0018759475788101554,0.0012839189730584621
1782845865156899300,1.2478994140625,-0.017164090648293495,-0.00016403384506702423,0.001221068319864571
1782845865166904600,1.257904541015625,-0.012568636797368526,-0.0005676934961229563,-0.004194905050098896
1782845865176909600,1.26790966796875,-0.012294597923755646,-0.0029320481698960066,-0.0026340263430029154
1782845865186913500,1.27791357421875,-0.009088600054383278,-0.008995361626148224,-0.0033102878369390965
1782845865196918500,1.28791845703125,-0.004334324970841408,-0.007780960761010647,-0.007364151068031788
1782845865206923500,1.297923583984375,0.00010882201604545116,-0.0025277601089328527,-0.009594210423529148
1782845865216928500,1.307928466796875,0.001744269160553813,0.003247304819524288,-0.012026475742459297
1782845865226933500,1.31793359375,0.005831562448292971,0.010961294174194336,-0.009617785923182964
1782845865236938500,1.3279384765625,0.007669942919164896,0.011984480544924736,-0.005525839515030384
1782845865246943500,1.337943603515625,0.00571577250957489,0.003702446585521102,0.0023818255867809057
1782845865256948500,1.347948486328125,0.007866807281970978,0.0022931017447263002,0.007164862938225269
1782845865266953500,1.357953369140625,0.006897765677422285,0.0006635263562202454,0.006583414040505886
1782845865276958500,1.36795849609375,0.007939061149954796,0.0033288178965449333,0.00045521414722315967
1782845865286962400,1.37796240234375,0.005142673384398222,0.002806046511977911,-0.005991430953145027
1782845865296967400,1.387967529296875,0.008773094043135643,0.005241507664322853,-0.015057364478707314
1782845865306972400,1.397972412109375,0.011471017263829708,0.009506969712674618,-0.025775928050279617
1782845865316977400,1.407977294921875,0.016403190791606903,0.012153885327279568,-0.03516596928238869
1782845865326982400,1.417982421875,0.016208484768867493,0.012138506397604942,-0.03275764361023903
1782845865336987400,1.4279873046875,0.014938424341380596,0.011515859514474869,-0.027333848178386688
1782845865346992400,1.437992431640625,0.01909380964934826,0.01539818849414587,-0.01815611869096756
1782845865356997400,1.447997314453125,0.01651027612388134,0.01704748347401619,-0.0027681076899170876
1782845865367002400,1.45800244140625,0.0172614436596632,0.012561976909637451,0.01448902115225792
1782845865377006600,1.468006591796875,0.02569727413356304,0.010734516195952892,0.021434279158711433
1782845865387011600,1.478011474609375,0.02350064180791378,0.0083773797377944,0.020718742161989212
1782845865397016600,1.4880166015625,0.02788553759455681,0.004144284874200821,0.010339604690670967
1782845865407021600,1.498021484375,0.027327323332428932,0.015018592588603497,0.004579469561576843
1782845865417026600,1.508026611328125,0.021336542442440987,0.021130016073584557,0.000981538905762136
1782845865427031600,1.518031494140625,0.02116125077009201,0.022994520142674446,-0.0028315193485468626
1782845865437036500,1.52803662109375,0.014072181656956673,0.022880537435412407,-0.004200916737318039
1782845865447041500,1.53804150390625,0.012427077628672123,0.023300258442759514,-0.0001773449475876987
1782845865457046500,1.548046630859375,0.010639564134180546,0.01954014226794243,0.0034072697162628174
1782845865467051500,1.558051513671875,0.010616394691169262,0.013297959230840206,0.005050706677138805
1782845865477055200,1.56805517578125,0.009673369117081165,0.00691063329577446,0.0068712434731423855
1782845865487060200,1.578060302734375,0.010605531744658947,0.0077542951330542564,-0.0007965847034938633
1782845865497065200,1.588065185546875,0.014830104075372219,0.010759938508272171,-0.0133198332041502
1782845865507070200,1.5980703125,0.012648792937397957,0.010752120055258274,-0.019085662439465523
1782845865517075500,1.608075439453125,0.010168325155973434,0.019461188465356827,-0.020659856498241425
1782845865527080400,1.61808056640625,0.009683026000857353,0.026780204847455025,-0.018597964197397232
1782845865537085400,1.62808544921875,0.011252427473664284,0.025869136676192284,-0.006991376634687185
1782845865547090400,1.63809033203125,0.010858938097953796,0.025562196969985962,0.0056196292862296104
1782845865557095400,1.648095458984375,0.015710152685642242,0.023730475455522537,0.016266947612166405
1782845865567099400,1.658099365234375,0.014761043712496758,0.015480486676096916,0.022012941539287567
1782845865577104400,1.6681044921875,0.019509725272655487,0.014934007078409195,0.02293839119374752
1782845865587109400,1.678109375,0.0201514083892107,0.014642780646681786,0.012105589732527733
1782845865597114400,1.6881142578125,0.021917616948485374,0.012815851718187332,-0.0015939774457365274
1782845865607119400,1.698119384765625,0.02265079692006111,0.00956681463867426,-0.023173050954937935
1782845865617124400,1.708124267578125,0.025552578270435333,0.006815769709646702,-0.03747662529349327
1782845865627129300,1.71812939453125,0.023918982595205307,0.005087890662252903,-0.0412369966506958
1782845865637134300,1.72813427734375,0.02639305777847767,0.0037328742910176516,-0.04238561540842056
1782845865647139300,1.738139404296875,0.027591481804847717,-0.001379063120111823,-0.039699286222457886
1782845865657143300,1.748143310546875,0.025349631905555725,0.000453457934781909,-0.03876424953341484
1782845865667148300,1.758148193359375,0.020621316507458687,0.007515751291066408,-0.03040844202041626
1782845865677153300,1.7681533203125,0.017849497497081757,0.0056198472157120705,-0.017805829644203186
1782845865687158300,1.778158203125,0.013791119679808617,0.000017641577869653702,-0.003067910438403487
1782845865697163300,1.788163330078125,0.011859530583024025,-0.006168349180370569,0.006765545811504126
1782845865707168300,1.798168212890625,0.007153668440878391,-0.005871645174920559,0.010406142100691795
1782845865717173200,1.80817333984375,0.00802265852689743,-0.0018129877280443907,0.006102473475039005
1782845865727178200,1.81817822265625,0.0029968516901135445,0.005176157224923372,0.006204628385603428
1782845865737183200,1.828183349609375,0.0013419631868600845,0.007538114674389362,0.005361471325159073
1782845865747187500,1.8381875,0.00143701140768826,0.005624593235552311,0.0054387291893363
1782845865757192400,1.8481923828125,0.005506587214767933,0.007448325864970684,0.004781727213412523
1782845865767197400,1.858197509765625,0.00928669236600399,0.010257714428007603,0.013331260532140732
1782845865777202400,1.868202392578125,0.013626845553517342,0.008381783962249756,0.021944455802440643
1782845865787207400,1.87820751953125,0.01827581226825714,0.0071912482380867004,0.03208695352077484
1782845865797212400,1.88821240234375,0.022395988926291466,0.007059421390295029,0.030767887830734253
1782845865807217400,1.898217529296875,0.02716388925909996,0.0029125658329576254,0.0317087396979332
1782845865817222400,1.908222412109375,0.02729172073304653,-0.001804691506549716,0.018537277355790138
1782845865827227400,1.918227294921875,0.020680690184235573,-0.010441854596138,0.006306178867816925
1782845865837232400,1.928232421875,0.013819321990013123,-0.006207428872585297,-0.013023043982684612
1782845865847236400,1.938236328125,0.0040648505091667175,-0.0018517745193094015,-0.026386141777038574
1782845865857241300,1.948241455078125,-0.003935019485652447,-0.004007603041827679,-0.028858887031674385
1782845865867246300,1.958246337890625,-0.01220699492841959,-0.004296563565731049,-0.030372431501746178
1782845865877251300,1.968251220703125,-0.014895190484821796,-0.00163446762599051,-0.027040017768740654
1782845865887256300,1.97825634765625,-0.016291651874780655,-0.0029712917748838663,-0.016294263303279877
1782845865897261300,1.98826123046875,-0.01649644784629345,-0.01108088344335556,-0.006632847245782614
1782845865907266300,1.998266357421875,-0.014773804694414139,-0.011135001666843891,0.0066114747896790504
1782845865917271300,2.008271240234375,-0.015945330262184143,-0.012017040513455868,0.009829639457166195
1782845865927276300,2.0182763671875,-0.01542053185403347,-0.006422216072678566,0.011150943115353584
1782845865937280500,2.028280517578125,-0.020086655393242836,-0.009019330143928528,0.009962374344468117
1782845865947285500,2.038285400390625,-0.02103995718061924,-0.008943486027419567,0.01229146495461464
1782845865957290500,2.04829052734375,-0.016479825600981712,0.0009743922855705023,0.008358774706721306
1782845865967295500,2.05829541015625,-0.012140288017690182,0.004817054606974125,0.012956269085407257
1782845865977300500,2.068300537109375,-0.0037385469768196344,0.005286303348839283,0.01719256117939949
1782845865987305500,2.078305419921875,0.005910168401896954,0.006719097029417753,0.0195203498005867
1782845865997310500,2.088310546875,0.01485386211425066,0.001785324770025909,0.02120027132332325
1782845866007315500,2.0983154296875,0.024312444031238556,-0.001042869407683611,0.014003775082528591
1782845866017320400,2.108320556640625,0.027727682143449783,-0.004961710888892412,0.004308005329221487
1782845866027324400,2.118324462890625,0.027548084035515785,-0.007060364820063114,-0.003053935244679451
1782845866037329400,2.128329345703125,0.028870077803730965,-0.0037971932906657457,-0.009317689575254917
1782845866047334400,2.13833447265625,0.02980920672416687,-0.006591989658772945,-0.011231801472604275
1782845866057339400,2.14833935546875,0.022512411698698997,-0.004037485457956791,-0.018081452697515488
1782845866067344400,2.158344482421875,0.022289155051112175,0.0031214531045407057,-0.018471788614988327
1782845866077349400,2.168349365234375,0.016516488045454025,0.0020591183565557003,-0.01620969921350479
1782845866087354400,2.178354248046875,0.014564236626029015,-0.00045986310578882694,-0.011701079085469246
1782845866097359400,2.188359375,0.010583875700831413,-0.006193648558109999,-0.00364262075163424
1782845866107364400,2.1983642578125,0.0009497660212218761,-0.011091167107224464,-0.0007055655005387962
1782845866117369300,2.208369384765625,-0.0016369621735066175,-0.011180915869772434,0.0031229949090629816
1782845866127373600,2.21837353515625,-0.007624941878020763,-0.0113114258274436,0.0030493573285639286
1782845866137378600,2.228378662109375,-0.010037233121693134,-0.009434163570404053,-0.00243355892598629
1782845866147383600,2.238383544921875,-0.012030061334371567,-0.0006511460524052382,-0.0048621115274727345
1782845866157388500,2.248388427734375,-0.006463522091507912,0.006413421593606472,-0.005866922438144684
1782845866167394600,2.25839453125,-0.003810172900557518,0.012605490162968636,-0.0038472232408821583
1782845866177399600,2.268399658203125,0.0027494593523442745,0.017887070775032043,0.001860197284258902
1782845866187404500,2.278404541015625,0.004344524350017309,0.010106570087373257,0.012759885750710964
1782845866197409500,2.288409423828125,0.005800473969429731,0.006056700833141804,0.020612481981515884
1782845866207414500,2.29841455078125,0.0044205221347510815,0.0019215353531762958,0.023452647030353546
1782845866217418800,2.308418701171875,-0.003521290607750416,0.0027162227779626846,0.023161564022302628
1782845866227423700,2.318423828125,0.00011768145486712456,-0.0029502527322620153,0.01749672368168831
1782845866237428700,2.3284287109375,0.002564593916758895,-0.0050818463787436485,0.010287280194461346
1782845866247433700,2.338433837890625,0.0013949889689683914,-0.0021721050143241882,-0.0010772817768156528
1782845866257438700,2.348438720703125,0.0025017987936735153,0.002740095602348447,-0.0059950752183794975
1782845866267443700,2.358443603515625,0.004158369265496731,0.006293988786637783,-0.007250573951750994
1782845866277448700,2.36844873046875,0.0016059954650700092,0.007379226852208376,-0.0009202399523928761
1782845866287453700,2.37845361328125,-0.0023553299251943827,0.0010024106595665216,0.007236629258841276
1782845866297458700,2.388458740234375,-0.00368691049516201,-0.0006852345541119576,0.01653159409761429
1782845866307462700,2.398462646484375,-0.005187868140637875,-0.005116201937198639,0.021947665140032768
1782845866317467600,2.408467529296875,-0.008884868584573269,-0.0012554170098155737,0.023192692548036575
1782845866327472600,2.41847265625,-0.011329987086355686,0.0013916140887886286,0.015014995820820332
1782845866337477600,2.4284775390625,-0.012361163273453712,0.01330952625721693,0.007204210385680199
1782845866347482600,2.438482666015625,-0.009407661855220795,0.011487363837659359,0.005697604734450579
1782845866357487600,2.448487548828125,-0.005688024684786797,0.003203867468982935,0.007930665276944637
1782845866367492600,2.45849267578125,0.0006997371092438698,-0.004508946090936661,0.00904369167983532
1782845866377497600,2.46849755859375,0.001879784045740962,-0.008969740942120552,0.014039515517652035
1782845866387502600,2.478502685546875,-0.0018220385536551476,-0.009396577253937721,0.01574583351612091
1782845866397506800,2.4885068359375,-0.004425544757395983,-0.003443613648414612,0.011993173509836197
1782845866407511800,2.49851171875,-0.007587109692394733,0.00020665815100073814,0.008722406812012196
1782845866417516800,2.508516845703125,-0.008242513984441757,0.00973704643547535,0.007955682463943958
1782845866427521800,2.518521728515625,-0.011909743770956993,0.009440240450203419,0.007049733307212591
1782845866437526800,2.52852685546875,-0.006851868703961372,0.005841244012117386,0.004897633101791143
1782845866447531800,2.53853173828125,-0.001987198833376169,-0.0002612462267279625,0.009255489334464073
1782845866457536800,2.548536865234375,-0.0001309756189584732,-0.0061068846844136715,0.006190191488713026
1782845866467541800,2.558541748046875,0.004915856756269932,-0.005499915219843388,0.007282477803528309
1782845866477546800,2.568546630859375,0.002743249759078026,-0.006160912103950977,0.0037537894677370787
1782845866487551700,2.5785517578125,0.0021313531324267387,-0.003082107286900282,0.0072847772389650345
1782845866497555700,2.5885556640625,-0.003539049532264471,-0.004796650260686874,0.010269914753735065
1782845866507560700,2.598560791015625,-0.006751016713678837,-0.005757101811468601,0.011396093294024467
1782845866517565700,2.608565673828125,-0.011840051971375942,-0.009561959654092789,0.01641242392361164
1782845866527570700,2.61857080078125,-0.01302691176533699,-0.0050261192955076694,0.014798171818256378
1782845866537575700,2.62857568359375,-0.01290786825120449,-0.00046891788952052593,0.013174176216125488
1782845866547580700,2.63858056640625,-0.005050659645348787,-0.004651774186640978,0.009358847513794899
1782845866557585700,2.648585693359375,0.0007976419292390347,-0.003506881184875965,0.006018444430083036
1782845866567590700,2.658590576171875,0.0032680747099220753,-0.00559196574613452,-0.00014286325313150883
1782845866577595600,2.668595703125,0.006347487214952707,-0.0038926023989915848,0.0022800806909799576
1782845866587599600,2.678599609375,0.00190529297105968,0.00024892715737223625,0.0038623069413006306
1782845866597604600,2.6886044921875,-0.001222323509864509,0.004591743927448988,0.0036593740805983543
1782845866607609600,2.698609619140625,-0.008712772279977798,0.0022628572769463062,0.006624846253544092
1782845866617614800,2.70861474609375,-0.012892071157693863,0.0013669697800651193,0.008336992934346199
1782845866627619800,2.718619873046875,-0.016813309863209724,0.011237443424761295,0.01183026097714901
1782845866637624800,2.728624755859375,-0.013788491487503052,0.013876636512577534,0.010122109204530716
1782845866647629800,2.7386298828125,-0.011309858411550522,0.009312443435192108,0.007504990790039301
1782845866657634800,2.748634765625,-0.004965942353010178,0.006799750030040741,0.006106298882514238
1782845866667639800,2.758639892578125,0.002376685617491603,0.004364596214145422,0.003213547868654132
1782845866677643500,2.7686435546875,0.008981059305369854,0.000502746319398284,-0.0013540396466851234
1782845866687648500,2.7786484375,0.004874912556260824,0.0025167244020849466,-0.0011161351576447487
1782845866697653500,2.788653564453125,0.0053763859905302525,0.006606274284422398,-0.003958260640501976
1782845866707658500,2.798658447265625,0.0020621949806809425,0.010244522243738174,-0.0061621395871043205
1782845866717663500,2.80866357421875,0.003041439689695835,0.010429078713059425,-0.004227086901664734
1782845866727668500,2.81866845703125,-0.00019238144159317017,0.008705985732376575,-0.004663368221372366
1782845866737673500,2.828673583984375,0.0008249462116509676,0.013164384290575981,-0.011166540905833244
1782845866747678500,2.838678466796875,0.0004560006782412529,0.006388578563928604,-0.00960210245102644
1782845866757683500,2.848683349609375,0.005644370801746845,0.0017336393939331174,-0.014124949462711811
1782845866767687700,2.858687744140625,0.009008069522678852,-0.006864253431558609,-0.01638343557715416
1782845866777692700,2.868692626953125,0.01390562392771244,0.0009507930371910334,-0.022386200726032257
1782845866787697700,2.87869775390625,0.013074912130832672,0.0033754506148397923,-0.014218747615814209
1782845866797702700,2.88870263671875,0.012991555035114288,0.006248734891414642,-0.008660996332764626
1782845866807707600,2.898707763671875,0.010441229678690434,0.005420745816081762,-0.000275688711553812
1782845866817712600,2.908712646484375,0.007817749865353107,0.006739809177815914,0.006633083801716566
1782845866827717600,2.918717529296875,0.0045574926771223545,0.00912875309586525,0.012405769899487495
1782845866837722600,2.92872265625,-0.0011177033884450793,0.00937402993440628,0.01676936075091362
1782845866847727600,2.9387275390625,-0.011189385317265987,0.0015164962969720364,0.01836952567100525
1782845866857732600,2.948732666015625,-0.008602390997111797,-0.0006574420258402824,0.011082052253186703
1782845866867736600,2.958736572265625,-0.013849295675754547,0.002323672641068697,-0.0013845262583345175
1782845866877741600,2.968741455078125,-0.017582515254616737,0.00437510572373867,-0.0065033878199756145
1782845866887746600,2.97874658203125,-0.019835591316223145,0.0076487110927701,-0.0040271389298141
1782845866897751600,2.98875146484375,-0.01805473491549492,0.008383210748434067,-0.0013261607382446527
1782845866907756500,2.998756591796875,-0.016902077943086624,0.005531982984393835,0.0062369080260396
1782845866917761500,3.008761474609375,-0.017018191516399384,0.004773514345288277,0.007851050235331059
1782845866927766500,3.0187666015625,-0.01170093659311533,0.0071540940552949905,0.012007458135485649
1782845866937771500,3.028771484375,-0.011267107911407948,0.005665653385221958,0.010481467470526695
1782845866947775500,3.038775390625,-0.008562849834561348,0.00848264992237091,0.009347940795123577
1782845866957780500,3.048780517578125,-0.005260796286165714,0.013430802151560783,-0.0002775221364572644
1782845866967785500,3.058785400390625,-0.0012354305945336819,0.01638861745595932,-0.008686451241374016
1782845866977790700,3.068790771484375,0.003065041732043028,0.008493943139910698,-0.005316487047821283
1782845866987795700,3.078795654296875,0.007124961819499731,0.0024299328215420246,-0.003621048992499709
1782845866997800700,3.08880078125,0.009653899818658829,0.002015545032918453,-0.0010721373837441206
1782845867007805700,3.0988056640625,0.01009430456906557,0.003144180169329047,0.0017279884777963161
1782845867017810700,3.108810791015625,0.010589119978249073,0.00132630649022758,0.005396226420998573
1782845867027815700,3.118815673828125,0.007614606060087681,0.005627379287034273,-0.003990320023149252
1782845867037820700,3.128820556640625,0.0008959837723523378,0.006986390799283981,-0.002507738070562482
1782845867047824600,3.13882470703125,-0.0012060360750183463,0.007067637052386999,-0.005961869843304157
1782845867057829600,3.14882958984375,-0.0032862313091754913,-0.0026371884159743786,-0.011919361539185047
1782845867067834600,3.158834716796875,0.0004135009367018938,-0.0018891135696321726,-0.02079468034207821
1782845867077839600,3.168839599609375,-0.0029759041499346495,-0.00390992034226656,-0.02791091427206993
1782845867087844600,3.1788447265625,-0.0044072954915463924,-0.004555073566734791,-0.03243674710392952
1782845867097849600,3.188849609375,-0.00428558886051178,-0.0034224314149469137,-0.03497394174337387
1782845867107854600,3.1988544921875,-0.009215505793690681,-0.005051364190876484,-0.022245489060878754
1782845867117859600,3.208859619140625,-0.010691963136196136,-0.006386939436197281,-0.01836526393890381
1782845867127864600,3.218864501953125,-0.014097628183662891,-0.008441214449703693,-0.0028025328647345304
1782845867137868500,3.22886865234375,-0.014282185584306717,-0.006445974111557007,0.009583297185599804
1782845867147873500,3.23887353515625,-0.01406330056488514,-0.0025703157298266888,0.022818434983491898
1782845867157878500,3.24887841796875,-0.010283742100000381,-0.003538374789059162,0.029642252251505852
1782845867167882500,3.258882568359375,-0.005818757228553295,-0.0043230922892689705,0.0325118787586689
1782845867177887500,3.268887451171875,0.0027025591116398573,-0.007301305420696735,0.024187102913856506
1782845867187892500,3.278892578125,0.008341129869222641,-0.012809133157134056,0.006967244204133749
1782845867197897500,3.2888974609375,0.011413086205720901,-0.00874328427016735,-0.00437196297571063
1782845867207902500,3.29890234375,0.009002364240586758,-0.0072976527735590935,-0.020649174228310585
1782845867217907500,3.308907470703125,0.008362673223018646,-0.000571306562051177,-0.02856248989701271
1782845867227911400,3.318911376953125,0.0026900842785835266,0.00627464335411787,-0.032241858541965485
1782845867237916400,3.32891650390625,-0.0006931956158950925,0.012432137504220009,-0.026635637506842613
1782845867247921400,3.33892138671875,-0.004883581772446632,0.010589953511953354,-0.01007566787302494
1782845867257926400,3.348926513671875,-0.005527534056454897,0.005077742971479893,0.011061575263738632
1782845867267931400,3.358931396484375,-0.0031752195209264755,0.0013315019896253943,0.018395178020000458
1782845867277936400,3.368936279296875,-0.004933171905577183,0.0008585245814174414,0.02617373876273632
1782845867287941400,3.37894140625,-0.0034623369574546814,-0.002791269449517131,0.02551383525133133
1782845867297946400,3.3889462890625,-0.0010801394237205386,-0.006606247276067734,0.015751753002405167
1782845867307951400,3.398951416015625,-0.001428184099495411,-0.00840592198073864,0.009629374369978905
1782845867317955600,3.40895556640625,-0.0021160785108804703,-0.005000537261366844,0.002930991817265749
1782845867327960600,3.418960693359375,-0.0028865616768598557,0.00025618565268814564,-0.005803606938570738
1782845867337965600,3.428965576171875,-0.0035129371099174023,0.004501530900597572,-0.007777808234095573
1782845867347970600,3.438970458984375,0.0005161748267710209,0.01125228963792324,-0.005493898410350084
1782845867357975600,3.4489755859375,0.0045809573493897915,0.009766777977347374,0.003227954264730215
1782845867367980500,3.45898046875,0.008251605555415154,0.003082796698436141,0.014895783737301826
1782845867377985500,3.468985595703125,0.01370948739349842,-0.004953823983669281,0.021010667085647583
1782845867387990500,3.478990478515625,0.01769266650080681,-0.011199839413166046,0.02428620308637619
1782845867397995500,3.48899560546875,0.022110581398010254,-0.012864314951002598,0.021540217101573944
1782845867407999500,3.49899951171875,0.022144952788949013,-0.014643394388258457,0.014971247874200344
1782845867418004500,3.50900439453125,0.024571625515818596,-0.008700815960764885,0.0025031266268342733
1782845867428009500,3.519009521484375,0.022133879363536835,-0.006376307457685471,-0.007930721156299114
1782845867438014500,3.529014404296875,0.021178605034947395,-0.003969075158238411,-0.011982188560068607
1782845867448019500,3.53901953125,0.0220273956656456,-0.0020638976711779833,-0.021140042692422867
1782845867458024400,3.5490244140625,0.022131260484457016,-0.0014963780995458364,-0.02104257233440876
1782845867468029400,3.559029541015625,0.018512092530727386,-0.0013690865598618984,-0.013036109507083893
1782845867478034400,3.569034423828125,0.017944039776921272,-0.0048205433413386345,-0.008008327335119247
1782845867488039400,3.579039306640625,0.018409548327326775,-0.010084034875035286,0.00067145872162655
1782845867498043600,3.589043701171875,0.014606287702918053,-0.01221136748790741,-0.0017229894874617457
1782845867508048600,3.599048583984375,0.00957829412072897,-0.010631874203681946,0.0068227737210690975
1782845867518053600,3.6090537109375,0.002508401172235608,-0.013194101862609386,0.013033265247941017
1782845867528058600,3.61905859375,-0.0030360338278114796,-0.006401975639164448,0.013514231890439987
1782845867538063600,3.629063720703125,-0.011217531748116016,-0.003408849472180009,0.01534142717719078
1782845867548068600,3.639068603515625,-0.012990397401154041,0.00375292357057333,0.016998978331685066
1782845867558073600,3.649073486328125,-0.01655823364853859,0.006239250767976046,0.01593877375125885
1782845867568078600,3.65907861328125,-0.018289247527718544,0.009940996766090393,0.016344597563147545
1782845867578083600,3.66908349609375,-0.017525453120470047,0.01179002970457077,0.013936834409832954
1782845867588087600,3.679087646484375,-0.015733985230326653,0.008133556693792343,0.008982597850263119
1782845867598092500,3.689092529296875,-0.011129646562039852,0.004028560593724251,0.008155419491231441
1782845867608097500,3.69909765625,-0.006101514212787151,-0.011184575967490673,0.007779030129313469
1782845867618102500,3.7091025390625,-0.0009698690846562386,-0.00921623408794403,0.007431753911077976
1782845867628107500,3.719107421875,0.0016086457762867212,-0.012599294073879719,0.0016409342642873526
1782845867638112500,3.729112548828125,0.007828191854059696,-0.004882785491645336,-0.004963172599673271
1782845867648117500,3.739117431640625,0.012081555090844631,0.003942063078284264,-0.011316707357764244
1782845867658122500,3.74912255859375,0.013357475399971008,0.0071487752720713615,-0.013467209413647652
1782845867668127500,3.75912744140625,0.015262320637702942,0.008883455768227577,-0.018563052639365196
1782845867678131500,3.76913134765625,0.014794936403632164,0.002218628767877817,-0.017731614410877228
1782845867688136700,3.77913671875,0.0155534902587533,-0.003934700507670641,-0.017561787739396095
1782845867698141700,3.7891416015625,0.01435054000467062,-0.011152666062116623,-0.018635042011737823
1782845867708146700,3.799146728515625,0.012511753477156162,-0.009392459876835346,-0.022388895973563194
1782845867718151700,3.809151611328125,0.010884296149015427,-0.009211897850036621,-0.02585207112133503
1782845867728156700,3.81915673828125,0.007995955646038055,-0.010123266838490963,-0.02736273594200611
1782845867738161700,3.82916162109375,0.005997253581881523,-0.009764006361365318,-0.023830320686101913
1782845867748166700,3.839166748046875,0.00782020203769207,-0.009697780944406986,-0.02091098017990589
1782845867758171600,3.849171630859375,0.0038587504532188177,-0.00602075457572937,-0.012461835518479347
1782845867768175600,3.859175537109375,-0.002087176311761141,-0.0033857200760394335,-0.005686869379132986
1782845867778180600,3.8691806640625,-0.00642839539796114,-0.004665102809667587,0.004351916257292032
1782845867788185600,3.879185546875,-0.010052382946014404,-0.007576251868158579,0.011847340501844883
1782845867798190600,3.889190673828125,-0.006523960269987583,-0.005002306308597326,0.012691029347479343
1782845867808195600,3.899195556640625,-0.0000012221280485391617,-0.0018313159234821796,0.009502040222287178
1782845867818200600,3.90920068359375,0.003292309120297432,-0.004279825836420059,0.004296093713492155
1782845867828205600,3.91920556640625,0.007537107914686203,-0.006790141575038433,0.003075845306739211
1782845867838210600,3.92921044921875,0.013562244363129139,-0.0032995366491377354,-0.00947616621851921
1782845867848215600,3.939215576171875,0.010656160302460194,0.002374109346419573,-0.012888431549072266
1782845867858219300,3.94921923828125,0.00460013234987855,0.006282830610871315,-0.01050889678299427
1782845867868224500,3.959224609375,0.0015858400147408247,0.001345473574474454,-0.007653328124433756
1782845867878229500,3.9692294921875,-0.0033207680098712444,0.003095436841249466,-0.0028878680896013975
1782845867888234500,3.979234375,-0.006754577159881592,0.0025938476901501417,0.006061345338821411
1782845867898239500,3.989239501953125,-0.0059694768860936165,-0.0020706786308437586,0.00584642868489027
1782845867908244700,3.99924462890625,-0.0008041651453822851,-0.004837225656956434,0.006169094704091549
1782845867918249700,4.009249755859375,0.0003889310173690319,-0.0077584474347531796,0.007935303263366222
1782845867928254700,4.019254638671875,0.004178582690656185,-0.008046109229326248,0.00467268843203783
1782845867938259700,4.029259765625,0.006510446779429913,-0.002253999700769782,0.0009357407107017934
1782845867948263400,4.039263427734375,0.00286079291254282,0.000011154450476169586,-0.00014277867740020156
1782845867958268400,4.049268310546875,-0.0016924135852605104,0.0010234219953417778,0.008328736759722233
1782845867968273400,4.0592734375,0.0001445370726287365,0.0042722877115011215,0.012333694845438004
1782845867978278400,4.0692783203125,0.0004947427660226822,0.003970018588006496,0.021732524037361145
1782845867988283400,4.079283447265625,-0.0000384205486625433,0.002074273070320487,0.026957636699080467
1782845867998288400,4.089288330078125,0.00164469750598073,-0.0013127350248396397,0.02775445394217968
1782845868008293400,4.09929345703125,0.00404468085616827,-0.005945967976003885,0.029030971229076385
1782845868018298400,4.10929833984375,0.0027716897893697023,-0.00890607200562954,0.022892383858561516
1782845868028303400,4.119303466796875,0.006675884127616882,-0.012081891298294067,0.009606673382222652
1782845868038307300,4.129307373046875,0.004392489790916443,-0.011388404294848442,-0.0009349175961688161
1782845868048312300,4.139312255859375,0.0024720001965761185,-0.011305483989417553,-0.014031459577381611
1782845868058317300,4.1493173828125,-0.0008351131109520793,-0.008011420257389545,-0.024174906313419342
1782845868068322300,4.159322265625,-0.0027343533001840115,-0.004583275411278009,-0.022103628143668175
1782845868078327300,4.169327392578125,-0.0010424471693113446,-0.0027350420132279396,-0.01912142150104046
1782845868088332300,4.179332275390625,0.00008241645991802216,-0.00018264050595462322,-0.011312180198729038
1782845868098337500,4.189337646484375,0.003926157020032406,0.00009912182576954365,-0.004418320953845978
1782845868108342500,4.199342529296875,0.00581728108227253,-0.0012177913449704647,0.0014028053265064955
1782845868118347500,4.209347412109375,0.0032846147660166025,-0.004094538278877735,0.008792544715106487
1782845868128351500,4.2193515625,0.006073741242289543,-0.0074361637234687805,0.014807830564677715
1782845868138356500,4.2293564453125,0.005916348658502102,-0.012562217190861702,0.016578566282987595
1782845868148361500,4.239361572265625,0.007375720888376236,-0.014008906669914722,0.014610795304179192
1782845868158366500,4.249366455078125,0.003019854659214616,-0.0192050002515316,0.012335656210780144
1782845868168371200,4.25937109375,0.005463038571178913,-0.015790559351444244,0.0008654217235744
1782845868178376200,4.269376220703125,0.004889925941824913,-0.007404533214867115,-0.013002989813685417
1782845868188381200,4.279381103515625,-0.0015931178350001574,0.00434592179954052,-0.02814774587750435
1782845868198386200,4.28938623046875,-0.004389170557260513,0.0062333038076758385,-0.032868463546037674
1782845868208391200,4.29939111328125,-0.002641382161527872,0.00011165114119648933,-0.022331086918711662
1782845868218395100,4.30939501953125,0.0022537740878760815,-0.013640912249684334,-0.01295542810112238
1782845868228400000,4.319400146484375,0.003986692987382412,-0.024283703416585922,-0.007661596871912479
1782845868238405000,4.329405029296875,0.005985661875456572,-0.025677867233753204,0.0019883671775460243
1782845868248410000,4.33941015625,0.008082594722509384,-0.02412743680179119,0.005808974150568247
1782845868258415000,4.3494150390625,0.0058343540877103806,-0.016373377293348312,0.01183384284377098
1782845868268420000,4.359420166015625,0.0008329087868332863,-0.004961663391441107,0.011289790272712708
1782845868278425300,4.36942529296875,0.0012158711906522512,0.00514396745711565,0.006583718582987785
1782845868288430300,4.379430419921875,-0.0031538852490484715,0.009229836985468864,0.008059951476752758
1782845868298435300,4.389435302734375,-0.0013445336371660233,0.0033402566332370043,0.014636894688010216
1782845868308439300,4.399439208984375,0.00004817289300262928,-0.0013717974070459604,0.016811758279800415
1782845868318444300,4.4094443359375,0.00015443307347595692,-0.008437163196504116,0.022417180240154266
1782845868328449300,4.41944921875,0.0018780443351715803,-0.011476876214146614,0.018898865208029747
1782845868338454300,4.429454345703125,0.009647284634411335,-0.012431352399289608,0.01126810908317566
1782845868348459300,4.439459228515625,0.013042339123785496,-0.016138343140482903,0.0017397915944457054
1782845868358464300,4.44946435546875,0.014892970211803913,-0.006508084945380688,-0.01036107912659645
1782845868368469200,4.45946923828125,0.013880729675292969,0.0023893096949905157,-0.019337553530931473
1782845868378474200,4.46947412109375,0.00928065087646246,0.007610436528921127,-0.024231113493442535
1782845868388479200,4.479479248046875,0.0032346739899367094,0.00785332452505827,-0.02088984288275242
1782845868398483200,4.489483154296875,0.005909286439418793,0.001985049108043313,-0.011494212783873081
1782845868408488200,4.49948828125,0.006708037108182907,-0.0028027889784425497,0.0019030193798244
1782845868418493200,4.5094931640625,0.012327040545642376,-0.01123409066349268,0.00920088030397892
1782845868428498200,4.519498291015625,0.011669408529996872,-0.015607192181050777,0.010860126465559006
1782845868438503200,4.529503173828125,0.011270467191934586,-0.011101123876869678,0.007405207026749849
1782845868448508200,4.539508056640625,0.01186684612184763,-0.004959682933986187,-0.002948461100459099
1782845868458513200,4.54951318359375,0.011001585982739925,0.00488708820194006,-0.01008333545178175
1782845868468518100,4.55951806640625,0.012590639293193817,0.007585164625197649,-0.010990353301167488
1782845868478523100,4.569523193359375,0.011414052918553352,0.006522829644382,-0.007981514558196068
1782845868488528100,4.579528076171875,0.009700394235551357,0.003541325218975544,-0.0037945774383842945
1782845868498532000,4.589531982421875,0.0051714228466153145,0.0031303996220231056,0.008201099000871181
1782845868508537000,4.599537109375,0.0042587704956531525,0.0012598152970895171,0.016243834048509598
1782845868518542000,4.6095419921875,0.0032004304230213165,-0.001988442149013281,0.025805646553635597
1782845868528547300,4.61954736328125,0.00332810846157372,-0.005519690923392773,0.028215957805514336
1782845868538552300,4.62955224609375,0.001082797534763813,-0.0035817085299640894,0.02564760483801365
1782845868548557300,4.639557373046875,0.0001682948786765337,-0.0028967035468667746,0.026351189240813255
1782845868558562300,4.649562255859375,0.0015020058490335941,-0.004104979336261749,0.020032038912177086
1782845868568567300,4.6595673828125,0.002146519720554352,-0.0021204594522714615,0.013395680114626884
1782845868578571000,4.669571044921875,0.0024834093637764454,0.004644501954317093,0.004622161388397217
1782845868588576000,4.679575927734375,0.005620628595352173,0.007786944508552551,-0.00034625164698809385
1782845868598581000,4.6895810546875,0.0009126923978328705,0.006501169875264168,-0.0028626725543290377
1782845868608586000,4.6995859375,0.002301009837538004,0.005684240721166134,-0.002096753101795912
1782845868618591000,4.709591064453125,0.0037511009722948074,0.006411549635231495,0.00011979584814980626
1782845868628596000,4.719595947265625,0.0035244813188910484,0.001136538339778781,0.006505240220576525
1782845868638601000,4.72960107421875,0.004880563355982304,-0.0004925173707306385,0.007286611944437027
1782845868648606000,4.73960595703125,0.005333300679922104,-0.006949883885681629,0.008036558516323566
1782845868658611000,4.74961083984375,0.0065224021673202515,-0.004964496940374374,0.004168050363659859
1782845868668615200,4.759615234375,0.0085749551653862,-0.0024760672822594643,-0.004142931196838617
1782845868678620200,4.7696201171875,0.004356242250651121,0.0035272305831313133,-0.00790651049464941
1782845868688625200,4.779625244140625,0.0037020586896687746,0.004497475456446409,-0.008466464467346668
1782845868698630100,4.789630126953125,0.00007217028178274632,0.003984816838055849,-0.012003142386674881
1782845868708635100,4.79963525390625,-0.006585367955267429,0.0005210342351347208,-0.001675766659900546
1782845868718640000,4.80964013671875,-0.006284964270889759,0.0022132068406790495,-0.0009668330894783139
1782845868728645000,4.81964501953125,-0.0107459407299757,0.004883995745331049,0.0029103783890604973
1782845868738650000,4.829650146484375,-0.012934260070323944,0.0028240405954420567,0.007295006886124611
1782845868748655000,4.839655029296875,-0.011182501912117004,0.0017750289989635348,0.013071201741695404
1782845868758659000,4.8496591796875,-0.003083562944084406,-0.00015869224444031715,0.015914658084511757
1782845868768664000,4.8596640625,-0.001981295645236969,-0.004117659758776426,0.011921267956495285
1782845868778669000,4.8696689453125,-0.0004012420540675521,-0.0038340329192578793,0.008940126746892929
1782845868788674000,4.879674072265625,0.004983906634151936,0.004653795622289181,0.004804267082363367
1782845868798679000,4.889678955078125,0.0016118122730404139,0.008554261177778244,0.0016138001810759306
1782845868808684000,4.89968408203125,0.0016011465340852737,0.00859978049993515,-0.000814990431535989
1782845868818689000,4.90968896484375,0.003989735618233681,0.008938801474869251,0.001446299604140222
1782845868828694000,4.919694091796875,0.008296472951769829,0.011702240444719791,-0.0011666669743135571
1782845868838699000,4.929698974609375,0.013569531962275505,0.0019068679539486766,0.0025218110531568527
1782845868848703200,4.939703125,0.019633298739790916,-0.005226496607065201,-0.005884209647774696
1782845868858708200,4.949708251953125,0.023409927263855934,-0.004087463021278381,-0.008567610755562782
1782845868868713200,4.959713134765625,0.022003214806318283,-0.007113968953490257,-0.021120652556419373
1782845868878718200,4.96971826171875,0.01885083131492138,-0.003687013639137149,-0.022714020684361458
1782845868888723200,4.97972314453125,0.014033805578947067,0.000659081619232893,-0.03110201470553875
1782845868898728200,4.989728271484375,0.010639872401952744,0.005164351314306259,-0.025903522968292236
1782845868908733200,4.999733154296875,0.004836228210479021,0.004098649602383375,-0.02108285017311573
1782845868918738200,5.00973828125,0.003197318874299526,0.0029204669408500195,-0.009841380640864372
1782845868928743200,5.0197431640625,-0.0023427000269293785,-0.0000931108370423317,0.0016212384216487408
1782845868938747100,5.0297470703125,0.00037026219069957733,0.001050450373440981,0.006409868132323027
1782845868948752100,5.039752197265625,-0.00016056164167821407,0.0014078745152801275,0.01421431452035904
1782845868958757000,5.049757080078125,-0.001180818653665483,-0.0025887314695864916,0.014736561104655266
1782845868968762000,5.05976220703125,-0.0033687318209558725,-0.005086899735033512,0.013991270214319229
1782845868978767000,5.06976708984375,-0.0051727574318647385,-0.008616919629275799,0.0074705202132463455
1782845868988772000,5.079772216796875,-0.008778481744229794,-0.007686295546591282,-0.0001537700300104916
1782845868998777000,5.089777099609375,-0.011295168660581112,0.0003668372519314289,0.0034710585605353117
1782845869008782000,5.099781982421875,-0.011185770854353905,0.0014812396839261055,0.0033382258843630552
1782845869018787000,5.109787109375,-0.010505067184567451,0.004180619493126869,0.005094847176223993
1782845869028791300,5.119791259765625,-0.00713692232966423,0.0016973322490230203,0.010256804525852203
1782845869038796300,5.12979638671875,-0.003897453425452113,-0.005096125416457653,0.01643267460167408
1782845869048801300,5.13980126953125,-0.0009027021005749702,-0.01060669869184494,0.021584536880254745
1782845869058806300,5.14980615234375,-0.00047313421964645386,-0.013179844245314598,0.019091550260782242
1782845869068811300,5.159811279296875,-0.001357807544991374,-0.016989562660455704,0.009568589739501476
1782845869078816300,5.169816162109375,0.00017457525245845318,-0.018506767228245735,0.0011761703062802553
1782845869088821200,5.1798212890625,0.0021047925110906363,-0.014261639676988125,-0.011425865814089775
1782845869098826200,5.189826171875,-0.0025149930734187365,-0.014637677930295467,-0.02096717245876789
1782845869108831200,5.199831298828125,-0.00394840631633997,-0.012937067076563835,-0.02385100908577442
1782845869118835200,5.209835205078125,-0.004070645198225975,-0.007944438606500626,-0.025059018284082413
1782845869128840200,5.219840087890625,-0.008622588589787483,-0.005245317704975605,-0.015770109370350838
1782845869138845200,5.22984521484375,-0.0062758116982877254,-0.008571605198085308,0.002294377190992236
1782845869148850200,5.23985009765625,-0.009761021472513676,-0.013356247916817665,0.01401354931294918
1782845869158855200,5.249855224609375,-0.010497651994228363,-0.015080912038683891,0.027397798374295235
1782845869168860400,5.2598603515625,-0.010301264002919197,-0.021296892315149307,0.03725271299481392
1782845869178865400,5.269865478515625,-0.007948627695441246,-0.025260476395487785,0.03993930667638779
1782845869188870400,5.279870361328125,-0.00929949339479208,-0.02045368030667305,0.03729516267776489
1782845869198875400,5.28987548828125,-0.008586298674345016,-0.002251773839816451,0.020828841254115105
1782845869208879400,5.29987939453125,-0.007756317965686321,0.005802034866064787,0.013547885231673717
1782845869218884400,5.30988427734375,-0.009887379594147205,0.011336082592606544,0.008778695948421955
1782845869228889300,5.319889404296875,-0.008352347649633884,0.011168817058205605,0.00582499522715807
1782845869238894300,5.329894287109375,-0.006381075829267502,0.008877699263393879,0.0019892447162419558
1782845869248899600,5.339899658203125,-0.007824648171663284,0.005579764023423195,0.0000063935876823961735
1782845869258904600,5.349904541015625,-0.003005392150953412,-0.0005827907007187605,-0.0015808503376320004
1782845869268909600,5.35990966796875,-0.005960211623460054,-0.0033841219265013933,-0.004317738115787506
1782845869278914600,5.36991455078125,-0.0023241976741701365,-0.0028000909369438887,-0.0060930014587938786
1782845869288919600,5.37991943359375,-0.004831621423363686,-0.0009932669345289469,-0.014710662886500359
1782845869298923500,5.389923583984375,-0.00559408450499177,0.007629516534507275,-0.019460944458842278
1782845869308928500,5.399928466796875,-0.008838919922709465,0.007874999195337296,-0.025315867736935616
1782845869318933500,5.40993359375,-0.01013481430709362,0.011142964474856853,-0.02245430275797844
1782845869328938500,5.4199384765625,-0.01255903672426939,0.006538439076393843,-0.02041809633374214
1782845869338943500,5.429943603515625,-0.014820858836174011,0.00246060686185956,-0.006467127241194248
1782845869348948500,5.439948486328125,-0.016261866316199303,0.00040777469985187054,0.003219559323042631
1782845869358953500,5.449953369140625,-0.01443706825375557,-0.0012945178896188736,0.010656703263521194
1782845869368958500,5.45995849609375,-0.013320012018084526,-0.003818006720393896,0.017386384308338165
1782845869378962200,5.469962158203125,-0.008889044634997845,0.0027887634932994843,0.016551217064261436
1782845869388967200,5.47996728515625,-0.006736425682902336,0.005993857979774475,0.011400409042835236
1782845869398972200,5.48997216796875,-0.009501852095127106,0.00975850224494934,0.003660995978862047
1782845869408977200,5.49997705078125,-0.007073862943798304,0.012441459111869335,-0.00400862330570817
1782845869418982100,5.509982177734375,-0.006454944610595703,0.010620122775435448,-0.003584115533158183
1782845869428987400,5.5199873046875,-0.0025928267277777195,0.008392547257244587,-0.006954086944460869
1782845869438992400,5.529992431640625,0.003995034843683243,0.011617369018495083,-0.00924813374876976
1782845869448997400,5.539997314453125,0.004613307770341635,0.010251063853502274,-0.008918317966163158
1782845869459002400,5.55000244140625,0.013943692669272423,0.005511702969670296,-0.006814420688897371
1782845869469006300,5.56000634765625,0.017343806102871895,0.0016684673028066754,-0.006824328564107418
1782845869479011300,5.57001123046875,0.022026177495718002,-0.0001802991610020399,-0.008481880649924278
1782845869489016300,5.580016357421875,0.023093290627002716,-0.0014826047699898481,-0.007558816112577915
1782845869499021300,5.590021240234375,0.017894534394145012,-0.0051050372421741486,-0.009199057705700397
1782845869509026300,5.6000263671875,0.01627678982913494,-0.007810419425368309,-0.013007239438593388
1782845869519031300,5.61003125,0.014326025731861591,-0.007875666953623295,-0.019813479855656624
1782845869529036300,5.620036376953125,0.009196873754262924,-0.005466646049171686,-0.02887471579015255
1782845869539041300,5.630041259765625,0.0005384052637964487,-0.001581893302500248,-0.03080950304865837
1782845869549046300,5.64004638671875,-0.0013005631044507027,0.005221179686486721,-0.026674358174204826
1782845869559050200,5.65005029296875,0.0005383496172726154,0.0027074217796325684,-0.021870547905564308
1782845869569055200,5.66005517578125,0.0008863403927534819,-0.001611331244930625,-0.01270279660820961
1782845869579060200,5.670060302734375,-0.0020623113960027695,-0.0053464146330952644,-0.0018823737045750022
1782845869589065200,5.680065185546875,-0.005652463063597679,-0.006341665051877499,0.010111384093761444
1782845869599070200,5.6900703125,-0.008853049948811531,-0.007862596772611141,0.016127465292811394
1782845869609075200,5.7000751953125,-0.009008901193737984,-0.0019274482037872076,0.019597351551055908
1782845869619080200,5.710080078125,-0.008882666938006878,-0.0024454330559819937,0.02586137317121029
1782845869629085200,5.720085205078125,-0.006970628630369902,-0.002802241127938032,0.02415572479367256
1782845869639090200,5.730090087890625,-0.006149842403829098,0.0002350939903408289,0.023520827293395996
1782845869649094400,5.740094482421875,-0.005835282616317272,0.0025603598915040493,0.021080538630485535
1782845869659099400,5.750099365234375,0.001056179404258728,0.01046808436512947,0.009698455221951008
1782845869669104400,5.7601044921875,0.005234244279563427,0.01220332458615303,0.00483835581690073
1782845869679109400,5.770109375,0.00822923518717289,0.008701267652213573,0.000769578036852181
1782845869689114400,5.7801142578125,0.014388442039489746,-0.0018671178258955479,0.00046746060252189636
1782845869699119400,5.790119384765625,0.017763732001185417,-0.009437685832381248,0.00370852742344141
1782845869709124400,5.800124267578125,0.01964465156197548,-0.006267875898629427,0.00752943754196167
1782845869719129300,5.81012939453125,0.019496046006679535,0.005942984018474817,0.00981256552040577
1782845869729134300,5.82013427734375,0.025584230199456215,0.01390211470425129,0.013607370667159557
1782845869739138300,5.83013818359375,0.028530752286314964,0.01690669357776642,0.022327357903122902
1782845869749143300,5.840143310546875,0.026394937187433243,0.012794990092515945,0.032291263341903687
1782845869759148300,5.850148193359375,0.02583354339003563,0.004949584603309631,0.03805115073919296
1782845869769153300,5.8601533203125,0.021539490669965744,-0.0010627275332808495,0.03766150772571564
1782845869779158300,5.870158203125,0.02108835056424141,-0.0008427505381405354,0.029522886499762535
1782845869789163300,5.880163330078125,0.01918747089803219,-0.003397083841264248,0.018781475722789764
1782845869799168300,5.890168212890625,0.018193578347563744,0.0015462759183719754,0.003894137917086482
1782845869809173200,5.90017333984375,0.01574508100748062,0.00318334111943841,-0.011049936525523663
1782845869819178200,5.91017822265625,0.019081490114331245,0.005588175728917122,-0.02021520584821701
1782845869829182500,5.920182373046875,0.017445694655179977,0.010101954452693462,-0.026746530085802078
1782845869839187500,5.9301875,0.017795633524656296,0.010736851952970028,-0.027989160269498825
1782845869849192400,5.9401923828125,0.017387595027685165,0.01014754269272089,-0.024925418198108673
1782845869859197400,5.950197509765625,0.01644590124487877,0.007330716587603092,-0.015668269246816635
1782845869869202400,5.960202392578125,0.015390671789646149,-0.0001739754807204008,-0.005507159978151321
1782845869879207400,5.97020751953125,0.011290203779935837,0.0003882178571075201,-0.0005006833234801888
1782845869889212400,5.98021240234375,0.01140270009636879,0.0029927340801805258,0.002974899485707283
1782845869899217400,5.990217529296875,0.008389066904783249,-0.0037048496305942535,0.006619435269385576
1782845869909222400,6.000222412109375,0.006269318982958794,-0.00683511421084404,0.004997699987143278
1782845869919226400,6.010226318359375,0.00928881112486124,-0.0030531587544828653,0.0008341142674908042
1782845869929231400,6.0202314453125,0.008876889012753963,-0.0027437072712928057,-0.0075591676868498325
1782845869939236400,6.030236328125,0.012186665087938309,0.0037080668844282627,-0.013749418780207634
1782845869949241300,6.040241455078125,0.013968950137495995,0.002879748120903969,-0.015119712799787521
1782845869959246300,6.050246337890625,0.010261297225952148,-0.0014295126311481,-0.011881042271852493
1782845869969251300,6.060251220703125,0.011185219511389732,-0.004501317627727985,-0.014563185162842274
1782845869979256300,6.07025634765625,0.0052407775074243546,-0.003246969310566783,-0.016269739717245102
1782845869989261300,6.08026123046875,0.004222706891596317,-0.0012506914790719748,-0.0196946170181036
1782845869999265500,6.090265625,0.001960884081199765,0.0011544092558324337,-0.017019471153616905
1782845870009270500,6.1002705078125,0.000866240356117487,-0.003437051083892584,-0.018845783546566963
1782845870019275500,6.110275634765625,-0.004822804592549801,-0.004850124474614859,-0.011673358269035816
1782845870029280500,6.120280517578125,-0.0046781254932284355,-0.009579107165336609,-0.004556659609079361
1782845870039285500,6.130285400390625,-0.0086206691339612,-0.009729309938848019,0.0021233472507447004
1782845870049290500,6.14029052734375,-0.007074926979839802,-0.008715866133570671,0.009782548993825912
1782845870059295500,6.15029541015625,-0.007042435929179192,-0.006022078916430473,0.005421622656285763
1782845870069300500,6.160300537109375,-0.011551800183951855,-0.0052826013416051865,0.007322957739233971
1782845870079305500,6.170305419921875,-0.011514781974256039,-0.002729961648583412,0.006196440663188696
1782845870089309400,6.180309326171875,-0.014793568290770054,-0.007859018631279469,0.005455185659229755
1782845870099314400,6.190314453125,-0.018034368753433228,-0.011224189773201942,0.0003102250338997692
1782845870109319400,6.2003193359375,-0.019234472885727882,-0.013417581096291542,-0.002194932894781232
1782845870119324400,6.210324462890625,-0.020259255543351173,-0.013835430145263672,-0.006206718273460865
1782845870129329400,6.220329345703125,-0.021213578060269356,-0.012777833268046379,-0.010178717784583569
1782845870139334400,6.23033447265625,-0.021500401198863983,-0.01047127041965723,-0.008768307976424694
1782845870149339400,6.24033935546875,-0.016734283417463303,-0.0020173678640276194,-0.006904744077473879
1782845870159344400,6.250344482421875,-0.021149804815649986,-0.003164391266182065,0.002269579330459237
1782845870169348600,6.2603486328125,-0.024287132546305656,-0.000024381093680858612,0.012485058978199959
1782845870179352800,6.270352783203125,-0.021375499665737152,-0.005772015079855919,0.024152901023626328
1782845870189357800,6.28035791015625,-0.024640772491693497,-0.005328134633600712,0.0257174763828516
1782845870199362800,6.29036279296875,-0.02567301318049431,-0.0016713475342839956,0.02710711397230625
1782845870209367800,6.300367919921875,-0.02757875993847847,-0.01125364750623703,0.0294733215123415
1782845870219372800,6.310372802734375,-0.028376908972859383,-0.015031341463327408,0.02766556851565838
1782845870229377800,6.320377685546875,-0.02587803453207016,-0.009334641508758068,0.012333719059824944
1782845870239382800,6.3303828125,-0.02394697815179825,-0.00778228510171175,0.005185261834412813
1782845870249387800,6.3403876953125,-0.01754608564078808,-0.0011519913095980883,0.00003525993088260293
1782845870259392800,6.350392822265625,-0.012364372611045837,0.005897396244108677,-0.007887378334999084
1782845870269396700,6.360396728515625,-0.00452949246391654,0.007307130377739668,-0.004712750669568777
1782845870279401700,6.370401611328125,0.001433058874681592,0.0032838929910212755,0.0005384703981690109
1782845870289406700,6.38040673828125,0.005849394015967846,0.0024225390516221523,0.006777437403798103
1782845870299411700,6.39041162109375,0.008557029999792576,-0.0007892332505434752,0.011746896430850029
1782845870309416700,6.400416748046875,0.010659076273441315,-0.00338686048053205,0.011777512729167938
1782845870319421700,6.410421630859375,0.006669394671916962,-0.004761317744851112,0.0072634536772966385
1782845870329426700,6.4204267578125,0.01103453990072012,-0.0021849286276847124,-0.0030104462057352066
1782845870339431700,6.430431640625,0.009003879502415657,-0.002521551912650466,-0.0076323626562952995
1782845870349436700,6.440436767578125,0.007326172664761543,0.002359660342335701,-0.010305728763341904
1782845870359441000,6.45044091796875,0.006753060966730118,0.0027599334716796875,-0.011261004023253918
1782845870369446000,6.46044580078125,0.009323319420218468,0.0016874311259016395,-0.009292172268033028
1782845870379451000,6.470450927734375,0.01225812267512083,0.003842194564640522,-0.001285644480958581
1782845870389456000,6.480455810546875,0.01541155856102705,0.006132493261247873,0.002643594052642584
1782845870399460900,6.4904609375,0.020515773445367813,0.005027813836932182,0.014250448904931545
1782845870409465900,6.5004658203125,0.02277553454041481,0.005253110080957413,0.019776176661252975
1782845870419470800,6.510470947265625,0.026545239612460136,0.005278409458696842,0.024395963177084923
1782845870429475800,6.520475830078125,0.02980744279921055,-0.0004599788226187229,0.0204131081700325
1782845870439479800,6.530479736328125,0.031061524525284767,-0.0004461302887648344,0.014389571733772755
1782845870449484800,6.54048486328125,0.03100314363837242,-0.0011853959877043962,0.008218281902372837
1782845870459489800,6.55048974609375,0.026386821642518044,-0.0021862119901925325,-0.0019334217067807913
1782845870469494800,6.560494873046875,0.019734064117074013,-0.0009005332831293344,-0.014363810420036316
1782845870479499800,6.570499755859375,0.0128308841958642,-0.000011836644262075424,-0.018073594197630882
1782845870489504800,6.5805048828125,0.010250155813992023,-0.0013606918510049582,-0.02053716965019703
1782845870499509800,6.590509765625,0.0022622712422162294,-0.0028701715636998415,-0.019024226814508438
1782845870509514800,6.6005146484375,0.004275506362318993,-0.0008696008007973433,-0.021047569811344147
1782845870519519700,6.610519775390625,0.0038525962736457586,0.001976785948500037,-0.02075941674411297
1782845870529524000,6.62052392578125,0.004529362544417381,0.006172993220388889,-0.018109366297721863
1782845870539529000,6.630529052734375,0.00930734071880579,0.0055788420140743256,-0.015482690185308456
1782845870549534000,6.640533935546875,0.008132045157253742,-0.0010787469800561666,-0.009750459343194962
1782845870559539000,6.6505390625,0.010410379618406296,-0.004859370179474354,-0.006727771367877722
1782845870569544000,6.6605439453125,0.007712344639003277,-0.007399739697575569,-0.00608383072540164
1782845870579549000,6.670548828125,0.002707199426367879,-0.00544710922986269,-0.007054286543279886
1782845870589554000,6.680553955078125,0.0002855737693607807,0.0025625932030379772,-0.011868471279740334
1782845870599559000,6.690558837890625,-0.001870521460659802,0.006571183446794748,-0.011486307717859745
1782845870609564000,6.70056396484375,-0.002828782657161355,0.014078928157687187,-0.012414366006851196
1782845870619567900,6.71056787109375,0.00030362745746970177,0.008381894789636135,-0.009871846064925194
1782845870629572900,6.72057275390625,0.0013593886978924274,0.003887980943545699,-0.0049975477159023285
1782845870639577900,6.730577880859375,0.007363485172390938,-0.0021233062725514174,-0.003633210202679038
1782845870649582800,6.740582763671875,0.013755744323134422,-0.008267873898148537,-0.010267016477882862
1782845870659587800,6.750587890625,0.016300395131111145,-0.011952357366681099,-0.016141416504979134
1782845870669592800,6.7605927734375,0.019970763474702835,-0.0028645871207118034,-0.029699036851525307
1782845870679597800,6.770597900390625,0.017561402171850204,-0.0033426242880523205,-0.03183436021208763
1782845870689602800,6.780602783203125,0.01919659599661827,-0.0018954428378492594,-0.03611993044614792
1782845870699606800,6.790606689453125,0.01607031188905239,-0.0023681537713855505,-0.0342879444360733
1782845870709611800,6.80061181640625,0.013657627627253532,0.002580408938229084,-0.030554061755537987
1782845870719616800,6.81061669921875,0.01021522469818592,0.004995096940547228,-0.02581097185611725
1782845870729621800,6.820621826171875,0.006589401978999376,0.0030202476773411036,-0.022603536024689674
1782845870739626800,6.830626708984375,0.007444276940077543,0.0007174124475568533,-0.011846761219203472
1782845870749631700,6.8406318359375,0.007286014035344124,-0.0030593671835958958,-0.007109723053872585
1782845870759636700,6.85063671875,0.008440760895609856,-0.006351567339152098,-0.005913963541388512
1782845870769641700,6.860641845703125,0.011348961852490902,-0.0038037889171391726,-0.005117443390190601
1782845870779646700,6.870646728515625,0.009039734490215778,-0.002543580951169133,-0.00429958663880825
1782845870789650700,6.880650634765625,0.004421533551067114,0.0012956125428900123,0.0008608312928117812
1782845870799655700,6.89065576171875,-0.0012352869380265474,0.00375211238861084,0.005873965565115213
1782845870809660700,6.90066064453125,-0.0007183270063251257,0.004951127339154482,0.010874815285205841
1782845870819665700,6.910665771484375,-0.0030262223444879055,0.0032783958595246077,0.014988334849476814
1782845870829670700,6.920670654296875,-0.00392405828461051,0.0042497459799051285,0.01270688883960247
1782845870839675600,6.930675537109375,-0.005280938930809498,-0.0013205213472247124,0.007837831042706966
1782845870849680600,6.9406806640625,-0.005394529551267624,-0.004467988386750221,0.0009558300953358412
1782845870859685600,6.950685546875,-0.005097054410725832,-0.00010306737385690212,-0.009305596351623535
1782845870869690600,6.960690673828125,-0.004009222146123648,0.0016719368286430836,-0.01699514128267765
1782845870879694600,6.970694580078125,-0.005765843205153942,-0.00035579409450292587,-0.019847653806209564
1782845870889699600,6.980699462890625,-0.0019071466522291303,0.00046121631748974323,-0.014945616014301777
1782845870899704600,6.99070458984375,-0.0005092534702271223,-0.002865604357793927,-0.007096480578184128
1782845870909709600,7.00070947265625,0.004939307924360037,0.000046029454097151756,0.0010663742432370782
1782845870919714800,7.01071484375,0.007495942059904337,0.0011437844950705767,0.004000378772616386
1782845870929719800,7.0207197265625,0.00816255807876587,0.001937712891958654,0.012659357860684395
1782845870939724800,7.030724853515625,0.009450729005038738,0.0023712755646556616,0.016214944422245026
1782845870949729800,7.040729736328125,0.005611896514892578,-0.0025890253018587828,0.012836076319217682
1782845870959733800,7.050733642578125,0.003930375911295414,-0.0052671004086732864,0.0036226040683686733
1782845870969738800,7.06073876953125,0.0014978880062699318,-0.008064906112849712,-0.011374777182936668
1782845870979743700,7.07074365234375,-0.0017434452893212438,-0.008920312859117985,-0.022833293303847313
1782845870989748700,7.080748779296875,-0.004526716656982899,-0.003520380472764373,-0.031890157610177994
1782845870999753700,7.090753662109375,-0.007745945826172829,-0.005779806524515152,-0.035267844796180725
1782845871009758700,7.1007587890625,-0.0070953769609332085,-0.007599497213959694,-0.027058875188231468
1782845871019763700,7.110763671875,-0.004815977532416582,-0.006467653438448906,-0.022486761212348938
1782845871029768700,7.120768798828125,-0.0028195036575198174,-0.005444923881441355,-0.010326937772333622
1782845871039773700,7.130773681640625,0.00038907304406166077,-0.0018390035256743431,0.0019270653137937188
1782845871049777700,7.140777587890625,0.00449385866522789,-0.004667840898036957,0.009267482906579971
1782845871059782700,7.15078271484375,0.0014892802573740482,0.004690773319453001,0.0069928765296936035
1782845871069787600,7.16078759765625,0.004167410545051098,0.0047029959969222546,0.00869724527001381
1782845871079792600,7.170792724609375,0.007418863475322723,0.0026981686241924763,0.007264198735356331
1782845871089797600,7.180797607421875,0.006871444173157215,0.00029265834018588066,-0.00022873212583363056
1782845871099802600,7.190802734375,0.004051955416798592,0.0012221015058457851,-0.009265369735658169
1782845871109807600,7.2008076171875,0.0019900251645594835,0.0004929832648485899,-0.00763860484585166
1782845871119812600,7.2108125,0.0005902678240090609,-0.0026194530073553324,-0.012028026394546032
1782845871129817600,7.220817626953125,-0.0032349282409995794,0.0008744238875806332,-0.009995672851800919
1782845871139821800,7.23082177734375,-0.0029819279443472624,0.0024392972700297832,-0.004394778981804848
1782845871149826800,7.240826904296875,-0.003955062013119459,0.0005799653008580208,-0.005485322326421738
1782845871159831800,7.250831787109375,-0.0037297585513442755,0.008463987149298191,-0.0038360261823982
1782845871169836800,7.2608369140625,-0.003730528987944126,0.006837793625891209,-0.0011111116036772728
1782845871179842300,7.27084228515625,-0.0021430186461657286,0.003037196584045887,0.0028194477781653404
1782845871189847300,7.280847412109375,0.0005335845053195953,0.000627957982942462,0.0032052118331193924
1782845871199852300,7.290852294921875,0.001753578893840313,0.00391962518915534,-0.0010398668237030506
1782845871209857300,7.300857177734375,0.0029107220470905304,0.0011406166013330221,0.0021556601859629154
1782845871219861200,7.310861328125,0.009633339941501617,-0.001502837287262082,0.005987416487187147
1782845871229866200,7.3208662109375,0.010403119027614594,-0.0015234865713864565,0.008730343542993069
1782845871239871200,7.330871337890625,0.01215601246803999,0.00020916620269417763,0.012637733481824398
1782845871249876200,7.340876220703125,0.010491466149687767,0.0016907977405935526,0.014200552366673946
1782845871259881200,7.350881103515625,0.0077119250781834126,0.0026021315716207027,0.011656700633466244
1782845871269886200,7.36088623046875,0.005776956677436829,0.0055991574190557,0.01102731004357338
1782845871279891200,7.37089111328125,0.006461654789745808,-0.003525897627696395,0.010890956036746502
1782845871289896200,7.380896240234375,0.004004284739494324,-0.007770861499011517,0.015045029111206532
1782845871299901200,7.390901123046875,0.0011376584880053997,-0.012553098611533642,0.013461247086524963
1782845871309905400,7.400905517578125,-0.0020710574463009834,-0.008239188231527805,0.009192605502903461
1782845871319910400,7.410910400390625,-0.004538476467132568,-0.004970690235495567,0.007566479034721851
1782845871329915400,7.420915283203125,-0.004731779918074608,-0.0019539089407771826,0.008542219176888466
1782845871339920400,7.43092041015625,-0.006006901152431965,-0.006687412038445473,0.012066113762557507
1782845871349925400,7.44092529296875,-0.005094502121210098,-0.00414302758872509,0.016773782670497894
1782845871359930400,7.450930419921875,-0.0056628212332725525,-0.003203730331733823,0.019905660301446915
1782845871369935400,7.460935302734375,-0.005800590850412846,0.004419663455337286,0.01864580437541008
1782845871379940400,7.4709404296875,-0.0034426278434693813,0.0066910735331475735,0.022106315940618515
1782845871389945300,7.4809453125,-0.004422180354595184,-0.0026075721252709627,0.024640623480081558
1782845871399949300,7.49094921875,-0.0011371711734682322,-0.004504541866481304,0.024121306836605072
1782845871409954300,7.500954345703125,0.0024041887372732162,-0.008771935477852821,0.0233570858836174
1782845871419959300,7.510959228515625,0.0032087299041450024,-0.005559363402426243,0.015395299531519413
1782845871429964300,7.52096435546875,0.0008546488825231791,0.0018574362620711327,0.0067132445983588696
1782845871439969300,7.53096923828125,-0.00028704828582704067,0.0031437429133802652,0.005507098976522684
1782845871449974300,7.540974365234375,0.004250865429639816,0.005178561434149742,-0.0038535301573574543
1782845871459979300,7.550979248046875,0.005698826164007187,0.004008900839835405,-0.006367288064211607
1782845871469984300,7.560984375,0.009790956042706966,0.002932971343398094,-0.008764056488871574
1782845871479989200,7.5709892578125,0.005606863647699356,-0.0002527018077671528,-0.007121685426682234
1782845871489993200,7.5809931640625,0.007412740960717201,0.0010058884508907795,-0.010736916214227676
1782845871499998200,7.590998291015625,0.00391627661883831,0.00023943069390952587,-0.009070310741662979
1782845871510003500,7.60100341796875,-0.003431793302297592,-0.0008389188442379236,-0.007178783416748047
1782845871520008400,7.611008544921875,-0.007758631370961666,-0.0007627524901181459,-0.004531601443886757
1782845871530013400,7.621013427734375,-0.010865024290978909,-0.002395016374066472,-0.002499801805242896
1782845871540018400,7.631018310546875,-0.012864525429904461,0.003121455665677786,0.000007297960110008717
1782845871550023400,7.6410234375,-0.01329838391393423,0.004465620499104261,0.002566095907241106
1782845871560028400,7.6510283203125,-0.00937634613364935,0.003954560030251741,0.004698222503066063
1782845871570032400,7.661032470703125,-0.00839150883257389,0.005158308893442154,0.0077286334708333015
1782845871580037400,7.671037353515625,-0.005838070064783096,0.0026738459710031748,0.008679382503032684
1782845871590042400,7.68104248046875,0.0021099094301462173,0.008845940232276917,0.009711314924061298
1782845871600047400,7.69104736328125,0.001163954846560955,0.0040618376806378365,0.012334262020885944
1782845871610052400,7.70105224609375,0.00242100702598691,0.005788424983620644,0.017744973301887512
1782845871620057300,7.711057373046875,0.0036796173080801964,0.008695265278220177,0.018306100741028786
1782845871630062300,7.721062255859375,0.004885833710432053,0.010846983641386032,0.01156263705343008
1782845871640067300,7.7310673828125,0.007150053046643734,0.010828341357409954,0.00804034061729908
1782845871650072300,7.741072265625,0.008185435086488724,0.009698922745883465,0.0066816494800150394
1782845871660076300,7.751076171875,0.003977906424552202,0.007562801241874695,-0.000183713564183563
1782845871670081300,7.761081298828125,0.00538563821464777,0.004469627980142832,-0.003190136980265379
1782845871680086300,7.771086181640625,0.0022063562646508217,0.003449370851740241,-0.008223244920372963
1782845871690091300,7.78109130859375,0.0000176865141838789,0.004088891204446554,-0.011623485013842583
1782845871700096300,7.79109619140625,-0.00514325313270092,0.005079320631921291,-0.013549216091632843
1782845871710101200,7.801101318359375,-0.007849136367440224,0.005208272952586412,-0.01383459847420454
1782845871720106200,7.811106201171875,-0.011209513060748577,0.00975588709115982,-0.010869701392948627
1782845871730111500,7.821111572265625,-0.015047605149447918,0.0035120779648423195,-0.0016613430343568325
1782845871740115500,7.831115478515625,-0.011484295129776001,0.0059195756912231445,0.0015901103615760803
1782845871750120400,7.841120361328125,-0.015318517573177814,0.00371528510004282,0.009310146793723106
1782845871760125400,7.85112548828125,-0.012687314301729202,0.0031160737853497267,0.013550165109336376
1782845871770130400,7.86113037109375,-0.014640659093856812,0.006367698311805725,0.018229788169264793
1782845871780135400,7.871135498046875,-0.010937533341348171,0.01190520916134119,0.02284797467291355
1782845871790140400,7.881140380859375,-0.010784387588500977,0.010850883089005947,0.028994806110858917
1782845871800145400,7.8911455078125,-0.00566126499325037,0.007815944962203503,0.026322323828935623
1782845871810150400,7.901150390625,-0.0003174217417836189,0.005391164682805538,0.027912018820643425
1782845871820155400,7.9111552734375,0.003926858305931091,0.0008526055607944727,0.027123723179101944
1782845871830159000,7.9211591796875,0.0037338898982852697,-0.00009686709381639957,0.023680945858359337
1782845871840164000,7.9311640625,0.008311331272125244,0.0015361834084615111,0.013957212679088116
1782845871850169000,7.941169189453125,0.009690331295132637,-0.00022984622046351433,0.006159722805023193
1782845871860174000,7.951174072265625,0.014183349907398224,-0.0035263069439679384,-0.0007636969676241279
1782845871870179000,7.961178955078125,0.01684102974832058,-0.00390692800283432,-0.011173834092915058
1782845871880184300,7.971184326171875,0.01780802384018898,-0.0020925167482346296,-0.021848049014806747
1782845871890189300,7.981189208984375,0.018385019153356552,0.001405068440362811,-0.029398271813988686
1782845871900194300,7.9911943359375,0.01589842513203621,0.002854094374924898,-0.03190696984529495
1782845871910199300,8.00119921875,0.012941980734467506,0.000260024331510067,-0.02935611829161644
1782845871920203300,8.011203369140626,0.006670502945780754,0.0016376774292439222,-0.028231466189026833
1782845871930208300,8.021208251953125,0.0060206213966012,-0.007958216592669487,-0.021821439266204834
1782845871940213200,8.031213134765625,0.0004245215095579624,-0.014139147475361824,-0.01373794674873352
1782845871950218200,8.04121826171875,-0.004853417165577412,-0.01264357939362526,-0.007100988645106554
1782845871960223200,8.05122314453125,-0.006821759510785341,-0.0064820898696780205,-0.004654076416045427
1782845871970228200,8.061228271484374,-0.008868832141160965,-0.0024896615650504827,0.0007621559198014438
1782845871980233200,8.071233154296875,-0.011670476756989956,0.0027503741439431906,0.003644761396571994
1782845871990238200,8.08123828125,-0.012108875438570976,-0.0020475289784371853,0.010423348285257816
1782845872000242200,8.0912421875,-0.009247309528291225,-0.00326406117528677,0.014557639136910439
1782845872010247200,8.1012470703125,-0.005991888232529163,0.0007716533727943897,0.017902854830026627
1782845872020252200,8.111252197265625,-0.004555379040539265,-0.0013604732230305672,0.02009809948503971
1782845872030257200,8.121257080078125,-0.003145894268527627,-0.0009214410092681646,0.02401786856353283
1782845872040262100,8.13126220703125,0.001373223727568984,0.002700724173337221,0.023259665817022324
1782845872050267100,8.14126708984375,-0.001988528296351433,0.004248175770044327,0.014488331973552704
1782845872060272000,8.151272216796874,-0.0025387373752892017,0.002859337255358696,0.013038506731390953
1782845872070277000,8.161277099609375,0.00011267862282693386,-0.0035996672231703997,0.013019620440900326
1782845872080282000,8.1712822265625,-0.002352343173697591,-0.006637535057961941,0.00501309335231781
1782845872090286300,8.181286376953125,-0.003124701790511608,-0.00847107358276844,0.0012013539671897888
1782845872100291300,8.191291259765626,-0.006531950086355209,-0.009042056277394295,-0.007429950870573521
1782845872110296300,8.20129638671875,-0.0047832634299993515,-0.006723801605403423,-0.015848523005843163
1782845872120301300,8.21130126953125,-0.005499653518199921,-0.004580489359796047,-0.025291558355093002
1782845872130306300,8.221306396484374,-0.006570706143975258,-0.0009392646607011557,-0.023709982633590698
1782845872140311300,8.231311279296875,-0.005293187685310841,-0.0017605836037546396,-0.023166963830590248
1782845872150316300,8.24131640625,-0.008236682042479515,-0.0010285561438649893,-0.014620176516473293
1782845872160321300,8.2513212890625,-0.0005651798564940691,0.003059662412852049,-0.0038564789574593306
1782845872170325200,8.2613251953125,-0.00041466904804110527,0.0007237561512738466,0.008441690355539322
1782845872180329500,8.27132958984375,0.004519103094935417,-0.0006435106042772532,0.015915319323539734
1782845872190334500,8.28133447265625,0.005733097903430462,-0.0007286088075488806,0.016998032107949257
1782845872200339500,8.29133935546875,0.006623392924666405,-0.001402654917910695,0.01671493798494339
1782845872210344400,8.301344482421875,0.008472185581922531,-0.000627102330327034,0.016632623970508575
1782845872220349400,8.311349365234374,0.005145365372300148,0.0017316594021394849,0.017220383509993553
1782845872230354400,8.3213544921875,0.0037527293898165226,0.0009146092925220728,0.008911918848752975
1782845872240359400,8.331359375,0.0027638976462185383,0.00444169994443655,0.0033477763645350933
1782845872250364400,8.341364501953125,0.00417404156178236,0.005744518246501684,-0.00010847399244084954
1782845872260368600,8.35136865234375,-0.0029451206792145967,0.0011012970935553312,-0.003125835442915559
1782845872270373600,8.36137353515625,-0.002614340977743268,0.004572373814880848,-0.004408437293022871
1782845872280378600,8.371378662109375,-0.0060636671259999275,0.004186482168734074,-0.00694616325199604
1782845872290383600,8.381383544921874,-0.005215381272137165,0.003365421202033758,-0.008562231436371803
1782845872300388600,8.391388671875,-0.00882210023701191,0.0057356348261237144,-0.005284945480525494
1782845872310393600,8.4013935546875,-0.006612685974687338,0.00683948677033186,-0.005871426314115524
1782845872320398600,8.411398681640625,-0.009250281378626823,0.008657360449433327,0.0031012955587357283
1782845872330403600,8.421403564453126,-0.010058031417429447,0.00974151398986578,0.009560270234942436
1782845872340407600,8.431407470703125,-0.014663169160485268,0.007393404841423035,0.019506910815835
1782845872350412500,8.44141259765625,-0.012193143367767334,0.007078646682202816,0.029362523928284645
1782845872360417500,8.45141748046875,-0.01301259733736515,0.0022521999198943377,0.03517487272620201
1782845872370422500,8.461422607421875,-0.011236550286412239,0.005197743885219097,0.038082800805568695
1782845872380427500,8.471427490234374,-0.006085997447371483,0.013812004588544369,0.031339410692453384
1782845872390432500,8.4814326171875,-0.0014643188333138824,0.012634820304811,0.02490384876728058
1782845872400437500,8.4914375,0.006190671119838953,0.012706458568572998,0.02419731207191944
1782845872410442500,8.5014423828125,0.011660313233733177,0.0066309417597949505,0.012598671019077301
1782845872420447500,8.511447509765626,0.020979780703783035,0.0027597707230597734,0.006693643983453512
1782845872430451700,8.52145166015625,0.023760931566357613,-0.0023944915737956762,-0.0038764525670558214
1782845872440456700,8.531456787109375,0.029443584382534027,0.0037049464881420135,-0.019887644797563553
1782845872450461700,8.541461669921874,0.028367891907691956,0.005295434035360813,-0.029734373092651367
1782845872460466700,8.551466796875,0.028726618736982346,0.0048608058132231236,-0.03963121026754379
1782845872470471700,8.5614716796875,0.027241233736276627,0.004851608071476221,-0.03898019716143608
1782845872480476700,8.5714765625,0.02372000366449356,0.002766619436442852,-0.032261576503515244
1782845872490481700,8.581481689453126,0.0185139998793602,-0.004916731268167496,-0.0257122665643692
1782845872500486700,8.591486572265625,0.016489997506141663,-0.015240208245813847,-0.023130064830183983
1782845872510490600,8.60149072265625,0.016689790412783623,-0.017865154892206192,-0.023766089230775833
1782845872520495600,8.61149560546875,0.013386939652264118,-0.0084689911454916,-0.02652592398226261
1782845872530500600,8.62150048828125,0.013432452455163002,0.015194487757980824,0.0004788152582477778
1782845872540505600,8.631505615234374,0.004246144089847803,0.01983344741165638,0.0013968069106340408
1782845872550510600,8.641510498046875,0.00801021233201027,0.029694756492972374,-0.015084910206496716
1782845872560515600,8.651515625,0.01636987365782261,0.0030415731016546488,-0.017927035689353943
1782845872570520600,8.6615205078125,0.028527190908789635,-0.010948032140731812,-0.01526679191738367
1782845872580525600,8.671525634765626,0.02790774032473564,-0.01352224312722683,-0.0025501984637230635
1782845872590530600,8.681530517578125,0.01314365305006504,-0.013042047619819641,0.005895004607737064
1782845872600534800,8.69153466796875,0.009250110015273094,-0.012627659365534782,0.010193346999585629
1782845872610539800,8.701539794921874,0.013106929138302803,-0.01413774024695158,0.015354253351688385
1782845872620544800,8.711544677734375,0.013465124182403088,-0.011560066603124142,0.025240972638130188
1782845872630549800,8.7215498046875,0.014727055095136166,-0.00688359048217535,0.023176906630396843
1782845872640554800,8.7315546875,0.01827465184032917,-0.0025511605199426413,0.012360744178295135
