time,seconds_elapsed,z,y,x
1782845883117745200,0.0627451171875,-0.9785614013671875,-0.173858642578125,0.1103973388671875
1782845883127750100,0.072750244140625,-0.981414794921875,-0.17279052734375,0.1119384765625
1782845883137755100,0.082755126953125,-0.982940673828125,-0.176513671875,0.1119232177734375
1782845883147760000,0.092760009765625,-0.9842681884765625,-0.1767730712890625,0.11614990234375
1782845883157765000,0.10276513671875,-0.9820404052734375,-0.177001953125,0.115936279296875
1782845883167770000,0.11277001953125,-0.9761505126953125,-0.1781158447265625,0.1173248291015625
1782845883177775000,0.122775146484375,-0.9684295654296875,-0.17816162109375,0.1182098388671875
1782845883187779600,0.132779541015625,-0.9596099853515625,-0.179229736328125,0.1170196533203125
1782845883197784600,0.14278466796875,-0.953369140625,-0.17559814453125,0.119720458984375
1782845883207788800,0.152788818359375,-0.9498138427734375,-0.1738433837890625,0.1234893798828125
1782845883217793800,0.162793701171875,-0.9487457275390625,-0.1719970703125,0.1242523193359375
1782845883227798800,0.172798828125,-0.9559478759765625,-0.1708984375,0.1224822998046875
1782845883237803800,0.1828037109375,-0.9593963623046875,-0.1700286865234375,0.1241302490234375
1782845883247808800,0.192808837890625,-0.96453857421875,-0.170440673828125,0.1242828369140625
1782845883257813800,0.202813720703125,-0.9734344482421875,-0.1726226806640625,0.1234130859375
1782845883267818800,0.21281884765625,-0.9764251708984375,-0.173309326171875,0.1255645751953125
1782845883277823700,0.22282373046875,-0.979400634765625,-0.175628662109375,0.130706787109375
1782845883287828700,0.232828857421875,-0.9764556884765625,-0.1772003173828125,0.1321868896484375
1782845883297832700,0.242832763671875,-0.97161865234375,-0.17791748046875,0.130615234375
1782845883307837700,0.252837646484375,-0.967498779296875,-0.17767333984375,0.12945556640625
1782845883317842700,0.2628427734375,-0.964691162109375,-0.177459716796875,0.130096435546875
1782845883327847700,0.27284765625,-0.9625091552734375,-0.1749267578125,0.1246185302734375
1782845883337852700,0.282852783203125,-0.960418701171875,-0.1744232177734375,0.123504638671875
1782845883347857700,0.292857666015625,-0.960784912109375,-0.172210693359375,0.1203460693359375
1782845883357862700,0.302862548828125,-0.9626007080078125,-0.1724853515625,0.1202850341796875
1782845883367867600,0.31286767578125,-0.9633331298828125,-0.1710357666015625,0.121551513671875
1782845883377872600,0.32287255859375,-0.965057373046875,-0.170867919921875,0.122528076171875
1782845883387876900,0.332876953125,-0.969635009765625,-0.1739501953125,0.1213226318359375
1782845883397881900,0.3428818359375,-0.974334716796875,-0.1744384765625,0.1216278076171875
1782845883407886800,0.352886962890625,-0.974029541015625,-0.17559814453125,0.1234283447265625
1782845883417891800,0.362891845703125,-0.973297119140625,-0.17840576171875,0.1233367919921875
1782845883427896800,0.372896728515625,-0.9706268310546875,-0.180511474609375,0.1235809326171875
1782845883437901800,0.38290185546875,-0.9671478271484375,-0.1776123046875,0.12066650390625
1782845883447906800,0.39290673828125,-0.966461181640625,-0.1768035888671875,0.116790771484375
1782845883457911800,0.402911865234375,-0.9662017822265625,-0.1742706298828125,0.1146392822265625
1782845883467916800,0.412916748046875,-0.963287353515625,-0.1739501953125,0.1150665283203125
1782845883477920800,0.422920654296875,-0.96527099609375,-0.1744842529296875,0.11322021484375
1782845883487925800,0.43292578125,-0.9684906005859375,-0.172210693359375,0.113037109375
1782845883497930800,0.4429306640625,-0.970489501953125,-0.1724090576171875,0.111968994140625
1782845883507935700,0.452935791015625,-0.9691009521484375,-0.1746673583984375,0.1114654541015625
1782845883517940700,0.462940673828125,-0.9694976806640625,-0.175140380859375,0.114959716796875
1782845883527945700,0.47294580078125,-0.96917724609375,-0.1756591796875,0.1144866943359375
1782845883537950700,0.48295068359375,-0.9695281982421875,-0.1768798828125,0.1151123046875
1782845883547955700,0.492955810546875,-0.9709625244140625,-0.17523193359375,0.117706298828125
1782845883557959700,0.502959716796875,-0.97454833984375,-0.175689697265625,0.121795654296875
1782845883567964700,0.512964599609375,-0.9767913818359375,-0.1754913330078125,0.1212615966796875
1782845883577969700,0.5229697265625,-0.97906494140625,-0.1740570068359375,0.1216888427734375
1782845883587975000,0.532974853515625,-0.976409912109375,-0.1750946044921875,0.11956787109375
1782845883597980000,0.54297998046875,-0.9774169921875,-0.1726837158203125,0.1195526123046875
1782845883607985000,0.55298486328125,-0.98126220703125,-0.1727447509765625,0.121368408203125
1782845883617990000,0.562989990234375,-0.9796905517578125,-0.1721954345703125,0.127044677734375
1782845883627995000,0.572994873046875,-0.9753570556640625,-0.1739349365234375,0.127716064453125
1782845883637999900,0.582999755859375,-0.964813232421875,-0.1745452880859375,0.1277923583984375
1782845883648003800,0.59300390625,-0.9520111083984375,-0.175445556640625,0.126922607421875
1782845883658008800,0.6030087890625,-0.9485015869140625,-0.176177978515625,0.124237060546875
1782845883668013800,0.613013916015625,-0.9482269287109375,-0.1753082275390625,0.12371826171875
1782845883678018800,0.623018798828125,-0.9522857666015625,-0.175567626953125,0.12457275390625
1782845883688023800,0.63302392578125,-0.957763671875,-0.1734771728515625,0.1223297119140625
1782845883698028800,0.64302880859375,-0.962738037109375,-0.173858642578125,0.122222900390625
1782845883708033800,0.65303369140625,-0.9688262939453125,-0.173736572265625,0.1222991943359375
1782845883718038800,0.663038818359375,-0.9686126708984375,-0.1747283935546875,0.1201019287109375
1782845883728043800,0.673043701171875,-0.9662017822265625,-0.1751251220703125,0.119659423828125
1782845883738047700,0.6830478515625,-0.9661712646484375,-0.178924560546875,0.121490478515625
1782845883748052700,0.693052734375,-0.9652252197265625,-0.1809539794921875,0.1221923828125
1782845883758057700,0.7030576171875,-0.9682464599609375,-0.1785125732421875,0.1207122802734375
1782845883768062700,0.713062744140625,-0.9722900390625,-0.176116943359375,0.116943359375
1782845883778067700,0.723067626953125,-0.976654052734375,-0.173370361328125,0.114288330078125
1782845883788072700,0.73307275390625,-0.9804534912109375,-0.17120361328125,0.1138458251953125
1782845883798077700,0.74307763671875,-0.9821014404296875,-0.171112060546875,0.1149139404296875
1782845883808083000,0.7530830078125,-0.9826202392578125,-0.1718597412109375,0.119384765625
1782845883818088000,0.763087890625,-0.9825592041015625,-0.173248291015625,0.1251983642578125
1782845883828091600,0.773091552734375,-0.9792327880859375,-0.175811767578125,0.1280059814453125
1782845883838096600,0.7830966796875,-0.97247314453125,-0.176116943359375,0.12823486328125
1782845883848101600,0.7931015625,-0.959442138671875,-0.177520751953125,0.127044677734375
1782845883858106600,0.803106689453125,-0.952911376953125,-0.17816162109375,0.123748779296875
1782845883868111600,0.813111572265625,-0.95074462890625,-0.1776123046875,0.1212921142578125
1782845883878116900,0.823116943359375,-0.9544677734375,-0.1742401123046875,0.1201324462890625
1782845883888121900,0.833121826171875,-0.958984375,-0.173126220703125,0.1195831298828125
1782845883898126800,0.843126953125,-0.96392822265625,-0.1730804443359375,0.11669921875
1782845883908131800,0.8531318359375,-0.9662933349609375,-0.1725006103515625,0.1191864013671875
1782845883918135600,0.863135498046875,-0.9680328369140625,-0.1696624755859375,0.1188201904296875
1782845883928140500,0.873140625,-0.9684906005859375,-0.17218017578125,0.119293212890625
1782845883938145500,0.8831455078125,-0.9693756103515625,-0.1732330322265625,0.1218109130859375
1782845883948150500,0.893150634765625,-0.9701385498046875,-0.17578125,0.1224365234375
1782845883958155500,0.903155517578125,-0.9710540771484375,-0.176849365234375,0.1215362548828125
1782845883968160500,0.913160400390625,-0.973297119140625,-0.177093505859375,0.1215667724609375
1782845883978165500,0.92316552734375,-0.9752960205078125,-0.176483154296875,0.1208953857421875
1782845883988170500,0.93317041015625,-0.975341796875,-0.17486572265625,0.1224517822265625
1782845883998175700,0.94317578125,-0.9723968505859375,-0.175750732421875,0.122650146484375
1782845884008180700,0.9531806640625,-0.97235107421875,-0.1771240234375,0.123809814453125
1782845884018184700,0.963184814453125,-0.9735107421875,-0.1749725341796875,0.128173828125
1782845884028189700,0.973189697265625,-0.97320556640625,-0.172637939453125,0.12969970703125
1782845884038194700,0.983194580078125,-0.9692535400390625,-0.1737518310546875,0.129486083984375
1782845884048199700,0.99319970703125,-0.9609832763671875,-0.1732940673828125,0.129180908203125
1782845884058204700,1.00320458984375,-0.9565277099609375,-0.1760406494140625,0.1285858154296875
1782845884068209700,1.013209716796875,-0.9513702392578125,-0.1774749755859375,0.125946044921875
1782845884078214700,1.023214599609375,-0.9489593505859375,-0.1772308349609375,0.1221160888671875
1782845884088219600,1.0332197265625,-0.949951171875,-0.175933837890625,0.1199798583984375
1782845884098223600,1.0432236328125,-0.9538116455078125,-0.175079345703125,0.1152801513671875
1782845884108228600,1.053228515625,-0.9635162353515625,-0.1724853515625,0.11590576171875
1782845884118233600,1.063233642578125,-0.9698638916015625,-0.172943115234375,0.11749267578125
1782845884128238600,1.073238525390625,-0.97906494140625,-0.172821044921875,0.12078857421875
1782845884138243600,1.08324365234375,-0.9820098876953125,-0.174560546875,0.12664794921875
1782845884148248600,1.09324853515625,-0.9769439697265625,-0.1800994873046875,0.1269989013671875
1782845884158253600,1.103253662109375,-0.9700927734375,-0.1830596923828125,0.128753662109375
1782845884168258600,1.113258544921875,-0.9670867919921875,-0.181884765625,0.1258392333984375
1782845884178263600,1.123263671875,-0.9677581787109375,-0.17877197265625,0.1242218017578125
1782845884188268500,1.1332685546875,-0.968902587890625,-0.176361083984375,0.1247711181640625
1782845884198272800,1.143272705078125,-0.97210693359375,-0.1757354736328125,0.1209564208984375
1782845884208277800,1.15327783203125,-0.9729461669921875,-0.1725921630859375,0.120941162109375
1782845884218282800,1.16328271484375,-0.9735565185546875,-0.1724090576171875,0.1212615966796875
1782845884228287700,1.173287841796875,-0.9738922119140625,-0.174072265625,0.121368408203125
1782845884238292700,1.183292724609375,-0.9712066650390625,-0.175750732421875,0.122589111328125
1782845884248297700,1.193297607421875,-0.9640350341796875,-0.1783294677734375,0.123260498046875
1782845884258302700,1.203302734375,-0.9583282470703125,-0.180328369140625,0.1211395263671875
1782845884268307700,1.2133076171875,-0.956024169921875,-0.181884765625,0.1204071044921875
1782845884278312700,1.223312744140625,-0.9564208984375,-0.1795654296875,0.1150360107421875
1782845884288316700,1.233316650390625,-0.9613800048828125,-0.1775970458984375,0.1123809814453125
1782845884298321700,1.24332177734375,-0.968505859375,-0.175384521484375,0.1149139404296875
1782845884308326700,1.25332666015625,-0.9766387939453125,-0.1719970703125,0.1128692626953125
1782845884318331600,1.26333154296875,-0.980621337890625,-0.172607421875,0.113677978515625
1782845884328336600,1.273336669921875,-0.9838409423828125,-0.173095703125,0.1175994873046875
1782845884338341600,1.283341552734375,-0.983367919921875,-0.17291259765625,0.1185455322265625
1782845884348346600,1.2933466796875,-0.9814605712890625,-0.173919677734375,0.1195831298828125
1782845884358351600,1.3033515625,-0.9778289794921875,-0.1751708984375,0.1237640380859375
1782845884368356600,1.313356689453125,-0.9705657958984375,-0.17352294921875,0.1230621337890625
1782845884378360800,1.32336083984375,-0.9659271240234375,-0.1745758056640625,0.1246490478515625
1782845884388365800,1.33336572265625,-0.963134765625,-0.1742401123046875,0.1249542236328125
1782845884398370800,1.343370849609375,-0.963531494140625,-0.1749420166015625,0.125457763671875
1782845884408375800,1.353375732421875,-0.96173095703125,-0.1743927001953125,0.129364013671875
1782845884418380800,1.363380859375,-0.961517333984375,-0.174957275390625,0.127838134765625
1782845884428385800,1.3733857421875,-0.9593505859375,-0.1732177734375,0.1239776611328125
1782845884438390800,1.383390869140625,-0.95843505859375,-0.173614501953125,0.1246337890625
1782845884448395800,1.393395751953125,-0.959808349609375,-0.172882080078125,0.1213226318359375
1782845884458400800,1.40340087890625,-0.9651031494140625,-0.1723175048828125,0.1197052001953125
1782845884468405800,1.41340576171875,-0.9697723388671875,-0.173431396484375,0.1184844970703125
1782845884478409500,1.423409423828125,-0.97320556640625,-0.17340087890625,0.1204986572265625
1782845884488414500,1.43341455078125,-0.974578857421875,-0.1731719970703125,0.1191253662109375
1782845884498419700,1.443419677734375,-0.972686767578125,-0.1750335693359375,0.1189422607421875
1782845884508424700,1.4534248046875,-0.969879150390625,-0.176300048828125,0.1197662353515625
1782845884518429700,1.4634296875,-0.9701995849609375,-0.17718505859375,0.1178741455078125
1782845884528434700,1.4734345703125,-0.9659881591796875,-0.1785736083984375,0.1175994873046875
1782845884538439700,1.483439697265625,-0.966217041015625,-0.1790924072265625,0.118743896484375
1782845884548444700,1.493444580078125,-0.9678192138671875,-0.1777801513671875,0.115814208984375
1782845884558449700,1.50344970703125,-0.9691314697265625,-0.17584228515625,0.1136016845703125
1782845884568453600,1.51345361328125,-0.9701690673828125,-0.17425537109375,0.11419677734375
1782845884578458600,1.523458740234375,-0.970245361328125,-0.172607421875,0.1170196533203125
1782845884588463600,1.533463623046875,-0.9723663330078125,-0.17236328125,0.1158447265625
1782845884598468600,1.543468505859375,-0.9708404541015625,-0.17364501953125,0.11517333984375
1782845884608473600,1.5534736328125,-0.968719482421875,-0.1747283935546875,0.1162872314453125
1782845884618478600,1.563478515625,-0.9627838134765625,-0.1768035888671875,0.1163482666015625
1782845884628483600,1.573483642578125,-0.9605712890625,-0.1763153076171875,0.1139678955078125
1782845884638488600,1.583488525390625,-0.9597930908203125,-0.177154541015625,0.11041259765625
1782845884648493600,1.59349365234375,-0.961669921875,-0.176422119140625,0.114349365234375
1782845884658498600,1.60349853515625,-0.9638519287109375,-0.1785888671875,0.118560791015625
1782845884668502500,1.61350244140625,-0.9646453857421875,-0.1809234619140625,0.1164398193359375
1782845884678507500,1.623507568359375,-0.9719390869140625,-0.1774139404296875,0.122161865234375
1782845884688512500,1.633512451171875,-0.976287841796875,-0.1781463623046875,0.1216583251953125
1782845884698517500,1.643517578125,-0.9855804443359375,-0.177490234375,0.1207427978515625
1782845884708522500,1.6535224609375,-0.9892120361328125,-0.175018310546875,0.120635986328125
1782845884718527500,1.663527587890625,-0.98626708984375,-0.1729888916015625,0.1185302734375
1782845884728532500,1.673532470703125,-0.97906494140625,-0.173675537109375,0.1126861572265625
1782845884738537500,1.683537353515625,-0.971923828125,-0.1739501953125,0.116851806640625
1782845884748542500,1.69354248046875,-0.96112060546875,-0.1730804443359375,0.11248779296875
1782845884758547500,1.70354736328125,-0.9576416015625,-0.1770477294921875,0.1079864501953125
1782845884768551700,1.7135517578125,-0.9547882080078125,-0.175506591796875,0.1137542724609375
1782845884778556700,1.723556640625,-0.95330810546875,-0.1796417236328125,0.11737060546875
1782845884788561700,1.733561767578125,-0.961456298828125,-0.180633544921875,0.1216583251953125
1782845884798566700,1.743566650390625,-0.9603424072265625,-0.180328369140625,0.1235198974609375
1782845884808571600,1.753571533203125,-0.9615020751953125,-0.178955078125,0.1238250732421875
1782845884818576600,1.76357666015625,-0.96844482421875,-0.1765289306640625,0.1206207275390625
1782845884828581600,1.77358154296875,-0.97235107421875,-0.1757965087890625,0.1184234619140625
1782845884838586600,1.783586669921875,-0.97418212890625,-0.1782684326171875,0.1128387451171875
1782845884848591600,1.793591552734375,-0.97564697265625,-0.1791839599609375,0.1169891357421875
1782845884858595600,1.803595703125,-0.96893310546875,-0.179443359375,0.1107330322265625
1782845884868600600,1.8136005859375,-0.9728851318359375,-0.17779541015625,0.104583740234375
1782845884878605600,1.82360546875,-0.9740753173828125,-0.1745758056640625,0.1036376953125
1782845884888610600,1.833610595703125,-0.973052978515625,-0.1749725341796875,0.10491943359375
1782845884898615600,1.843615478515625,-0.9739837646484375,-0.1781005859375,0.105560302734375
1782845884908620500,1.85362060546875,-0.9712982177734375,-0.1799774169921875,0.1103057861328125
1782845884918625500,1.86362548828125,-0.97271728515625,-0.1773681640625,0.11505126953125
1782845884928630500,1.873630615234375,-0.973846435546875,-0.1780853271484375,0.1180419921875
1782845884938635500,1.883635498046875,-0.9683685302734375,-0.1820220947265625,0.1216888427734375
1782845884948640500,1.893640625,-0.96563720703125,-0.1796417236328125,0.1195220947265625
1782845884958644700,1.903644775390625,-0.966156005859375,-0.1774749755859375,0.1176910400390625
1782845884968649700,1.913649658203125,-0.9647216796875,-0.1756744384765625,0.1172943115234375
1782845884978654700,1.92365478515625,-0.970001220703125,-0.173858642578125,0.11907958984375
1782845884988659700,1.93365966796875,-0.970947265625,-0.175750732421875,0.11846923828125
1782845884998664700,1.943664794921875,-0.9708404541015625,-0.1746063232421875,0.116729736328125
1782845885008669700,1.953669677734375,-0.9711151123046875,-0.1721038818359375,0.1164703369140625
1782845885018674700,1.9636748046875,-0.9666595458984375,-0.173248291015625,0.1173095703125
1782845885028679700,1.9736796875,-0.9633941650390625,-0.17803955078125,0.1200103759765625
1782845885038684700,1.9836845703125,-0.9605560302734375,-0.1822052001953125,0.1202850341796875
1782845885048689700,1.993689697265625,-0.9618377685546875,-0.181854248046875,0.1208953857421875
1782845885058693600,2.003693603515625,-0.963287353515625,-0.1803131103515625,0.1167449951171875
1782845885068698600,2.01369873046875,-0.962738037109375,-0.1783447265625,0.1153411865234375
1782845885078703600,2.02370361328125,-0.9644622802734375,-0.17578125,0.1129608154296875
1782845885088708600,2.03370849609375,-0.96807861328125,-0.173797607421875,0.110748291015625
1782845885098713600,2.043713623046875,-0.9714813232421875,-0.1711578369140625,0.11328125
1782845885108718600,2.053718505859375,-0.9766998291015625,-0.173309326171875,0.1185150146484375
1782845885118723600,2.0637236328125,-0.97705078125,-0.175506591796875,0.120269775390625
1782845885128728600,2.073728515625,-0.9744720458984375,-0.1768646240234375,0.121246337890625
1782845885138733600,2.083733642578125,-0.971588134765625,-0.1783447265625,0.1184234619140625
1782845885148738600,2.093738525390625,-0.966949462890625,-0.1796722412109375,0.1194000244140625
1782845885158742800,2.10374267578125,-0.9642181396484375,-0.1779022216796875,0.1185455322265625
1782845885168747800,2.113747802734375,-0.9608001708984375,-0.178558349609375,0.1174774169921875
1782845885178752800,2.123752685546875,-0.9617462158203125,-0.17926025390625,0.1181488037109375
1782845885188757200,2.13375732421875,-0.9649200439453125,-0.1784210205078125,0.120361328125
1782845885198762200,2.14376220703125,-0.970001220703125,-0.1787872314453125,0.122100830078125
1782845885208767200,2.153767333984375,-0.970550537109375,-0.178924560546875,0.121795654296875
1782845885218772200,2.163772216796875,-0.972320556640625,-0.17877197265625,0.118896484375
1782845885228777200,2.173777099609375,-0.968048095703125,-0.176422119140625,0.1223602294921875
1782845885238782200,2.1837822265625,-0.960906982421875,-0.1775054931640625,0.1165924072265625
1782845885248786200,2.1937861328125,-0.9595489501953125,-0.17669677734375,0.1142578125
1782845885258791200,2.203791259765625,-0.958770751953125,-0.17724609375,0.1119232177734375
1782845885268796200,2.213796142578125,-0.96002197265625,-0.1770782470703125,0.108551025390625
1782845885278801200,2.22380126953125,-0.9627838134765625,-0.177764892578125,0.1094818115234375
1782845885288806100,2.23380615234375,-0.9661712646484375,-0.1789398193359375,0.110260009765625
1782845885298811100,2.24381103515625,-0.97503662109375,-0.179229736328125,0.1138916015625
1782845885308816100,2.253816162109375,-0.982635498046875,-0.176025390625,0.118316650390625
1782845885318821000,2.263821044921875,-0.98590087890625,-0.177459716796875,0.119171142578125
1782845885328826000,2.273826171875,-0.9861907958984375,-0.1771240234375,0.120635986328125
1782845885338831000,2.2838310546875,-0.984466552734375,-0.17596435546875,0.12322998046875
1782845885348835300,2.29383544921875,-0.9765625,-0.1775970458984375,0.12078857421875
1782845885358840300,2.30384033203125,-0.9668426513671875,-0.1797943115234375,0.113372802734375
1782845885368845300,2.31384521484375,-0.9639434814453125,-0.17724609375,0.1175689697265625
1782845885378850300,2.323850341796875,-0.958740234375,-0.1779022216796875,0.116485595703125
1782845885388855300,2.333855224609375,-0.9586639404296875,-0.1776275634765625,0.1157684326171875
1782845885398860300,2.3438603515625,-0.95648193359375,-0.1770172119140625,0.117767333984375
1782845885408865300,2.353865234375,-0.9599609375,-0.1792755126953125,0.1237335205078125
1782845885418870300,2.363870361328125,-0.959564208984375,-0.1802215576171875,0.1240386962890625
1782845885428875300,2.373875244140625,-0.9610748291015625,-0.1808319091796875,0.1240692138671875
1782845885438880300,2.38388037109375,-0.9606781005859375,-0.1800537109375,0.12237548828125
1782845885448884200,2.39388427734375,-0.9619598388671875,-0.179656982421875,0.1212005615234375
1782845885458889200,2.40388916015625,-0.9683990478515625,-0.177001953125,0.1191253662109375
1782845885468894200,2.413894287109375,-0.974395751953125,-0.17498779296875,0.1170654296875
1782845885478899200,2.423899169921875,-0.9792633056640625,-0.174530029296875,0.114410400390625
1782845885488904200,2.433904296875,-0.9773101806640625,-0.1765594482421875,0.113800048828125
1782845885498909200,2.4439091796875,-0.9785003662109375,-0.17724609375,0.1146392822265625
1782845885508914200,2.4539140625,-0.974945068359375,-0.1804351806640625,0.115814208984375
1782845885518919200,2.463919189453125,-0.969207763671875,-0.179473876953125,0.11492919921875
1782845885528924200,2.473924072265625,-0.9656524658203125,-0.178985595703125,0.1171875
1782845885538929200,2.48392919921875,-0.9637908935546875,-0.1798095703125,0.116546630859375
1782845885548933400,2.493933349609375,-0.965728759765625,-0.1755218505859375,0.1162109375
1782845885558938400,2.5039384765625,-0.9676971435546875,-0.1751556396484375,0.1135101318359375
1782845885568943400,2.513943359375,-0.9680023193359375,-0.176849365234375,0.1122283935546875
1782845885578948400,2.5239482421875,-0.9661865234375,-0.176666259765625,0.11553955078125
1782845885588953300,2.533953369140625,-0.96441650390625,-0.1785430908203125,0.1168060302734375
1782845885598958300,2.543958251953125,-0.964752197265625,-0.179595947265625,0.117706298828125
1782845885608963300,2.55396337890625,-0.963897705078125,-0.179443359375,0.11932373046875
1782845885618968300,2.56396826171875,-0.9605712890625,-0.17767333984375,0.1190032958984375
1782845885628973300,2.573973388671875,-0.9584503173828125,-0.1790008544921875,0.118743896484375
1782845885638978300,2.583978271484375,-0.96221923828125,-0.1763763427734375,0.115478515625
1782845885648982300,2.593982177734375,-0.966705322265625,-0.17266845703125,0.1222686767578125
1782845885658987300,2.6039873046875,-0.9661712646484375,-0.171356201171875,0.118408203125
1782845885668992300,2.6139921875,-0.964324951171875,-0.1794586181640625,0.110565185546875
1782845885678997200,2.623997314453125,-0.9761962890625,-0.172698974609375,0.125732421875
1782845885689002200,2.634002197265625,-0.971160888671875,-0.1707611083984375,0.1180572509765625
1782845885699007200,2.64400732421875,-0.9784698486328125,-0.174560546875,0.1161956787109375
1782845885709012200,2.65401220703125,-0.978607177734375,-0.1754150390625,0.115234375
1782845885719017200,2.664017333984375,-0.9813079833984375,-0.1738128662109375,0.118896484375
1782845885729022200,2.674022216796875,-0.9820098876953125,-0.1752166748046875,0.1201019287109375
1782845885739027200,2.684027099609375,-0.9779510498046875,-0.177978515625,0.1205902099609375
1782845885749031400,2.694031494140625,-0.9739990234375,-0.1815185546875,0.12615966796875
1782845885759036400,2.704036376953125,-0.9709320068359375,-0.1817169189453125,0.1239013671875
1782845885769041400,2.71404150390625,-0.967864990234375,-0.1800537109375,0.1213531494140625
1782845885779046400,2.72404638671875,-0.963714599609375,-0.1790771484375,0.118560791015625
1782845885789051400,2.734051513671875,-0.955810546875,-0.176025390625,0.1169891357421875
1782845885799056400,2.744056396484375,-0.9563446044921875,-0.174713134765625,0.1138458251953125
1782845885809061400,2.754061279296875,-0.9585113525390625,-0.1745147705078125,0.111968994140625
1782845885819066400,2.76406640625,-0.96343994140625,-0.1736297607421875,0.112823486328125
1782845885829071400,2.7740712890625,-0.9673614501953125,-0.1770172119140625,0.1157684326171875
1782845885839076400,2.784076416015625,-0.967620849609375,-0.1774139404296875,0.1180419921875
1782845885849080300,2.794080322265625,-0.967987060546875,-0.178558349609375,0.11663818359375
1782845885859085300,2.804085205078125,-0.9694671630859375,-0.1788177490234375,0.1167755126953125
1782845885869090300,2.81409033203125,-0.971832275390625,-0.1792144775390625,0.118316650390625
1782845885879095300,2.82409521484375,-0.967498779296875,-0.1816864013671875,0.1110382080078125
1782845885889100300,2.834100341796875,-0.9764404296875,-0.17877197265625,0.113616943359375
1782845885899105300,2.844105224609375,-0.975128173828125,-0.1758880615234375,0.119842529296875
1782845885909110300,2.8541103515625,-0.972808837890625,-0.1776123046875,0.1181182861328125
1782845885919115300,2.864115234375,-0.9719696044921875,-0.1778411865234375,0.119232177734375
1782845885929120300,2.874120361328125,-0.9688262939453125,-0.1779632568359375,0.12005615234375
1782845885939125200,2.884125244140625,-0.9667510986328125,-0.1786346435546875,0.1202545166015625
1782845885949129200,2.894129150390625,-0.96319580078125,-0.1772003173828125,0.118316650390625
1782845885959134500,2.904134521484375,-0.9585113525390625,-0.1745147705078125,0.11785888671875
1782845885969139500,2.914139404296875,-0.9567413330078125,-0.17596435546875,0.11669921875
1782845885979144400,2.92414453125,-0.95660400390625,-0.175750732421875,0.11260986328125
1782845885989149400,2.9341494140625,-0.958404541015625,-0.1757965087890625,0.110687255859375
1782845885999154400,2.944154541015625,-0.9660491943359375,-0.1749725341796875,0.1106719970703125
1782845886009159400,2.954159423828125,-0.97314453125,-0.17510986328125,0.1132965087890625
1782845886019164400,2.964164306640625,-0.9754638671875,-0.1803131103515625,0.1175384521484375
1782845886029169400,2.97416943359375,-0.9741973876953125,-0.183441162109375,0.11810302734375
1782845886039174400,2.98417431640625,-0.9710235595703125,-0.18109130859375,0.1172332763671875
1782845886049178400,2.994178466796875,-0.9689788818359375,-0.1794586181640625,0.1155242919921875
1782845886059183400,3.004183349609375,-0.96734619140625,-0.178680419921875,0.1126708984375
1782845886069188400,3.014188232421875,-0.96600341796875,-0.1788330078125,0.1099090576171875
1782845886079193300,3.024193359375,-0.963836669921875,-0.1786956787109375,0.10894775390625
1782845886089198300,3.0341982421875,-0.9644927978515625,-0.1772003173828125,0.1092071533203125
1782845886099203300,3.044203369140625,-0.9658203125,-0.1758270263671875,0.106201171875
1782845886109208300,3.054208251953125,-0.970245361328125,-0.1756439208984375,0.108551025390625
1782845886119213300,3.06421337890625,-0.973175048828125,-0.1745758056640625,0.11114501953125
1782845886129218300,3.07421826171875,-0.9760284423828125,-0.1761016845703125,0.116363525390625
1782845886139223300,3.084223388671875,-0.9806671142578125,-0.1763763427734375,0.120819091796875
1782845886149227300,3.094227294921875,-0.9829559326171875,-0.1775970458984375,0.12158203125
1782845886159232300,3.104232177734375,-0.9796905517578125,-0.175445556640625,0.1220550537109375
1782845886169237200,3.1142373046875,-0.970916748046875,-0.17620849609375,0.120697021484375
1782845886179242500,3.124242431640625,-0.9628448486328125,-0.1773223876953125,0.1206512451171875
1782845886189247200,3.134247314453125,-0.9575042724609375,-0.1773529052734375,0.1171112060546875
1782845886199252200,3.144252197265625,-0.9558563232421875,-0.1769256591796875,0.11785888671875
1782845886209257200,3.15425732421875,-0.9632415771484375,-0.1773529052734375,0.117584228515625
1782845886219262200,3.16426220703125,-0.97296142578125,-0.1739501953125,0.1175384521484375
1782845886229267200,3.17426708984375,-0.9798736572265625,-0.173858642578125,0.118804931640625
1782845886239272200,3.184272216796875,-0.979217529296875,-0.1773223876953125,0.1186065673828125
1782845886249276200,3.194276123046875,-0.9745025634765625,-0.17919921875,0.1161346435546875
1782845886259281200,3.20428125,-0.968505859375,-0.1818084716796875,0.1153106689453125
1782845886269286100,3.2142861328125,-0.9645233154296875,-0.1821746826171875,0.11541748046875
1782845886279291100,3.224291015625,-0.9660491943359375,-0.1822357177734375,0.115325927734375
1782845886289296100,3.234296142578125,-0.9633941650390625,-0.178466796875,0.1144561767578125
1782845886299301000,3.244301025390625,-0.9649658203125,-0.1765899658203125,0.1118316650390625
1782845886309306000,3.25430615234375,-0.968658447265625,-0.1758270263671875,0.1093292236328125
1782845886319311000,3.26431103515625,-0.9709625244140625,-0.1740570068359375,0.107391357421875
1782845886329316000,3.274316162109375,-0.97076416015625,-0.17535400390625,0.108856201171875
1782845886339321000,3.284321044921875,-0.9661865234375,-0.179534912109375,0.113494873046875
1782845886349325000,3.294324951171875,-0.9644012451171875,-0.184600830078125,0.115753173828125
1782845886359330300,3.304330322265625,-0.965301513671875,-0.1839599609375,0.11590576171875
1782845886369335300,3.314335205078125,-0.9665069580078125,-0.18304443359375,0.116851806640625
1782845886379340300,3.32434033203125,-0.9683990478515625,-0.18157958984375,0.122344970703125
1782845886389345300,3.33434521484375,-0.9713134765625,-0.1824798583984375,0.1201629638671875
1782845886399350300,3.344350341796875,-0.97052001953125,-0.1782684326171875,0.119354248046875
1782845886409355300,3.354355224609375,-0.9716949462890625,-0.177337646484375,0.1156768798828125
1782845886419360300,3.3643603515625,-0.9734954833984375,-0.1793060302734375,0.1136932373046875
1782845886429365200,3.374365234375,-0.9736785888671875,-0.178131103515625,0.1143951416015625
1782845886439370200,3.384370361328125,-0.9696502685546875,-0.178070068359375,0.112823486328125
1782845886449374200,3.394374267578125,-0.964447021484375,-0.178436279296875,0.1152191162109375
1782845886459379200,3.404379150390625,-0.9563140869140625,-0.17999267578125,0.115478515625
1782845886469384200,3.41438427734375,-0.9506683349609375,-0.181732177734375,0.1138916015625
1782845886479389200,3.42438916015625,-0.9493255615234375,-0.181365966796875,0.1119537353515625
1782845886489394200,3.434394287109375,-0.9512939453125,-0.1814727783203125,0.113006591796875
1782845886499399200,3.444399169921875,-0.9579315185546875,-0.1809539794921875,0.113555908203125
1782845886509404200,3.454404052734375,-0.9662933349609375,-0.182373046875,0.113372802734375
1782845886519409200,3.4644091796875,-0.9690704345703125,-0.1806182861328125,0.111785888671875
1782845886529414100,3.4744140625,-0.9729461669921875,-0.178436279296875,0.108306884765625
1782845886539419100,3.484419189453125,-0.9741973876953125,-0.17718505859375,0.1062469482421875
1782845886549423000,3.494423095703125,-0.971527099609375,-0.1762237548828125,0.1077423095703125
1782845886559428000,3.504427978515625,-0.9674224853515625,-0.178741455078125,0.108184814453125
1782845886569433000,3.51443310546875,-0.9656524658203125,-0.1802978515625,0.10919189453125
1782845886579438300,3.524438232421875,-0.9648284912109375,-0.181854248046875,0.111358642578125
1782845886589443300,3.534443359375,-0.965850830078125,-0.180816650390625,0.1131439208984375
1782845886599448300,3.5444482421875,-0.9697418212890625,-0.1782379150390625,0.11236572265625
1782845886609453300,3.554453369140625,-0.97308349609375,-0.1754150390625,0.1107940673828125
1782845886619458300,3.564458251953125,-0.9775543212890625,-0.1717071533203125,0.1083221435546875
1782845886629463300,3.57446337890625,-0.9773101806640625,-0.172271728515625,0.112091064453125
1782845886639468300,3.58446826171875,-0.974945068359375,-0.1733551025390625,0.11297607421875
1782845886649472000,3.594471923828125,-0.975799560546875,-0.17535400390625,0.1110076904296875
1782845886659477000,3.60447705078125,-0.9765167236328125,-0.1761627197265625,0.1132965087890625
1782845886669482000,3.61448193359375,-0.9738311767578125,-0.178558349609375,0.116851806640625
1782845886679487000,3.624487060546875,-0.9708251953125,-0.1812286376953125,0.1169586181640625
1782845886689492000,3.634491943359375,-0.968048095703125,-0.1838226318359375,0.1146392822265625
1782845886699497000,3.6444970703125,-0.9630279541015625,-0.18267822265625,0.1138763427734375
1782845886709502200,3.654502197265625,-0.95916748046875,-0.1788177490234375,0.1090240478515625
1782845886719507200,3.664507080078125,-0.9602203369140625,-0.1739654541015625,0.107513427734375
1782845886729512200,3.67451220703125,-0.9615936279296875,-0.1724853515625,0.1071319580078125
1782845886739517200,3.68451708984375,-0.961395263671875,-0.1717529296875,0.1079559326171875
1782845886749521000,3.69452099609375,-0.9653778076171875,-0.1718902587890625,0.1095123291015625
1782845886759526000,3.70452587890625,-0.97149658203125,-0.1734161376953125,0.1093597412109375
1782845886769531100,3.71453125,-0.9777069091796875,-0.1736907958984375,0.111480712890625
1782845886779536100,3.7245361328125,-0.9813690185546875,-0.17657470703125,0.11761474609375
1782845886789541000,3.734541015625,-0.98211669921875,-0.178924560546875,0.1182861328125
1782845886799546000,3.744546142578125,-0.9792022705078125,-0.178985595703125,0.11956787109375
1782845886809551000,3.754551025390625,-0.974395751953125,-0.1790313720703125,0.1197509765625
1782845886819556000,3.76455615234375,-0.96563720703125,-0.1802215576171875,0.1201324462890625
1782845886829561000,3.77456103515625,-0.95916748046875,-0.1793060302734375,0.116668701171875
1782845886839566000,3.784566162109375,-0.9550628662109375,-0.177490234375,0.1146240234375
1782845886849570000,3.794570068359375,-0.954132080078125,-0.1759185791015625,0.108673095703125
1782845886859575000,3.804574951171875,-0.9539337158203125,-0.1764984130859375,0.1066741943359375
1782845886869580000,3.814580078125,-0.9572906494140625,-0.178192138671875,0.10791015625
1782845886879585000,3.8245849609375,-0.9640655517578125,-0.177154541015625,0.110687255859375
1782845886889590000,3.834590087890625,-0.972259521484375,-0.1768646240234375,0.1126708984375
1782845886899595000,3.844594970703125,-0.9795989990234375,-0.1749267578125,0.1118316650390625
1782845886909600000,3.85460009765625,-0.9832763671875,-0.1761627197265625,0.1109161376953125
1782845886919605000,3.86460498046875,-0.9822235107421875,-0.177734375,0.110321044921875
1782845886929610000,3.87460986328125,-0.9791107177734375,-0.1759185791015625,0.108978271484375
1782845886939615000,3.884614990234375,-0.9771728515625,-0.174163818359375,0.106109619140625
1782845886949619000,3.894618896484375,-0.9726715087890625,-0.1728668212890625,0.1039276123046875
1782845886959624000,3.9046240234375,-0.96905517578125,-0.171356201171875,0.103485107421875
1782845886969629000,3.91462890625,-0.9654541015625,-0.1738128662109375,0.1061248779296875
1782845886979634000,3.924634033203125,-0.96844482421875,-0.17462158203125,0.1077728271484375
1782845886989639200,3.93463916015625,-0.971282958984375,-0.1737213134765625,0.11181640625
1782845886999644200,3.94464404296875,-0.9753875732421875,-0.1734771728515625,0.1116485595703125
1782845887009649200,3.954649169921875,-0.978759765625,-0.175811767578125,0.1139068603515625
1782845887019654100,3.964654052734375,-0.976715087890625,-0.173980712890625,0.1121063232421875
1782845887029659100,3.9746591796875,-0.972015380859375,-0.17559814453125,0.11383056640625
1782845887039664000,3.9846640625,-0.9649658203125,-0.1732330322265625,0.11358642578125
1782845887049668000,3.994668212890625,-0.958038330078125,-0.173126220703125,0.109527587890625
1782845887059673000,4.004673095703125,-0.95611572265625,-0.171051025390625,0.1059722900390625
1782845887069678000,4.014677978515625,-0.955810546875,-0.1696624755859375,0.103118896484375
1782845887079683000,4.02468310546875,-0.957122802734375,-0.1690673828125,0.1043701171875
1782845887089688000,4.03468798828125,-0.961639404296875,-0.1707305908203125,0.107421875
1782845887099693000,4.044693115234375,-0.969970703125,-0.1686859130859375,0.106658935546875
1782845887109698000,4.054697998046875,-0.9767913818359375,-0.167633056640625,0.1092376708984375
1782845887119703000,4.064703125,-0.9777374267578125,-0.172515869140625,0.1133575439453125
1782845887129708000,4.0747080078125,-0.973846435546875,-0.17767333984375,0.11328125
1782845887139713000,4.084713134765625,-0.9684906005859375,-0.176025390625,0.1119537353515625
1782845887149718000,4.094718017578125,-0.9669036865234375,-0.17327880859375,0.111572265625
1782845887159722000,4.104721923828125,-0.9673004150390625,-0.172149658203125,0.109405517578125
1782845887169727000,4.11472705078125,-0.9692840576171875,-0.1706085205078125,0.1070556640625
1782845887179732000,4.12473193359375,-0.9718780517578125,-0.1699981689453125,0.1033935546875
1782845887189737500,4.134737548828125,-0.977264404296875,-0.168212890625,0.1031036376953125
1782845887199742500,4.144742431640625,-0.9799041748046875,-0.1691131591796875,0.10797119140625
1782845887209747500,4.15474755859375,-0.980926513671875,-0.16998291015625,0.1132049560546875
1782845887219752400,4.16475244140625,-0.97698974609375,-0.1698760986328125,0.114288330078125
1782845887229757400,4.17475732421875,-0.97528076171875,-0.1733245849609375,0.117645263671875
1782845887239762400,4.184762451171875,-0.9761505126953125,-0.175323486328125,0.118194580078125
1782845887249766700,4.1947666015625,-0.9687652587890625,-0.1752777099609375,0.1170806884765625
1782845887259771600,4.204771728515625,-0.962127685546875,-0.1754302978515625,0.1129913330078125
1782845887269776600,4.214776611328125,-0.95654296875,-0.173614501953125,0.107757568359375
1782845887279781600,4.22478173828125,-0.9561920166015625,-0.1722259521484375,0.10614013671875
1782845887289786600,4.23478662109375,-0.9547271728515625,-0.1716156005859375,0.104248046875
1782845887299791600,4.24479150390625,-0.9569091796875,-0.1690216064453125,0.103912353515625
1782845887309796600,4.254796630859375,-0.96343994140625,-0.1687469482421875,0.1045684814453125
1782845887319801600,4.264801513671875,-0.9699859619140625,-0.1700286865234375,0.1050567626953125
1782845887329806600,4.274806640625,-0.9803619384765625,-0.1690673828125,0.1070098876953125
1782845887339811600,4.2848115234375,-0.9884185791015625,-0.1676788330078125,0.1098175048828125
1782845887349815600,4.294815673828125,-0.989532470703125,-0.171722412109375,0.110076904296875
1782845887359820500,4.304820556640625,-0.985321044921875,-0.173828125,0.110137939453125
1782845887369825500,4.314825439453125,-0.9801025390625,-0.17327880859375,0.1069488525390625
1782845887379830500,4.32483056640625,-0.974853515625,-0.171783447265625,0.104949951171875
1782845887389835500,4.33483544921875,-0.9709625244140625,-0.1719512939453125,0.108001708984375
1782845887399840500,4.344840576171875,-0.9686737060546875,-0.17352294921875,0.10919189453125
1782845887409845500,4.354845458984375,-0.9666595458984375,-0.1701202392578125,0.109527587890625
1782845887419850500,4.3648505859375,-0.964935302734375,-0.1665802001953125,0.11029052734375
1782845887429855500,4.37485546875,-0.9668426513671875,-0.1665191650390625,0.1097869873046875
1782845887439860500,4.384860595703125,-0.9661102294921875,-0.16986083984375,0.109283447265625
1782845887449864700,4.39486474609375,-0.9665679931640625,-0.17041015625,0.1107940673828125
1782845887459869700,4.40486962890625,-0.9669036865234375,-0.170928955078125,0.1087646484375
1782845887469874700,4.414874755859375,-0.967315673828125,-0.170379638671875,0.110687255859375
1782845887479879700,4.424879638671875,-0.967498779296875,-0.171356201171875,0.1107635498046875
1782845887489884700,4.434884765625,-0.96917724609375,-0.1733551025390625,0.109588623046875
1782845887499889700,4.4448896484375,-0.9685821533203125,-0.1720428466796875,0.1090240478515625
1782845887509894700,4.454894775390625,-0.9738311767578125,-0.16949462890625,0.1065826416015625
1782845887519899600,4.464899658203125,-0.9763946533203125,-0.1682281494140625,0.1047821044921875
1782845887529904600,4.474904541015625,-0.9788665771484375,-0.1675872802734375,0.1077423095703125
1782845887539909600,4.48490966796875,-0.9806365966796875,-0.1707000732421875,0.108734130859375
1782845887549914600,4.49491455078125,-0.9785308837890625,-0.1686248779296875,0.1105804443359375
1782845887559918600,4.504918701171875,-0.976104736328125,-0.168853759765625,0.108062744140625
1782845887569923600,4.514923583984375,-0.973968505859375,-0.1692962646484375,0.11004638671875
1782845887579928600,4.524928466796875,-0.97039794921875,-0.1721343994140625,0.1119384765625
1782845887589933600,4.53493359375,-0.96685791015625,-0.17303466796875,0.1126861572265625
1782845887599938600,4.5449384765625,-0.9655303955078125,-0.17535400390625,0.1138916015625
1782845887609943600,4.554943603515625,-0.9641876220703125,-0.17413330078125,0.1112060546875
1782845887619948500,4.564948486328125,-0.962432861328125,-0.172393798828125,0.108642578125
1782845887629953500,4.57495361328125,-0.9643402099609375,-0.170654296875,0.1070098876953125
1782845887639958500,4.58495849609375,-0.966033935546875,-0.169036865234375,0.108612060546875
1782845887649962800,4.594962646484375,-0.9663543701171875,-0.169219970703125,0.106903076171875
1782845887659967700,4.6049677734375,-0.96917724609375,-0.1713714599609375,0.10919189453125
1782845887669972700,4.61497265625,-0.9717864990234375,-0.16998291015625,0.1096343994140625
1782845887679977700,4.624977783203125,-0.9729766845703125,-0.170928955078125,0.1091766357421875
1782845887689982700,4.634982666015625,-0.97015380859375,-0.1733245849609375,0.1112823486328125
1782845887699987700,4.64498779296875,-0.9718017578125,-0.17572021484375,0.1092376708984375
1782845887709992700,4.65499267578125,-0.97161865234375,-0.17449951171875,0.10968017578125
1782845887719997700,4.664997802734375,-0.969512939453125,-0.171051025390625,0.108306884765625
1782845887730002700,4.675002685546875,-0.9663238525390625,-0.172271728515625,0.1059417724609375
1782845887740007700,4.685007568359375,-0.964996337890625,-0.171539306640625,0.10125732421875
1782845887750011600,4.69501171875,-0.9653167724609375,-0.1702880859375,0.102783203125
1782845887760016600,4.7050166015625,-0.9700927734375,-0.1696624755859375,0.102783203125
1782845887770021600,4.715021728515625,-0.9779205322265625,-0.169097900390625,0.104827880859375
1782845887780026600,4.725026611328125,-0.9857177734375,-0.1700439453125,0.1071319580078125
1782845887790031600,4.735031494140625,-0.988800048828125,-0.171356201171875,0.1114501953125
1782845887800036600,4.74503662109375,-0.986785888671875,-0.1727294921875,0.1147003173828125
1782845887810041600,4.75504150390625,-0.9774169921875,-0.17449951171875,0.1148834228515625
1782845887820046600,4.765046630859375,-0.968902587890625,-0.177490234375,0.114166259765625
1782845887830051600,4.775051513671875,-0.9606170654296875,-0.1748809814453125,0.112335205078125
1782845887840056600,4.785056640625,-0.958099365234375,-0.173309326171875,0.1087799072265625
1782845887850060800,4.795060791015625,-0.9564666748046875,-0.1740875244140625,0.107330322265625
1782845887860065800,4.805065673828125,-0.9590911865234375,-0.172027587890625,0.10650634765625
1782845887870070800,4.81507080078125,-0.95989990234375,-0.17071533203125,0.1058197021484375
1782845887880075800,4.82507568359375,-0.964569091796875,-0.1707763671875,0.1046142578125
1782845887890080800,4.835080810546875,-0.9674072265625,-0.171905517578125,0.105499267578125
1782845887900085800,4.845085693359375,-0.970306396484375,-0.17376708984375,0.1110382080078125
1782845887910090800,4.8550908203125,-0.975616455078125,-0.174346923828125,0.11151123046875
1782845887920095700,4.865095703125,-0.9801177978515625,-0.17327880859375,0.1114654541015625
1782845887930100700,4.875100830078125,-0.9813232421875,-0.171539306640625,0.110931396484375
1782845887940105700,4.885105712890625,-0.9776763916015625,-0.172149658203125,0.107818603515625
1782845887950109700,4.895109619140625,-0.9765625,-0.1719512939453125,0.1038360595703125
1782845887960114700,4.90511474609375,-0.974639892578125,-0.16998291015625,0.1031036376953125
1782845887970119700,4.91511962890625,-0.9723052978515625,-0.169403076171875,0.1043548583984375
1782845887980124700,4.925124755859375,-0.971160888671875,-0.1728057861328125,0.108856201171875
1782845887990129700,4.935129638671875,-0.9699554443359375,-0.1729736328125,0.111419677734375
1782845888000134700,4.945134765625,-0.9676666259765625,-0.173919677734375,0.1145477294921875
1782845888010139600,4.9551396484375,-0.967071533203125,-0.1737823486328125,0.1144561767578125
1782845888020144600,4.96514453125,-0.9650726318359375,-0.17291259765625,0.114013671875
1782845888030149600,4.975149658203125,-0.9682769775390625,-0.1703948974609375,0.114990234375
1782845888040154600,4.985154541015625,-0.967803955078125,-0.1710662841796875,0.1157684326171875
1782845888050158600,4.99515869140625,-0.9629058837890625,-0.1728668212890625,0.1148529052734375
1782845888060163600,5.00516357421875,-0.9593048095703125,-0.1726837158203125,0.112884521484375
1782845888070168600,5.01516845703125,-0.9592132568359375,-0.171295166015625,0.10943603515625
1782845888080173600,5.025173583984375,-0.96197509765625,-0.1712188720703125,0.108245849609375
1782845888090178600,5.035178466796875,-0.9678955078125,-0.1713104248046875,0.109710693359375
1782845888100183600,5.04518359375,-0.9727630615234375,-0.171173095703125,0.111480712890625
1782845888110188500,5.0551884765625,-0.977813720703125,-0.170989990234375,0.111053466796875
1782845888120193800,5.06519384765625,-0.97906494140625,-0.170623779296875,0.1139984130859375
1782845888130198800,5.07519873046875,-0.9782257080078125,-0.169708251953125,0.112823486328125
1782845888140203800,5.085203857421875,-0.97320556640625,-0.1723785400390625,0.113555908203125
1782845888150207500,5.09520751953125,-0.9666595458984375,-0.1752777099609375,0.111358642578125
1782845888160212500,5.10521240234375,-0.96685791015625,-0.1761932373046875,0.1088104248046875
1782845888170217500,5.115217529296875,-0.9671173095703125,-0.1757354736328125,0.1089324951171875
1782845888180222500,5.125222412109375,-0.969451904296875,-0.1762847900390625,0.104736328125
1782845888190227200,5.135227294921875,-0.97210693359375,-0.173675537109375,0.10491943359375
1782845888200232200,5.145232177734375,-0.9744110107421875,-0.1718902587890625,0.10699462890625
1782845888210237200,5.1552373046875,-0.97454833984375,-0.1684112548828125,0.105743408203125
1782845888220242200,5.1652421875,-0.9754486083984375,-0.1712646484375,0.1067657470703125
1782845888230247200,5.1752470703125,-0.973724365234375,-0.1734619140625,0.1085205078125
1782845888240252200,5.185252197265625,-0.9714508056640625,-0.175628662109375,0.110198974609375
1782845888250256400,5.19525634765625,-0.971343994140625,-0.175140380859375,0.107421875
1782845888260261400,5.205261474609375,-0.96856689453125,-0.1752471923828125,0.1087188720703125
1782845888270266400,5.215266357421875,-0.967071533203125,-0.1759796142578125,0.1092376708984375
1782845888280271400,5.225271240234375,-0.968048095703125,-0.172698974609375,0.1115264892578125
1782845888290276400,5.2352763671875,-0.96270751953125,-0.17218017578125,0.1126251220703125
1782845888300281300,5.24528125,-0.958282470703125,-0.1734771728515625,0.1143646240234375
1782845888310286300,5.255286376953125,-0.957763671875,-0.1725311279296875,0.115631103515625
1782845888320291300,5.265291259765625,-0.9584503173828125,-0.17327880859375,0.1136322021484375
1782845888330296300,5.27529638671875,-0.96429443359375,-0.174713134765625,0.1131591796875
1782845888340301300,5.28530126953125,-0.9703521728515625,-0.1727294921875,0.118194580078125
1782845888350305300,5.29530517578125,-0.9740142822265625,-0.1746368408203125,0.121002197265625
1782845888360310300,5.305310302734375,-0.976776123046875,-0.1744384765625,0.11932373046875
1782845888370315300,5.315315185546875,-0.97222900390625,-0.1729583740234375,0.11712646484375
1782845888380320300,5.3253203125,-0.9652252197265625,-0.17437744140625,0.1185302734375
1782845888390325200,5.3353251953125,-0.961669921875,-0.17596435546875,0.1158599853515625
1782845888400330200,5.345330322265625,-0.9625091552734375,-0.1757659912109375,0.111480712890625
1782845888410335200,5.355335205078125,-0.96490478515625,-0.1726226806640625,0.10992431640625
1782845888420340200,5.36534033203125,-0.96527099609375,-0.171661376953125,0.1088714599609375
1782845888430345200,5.37534521484375,-0.9698333740234375,-0.1710968017578125,0.107666015625
1782845888440349400,5.385349365234375,-0.975311279296875,-0.1686553955078125,0.1120147705078125
1782845888450354400,5.3953544921875,-0.9690399169921875,-0.1674957275390625,0.0983123779296875
1782845888460359400,5.405359375,-0.9779510498046875,-0.171875,0.1097564697265625
1782845888470364400,5.415364501953125,-0.9722900390625,-0.17156982421875,0.112091064453125
1782845888480369400,5.425369384765625,-0.9666748046875,-0.1733856201171875,0.104217529296875
1782845888490374400,5.43537451171875,-0.977935791015625,-0.1700286865234375,0.1252288818359375
1782845888500379400,5.44537939453125,-0.9673614501953125,-0.17864990234375,0.1128082275390625
1782845888510384400,5.45538427734375,-0.9749298095703125,-0.174896240234375,0.11102294921875
1782845888520389400,5.465389404296875,-0.9743499755859375,-0.1666717529296875,0.108428955078125
1782845888530394400,5.475394287109375,-0.976531982421875,-0.1688995361328125,0.1080780029296875
1782845888540398300,5.4853984375,-0.980621337890625,-0.1693267822265625,0.1107635498046875
1782845888550403300,5.4954033203125,-0.9757537841796875,-0.1704254150390625,0.1143341064453125
1782845888560408300,5.505408203125,-0.97320556640625,-0.1725921630859375,0.1173858642578125
1782845888570413300,5.515413330078125,-0.96746826171875,-0.1727447509765625,0.1188201904296875
1782845888580418300,5.525418212890625,-0.9606781005859375,-0.1734466552734375,0.1174468994140625
1782845888590423300,5.53542333984375,-0.955963134765625,-0.173858642578125,0.1152191162109375
1782845888600428300,5.54542822265625,-0.9542388916015625,-0.1732025146484375,0.1119384765625
1782845888610433300,5.555433349609375,-0.95343017578125,-0.17449951171875,0.1100921630859375
1782845888620438300,5.565438232421875,-0.9548492431640625,-0.1721649169921875,0.1068267822265625
1782845888630443300,5.575443359375,-0.960052490234375,-0.1710357666015625,0.102874755859375
1782845888640447500,5.585447509765625,-0.9641876220703125,-0.1694488525390625,0.10321044921875
1782845888650452500,5.595452392578125,-0.9711456298828125,-0.1690673828125,0.100433349609375
1782845888660457500,5.60545751953125,-0.982025146484375,-0.168914794921875,0.104949951171875
1782845888670462500,5.61546240234375,-0.98602294921875,-0.1721343994140625,0.1087799072265625
1782845888680467500,5.625467529296875,-0.9881439208984375,-0.17767333984375,0.111480712890625
1782845888690472400,5.635472412109375,-0.9855499267578125,-0.17694091796875,0.11309814453125
1782845888700477400,5.6454775390625,-0.9824676513671875,-0.1763763427734375,0.1140594482421875
1782845888710482400,5.655482421875,-0.9792327880859375,-0.1735076904296875,0.1146087646484375
1782845888720487400,5.6654873046875,-0.9754180908203125,-0.171234130859375,0.113128662109375
1782845888730492400,5.675492431640625,-0.970947265625,-0.1703948974609375,0.109893798828125
1782845888740496400,5.685496337890625,-0.9664459228515625,-0.1686248779296875,0.11163330078125
1782845888750501400,5.69550146484375,-0.961395263671875,-0.16851806640625,0.1116485595703125
1782845888760506400,5.70550634765625,-0.959442138671875,-0.16998291015625,0.11004638671875
1782845888770511400,5.715511474609375,-0.959014892578125,-0.170135498046875,0.111846923828125
1782845888780516400,5.725516357421875,-0.95953369140625,-0.171478271484375,0.112518310546875
1782845888790521300,5.735521240234375,-0.96490478515625,-0.1719818115234375,0.1133270263671875
1782845888800526300,5.7455263671875,-0.9708251953125,-0.1738128662109375,0.1152496337890625
1782845888810531300,5.75553125,-0.97308349609375,-0.1731719970703125,0.1134490966796875
1782845888820536300,5.765536376953125,-0.9758453369140625,-0.1703643798828125,0.11114501953125
1782845888830541300,5.775541259765625,-0.9798431396484375,-0.1700286865234375,0.1075592041015625
1782845888840545500,5.785545654296875,-0.9820709228515625,-0.170928955078125,0.10650634765625
1782845888850550500,5.795550537109375,-0.9799346923828125,-0.1731109619140625,0.1060943603515625
1782845888860555500,5.805555419921875,-0.9781951904296875,-0.1724090576171875,0.10784912109375
1782845888870560500,5.815560546875,-0.975128173828125,-0.1705474853515625,0.1087799072265625
1782845888880565500,5.8255654296875,-0.9695587158203125,-0.170257568359375,0.110260009765625
1782845888890570500,5.835570556640625,-0.963653564453125,-0.1714935302734375,0.1108245849609375
1782845888900575500,5.845575439453125,-0.96240234375,-0.171478271484375,0.1101837158203125
1782845888910580500,5.85558056640625,-0.96600341796875,-0.17376708984375,0.109893798828125
1782845888920585500,5.86558544921875,-0.971221923828125,-0.173187255859375,0.113250732421875
1782845888930589400,5.87558935546875,-0.97479248046875,-0.1725006103515625,0.1148529052734375
1782845888940594400,5.885594482421875,-0.9780120849609375,-0.17291259765625,0.116851806640625
1782845888950599400,5.895599365234375,-0.9749298095703125,-0.1708984375,0.11492919921875
1782845888960604400,5.9056044921875,-0.97021484375,-0.16851806640625,0.113861083984375
1782845888970609400,5.915609375,-0.9648284912109375,-0.167205810546875,0.1119232177734375
1782845888980614400,5.925614501953125,-0.9595794677734375,-0.1703948974609375,0.113372802734375
1782845888990619400,5.935619384765625,-0.952880859375,-0.1725921630859375,0.1143951416015625
1782845889000624400,5.945624267578125,-0.949859619140625,-0.17315673828125,0.113006591796875
1782845889010629400,5.95562939453125,-0.9556732177734375,-0.17364501953125,0.11126708984375
1782845889020634400,5.96563427734375,-0.962188720703125,-0.170501708984375,0.1107025146484375
1782845889030638300,5.975638427734375,-0.9670257568359375,-0.171630859375,0.11102294921875
1782845889040643300,5.985643310546875,-0.974884033203125,-0.172119140625,0.110992431640625
1782845889050648600,5.995648681640625,-0.9792938232421875,-0.1719818115234375,0.1115264892578125
1782845889060653600,6.005653564453125,-0.981536865234375,-0.170806884765625,0.113311767578125
1782845889070658600,6.015658447265625,-0.9799652099609375,-0.1724700927734375,0.111968994140625
1782845889080663600,6.02566357421875,-0.9774169921875,-0.1717071533203125,0.1094512939453125
1782845889090668500,6.03566845703125,-0.974395751953125,-0.1725311279296875,0.1103363037109375
1782845889100673500,6.045673583984375,-0.96929931640625,-0.1729278564453125,0.1060333251953125
1782845889110678500,6.055678466796875,-0.9688568115234375,-0.1693878173828125,0.10333251953125
1782845889120683500,6.06568359375,-0.97088623046875,-0.170501708984375,0.103271484375
1782845889130687200,6.075687255859375,-0.9716949462890625,-0.1723785400390625,0.1072998046875
1782845889140692200,6.085692138671875,-0.9688568115234375,-0.1723480224609375,0.1088409423828125
1782845889150697500,6.095697509765625,-0.96405029296875,-0.1737213134765625,0.1106414794921875
1782845889160702500,6.105702392578125,-0.9604339599609375,-0.1749267578125,0.1097564697265625
1782845889170707500,6.11570751953125,-0.959808349609375,-0.174591064453125,0.108612060546875
1782845889180712400,6.12571240234375,-0.9627532958984375,-0.1736297607421875,0.10650634765625
1782845889190717200,6.13571728515625,-0.9645538330078125,-0.1737213134765625,0.1071014404296875
1782845889200722200,6.14572216796875,-0.96649169921875,-0.1770782470703125,0.10504150390625
1782845889210727200,6.15572705078125,-0.970306396484375,-0.1766204833984375,0.105072021484375
1782845889220731100,6.165731201171875,-0.9727783203125,-0.174468994140625,0.1041412353515625
1782845889230736100,6.175736083984375,-0.97772216796875,-0.169952392578125,0.1010284423828125
1782845889240741400,6.185741455078125,-0.981689453125,-0.1685943603515625,0.1020355224609375
1782845889250746400,6.195746337890625,-0.9881134033203125,-0.167694091796875,0.102264404296875
1782845889260751400,6.20575146484375,-0.9932861328125,-0.1684112548828125,0.1057586669921875
1782845889270756400,6.21575634765625,-0.99017333984375,-0.1698150634765625,0.1082763671875
1782845889280761300,6.22576123046875,-0.984222412109375,-0.1696319580078125,0.1139984130859375
1782845889290766300,6.235766357421875,-0.9748382568359375,-0.17218017578125,0.118408203125
1782845889300771300,6.245771240234375,-0.959625244140625,-0.17523193359375,0.11578369140625
1782845889310776300,6.2557763671875,-0.951507568359375,-0.1743927001953125,0.1175384521484375
1782845889320780000,6.265780029296875,-0.9481964111328125,-0.1748809814453125,0.11444091796875
1782845889330785000,6.275784912109375,-0.9510040283203125,-0.1689300537109375,0.11358642578125
1782845889340790000,6.2857900390625,-0.9541015625,-0.167938232421875,0.1116943359375
1782845889350795000,6.295794921875,-0.9571685791015625,-0.165679931640625,0.1105499267578125
1782845889360800000,6.305800048828125,-0.9626007080078125,-0.16619873046875,0.11029052734375
1782845889370805000,6.315804931640625,-0.9727630615234375,-0.1675872802734375,0.107574462890625
1782845889380810200,6.325810302734375,-0.979095458984375,-0.167022705078125,0.10821533203125
1782845889390815200,6.335815185546875,-0.9818878173828125,-0.17120361328125,0.106689453125
1782845889400820200,6.3458203125,-0.9807281494140625,-0.175628662109375,0.1054229736328125
1782845889410825200,6.3558251953125,-0.9783935546875,-0.17523193359375,0.1010284423828125
1782845889420829200,6.3658291015625,-0.97918701171875,-0.1729736328125,0.099761962890625
1782845889430834200,6.375834228515625,-0.9800262451171875,-0.1719818115234375,0.1011199951171875
1782845889440839200,6.385839111328125,-0.9826507568359375,-0.173919677734375,0.105377197265625
1782845889450844200,6.39584423828125,-0.979766845703125,-0.170654296875,0.1056060791015625
1782845889460849200,6.40584912109375,-0.9784393310546875,-0.16986083984375,0.1021270751953125
1782845889470854100,6.415854248046875,-0.9780731201171875,-0.1698150634765625,0.101593017578125
1782845889480859100,6.425859130859375,-0.975189208984375,-0.1686248779296875,0.1045989990234375
1782845889490864000,6.435864013671875,-0.9711151123046875,-0.1706085205078125,0.1064910888671875
1782845889500869000,6.445869140625,-0.9690399169921875,-0.1717071533203125,0.107086181640625
1782845889510874000,6.4558740234375,-0.966033935546875,-0.1724395751953125,0.11138916015625
1782845889520878000,6.465878173828125,-0.9637603759765625,-0.17535400390625,0.1184539794921875
1782845889530883000,6.475883056640625,-0.9639129638671875,-0.1770172119140625,0.120513916015625
1782845889540888000,6.48588818359375,-0.9618072509765625,-0.1746673583984375,0.1213226318359375
1782845889550893000,6.49589306640625,-0.959320068359375,-0.173187255859375,0.12078857421875
1782845889560898000,6.50589794921875,-0.9520416259765625,-0.1705780029296875,0.117889404296875
1782845889570903000,6.515903076171875,-0.948577880859375,-0.1696624755859375,0.112060546875
1782845889580908000,6.525907958984375,-0.9488983154296875,-0.1669769287109375,0.1072998046875
1782845889590913000,6.5359130859375,-0.9518585205078125,-0.16705322265625,0.105316162109375
1782845889600918000,6.54591796875,-0.960113525390625,-0.1657257080078125,0.10174560546875
1782845889610922000,6.555921875,-0.967803955078125,-0.1679534912109375,0.1033172607421875
1782845889620927000,6.565927001953125,-0.97491455078125,-0.171417236328125,0.1050262451171875
1782845889630932000,6.575931884765625,-0.977569580078125,-0.1758270263671875,0.105377197265625
1782845889640937200,6.585937255859375,-0.97760009765625,-0.1759033203125,0.104095458984375
1782845889650942200,6.595942138671875,-0.976806640625,-0.1757354736328125,0.104522705078125
1782845889660947200,6.605947265625,-0.9761199951171875,-0.1737060546875,0.1043243408203125
1782845889670952200,6.6159521484375,-0.9813232421875,-0.1701507568359375,0.10137939453125
1782845889680957200,6.625957275390625,-0.987335205078125,-0.168304443359375,0.1013946533203125
1782845889690962200,6.635962158203125,-0.990203857421875,-0.1716766357421875,0.1033935546875
1782845889700967200,6.64596728515625,-0.9906463623046875,-0.173065185546875,0.1066741943359375
1782845889710971100,6.65597119140625,-0.9860382080078125,-0.1737518310546875,0.109344482421875
1782845889720976100,6.66597607421875,-0.9832763671875,-0.1745147705078125,0.11383056640625
1782845889730981000,6.675981201171875,-0.97467041015625,-0.17755126953125,0.118927001953125
1782845889740986000,6.685986083984375,-0.9664154052734375,-0.1796875,0.1204833984375
1782845889750991000,6.6959912109375,-0.957366943359375,-0.1771392822265625,0.1171112060546875
1782845889760996000,6.70599609375,-0.9514617919921875,-0.174835205078125,0.1125946044921875
1782845889771001000,6.7160009765625,-0.95013427734375,-0.172515869140625,0.10693359375
1782845889781006000,6.726006103515625,-0.9510040283203125,-0.17236328125,0.1024169921875
1782845889791011000,6.736010986328125,-0.9543914794921875,-0.169464111328125,0.1013336181640625
1782845889801015000,6.74601513671875,-0.9584503173828125,-0.1693115234375,0.09954833984375
1782845889811020000,6.75602001953125,-0.966339111328125,-0.167877197265625,0.0990142822265625
1782845889821025000,6.76602490234375,-0.9701385498046875,-0.1686248779296875,0.1016845703125
1782845889831030000,6.776030029296875,-0.971710205078125,-0.17205810546875,0.1053466796875
1782845889841035000,6.786034912109375,-0.9790191650390625,-0.17333984375,0.1100006103515625
1782845889851040000,6.7960400390625,-0.9824676513671875,-0.1745452880859375,0.108123779296875
1782845889861045200,6.806045166015625,-0.9893951416015625,-0.174346923828125,0.107391357421875
1782845889871050200,6.81605029296875,-0.9892120361328125,-0.1746063232421875,0.109283447265625
1782845889881055200,6.82605517578125,-0.9877471923828125,-0.1746063232421875,0.10809326171875
1782845889891060200,6.836060302734375,-0.98248291015625,-0.1710968017578125,0.107818603515625
1782845889901064200,6.846064208984375,-0.977813720703125,-0.1690673828125,0.105712890625
1782845889911069200,6.856069091796875,-0.9727325439453125,-0.169342041015625,0.103851318359375
1782845889921074200,6.86607421875,-0.9693603515625,-0.170562744140625,0.1020660400390625
1782845889931079200,6.8760791015625,-0.96356201171875,-0.169708251953125,0.1054534912109375
1782845889941084200,6.886084228515625,-0.96173095703125,-0.1717071533203125,0.107452392578125
1782845889951089200,6.896089111328125,-0.9592132568359375,-0.1716156005859375,0.1087493896484375
1782845889961094100,6.90609423828125,-0.9543914794921875,-0.1724853515625,0.1084747314453125
1782845889971099100,6.91609912109375,-0.9530029296875,-0.1728363037109375,0.10626220703125
1782845889981104000,6.926104248046875,-0.9525909423828125,-0.17279052734375,0.105072021484375
1782845889991109000,6.936109130859375,-0.9580841064453125,-0.171051025390625,0.10333251953125
1782845890001113000,6.946113037109375,-0.9657135009765625,-0.1684417724609375,0.1025848388671875
1782845890011118000,6.9561181640625,-0.968597412109375,-0.16705322265625,0.1048431396484375
1782845890021123000,6.966123046875,-0.9710540771484375,-0.1671905517578125,0.1043243408203125
1782845890031128000,6.976128173828125,-0.9724273681640625,-0.1697540283203125,0.103973388671875
1782845890041133000,6.986133056640625,-0.975555419921875,-0.1736297607421875,0.1078338623046875
1782845890051138000,6.996137939453125,-0.9754486083984375,-0.1760711669921875,0.109283447265625
1782845890061143000,7.00614306640625,-0.975250244140625,-0.1766815185546875,0.112091064453125
1782845890071148000,7.01614794921875,-0.9729156494140625,-0.175506591796875,0.1122283935546875
1782845890081153300,7.0261533203125,-0.969451904296875,-0.174530029296875,0.111846923828125
1782845890091157200,7.0361572265625,-0.96710205078125,-0.173004150390625,0.107177734375
1782845890101162200,7.046162353515625,-0.965484619140625,-0.172210693359375,0.1049652099609375
1782845890111167200,7.056167236328125,-0.969757080078125,-0.17205810546875,0.10565185546875
1782845890121172200,7.066172119140625,-0.9801177978515625,-0.1695709228515625,0.1053924560546875
1782845890131177200,7.07617724609375,-0.9923553466796875,-0.1703643798828125,0.1096954345703125
1782845890141182200,7.08618212890625,-0.994659423828125,-0.171356201171875,0.115020751953125
1782845890151187200,7.096187255859375,-0.987518310546875,-0.17620849609375,0.1192626953125
1782845890161192200,7.106192138671875,-0.9758148193359375,-0.1784515380859375,0.1162109375
1782845890171197200,7.116197265625,-0.959320068359375,-0.1776885986328125,0.114349365234375
1782845890181202200,7.1262021484375,-0.9471435546875,-0.1787567138671875,0.109375
1782845890191207200,7.136207275390625,-0.9423828125,-0.177337646484375,0.1051483154296875
1782845890201212200,7.146212158203125,-0.944915771484375,-0.1757354736328125,0.1023712158203125
1782845890211217200,7.156217041015625,-0.9524688720703125,-0.1714630126953125,0.09967041015625
1782845890221222100,7.16622216796875,-0.962860107421875,-0.167388916015625,0.1009521484375
1782845890231227100,7.17622705078125,-0.97247314453125,-0.16888427734375,0.10198974609375
1782845890241232100,7.186232177734375,-0.9804534912109375,-0.168365478515625,0.10272216796875
1782845890251237000,7.196237060546875,-0.98614501953125,-0.1707916259765625,0.1067047119140625
1782845890261242000,7.2062421875,-0.9869232177734375,-0.173736572265625,0.11114501953125
1782845890271247400,7.216247314453125,-0.9827117919921875,-0.175750732421875,0.1114349365234375
1782845890281252400,7.22625244140625,-0.976043701171875,-0.1774139404296875,0.1082611083984375
1782845890291256000,7.236256103515625,-0.9716033935546875,-0.1775970458984375,0.1070709228515625
1782845890301261300,7.24626123046875,-0.97259521484375,-0.175262451171875,0.102447509765625
1782845890311266300,7.256266357421875,-0.9741058349609375,-0.1730194091796875,0.1022491455078125
1782845890321271300,7.266271240234375,-0.97467041015625,-0.1703948974609375,0.1027374267578125
1782845890331276300,7.2762763671875,-0.9760589599609375,-0.1671600341796875,0.1055755615234375
1782845890341281300,7.28628125,-0.974029541015625,-0.1678619384765625,0.10760498046875
1782845890351286300,7.296286376953125,-0.9706573486328125,-0.16925048828125,0.1109771728515625
1782845890361291300,7.306291259765625,-0.9645538330078125,-0.173126220703125,0.112762451171875
1782845890371296300,7.316296142578125,-0.9596405029296875,-0.1767120361328125,0.1123199462890625
1782845890381300200,7.32630029296875,-0.959503173828125,-0.1766815185546875,0.1115570068359375
1782845890391305200,7.33630517578125,-0.96038818359375,-0.175079345703125,0.110595703125
1782845890401310200,7.346310302734375,-0.960845947265625,-0.172515869140625,0.109222412109375
1782845890411315200,7.356315185546875,-0.961761474609375,-0.1700897216796875,0.1064605712890625
1782845890421320200,7.3663203125,-0.9665069580078125,-0.1692962646484375,0.10308837890625
1782845890431325200,7.3763251953125,-0.970306396484375,-0.168212890625,0.10675048828125
1782845890441330200,7.386330078125,-0.9729156494140625,-0.1703643798828125,0.107879638671875
1782845890451335200,7.396335205078125,-0.97607421875,-0.1728668212890625,0.112091064453125
1782845890461340200,7.406340087890625,-0.975921630859375,-0.1742706298828125,0.1154632568359375
1782845890471345200,7.41634521484375,-0.97412109375,-0.174285888671875,0.11572265625
1782845890481349000,7.42634912109375,-0.9755859375,-0.1735687255859375,0.115692138671875
1782845890491354000,7.43635400390625,-0.97186279296875,-0.1735382080078125,0.1151123046875
1782845890501359000,7.446359130859375,-0.9659423828125,-0.1735382080078125,0.1131744384765625
1782845890511364000,7.456364013671875,-0.9606170654296875,-0.172454833984375,0.109161376953125
1782845890521369300,7.466369384765625,-0.9582977294921875,-0.1715850830078125,0.1063385009765625
1782845890531374300,7.476374267578125,-0.9595489501953125,-0.1699676513671875,0.1054229736328125
1782845890541379300,7.48637939453125,-0.96588134765625,-0.1719512939453125,0.10595703125
1782845890551384300,7.49638427734375,-0.9692535400390625,-0.1739349365234375,0.10955810546875
1782845890561389300,7.506389404296875,-0.97491455078125,-0.1727447509765625,0.1107635498046875
1782845890571393300,7.516393310546875,-0.98046875,-0.17181396484375,0.108673095703125
1782845890581398300,7.526398193359375,-0.9815673828125,-0.1714630126953125,0.1092071533203125
1782845890591403300,7.5364033203125,-0.9788055419921875,-0.17425537109375,0.1102447509765625
1782845890601408300,7.546408203125,-0.978363037109375,-0.175567626953125,0.11065673828125
1782845890611413200,7.556413330078125,-0.972991943359375,-0.174591064453125,0.10882568359375
1782845890621418200,7.566418212890625,-0.96893310546875,-0.17279052734375,0.107330322265625
1782845890631423200,7.57642333984375,-0.9644927978515625,-0.1726531982421875,0.1063385009765625
1782845890641428200,7.58642822265625,-0.96124267578125,-0.1713104248046875,0.107879638671875
1782845890651433200,7.59643310546875,-0.9604034423828125,-0.1680450439453125,0.1093902587890625
1782845890661438200,7.606438232421875,-0.9568634033203125,-0.16912841796875,0.109771728515625
1782845890671442200,7.616442138671875,-0.95916748046875,-0.1692657470703125,0.1111297607421875
1782845890681447200,7.626447265625,-0.96014404296875,-0.169647216796875,0.1121673583984375
1782845890691452200,7.6364521484375,-0.9634857177734375,-0.1713714599609375,0.1124725341796875
1782845890701457200,7.64645703125,-0.969146728515625,-0.1726226806640625,0.112518310546875
1782845890711462100,7.656462158203125,-0.973785400390625,-0.17205810546875,0.111114501953125
1782845890721467100,7.666467041015625,-0.9796142578125,-0.17120361328125,0.1096343994140625
1782845890731472100,7.67647216796875,-0.9829254150390625,-0.171661376953125,0.1101226806640625
1782845890741477400,7.686477294921875,-0.9827117919921875,-0.170623779296875,0.112640380859375
1782845890751482400,7.696482421875,-0.977996826171875,-0.1716766357421875,0.1095733642578125
1782845890761486300,7.706486328125,-0.9731903076171875,-0.1718292236328125,0.108245849609375
1782845890771491300,7.7164912109375,-0.967864990234375,-0.1707611083984375,0.1076812744140625
1782845890781496300,7.726496337890625,-0.96429443359375,-0.1727142333984375,0.1096954345703125
1782845890791501300,7.736501220703125,-0.9630279541015625,-0.175384521484375,0.1092071533203125
1782845890801506300,7.74650634765625,-0.9600677490234375,-0.17376708984375,0.11083984375
1782845890811511300,7.75651123046875,-0.9575347900390625,-0.1738433837890625,0.1114044189453125
1782845890821516300,7.766516357421875,-0.9565277099609375,-0.1719207763671875,0.1095123291015625
1782845890831521300,7.776521240234375,-0.9621734619140625,-0.1679840087890625,0.1051483154296875
1782845890841526300,7.7865263671875,-0.967987060546875,-0.167724609375,0.1042633056640625
1782845890851530200,7.7965302734375,-0.972412109375,-0.1690826416015625,0.104705810546875
1782845890861535200,7.80653515625,-0.98028564453125,-0.1691741943359375,0.102783203125
1782845890871540200,7.816540283203125,-0.9850921630859375,-0.1696319580078125,0.1056671142578125
1782845890881545200,7.826545166015625,-0.989990234375,-0.1701507568359375,0.1058807373046875
1782845890891550200,7.83655029296875,-0.99310302734375,-0.17169189453125,0.1092071533203125
1782845890901555200,7.84655517578125,-0.9899444580078125,-0.1707611083984375,0.111907958984375
1782845890911560200,7.856560302734375,-0.9825592041015625,-0.168243408203125,0.113006591796875
1782845890921565200,7.866565185546875,-0.9748077392578125,-0.1707763671875,0.1142730712890625
1782845890931570200,7.876570068359375,-0.96295166015625,-0.170501708984375,0.1157073974609375
1782845890941575200,7.8865751953125,-0.9547119140625,-0.1704254150390625,0.113433837890625
1782845890951579400,7.896579345703125,-0.949371337890625,-0.169525146484375,0.1118621826171875
1782845890961584400,7.90658447265625,-0.953521728515625,-0.1701202392578125,0.108856201171875
1782845890971589400,7.91658935546875,-0.9619598388671875,-0.1679534912109375,0.108489990234375
1782845890981594400,7.926594482421875,-0.9680938720703125,-0.167022705078125,0.1107635498046875
1782845890991599400,7.936599365234375,-0.9741058349609375,-0.1669464111328125,0.1119842529296875
1782845891001604400,7.946604248046875,-0.97454833984375,-0.16741943359375,0.11199951171875
1782845891011609300,7.956609375,-0.9724273681640625,-0.167388916015625,0.1109161376953125
1782845891021614300,7.9666142578125,-0.9670257568359375,-0.1678314208984375,0.1142120361328125
1782845891031619300,7.976619384765625,-0.967742919921875,-0.1690673828125,0.1094512939453125
1782845891041623300,7.986623291015625,-0.9676666259765625,-0.1694488525390625,0.1082916259765625
1782845891051628300,7.996628173828125,-0.970550537109375,-0.168426513671875,0.1071929931640625
1782845891061633300,8.00663330078125,-0.97308349609375,-0.166900634765625,0.106475830078125
1782845891071638300,8.01663818359375,-0.9783172607421875,-0.1662750244140625,0.1038970947265625
1782845891081643300,8.026643310546875,-0.9810943603515625,-0.16436767578125,0.1050567626953125
1782845891091648300,8.036648193359374,-0.98260498046875,-0.1673583984375,0.1089324951171875
1782845891101653200,8.0466533203125,-0.98358154296875,-0.16778564453125,0.1132354736328125
1782845891111658200,8.056658203125,-0.98260498046875,-0.1680755615234375,0.115447998046875
1782845891121663200,8.066663330078125,-0.9811859130859375,-0.168731689453125,0.114105224609375
1782845891131668200,8.076668212890626,-0.977996826171875,-0.1664276123046875,0.113983154296875
1782845891141672400,8.08667236328125,-0.9691009521484375,-0.166778564453125,0.114166259765625
1782845891151677400,8.096677490234375,-0.96380615234375,-0.164093017578125,0.108642578125
1782845891161682400,8.106682373046874,-0.9615325927734375,-0.1646575927734375,0.109405517578125
1782845891171687400,8.1166875,-0.9575958251953125,-0.1666412353515625,0.109283447265625
1782845891181692400,8.1266923828125,-0.9580535888671875,-0.16851806640625,0.113861083984375
1782845891191696400,8.1366962890625,-0.9581451416015625,-0.1672821044921875,0.11395263671875
1782845891201701400,8.146701416015626,-0.9593505859375,-0.1681365966796875,0.1168975830078125
1782845891211706400,8.156706298828125,-0.9651031494140625,-0.166534423828125,0.1177978515625
1782845891221711400,8.16671142578125,-0.968994140625,-0.1650238037109375,0.1170806884765625
1782845891231715300,8.17671533203125,-0.9763336181640625,-0.1648712158203125,0.1163787841796875
1782845891241720300,8.18672021484375,-0.9761199951171875,-0.16546630859375,0.1177215576171875
1782845891251725300,8.196725341796874,-0.9766845703125,-0.1659698486328125,0.1156768798828125
1782845891261730600,8.20673046875,-0.97650146484375,-0.1670379638671875,0.116058349609375
1782845891271735600,8.216735595703126,-0.9726409912109375,-0.1687469482421875,0.113861083984375
1782845891281740500,8.226740478515625,-0.9728851318359375,-0.16851806640625,0.10906982421875
1782845891291745500,8.23674560546875,-0.9732208251953125,-0.1675567626953125,0.1097259521484375
1782845891301750500,8.24675048828125,-0.9734649658203125,-0.1695098876953125,0.1112060546875
1782845891311755500,8.256755615234376,-0.972808837890625,-0.1695404052734375,0.113433837890625
1782845891321760500,8.266760498046875,-0.97344970703125,-0.1694488525390625,0.1136322021484375
1782845891331764500,8.276764404296875,-0.974853515625,-0.166961669921875,0.113372802734375
1782845891341769500,8.28676953125,-0.971435546875,-0.169677734375,0.111114501953125
1782845891351774500,8.2967744140625,-0.966217041015625,-0.169921875,0.1111602783203125
1782845891361779500,8.306779541015626,-0.9608917236328125,-0.1695556640625,0.10797119140625
1782845891371784400,8.316784423828125,-0.960205078125,-0.1692047119140625,0.1035614013671875
1782845891381789400,8.32678955078125,-0.963470458984375,-0.16729736328125,0.101898193359375
1782845891391794400,8.33679443359375,-0.962890625,-0.1666412353515625,0.1031494140625
1782845891401799400,8.34679931640625,-0.964324951171875,-0.16827392578125,0.104217529296875
1782845891411804400,8.356804443359374,-0.9688568115234375,-0.16729736328125,0.1040802001953125
1782845891421808400,8.366808349609375,-0.975982666015625,-0.167633056640625,0.1061248779296875
1782845891431813400,8.3768134765625,-0.98046875,-0.1694488525390625,0.1109619140625
1782845891441818400,8.386818359375,-0.9846038818359375,-0.1703033447265625,0.115386962890625
1782845891451823400,8.3968232421875,-0.9853363037109375,-0.1682586669921875,0.1176910400390625
1782845891461828400,8.406828369140625,-0.980316162109375,-0.1681976318359375,0.117279052734375
1782845891471833300,8.416833251953125,-0.9775238037109375,-0.16741943359375,0.1169891357421875
1782845891481838600,8.426838623046875,-0.97259521484375,-0.166595458984375,0.1141357421875
1782845891491843600,8.436843505859375,-0.966644287109375,-0.1645660400390625,0.1123046875
1782845891501848600,8.4468486328125,-0.9641876220703125,-0.163543701171875,0.1140594482421875
1782845891511852500,8.4568525390625,-0.96136474609375,-0.1641998291015625,0.1136016845703125
1782845891521857500,8.466857421875,-0.9589691162109375,-0.1662445068359375,0.11419677734375
1782845891531862500,8.476862548828125,-0.9602203369140625,-0.165557861328125,0.1139068603515625
1782845891541867500,8.486867431640626,-0.96221923828125,-0.1676177978515625,0.114593505859375
1782845891551872500,8.49687255859375,-0.9617462158203125,-0.170074462890625,0.11395263671875
1782845891561877500,8.50687744140625,-0.9641571044921875,-0.1705169677734375,0.1128387451171875
1782845891571882500,8.516882568359375,-0.9675750732421875,-0.1689605712890625,0.1087646484375
1782845891581887500,8.526887451171875,-0.974090576171875,-0.166107177734375,0.1082916259765625
1782845891591892500,8.536892578125,-0.9765167236328125,-0.1653594970703125,0.1070404052734375
1782845891601897500,8.5468974609375,-0.9793853759765625,-0.1660003662109375,0.1065673828125
1782845891611901200,8.556901123046876,-0.981201171875,-0.165252685546875,0.1067352294921875
1782845891621906200,8.56690625,-0.9840087890625,-0.16571044921875,0.1082305908203125
1782845891631911200,8.5769111328125,-0.9832611083984375,-0.167449951171875,0.1105804443359375
1782845891641916200,8.586916259765625,-0.9832916259765625,-0.1692657470703125,0.1125946044921875
1782845891651921400,8.59692138671875,-0.9811248779296875,-0.169158935546875,0.114715576171875
1782845891661926400,8.606926513671874,-0.9775238037109375,-0.170196533203125,0.1137542724609375
1782845891671931400,8.616931396484375,-0.9743499755859375,-0.16937255859375,0.1136322021484375
1782845891681936400,8.626936279296874,-0.9797515869140625,-0.1596832275390625,0.1100921630859375
1782845891691941400,8.63694140625,-0.94012451171875,-0.15625,0.108062744140625
1782845891701945300,8.6469453125,-0.9333038330078125,-0.175750732421875,0.1101531982421875
1782845891711950300,8.656950439453125,-0.9367218017578125,-0.183990478515625,0.130279541015625
1782845891721955300,8.666955322265625,-0.9662017822265625,-0.167938232421875,0.131683349609375
1782845891731960300,8.676960205078124,-0.982421875,-0.162200927734375,0.1132659912109375
1782845891741965300,8.68696533203125,-0.972503662109375,-0.164337158203125,0.1067962646484375
1782845891751970300,8.69697021484375,-0.9697265625,-0.16632080078125,0.109130859375
1782845891761975300,8.706975341796875,-0.968170166015625,-0.1690826416015625,0.1076812744140625
1782845891771980300,8.716980224609374,-0.9744720458984375,-0.1705474853515625,0.109619140625
