time,seconds_elapsed,z,y,x
1782845883122748200,0.067748046875,-0.00464641721919179,-0.008160990662872791,-0.0007009439868852496
1782845883132753200,0.077753173828125,-0.005927397403866053,-0.008982043713331223,0.006679208017885685
1782845883142758100,0.087758056640625,-0.009789513424038887,-0.004110322799533606,0.02165895700454712
1782845883152763100,0.09776318359375,-0.011166367679834366,-0.007071491796523333,0.03394651412963867
1782845883162767000,0.10776708984375,-0.013707556761801243,-0.01128035131841898,0.044132839888334274
1782845883172772000,0.117772216796875,-0.017708422616124153,-0.009514675475656986,0.04183053597807884
1782845883182776600,0.127776611328125,-0.022649385035037994,-0.00737402681261301,0.03337579965591431
1782845883192781600,0.137781494140625,-0.024448351934552193,-0.00577932596206665,0.023015836253762245
1782845883202786600,0.14778662109375,-0.019930565729737282,-0.007496798411011696,0.010001501068472862
1782845883212791800,0.157791748046875,-0.021762287244200706,-0.003668504301458597,-0.0051593417301774025
1782845883222796800,0.167796875,-0.019267437979578972,-0.003637611633166671,-0.012539227493107319
1782845883232801800,0.1778017578125,-0.018676215782761574,-0.008116782642900944,-0.01776142045855522
1782845883242806800,0.187806884765625,-0.017117468640208244,-0.007208644412457943,-0.020252807065844536
1782845883252810800,0.197810791015625,-0.01624475046992302,-0.0023097596131265163,-0.017943579703569412
1782845883262815700,0.207815673828125,-0.015153919346630573,-0.004262122791260481,-0.008890963159501553
1782845883272820700,0.21782080078125,-0.009337308816611767,-0.004767058417201042,-0.0012282498646527529
1782845883282825700,0.22782568359375,-0.003448793664574623,-0.003288471372798085,0.0034677020739763975
1782845883292830700,0.237830810546875,0.004930309951305389,-0.003206712193787098,0.006402771919965744
1782845883302835700,0.247835693359375,0.013006879016757011,0.004131628200411797,0.004249339923262596
1782845883312840700,0.2578408203125,0.013626862317323685,-0.00003009372085216455,0.00526560191065073
1782845883322845700,0.267845703125,0.02081446722149849,-0.0018583538476377726,-0.002121740486472845
1782845883332850700,0.2778505859375,0.020713001489639282,-0.0067910607904195786,-0.009008941240608692
1782845883342854700,0.287854736328125,0.019395003095269203,-0.007192665245383978,-0.015398929826915264
1782845883352859600,0.297859619140625,0.02149011194705963,-0.007165235001593828,-0.020230969414114952
1782845883362864600,0.30786474609375,0.01932203210890293,-0.005474660079926252,-0.02118811011314392
1782845883372869600,0.31786962890625,0.02154630422592163,-0.005461877211928368,-0.02112366072833538
1782845883382874600,0.32787451171875,0.0216581579297781,0.000007456851108145202,-0.020199278369545937
1782845883392879600,0.337879638671875,0.019686885178089142,0.00245090713724494,-0.015543007291853428
1782845883402884600,0.347884521484375,0.023570839315652847,-0.0019299928098917007,-0.009602293372154236
1782845883412889600,0.3578896484375,0.02305152267217636,-0.004022971261292696,-0.008334362879395485
1782845883422894600,0.36789453125,0.026074742898344994,-0.005890912376344204,-0.010839331895112991
1782845883432898800,0.37789892578125,0.0219108909368515,-0.0008729841792955995,-0.008325573988258839
1782845883442903800,0.38790380859375,0.021376928314566612,-0.0007925567333586514,-0.013497965410351753
1782845883452908800,0.39790869140625,0.01655234582722187,0.001731320982798934,-0.01561091747134924
1782845883462913800,0.407913818359375,0.007980694994330406,-0.00011717908637365326,-0.01619574800133705
1782845883472918800,0.417918701171875,0.006344448775053024,-0.0005097290268167853,-0.016017582267522812
1782845883482923800,0.427923828125,0.0017033577896654606,-0.000020772657080669887,-0.013835388235747814
1782845883492928800,0.4379287109375,-0.004960670135915279,-0.004963599611073732,-0.007715710438787937
1782845883502933800,0.447933837890625,-0.00905874278396368,-0.005417668726295233,-0.007475226651877165
1782845883512938800,0.457938720703125,-0.011469702236354351,-0.0026706180069595575,-0.007685350254178047
1782845883522942700,0.467942626953125,-0.014007162302732468,-0.003662378992885351,-0.014331269077956676
1782845883532947700,0.47794775390625,-0.013761884532868862,-0.001642371411435306,-0.011292335577309132
1782845883542952700,0.48795263671875,-0.015717709437012672,0.0057226005010306835,-0.010911770164966583
1782845883552957700,0.497957763671875,-0.01630786620080471,0.0041406829841434956,-0.004800347611308098
1782845883562962700,0.507962646484375,-0.013513944111764431,0.0024748756550252438,0.002049036091193557
1782845883572967700,0.5179677734375,-0.014149374328553677,0.005604356061667204,0.007931692525744438
1782845883582972700,0.52797265625,-0.013583453372120857,0.009948770515620708,0.014972824603319168
1782845883592977700,0.537977783203125,-0.013458018191158772,0.01583222672343254,0.020598486065864563
1782845883602982000,0.54798193359375,-0.014198909513652325,0.016864733770489693,0.027834560722112656
1782845883612987000,0.55798681640625,-0.012771988287568092,0.0078073227778077126,0.03761794790625572
1782845883622992000,0.567991943359375,-0.005544168874621391,-0.0005313006113283336,0.037638988345861435
1782845883632996900,0.577996826171875,0.003176884725689888,-0.005007275380194187,0.036131639033555984
1782845883643001900,0.588001953125,0.0059993029572069645,-0.0041212416253983974,0.022336730733513832
1782845883653006800,0.5980068359375,0.008530903607606888,0.0033848776947706938,0.006609433330595493
1782845883663011800,0.60801171875,0.011235077865421772,0.008895223960280418,-0.002612560987472534
1782845883673016800,0.618016845703125,0.016173377633094788,0.009891512803733349,-0.010990865528583527
1782845883683021800,0.628021728515625,0.01612730510532856,0.007201187312602997,-0.01702132821083069
1782845883693025800,0.63802587890625,0.014329138211905956,0.0017936390358954668,-0.014749119058251381
1782845883703030800,0.64803076171875,0.0169126708060503,-0.002314020646736026,-0.01239248737692833
1782845883713035800,0.658035888671875,0.016215188428759575,-0.003997404593974352,-0.010626278817653656
1782845883723040800,0.668040771484375,0.013353622518479824,-0.005974003113806248,-0.010095244273543358
1782845883733045800,0.678045654296875,0.01404737588018179,-0.005524194799363613,-0.012022041715681553
1782845883743050800,0.68805078125,0.012513394467532635,-0.0024085629265755415,-0.016703613102436066
1782845883753055700,0.6980556640625,0.010492055676877499,0.0010823087068274617,-0.021021129563450813
1782845883763060700,0.708060791015625,0.006683735176920891,0.0014479606179520488,-0.01672038994729519
1782845883773065700,0.718065673828125,0.0014141384745016694,-0.00020213393145240843,-0.012568522244691849
1782845883783069700,0.728069580078125,-0.0022098910994827747,0.006353237200528383,-0.007210242096334696
1782845883793075000,0.738074951171875,-0.007097324356436729,0.006048304960131645,0.00105301383882761
1782845883803080000,0.748079833984375,-0.010977284051477909,0.0022210762836039066,0.013888651505112648
1782845883813085000,0.7580849609375,-0.0071157002821564674,0.002629871480166912,0.027273699641227722
1782845883823090000,0.76808984375,-0.002237587934359908,-0.00098217383492738,0.031317442655563354
1782845883833095000,0.778094970703125,-0.000003462109361862531,-0.005842176266014576,0.037615817040205
1782845883843100000,0.788099853515625,0.006009423173964024,-0.008550611324608326,0.030486004427075386
1782845883853105000,0.79810498046875,0.009040100499987602,-0.007934622466564178,0.018142784014344215
1782845883863110000,0.80810986328125,0.008379902690649033,-0.0015251922886818647,0.003929760307073593
1782845883873115000,0.818114990234375,0.0046354979276657104,-0.0011507519520819187,-0.0024442493449896574
1782845883883118600,0.82811865234375,0.0021792647894471884,0.0012101404136046767,-0.004944424610584974
1782845883893123600,0.83812353515625,-0.00029534456552937627,0.0014503574930131435,-0.00691969133913517
1782845883903128600,0.848128662109375,-0.0008780442294664681,-0.0020101540721952915,-0.006156961899250746
1782845883913133600,0.858133544921875,-0.00433163158595562,-0.003463441040366888,-0.0032003207597881556
1782845883923138600,0.868138671875,-0.0016620787791907787,-0.0052054147236049175,-0.0041302964091300964
1782845883933143600,0.8781435546875,-0.004992894362658262,-0.006445648614317179,-0.0006644586683250964
1782845883943148500,0.8881484375,-0.00663606496527791,-0.003975034225732088,-0.0017800568602979183
1782845883953153500,0.898153564453125,-0.00355798308737576,-0.004978779703378677,-0.003919107839465141
1782845883963157800,0.90815771484375,-0.004797418136149645,-0.00809361319988966,-0.005784385837614536
1782845883973162800,0.918162841796875,-0.00743234995752573,-0.009289638139307499,-0.003978230059146881
1782845883983167700,0.928167724609375,-0.009920008480548859,-0.007339405361562967,0.0006623281515203416
1782845883993172700,0.9381728515625,-0.009220928885042667,-0.0015614113071933389,0.00752023421227932
1782845884003177700,0.948177734375,-0.010990865528583527,0.006616357248276472,0.008942628279328346
1782845884013182700,0.9581826171875,-0.004534564446657896,0.007555654272437096,0.016281235963106155
1782845884023187700,0.968187744140625,-0.000401604687795043,0.00854448601603508,0.019154518842697144
1782845884033192700,0.978192626953125,0.005094893276691437,0.00481233187019825,0.02321610599756241
1782845884043197700,0.98819775390625,0.008238222450017929,0.0021382521372288465,0.019056782126426697
1782845884053201700,0.99820166015625,0.01540319062769413,-0.001412806916050613,0.008228369057178497
1782845884063206700,1.00820654296875,0.01612384244799614,-0.006746053230017424,-0.0018820558907464147
1782845884073211600,1.018211669921875,0.013232181780040264,-0.005592904519289732,-0.01791961118578911
1782845884083216600,1.028216552734375,0.014427408576011658,-0.00041252365917898715,-0.028743231669068336
1782845884093221600,1.0382216796875,0.009240636602044106,0.00004420847471919842,-0.04020041599869728
1782845884103226600,1.0482265625,0.0037563887890428305,0.00398755120113492,-0.043231893330812454
1782845884113231600,1.058231689453125,-0.0007464840309694409,0.004259992390871048,-0.035716451704502106
1782845884123236600,1.068236572265625,-0.0020477045327425003,0.00586800929158926,-0.023912256583571434
1782845884133241600,1.07824169921875,-0.001663410454057157,-0.0008170577930286527,-0.013879329897463322
1782845884143246600,1.08824658203125,0.003778226673603058,-0.00945235788822174,-0.005820072256028652
1782845884153250800,1.098250732421875,0.007349525578320026,-0.008406800217926502,-0.0017483652336522937
1782845884163255800,1.108255859375,0.012607404962182045,-0.00046685212873853743,-0.009638246148824692
1782845884173260800,1.1182607421875,0.019393404945731163,-0.0012708604335784912,-0.014756308868527412
1782845884183265800,1.128265869140625,0.017592042684555054,0.0010697918478399515,-0.016268985345959663
1782845884193270800,1.138270751953125,0.017845576629042625,-0.004026965703815222,-0.01221405528485775
1782845884203275800,1.14827587890625,0.017232250422239304,-0.001336107961833477,-0.00714526092633605
1782845884213280800,1.15828076171875,0.017798438668251038,-0.0011638014111667871,-0.00034354778472334146
1782845884223285800,1.16828564453125,0.0178128182888031,0.0011704593198373914,0.005369465332478285
1782845884233290800,1.178290771484375,0.0204530768096447,-0.007136738859117031,0.011129350401461124
1782845884243294700,1.188294677734375,0.01683676987886429,-0.008599081076681614,0.00868909526616335
1782845884253299700,1.1982998046875,0.02172233909368515,-0.010782873257994652,0.004019242711365223
1782845884263304700,1.2083046875,0.016923589631915092,-0.005024585872888565,-0.006028864067047834
1782845884273309700,1.218309814453125,0.013508617877960205,-0.0054666707292199135,-0.01956331543624401
1782845884283314700,1.228314697265625,0.01116130780428648,-0.00561048137024045,-0.02225976623594761
1782845884293319700,1.238319580078125,0.004286091309040785,-0.007696269080042839,-0.023008113726973534
1782845884303324700,1.24832470703125,-0.002014681464061141,-0.009190568700432777,-0.01708124950528145
1782845884313329700,1.25832958984375,-0.008839298039674759,-0.012094746343791485,-0.004274373408406973
1782845884323334700,1.268334716796875,-0.00875940266996622,-0.010381268337368965,0.004238154739141464
1782845884333338600,1.278338623046875,-0.017009077593684196,-0.010645453818142414,0.020600616931915283
1782845884343343600,1.288343505859375,-0.013155749067664146,-0.01359543763101101,0.03146391734480858
1782845884353348600,1.2983486328125,-0.014488395303487778,-0.014254570007324219,0.03478248044848442
1782845884363353900,1.308353759765625,-0.014342986978590488,-0.013294766657054424,0.02937493287026882
1782845884373358800,1.31835888671875,-0.014280934818089008,-0.013828197494149208,0.028251610696315765
1782845884383363800,1.32836376953125,-0.013855627737939358,-0.017185645177960396,0.026041986420750618
1782845884393368800,1.338368896484375,-0.008246212266385555,-0.021497301757335663,0.01793825440108776
1782845884403373800,1.348373779296875,-0.0012884372845292091,-0.026930950582027435,0.017409617081284523
1782845884413378800,1.35837890625,0.0017928400775417686,-0.02588006667792797,0.013885455206036568
1782845884423383800,1.3683837890625,0.009062204509973526,-0.028173048049211502,0.01079752016812563
1782845884433387800,1.3783876953125,0.011206315830349922,-0.02111354097723961,0.005273591727018356
1782845884443392800,1.388392822265625,0.014365090988576412,-0.01799231581389904,0.0021470405627042055
1782845884453397800,1.398397705078125,0.01441329438239336,-0.0152575159445405,-0.0019829897210001945
1782845884463402800,1.40840283203125,0.013307549990713596,-0.0151592455804348,-0.005648031830787659
1782845884473407700,1.41840771484375,0.015739016234874725,-0.018702847883105278,0.00041784998029470444
1782845884483412700,1.428412841796875,0.012919792905449867,-0.024577781558036804,0.0013353090034797788
1782845884493417700,1.438417724609375,0.01321061048656702,-0.03308338299393654,0.0016982977977022529
1782845884503422700,1.448422607421875,0.012656406499445438,-0.03045191615819931,0.006103166379034519
1782845884513427700,1.458427734375,0.011595669202506542,-0.02996056154370308,0.0028157602064311504
1782845884523431400,1.468431396484375,0.012372779659926891,-0.02791338972747326,0.006337524391710758
1782845884533436400,1.4784365234375,0.013366671279072762,-0.022476546466350555,0.003955326974391937
1782845884543441400,1.48844140625,0.012454804964363575,-0.013076120987534523,0.002921487670391798
1782845884553446700,1.49844677734375,0.008421448059380054,-0.011782890185713768,0.0046602655202150345
1782845884563451600,1.50845166015625,0.004916728008538485,-0.011502725072205067,0.005800630897283554
1782845884573456600,1.51845654296875,0.0029984530992805958,-0.0162974800914526,0.010205233469605446
1782845884583462000,1.5284619140625,0.003610979998484254,-0.017045563086867332,0.011624698527157307
1782845884593467000,1.538466796875,0.0017028251895681024,-0.020339360460639,0.011233746074140072
1782845884603472000,1.548471923828125,0.001279116258956492,-0.025737054646015167,0.005269064102321863
1782845884613475600,1.5584755859375,-0.0018429075134918094,-0.025316275656223297,-0.00036378781078383327
1782845884623480600,1.56848046875,-0.004659200087189674,-0.02244671992957592,-0.007893343456089497
1782845884633485600,1.578485595703125,-0.0075822859071195126,-0.019520970061421394,-0.01636645570397377
1782845884643490600,1.588490478515625,-0.012149340473115444,-0.016268985345959663,-0.0188386682420969
1782845884653495600,1.59849560546875,-0.014479073695838451,-0.013129117898643017,-0.020712202414870262
1782845884663500500,1.60850048828125,-0.012228969484567642,-0.006385195069015026,-0.022063756361603737
1782845884673505500,1.618505615234375,-0.009429454803466797,0.0008567389450035989,-0.024387631565332413
1782845884683510500,1.628510498046875,-0.007339139468967915,0.0017739315517246723,-0.014341921545565128
1782845884693515500,1.638515625,-0.0021441110875457525,0.0007952199084684253,-0.0018559569725766778
1782845884703520500,1.6485205078125,-0.0035031221341341734,-0.0054549528285861015,0.009250489994883537
1782845884713524500,1.6585244140625,-0.0009004147723317146,-0.018186194822192192,0.025855299085378647
1782845884723529500,1.668529541015625,0.0011675298446789384,-0.022533005103468895,0.030235400423407555
1782845884733534500,1.678534423828125,0.0004242415598127991,-0.02479749172925949,0.027965055778622627
1782845884743539500,1.68853955078125,-0.00458729499951005,-0.02479962259531021,0.025064872577786446
1782845884753544400,1.69854443359375,-0.004929777234792709,-0.015963787212967873,0.016627179458737373
1782845884763549400,1.708549560546875,-0.0057012951001524925,-0.0022602248936891556,0.008641957305371761
1782845884773554700,1.7185546875,-0.002886333968490362,0.0020905814599245787,-0.0025720810517668724
1782845884783559700,1.7285595703125,0.0026762105990201235,0.0021286646369844675,-0.005085572600364685
1782845884793564700,1.738564697265625,0.009504555724561214,-0.000999484327621758,-0.014250840991735458
1782845884803569700,1.748569580078125,0.0139608234167099,-0.005743106827139854,-0.018274610862135887
1782845884813573600,1.75857373046875,0.01956517994403839,-0.010644122026860714,-0.015904398635029793
1782845884823578600,1.76857861328125,0.019830962643027306,-0.021203821524977684,-0.01624288596212864
1782845884833583600,1.77858349609375,0.01738112047314644,-0.028328577056527138,-0.008204666897654533
1782845884843588600,1.788588623046875,0.01739869825541973,-0.021583855152130127,-0.006447513122111559
1782845884853593600,1.798593505859375,0.01341540738940239,-0.012358665466308594,-0.008217450231313705
1782845884863598600,1.8085986328125,0.00777722941711545,0.0010221211705356836,-0.005870938766747713
1782845884873603600,1.818603515625,0.0035750274546444416,0.003635747591033578,0.000642620783764869
1782845884883608600,1.828608642578125,-0.003073287894949317,0.01007713470607996,0.0018279937794432044
1782845884893613600,1.838613525390625,-0.011928831227123737,0.012956811115145683,0.007766576483845711
1782845884903617500,1.848617431640625,-0.01116397138684988,0.009555421769618988,0.004026167094707489
1782845884913622500,1.85862255859375,-0.013799169100821018,0.0029670277144759893,0.006699181627482176
1782845884923627500,1.86862744140625,-0.014507836662232876,-0.002205097349360585,0.011244132183492184
1782845884933632500,1.878632568359375,-0.010425742715597153,-0.007109308615326881,0.011158378794789314
1782845884943637500,1.888637451171875,-0.009593771770596504,-0.0003275688213761896,0.008845423348248005
1782845884953642500,1.898642578125,-0.00634977500885725,0.009722668677568436,0.0016498282784596086
1782845884963647500,1.9086474609375,-0.0029678267892450094,0.01236212719231844,0.00063356600003317
1782845884973652500,1.918652587890625,0.00005326322207110934,0.013177854008972645,0.007047523278743029
1782845884983657500,1.928657470703125,0.0026021746452897787,0.010728544555604458,0.010696586221456528
1782845884993662700,1.938662841796875,0.001883121207356453,0.002229065867140889,0.01369530614465475
1782845885003666700,1.948666748046875,0.003073287894949317,-0.0026911243330687284,0.01948501728475094
1782845885013671700,1.958671630859375,0.0024439829867333174,-0.0037414750549942255,0.014039918780326843
1782845885023676700,1.9686767578125,0.004711398389190435,-0.0029228192288428545,0.00941933412104845
1782845885033681700,1.978681640625,0.006942860782146454,-0.0022064289078116417,0.0017235978739336133
1782845885043686700,1.988686767578125,0.009132511913776398,-0.00041731735109351575,-0.0032474587205797434
1782845885053691600,1.998691650390625,0.00881852488964796,-0.00015899071877356619,-0.0019022959750145674
1782845885063696600,2.008696533203125,0.007635815534740686,-0.002104163635522127,-0.007998271845281124
1782845885073701600,2.01870166015625,0.004199538845568895,0.003686613868921995,-0.012110192328691483
1782845885083706600,2.02870654296875,0.000483363721286878,0.012313923798501492,-0.012057461775839329
1782845885093711600,2.038711669921875,-0.0023228090722113848,0.012071044184267521,-0.006711964961141348
1782845885103715600,2.048715576171875,-0.0023965786676853895,0.005007808096706867,-0.0010719223646447062
1782845885113720600,2.058720458984375,0.00031185615807771683,0.0011717908782884479,0.008280833251774311
1782845885123725600,2.0687255859375,0.0023462448734790087,-0.0054821171797811985,0.010438526049256325
1782845885133730600,2.07873046875,0.003201119601726532,-0.007515174336731434,0.011917113326489925
1782845885143735600,2.088735595703125,0.004249073565006256,-0.005044293589890003,0.0086041409522295
1782845885153740500,2.098740478515625,0.0014503574930131435,-0.0006982808117754757,0.0017837852938100696
1782845885163745500,2.10874560546875,0.003946538548916578,0.007251787465065718,-0.0014602112350985408
1782845885173750500,2.11875048828125,0.0032178976107388735,0.0075758942402899265,-0.004032824654132128
1782845885183755300,2.12875537109375,0.001841842196881771,0.010839864611625671,-0.0056983656249940395
1782845885193760300,2.13876025390625,0.0076280920766294,0.008807073347270489,-0.0017667410429567099
1782845885203764200,2.14876416015625,0.005160140804946423,0.0032921996898949146,0.0011065434664487839
1782845885213769200,2.158769287109375,0.011025486513972282,-0.0005262406193651259,0.0026229473296552896
1782845885223774200,2.168774169921875,0.014444186352193356,-0.0007254450465552509,-0.0012452941155061126
1782845885233779200,2.178779296875,0.01372380182147026,-0.005331914871931076,-0.006925550289452076
1782845885243784200,2.1887841796875,0.011691809631884098,-0.00595456175506115,-0.008785768412053585
1782845885253789200,2.1987890625,0.007802795618772507,-0.0060056946240365505,-0.016410665586590767
1782845885263794200,2.208794189453125,0.0016642092959955335,-0.005802495405077934,-0.02592374198138714
1782845885273799200,2.218799072265625,-0.0064895907416939735,-0.001019990653730929,-0.024289360269904137
1782845885283804200,2.22880419921875,-0.009318133816123009,-0.0002860235108528286,-0.029801571741700172
1782845885293809200,2.23880908203125,-0.010469152592122555,0.00395852280780673,-0.027963191270828247
1782845885303813000,2.248813232421875,-0.015352590940892696,0.0052197957411408424,-0.014510499313473701
1782845885313818000,2.258818115234375,-0.01852681301534176,0.006208094768226147,0.0021971079986542463
1782845885323823000,2.268822998046875,-0.012892096303403378,0.009245430119335651,0.017904698848724365
1782845885333828000,2.278828125,-0.008947156369686127,0.003973968792706728,0.026431340724229813
1782845885343833000,2.2888330078125,-0.006685866042971611,0.00011478224041638896,0.02949371002614498
1782845885353838000,2.298838134765625,-0.005091697443276644,-0.003866909770295024,0.029269738122820854
1782845885363843300,2.30884326171875,-0.006345780100673437,0.0006620618514716625,0.023191338405013084
1782845885373848300,2.318848388671875,-0.004791825544089079,0.007100253831595182,0.017464743927121162
1782845885383853300,2.328853271484375,-0.005486377980560064,0.011606322601437569,0.011346930637955666
1782845885393858300,2.3388583984375,-0.005420598201453686,0.009838249534368515,0.0036035231314599514
1782845885403862300,2.3488623046875,-0.004087153356522322,0.005619802512228489,0.00180908537004143
1782845885413867300,2.3588671875,0.0024865935556590557,0.004200603812932968,-0.0063798688352108
1782845885423872300,2.368872314453125,0.005667206831276417,-0.002263953210785985,-0.008097074925899506
1782845885433877200,2.378877197265625,0.008697617799043655,-0.005125519819557667,-0.01738165318965912
1782845885443882200,2.38888232421875,0.011268367059528828,-0.010480604134500027,-0.021317273378372192
1782845885453887200,2.39888720703125,0.011865980923175812,-0.004711398389190435,-0.024088557809591293
1782845885463892200,2.408892333984375,0.010330934077501297,-0.005784918554127216,-0.013638313859701157
1782845885473897200,2.418897216796875,0.0033100428991019726,-0.010860370472073555,-0.0065529742278158665
1782845885483902200,2.428902099609375,0.005851763766258955,-0.010134926065802574,0.0024431839119642973
1782845885493906200,2.43890625,0.004166249185800552,-0.012043613009154797,0.010959174484014511
1782845885503911200,2.4489111328125,0.0015821839915588498,-0.013932859525084496,0.015451127663254738
1782845885513916200,2.458916259765625,0.0018607506062835455,-0.013796771876513958,0.016337960958480835
1782845885523921200,2.468921142578125,0.0006133259739726782,-0.011402323842048645,0.012606872245669365
1782845885533926100,2.478926025390625,-0.001585646066814661,-0.017770741134881973,0.008218781091272831
1782845885543931100,2.48893115234375,-0.0015132081462070346,-0.0255154799669981,0.008809736929833889
1782845885553936100,2.49893603515625,-0.0070336745120584965,-0.019936956465244293,0.007240868639200926
1782845885563941000,2.508941162109375,-0.010607636533677578,-0.01726207695901394,0.0043830303475260735
1782845885573946000,2.518946044921875,-0.010602576658129692,-0.014909174293279648,0.001800030586309731
1782845885583951400,2.528951416015625,-0.012382367625832558,-0.010527742095291615,0.000007456851108145202
1782845885593955300,2.538955322265625,-0.013009541667997837,-0.005863748025149107,0.0009680590592324734
1782845885603960300,2.548960205078125,-0.009767675772309303,-0.0036432044580578804,-0.0006796387024223804
1782845885613965300,2.55896533203125,-0.008244081400334835,0.0008114652009680867,-0.010896056890487671
1782845885623970300,2.56897021484375,-0.007684551179409027,0.0014612764352932572,-0.020242154598236084
1782845885633975300,2.578975341796875,-0.008203068748116493,0.003968109842389822,-0.025011077523231506
1782845885643980300,2.588980224609375,-0.005337773822247982,-0.005312473513185978,-0.026437466964125633
1782845885653985300,2.5989853515625,-0.006542321294546127,-0.0028306739404797554,-0.029505960643291473
1782845885663990300,2.608990234375,-0.0023398532066494226,-0.0041183121502399445,-0.02978079952299595
1782845885673995300,2.618995361328125,0.0005004079430364072,-0.0006503439508378506,-0.028714735060930252
1782845885684000300,2.629000244140625,0.0038804919458925724,-0.009012136608362198,-0.025300828740000725
1782845885694005200,2.639005126953125,0.0034176346380263567,0.0006551376427523792,-0.013770939782261848
1782845885704009200,2.64900927734375,-0.00007882956560933962,0.0007829693495295942,-0.000024234765078290366
1782845885714014200,2.65901416015625,0.0022032330743968487,0.0019022959750145674,0.002034122357144952
1782845885724019200,2.669019287109375,0.0037771612405776978,-0.0011725898366421461,0.014476943761110306
1782845885734024200,2.679024169921875,0.0052413675002753735,0.002296177437528968,0.01848100684583187
1782845885744029200,2.689029296875,0.01010776124894619,-0.0006143912323750556,0.02479269728064537
1782845885754034200,2.6990341796875,0.015193600207567215,-0.00029587719473056495,0.027772242203354836
1782845885764039200,2.7090390625,0.016092417761683464,-0.0037116475868970156,0.024108532816171646
1782845885774044200,2.719044189453125,0.018640263006091118,-0.002697782125324011,0.017668742686510086
1782845885784049200,2.729049072265625,0.01720588468015194,-0.0006924218614585698,0.014360297471284866
1782845885794054100,2.73905419921875,0.013016998767852783,0.00033928672201000154,0.005909021943807602
1782845885804058400,2.749058349609375,0.01053093746304512,0.005131112411618233,-0.0041191112250089645
1782845885814063400,2.7590634765625,0.00749200489372015,0.005416603293269873,-0.006079730577766895
1782845885824068400,2.769068359375,0.004388622939586639,0.001654089312069118,-0.0046576024033129215
1782845885834073300,2.7790732421875,0.0028597023338079453,-0.004495948553085327,-0.0019536949694156647
1782845885844078300,2.789078369140625,0.0007171892793849111,-0.008585765026509762,-0.004510595928877592
1782845885854083300,2.799083251953125,0.0022652847692370415,-0.008894424885511398,-0.000850879936479032
1782845885864088300,2.80908837890625,-0.003501257859170437,-0.009282980114221573,-0.004512992687523365
1782845885874093300,2.81909326171875,-0.0005193164106458426,-0.014073740690946579,-0.003967311233282089
1782845885884098300,2.829098388671875,-0.002522279741242528,-0.005648564547300339,0.0007605988066643476
1782845885894103300,2.839103271484375,0.001276453142054379,-0.005305016878992319,0.004040548112243414
1782845885904107300,2.849107177734375,0.001770203118212521,-0.00686056911945343,0.01212697010487318
1782845885914112300,2.8591123046875,0.003308977698907256,-0.006967095658183098,0.014886803925037384
1782845885924117200,2.8691171875,0.013070794753730297,-0.006774283014237881,0.016200540587306023
1782845885934122200,2.879122314453125,0.015180816873908043,-0.0005150553770363331,0.015137407928705215
1782845885944127200,2.889127197265625,0.017844777554273605,-0.006572415120899677,0.012693158350884914
1782845885954132200,2.89913232421875,0.018790198490023613,-0.009308813139796257,0.003037335118278861
1782845885964137200,2.90913720703125,0.01992390677332878,-0.009288839064538479,-0.009523464366793633
1782845885974142200,2.91914208984375,0.015499331057071686,-0.015005581080913544,-0.016046345233917236
1782845885984147200,2.929147216796875,0.012343751266598701,-0.009455553255975246,-0.02623479999601841
1782845885994152200,2.939152099609375,0.010147709399461746,-0.008821454830467701,-0.02250797301530838
1782845886004156400,2.949156494140625,0.007380152121186256,-0.007959921844303608,-0.01739816553890705
1782845886014161400,2.959161376953125,0.0052054147236049175,-0.01444258913397789,-0.009080047719180584
1782845886024166400,2.96916650390625,0.008756207302212715,-0.01569746993482113,-0.0018716695485636592
1782845886034171400,2.97917138671875,0.006352171767503023,-0.01040576957166195,0.0005693838465958834
1782845886044176400,2.98917626953125,0.006194246467202902,-0.01143667846918106,-0.0002383529208600521
1782845886054181400,2.999181396484375,0.0018423747969791293,-0.01576937548816204,0.001002413802780211
1782845886064186400,3.009186279296875,0.0013334447285160422,-0.01576857641339302,-0.006096241995692253
1782845886074191400,3.01919140625,-0.000287088769255206,-0.01864505745470524,-0.011630024760961533
1782845886084196400,3.0291962890625,-0.00797163974493742,-0.021505026146769524,-0.012536830268800259
1782845886094201300,3.039201416015625,-0.013118199072778225,-0.021098094061017036,-0.01781521551311016
1782845886104205300,3.049205322265625,-0.020368121564388275,-0.017735321074724197,-0.012801814824342728
1782845886114210300,3.059210205078125,-0.022054968401789665,-0.012820457108318806,-0.010723484680056572
1782845886124215300,3.06921533203125,-0.023127423599362373,-0.009271794930100441,-0.0051505533047020435
1782845886134220300,3.07922021484375,-0.020486366003751755,-0.0116750318557024,0.00863290298730135
1782845886144225300,3.089225341796875,-0.015252456068992615,-0.015862585976719856,0.01471582893282175
1782845886154230300,3.099230224609375,-0.010158628225326538,-0.025470206514000893,0.02148611657321453
1782845886164235300,3.1092353515625,-0.004010187927633524,-0.033843982964754105,0.02160436101257801
1782845886174240300,3.119240234375,-0.002025866648182273,-0.030599454417824745,0.011086739599704742
1782845886184245000,3.129244873046875,-0.00040533312130719423,-0.020709805190563202,0.001404018490575254
1782845886194250000,3.13925,0.006701312027871609,-0.007645402569323778,-0.00555109279230237
1782845886204254200,3.149254150390625,0.004447745159268379,0.004458131734281778,-0.006401972845196724
1782845886214259200,3.15925927734375,0.008074704557657242,0.005032042972743511,-0.001437308033928275
1782845886224264200,3.16926416015625,0.012284362688660622,-0.0051928977482020855,0.01098633836954832
1782845886234269200,3.179269287109375,0.011869176290929317,-0.012475578114390373,0.020833110436797142
1782845886244274200,3.189274169921875,0.014510765671730042,-0.014479872770607471,0.02845853939652443
1782845886254279200,3.199279052734375,0.016402674838900566,-0.014533668756484985,0.021315408870577812
1782845886264284200,3.2092841796875,0.016202937811613083,-0.009531186893582344,0.019172096624970436
1782845886274289200,3.2192890625,0.014845524914562702,-0.011739213950932026,0.010588462464511395
1782845886284294100,3.229294189453125,0.01275867223739624,-0.010404437780380249,0.006539924535900354
1782845886294299100,3.239299072265625,0.012281966395676136,-0.007607585750520229,0.004084490239620209
1782845886304303000,3.24930322265625,0.00809228140860796,-0.008025169372558594,0.00512685114517808
1782845886314308000,3.25930810546875,-0.001332912128418684,-0.004314321093261242,0.008669654838740826
1782845886324313000,3.26931298828125,-0.002094309777021408,-0.007635282818228006,0.012656672857701778
1782845886334318000,3.279318115234375,-0.004746818449348211,-0.010595918633043766,0.016439959406852722
1782845886344323000,3.289322998046875,-0.002376871183514595,-0.00809201505035162,0.013259346596896648
1782845886354328000,3.299328125,-0.000056459015468135476,-0.0043958136811852455,0.01119326613843441
1782845886364333000,3.3093330078125,0.001065264455974102,-0.005004345905035734,0.006371080409735441
1782845886374338000,3.319338134765625,0.004909005016088486,-0.007065632846206427,0.00446984963491559
1782845886384343000,3.329343017578125,0.012094746343791485,-0.007315969560295343,0.004772651009261608
1782845886394348000,3.33934814453125,0.013825800269842148,-0.007148190401494503,0.00942093227058649
1782845886404352300,3.349352294921875,0.0164205189794302,-0.00010892329009948298,0.009091765619814396
1782845886414357200,3.359357177734375,0.019572902470827103,0.0043798345141112804,0.016318252310156822
1782845886424362200,3.3693623046875,0.015572568401694298,0.0036136433482170105,0.02280331589281559
1782845886434367200,3.3793671875,0.0178234726190567,-0.0003235740587115288,0.02558312378823757
1782845886444372200,3.389372314453125,0.017960358411073685,-0.004011253360658884,0.025533322244882584
1782845886454377200,3.399377197265625,0.01696407049894333,-0.009427323937416077,0.013586915098130703
1782845886464382200,3.40938232421875,0.01655767112970352,-0.005631786771118641,0.0008633967954665422
1782845886474387200,3.41938720703125,0.016767794266343117,0.00035899411886930466,-0.016761669889092445
1782845886484392200,3.42939208984375,0.018263159319758415,-0.002929743379354477,-0.029923809692263603
1782845886494397200,3.439397216796875,0.019567308947443962,-0.004643487744033337,-0.03881211206316948
1782845886504401200,3.449401123046875,0.019096728414297104,-0.008735966868698597,-0.03924327716231346
1782845886514406100,3.45940625,0.01961471326649189,-0.010424145497381687,-0.035405926406383514
1782845886524411100,3.4694111328125,0.014088122174143791,-0.013884389773011208,-0.027876105159521103
1782845886534416100,3.479416015625,0.008567389100790024,-0.012649748474359512,-0.01937156729400158
1782845886544421000,3.489421142578125,0.0032929987646639347,-0.009368468075990677,-0.01961577869951725
1782845886554426000,3.499426025390625,-0.0009901633020490408,-0.004988633096218109,-0.01816488988697529
1782845886564431000,3.50943115234375,-0.003768372815102339,-0.007276555057615042,-0.02027091756463051
1782845886574436000,3.51943603515625,-0.005636580288410187,-0.0076360818929970264,-0.02557620033621788
1782845886584441000,3.529441162109375,-0.0026519757229834795,-0.006807838566601276,-0.03406582400202751
1782845886594446000,3.539446044921875,-0.002332130214199424,-0.006168147549033165,-0.03719743713736534
1782845886604450000,3.549449951171875,-0.0008029430755414069,-0.007180947344750166,-0.033786460757255554
1782845886614455000,3.559455078125,-0.002517486223950982,-0.010920025408267975,-0.030422087758779526
1782845886624460300,3.569460205078125,-0.00011211907985853031,-0.012495817616581917,-0.01836089789867401
1782845886634465300,3.57946533203125,-0.0002793656021822244,-0.011930163018405437,-0.013972806744277477
1782845886644470300,3.58947021484375,0.0008069378091022372,-0.002319879597052932,-0.004086886998265982
1782845886654475300,3.599475341796875,0.003970507066696882,-0.002260757377371192,0.0009395632077939808
1782845886664480300,3.609480224609375,0.00726323900744319,-0.004484497010707855,0.003932689782232046
1782845886674485200,3.6194853515625,0.009456352330744267,-0.006472013890743256,0.013045760802924633
1782845886684490200,3.629490234375,0.013947507366538048,-0.006650179624557495,0.008598282001912594
1782845886694495200,3.6394951171875,0.013656689785420895,-0.011449195444583893,0.0004679173871409148
1782845886704499000,3.6494990234375,0.01684396155178547,-0.013278787024319172,-0.008701079525053501
1782845886714504000,3.65950390625,0.014314224012196064,-0.015240738168358803,-0.01607537269592285
1782845886724509000,3.669509033203125,0.013207415118813515,-0.01080071646720171,-0.02443183958530426
1782845886734514000,3.679513916015625,0.010158095508813858,-0.008261658251285553,-0.02713787741959095
1782845886744519000,3.689518798828125,0.00726403808221221,-0.004072505980730057,-0.028543761000037193
1782845886754524000,3.69952392578125,0.002662894781678915,-0.00290444353595376,-0.023739950731396675
1782845886764529000,3.70952880859375,0.0015507587231695652,-0.00689092930406332,-0.014770157635211945
1782845886774534000,3.719533935546875,0.0017422399250790477,-0.007469101343303919,-0.0041244374588131905
1782845886784539000,3.729538818359375,0.006207828409969807,-0.008925051428377628,0.0007177218794822693
1782845886794544000,3.739544189453125,0.010728544555604458,-0.013170929625630379,0.006672549992799759
1782845886804548000,3.749548095703125,0.01793106272816658,-0.01931137964129448,0.012027101591229439
1782845886814553000,3.759552978515625,0.027223365381360054,-0.023456323891878128,0.007126086391508579
1782845886824558000,3.76955810546875,0.02942579984664917,-0.01973988302052021,-0.001121723442338407
1782845886834563000,3.77956298828125,0.03007587604224682,-0.015478292480111122,-0.013217534869909286
1782845886844568000,3.789568115234375,0.03213263675570488,-0.010488860309123993,-0.020564397796988487
1782845886854573000,3.799572998046875,0.029866551980376244,-0.007392934989184141,-0.026586337015032768
1782845886864578000,3.809578125,0.02696317434310913,-0.001475391210988164,-0.032518792897462845
1782845886874583000,3.8195830078125,0.030711039900779724,0.0009139968897216022,-0.03416968882083893
1782845886884588000,3.829588134765625,0.0303933247923851,0.0004316983977332711,-0.029138976708054543
1782845886894593000,3.839593017578125,0.030665766447782516,-0.002269812161102891,-0.025005217641592026
1782845886904597000,3.849596923828125,0.03232571482658386,-0.009524795226752758,-0.014311561360955238
1782845886914602000,3.85960205078125,0.03416436165571213,-0.011313906870782375,-0.01101510040462017
1782845886924607000,3.86960693359375,0.03073927015066147,-0.013795441016554832,-0.0060110208578407764
1782845886934612000,3.879612060546875,0.027393007650971413,-0.015630358830094337,-0.0032810145057737827
1782845886944617000,3.889616943359375,0.02190876007080078,-0.0191944669932127,0.00001757686368364375
1782845886954622000,3.8996220703125,0.017848504707217216,-0.016405338421463966,-0.0009595369338057935
1782845886964627000,3.909626953125,0.014785337261855602,-0.012370383366942406,-0.0004362257895991206
1782845886974632000,3.9196318359375,0.011829761788249016,-0.001874332781881094,-0.0034826158080250025
1782845886984637000,3.929636962890625,0.011523498222231865,0.004041879437863827,-0.0021614215802401304
1782845886994642000,3.939641845703125,0.015327290631830692,0.006351639050990343,0.005257878918200731
1782845887004646100,3.949646240234375,0.016379505395889282,0.001731320982798934,0.010402040556073189
1782845887014651100,3.959651123046875,0.016992565244436264,-0.005526059307157993,0.01944613642990589
1782845887024656100,3.96965625,0.020537765696644783,-0.011985023505985737,0.02051113359630108
1782845887034661000,3.9796611328125,0.01938275247812271,-0.01564766839146614,0.013065202161669731
1782845887044666000,3.989666015625,0.016745956614613533,-0.01642717607319355,0.0065564364194869995
1782845887054671000,3.999671142578125,0.014515026472508907,-0.009607885964214802,-0.0027057717088609934
1782845887064676000,4.009676025390625,0.00818176381289959,0.0010551444720476866,-0.009945042431354523
1782845887074681000,4.01968115234375,0.005143096670508385,0.0020777983590960503,-0.015970177948474884
1782845887084686000,4.02968603515625,0.003180346917361021,0.002877545543015003,-0.023357253521680832
1782845887094691000,4.039691162109375,0.0014767227694392204,0.006037918850779533,-0.025405757129192352
1782845887104695000,4.049695068359375,-0.0018098842119798064,-0.0003246393462177366,-0.016864733770489693
1782845887114700000,4.059699951171875,0.001671666163019836,-0.008570319041609764,-0.010982610285282135
1782845887124705000,4.069705078125,0.0033848776947706938,-0.0156133146956563,-0.011829229071736336
1782845887134710000,4.0797099609375,0.007129015866667032,-0.013306218199431896,-0.015922240912914276
1782845887144715000,4.089715087890625,0.007019559852778912,-0.006490123458206654,-0.021761488169431686
1782845887154720000,4.099719970703125,0.0067750816233456135,-0.0036277580074965954,-0.025531725957989693
1782845887164725000,4.10972509765625,0.004244545940309763,-0.0021795309148728848,-0.024719195440411568
1782845887174730000,4.11972998046875,0.0003502056933939457,0.0018618159228935838,-0.023741016164422035
1782845887184735500,4.129735595703125,-0.005024053156375885,0.006956176832318306,-0.01642211712896824
1782845887194740500,4.139740478515625,-0.0037529265973716974,0.006914631463587284,-0.008282165043056011
1782845887204744700,4.14974462890625,-0.005559881217777729,0.005368666257709265,-0.003591539105400443
1782845887214749700,4.159749755859375,-0.002490588231012225,0.0025561018846929073,0.004237622022628784
1782845887224754700,4.169754638671875,0.003276220755651593,-0.00036458674003370106,0.00600383011624217
1782845887234759700,4.179759765625,0.006592921447008848,-0.0019092201255261898,0.011407916434109211
1782845887244764700,4.1897646484375,0.009941846132278442,-0.004610997159034014,0.007689877413213253
1782845887254769700,4.199769775390625,0.012377307750284672,-0.007577758282423019,0.0022154836915433407
1782845887264774700,4.209774658203125,0.01601545140147209,-0.0034266894217580557,-0.006597182713449001
1782845887274779600,4.219779541015625,0.012660667300224304,-0.002139583695679903,-0.01564607210457325
1782845887284784600,4.22978466796875,0.011271828785538673,-0.002665291540324688,-0.025305889546871185
1782845887294789600,4.23978955078125,0.010101103223860264,0.0016905746888369322,-0.03491191193461418
1782845887304793600,4.249793701171875,0.004291151650249958,0.0015017564874142408,-0.03863021731376648
1782845887314798600,4.259798583984375,-0.001859152689576149,0.010631072334945202,-0.040411870926618576
1782845887324803600,4.269803466796875,-0.0012966931099072099,0.0037412086967378855,-0.03533695265650749
1782845887334808600,4.27980859375,-0.004189152270555496,-0.002764627570286393,-0.019694343209266663
1782845887344813600,4.2898134765625,-0.0025566346012055874,-0.010097375139594078,-0.007455253042280674
1782845887354818600,4.299818603515625,-0.002005626680329442,-0.009158344939351082,0.0010865697404369712
1782845887364823600,4.309823486328125,-0.0027425233274698257,-0.00839721318334341,0.007902397774159908
1782845887374828500,4.31982861328125,-0.005242698825895786,-0.0076185050420463085,0.008678442798554897
1782845887384833500,4.32983349609375,-0.003442668356001377,-0.003316700691357255,0.008739429526031017
1782845887394838500,4.339838623046875,-0.0000977380113909021,-0.0012373046483844519,0.006867227144539356
1782845887404842500,4.349842529296875,-0.00040959418402053416,0.0010982876410707831,0.0037531929556280375
1782845887414847500,4.359847412109375,0.00072597770486027,-0.0018317222129553556,0.0048916940577328205
1782845887424852700,4.369852783203125,-0.0004942826926708221,-0.002144909929484129,0.006717557553201914
1782845887434857700,4.379857666015625,-0.0012295814231038094,0.0015006912872195244,0.0031007183715701103
1782845887444862700,4.38986279296875,-0.000013848437447450124,-0.00452817277982831,-0.0009976201690733433
1782845887454867700,4.39986767578125,0.0010460896883159876,-0.004237355664372444,-0.00836525484919548
1782845887464872700,4.409872802734375,0.0017534252256155014,-0.007246993947774172,-0.006683735176920891
1782845887474877700,4.419877685546875,0.0031097731553018093,-0.007619836367666721,-0.016101738438010216
1782845887484882700,4.429882568359375,0.0034413367975503206,-0.0062400526367127895,-0.014086790382862091
1782845887494887700,4.4398876953125,0.0022034994326531887,-0.005483182147145271,-0.014608236961066723
1782845887504891600,4.4498916015625,-0.000028229507734067738,0.0020663465838879347,-0.013362676836550236
1782845887514896600,4.459896728515625,0.00031079089967533946,0.0047031426802277565,-0.004201402887701988
1782845887524901600,4.469901611328125,-0.0013227921444922686,0.0031124362722039223,-0.0003022687742486596
1782845887534906600,4.47990673828125,-0.004278368316590786,0.000176301269675605,0.011813249439001083
1782845887544911600,4.48991162109375,-0.004333495628088713,-0.0010080065112560987,0.013740579597651958
1782845887554916600,4.49991650390625,-0.004821919370442629,-0.0052235242910683155,0.015632489696145058
1782845887564921600,4.509921630859375,-0.004032026045024395,-0.008109858259558678,0.023015836253762245
1782845887574926600,4.519926513671875,-0.001210406655445695,-0.009987919591367245,0.017116136848926544
1782845887584931600,4.529931640625,0.0025683525018393993,-0.009404420852661133,0.013016199693083763
1782845887594936600,4.5399365234375,0.00908803753554821,-0.009350891225039959,0.007543670013546944
1782845887604940500,4.5499404296875,0.009059540927410126,-0.008224373683333397,0.001835716888308525
1782845887614945500,4.559945556640625,0.010883539915084839,-0.0073175677098333836,-0.00020932445477228612
1782845887624950500,4.569950439453125,0.012778379023075104,-0.003293264890089631,-0.0035478631034493446
1782845887634955500,4.57995556640625,0.012594088912010193,-0.0005808354471810162,-0.0049707903526723385
1782845887644960800,4.589960693359375,0.0104739461094141,-0.006703442893922329,-0.0022394522093236446
1782845887654965800,4.5999658203125,0.010855576954782009,-0.009632387198507786,-0.0035918052308261395
1782845887664970800,4.609970703125,0.009530387818813324,-0.010565558448433876,0.0008349010022357106
1782845887674975700,4.619975830078125,0.0067937239073216915,-0.007484281435608864,0.00030866035376675427
1782845887684980700,4.629980712890625,0.00933144986629486,-0.0060325926169753075,-0.000809068325906992
1782845887694985700,4.63998583984375,0.009943177923560143,-0.0022008363157510757,-0.001543834456242621
1782845887704989700,4.64998974609375,0.011030546389520168,-0.008403072133660316,-0.0033457293175160885
1782845887714994700,4.65999462890625,0.012928581796586514,-0.014736069366335869,-0.0033752904273569584
1782845887724999700,4.669999755859375,0.010554905980825424,-0.013291037641465664,-0.0046695866622030735
1782845887735004700,4.680004638671875,0.009307747706770897,-0.010854245163500309,-0.0075796227902174
1782845887745009700,4.690009765625,0.0017009610310196877,-0.002758235903456807,-0.011597533710300922
1782845887755014700,4.7000146484375,-0.004998753312975168,0.0021960425656288862,-0.012426575645804405
1782845887765019600,4.71001953125,-0.00902571901679039,0.0012578109744936228,-0.005133775528520346
1782845887775024600,4.720024658203125,-0.009661149233579636,0.0026258768048137426,0.005791310220956802
1782845887785029600,4.730029541015625,-0.014998123981058598,0.0025180187076330185,0.010986871086061
1782845887795034600,4.74003466796875,-0.009223592467606068,0.0005837649223394692,0.023852868005633354
1782845887805038600,4.75003857421875,-0.005894374568015337,-0.007594802882522345,0.027286216616630554
1782845887815043600,4.760043701171875,-0.002511360915377736,-0.006901581771671772,0.024893099442124367
1782845887825048600,4.770048583984375,-0.0008631304954178631,-0.004743356257677078,0.02184191532433033
1782845887835053600,4.780053466796875,0.002481267089024186,-0.0015195996966212988,0.013283847831189632
1782845887845058600,4.79005859375,0.0002740392810665071,-0.004504736978560686,0.0007523429812863469
1782845887855063600,4.8000634765625,0.0015190670965239406,0.00021971078240312636,-0.0007539408979937434
1782845887865068800,4.81006884765625,-0.0034498588647693396,-0.0008993495139293373,-0.006844590418040752
1782845887875073800,4.82007373046875,-0.00806165486574173,0.0026112294290214777,-0.011288607493042946
1782845887885078800,4.830078857421875,-0.01161324605345726,0.006770820822566748,-0.015050321817398071
1782845887895083800,4.840083740234375,-0.007979096844792366,0.009226255118846893,-0.015210377983748913
1782845887905087700,4.850087646484375,-0.007932757958769798,0.004426972474902868,-0.012629508972167969
1782845887915092700,4.8600927734375,-0.0068208882585167885,0.0014769891276955605,-0.007650729268789291
1782845887925097700,4.87009765625,-0.006770820822566748,-0.0016530241118744016,0.0030860709957778454
1782845887935102700,4.880102783203125,-0.006386526394635439,-0.00692102313041687,0.005969741847366095
1782845887945107700,4.890107666015625,-0.01278610248118639,-0.004033623728901148,0.011667042039334774
1782845887955112700,4.90011279296875,-0.018016017973423004,0.0015598133904859424,0.012923521921038628
1782845887965117700,4.91011767578125,-0.021338844671845436,0.0018524948973208666,0.014793060719966888
1782845887975122700,4.920122802734375,-0.021040569990873337,0.006410761270672083,0.014640728011727333
1782845887985127700,4.930127685546875,-0.018727349117398262,0.009908290579915047,0.01931430958211422
1782845887995131400,4.94013134765625,-0.015670305117964745,0.009394034743309021,0.02028157003223896
1782845888005136400,4.950136474609375,-0.01107262447476387,0.009220129810273647,0.016619723290205002
1782845888015141400,4.960141357421875,-0.007453655358403921,0.010965033434331417,0.005014998838305473
1782845888025146400,4.970146484375,-0.004941229242831469,0.005705556366592646,0.005434180144220591
1782845888035151600,4.980151611328125,-0.004883171990513802,0.00028282770654186606,0.0024839304387569427
1782845888045156600,4.990156494140625,0.00014540860138367862,-0.010000968351960182,0.00006151902198325843
1782845888055161600,5.00016162109375,0.002555303042754531,-0.006762032397091389,-0.005090632475912571
1782845888065166600,5.01016650390625,0.0012394351651892066,-0.0001073253879440017,-0.014268684200942516
1782845888075171600,5.020171630859375,0.002796052722260356,0.013095828704535961,-0.017654627561569214
1782845888085176800,5.0301767578125,0.0026232136879116297,0.01782000996172428,-0.018148643895983696
1782845888095181800,5.040181884765625,0.00501100393012166,0.01372300274670124,-0.016383767127990723
1782845888105185500,5.050185546875,0.005785717628896236,0.012769058346748352,-0.013667874969542027
1782845888115190500,5.0601904296875,0.0067452541552484035,0.0021555626299232244,-0.0013574132462963462
1782845888125195500,5.070195556640625,0.0084249097853899,-0.00526746641844511,0.005648830905556679
1782845888135200500,5.080200439453125,0.009647566825151443,-0.010124007239937782,0.007138869725167751
1782845888145205500,5.09020556640625,0.012937369756400585,-0.006740726996213198,0.004060255363583565
1782845888155210500,5.10021044921875,0.012199941091239452,-0.0014442323008552194,0.002127333078533411
1782845888165215500,5.110215576171875,0.011167965829372406,0.003165965899825096,-0.0027712853625416756
1782845888175220500,5.120220458984375,0.00586614478379488,0.003174487967044115,-0.0009302421822212636
1782845888185225200,5.13022509765625,0.004311125259846449,0.006628075148910284,0.0007443535141646862
1782845888195230200,5.140230224609375,0.00063383235828951,0.004126834217458963,0.00475347600877285
1782845888205234200,5.150234130859375,-0.0035326832439750433,0.003631752682849765,0.012449212372303009
1782845888215239200,5.1602392578125,-0.0054674698039889336,-0.0036392095498740673,0.01937316544353962
1782845888225244200,5.170244140625,-0.008344482630491257,-0.003955060616135597,0.021928735077381134
1782845888235249400,5.18024951171875,-0.009678992442786694,-0.0038922098465263844,0.02069196291267872
1782845888245254400,5.19025439453125,-0.008983108215034008,-0.002055960241705179,0.01666792668402195
1782845888255259400,5.20025927734375,-0.010894992388784885,-0.004989964887499809,0.017551563680171967
1782845888265264400,5.210264404296875,-0.012880112044513226,-0.0036730316933244467,0.01435417216271162
1782845888275269400,5.220269287109375,-0.012425510212779045,-0.00299259414896369,0.01290647778660059
1782845888285274400,5.2302744140625,-0.010316819883883,-0.004278634674847126,0.009500826708972454
1782845888295278300,5.2402783203125,-0.00891093723475933,-0.0006000102148391306,0.008356200531125069
1782845888305283300,5.250283447265625,-0.008711732923984528,0.002909769769757986,0.0030117689166218042
1782845888315288300,5.260288330078125,-0.0067788101732730865,0.007610781583935022,-0.004809402395039797
1782845888325293300,5.270293212890625,-0.004226436838507652,0.010848386213183403,-0.003973436541855335
1782845888335298300,5.28029833984375,-0.0006005428149364889,0.009766077622771263,-0.008557802066206932
1782845888345303300,5.29030322265625,0.0044410875998437405,0.003371029393747449,-0.009211341850459576
1782845888355308300,5.300308349609375,0.009268599562346935,0.0005004079430364072,-0.004474110435694456
1782845888365313300,5.310313232421875,0.014329937286674976,-0.0030210898257791996,-0.008639028295874596
1782845888375318300,5.320318359375,0.016581106930971146,-0.008333830162882805,-0.008553806692361832
1782845888385323300,5.3303232421875,0.019637083634734154,-0.005429386626929045,-0.01512968447059393
1782845888395327200,5.3403271484375,0.021319137886166573,-0.006114351563155651,-0.018855713307857513
1782845888405332200,5.350332275390625,0.02226562425494194,-0.006128199864178896,-0.022834209725260735
1782845888415337200,5.360337158203125,0.018099108710885048,-0.00818096473813057,-0.025952238589525223
1782845888425342200,5.37034228515625,0.014815431088209152,-0.008065915666520596,-0.0226158294826746
1782845888435347200,5.38034716796875,0.011054514907300472,-0.00902545265853405,-0.018390191718935966
1782845888445352200,5.390352294921875,0.004037085920572281,-0.013427924364805222,-0.01581784524023533
1782845888455357400,5.400357421875,0.0035894084721803665,-0.009040366858243942,-0.009709086269140244
1782845888465362400,5.410362548828125,0.00077631144085899,-0.009206547401845455,-0.009978597983717918
1782845888475367400,5.420367431640625,0.00002450108149787411,-0.015718774870038033,-0.014325941912829876
1782845888485372400,5.430372314453125,0.0019587550777941942,-0.011067830957472324,-0.009002016857266426
1782845888495376400,5.44037646484375,0.0013603427214547992,-0.018869828432798386,-0.008836634457111359
1782845888505381400,5.45038134765625,-0.000794420950114727,-0.00962892547249794,-0.00863263662904501
1782845888515386400,5.460386474609375,-0.0010210559703409672,-0.006736465729773045,0.0013664679136127234
1782845888525391400,5.470391357421875,-0.0028160265646874905,0.001353684812784195,0.004704207647591829
1782845888535396400,5.480396240234375,-0.0021944446489214897,0.005662146955728531,0.01296506728976965
1782845888545401300,5.4904013671875,-0.0017994979862123728,0.0014682007022202015,0.023440077900886536
1782845888555406300,5.50040625,0.00410473020747304,-0.008232896216213703,0.02605983056128025
1782845888565411300,5.510411376953125,0.008828112855553627,-0.012137089855968952,0.02154310792684555
1782845888575416300,5.520416259765625,0.008195078931748867,-0.009386577643454075,0.013560815714299679
1782845888585421300,5.53042138671875,0.010897655040025711,-0.00720678037032485,0.004581169690936804
1782845888595425300,5.54042529296875,0.010295514017343521,-0.004173972178250551,-0.007106112781912088
1782845888605430300,5.55043017578125,0.010793259367346764,-0.006329801399260759,-0.023920778185129166
1782845888615435300,5.560435302734375,0.010606572031974792,-0.003703658003360033,-0.030611172318458557
1782845888625440300,5.570440185546875,0.0015480954898521304,-0.008096808567643166,-0.036127377301454544
1782845888635445200,5.5804453125,-0.0021840583067387342,-0.009647566825151443,-0.0404379703104496
1782845888645450200,5.5904501953125,-0.009875800460577011,-0.008651811629533768,-0.037635792046785355
1782845888655455200,5.600455322265625,-0.0137200728058815,-0.0051476238295435905,-0.031798675656318665
1782845888665460200,5.610460205078125,-0.016376841813325882,-0.0071010529063642025,-0.01943282037973404
1782845888675465500,5.620465576171875,-0.011234545148909092,-0.007980162277817726,-0.008173507638275623
1782845888685470500,5.630470458984375,-0.010515491478145123,-0.008583101443946362,0.001981658162549138
1782845888695474400,5.640474365234375,-0.009553291834890842,-0.004828577395528555,0.006530603393912315
1782845888705479400,5.6504794921875,-0.008926116861402988,-0.0016460998449474573,0.01504339836537838
1782845888715484400,5.660484375,-0.009906160645186901,-0.0029707562644034624,0.020954549312591553
1782845888725489400,5.670489501953125,-0.009255283512175083,-0.001986984396353364,0.022776952013373375
1782845888735494400,5.680494384765625,-0.007536745630204678,-0.002715891692787409,0.01931723952293396
1782845888745499400,5.69049951171875,-0.005841377656906843,-0.006007025949656963,0.013236443512141705
1782845888755504400,5.70050439453125,-0.0051803807727992535,-0.007524761371314526,0.004604339133948088
1782845888765509400,5.71050927734375,-0.003200853243470192,-0.0025355955585837364,-0.006828877609223127
1782845888775514400,5.720514404296875,0.0001459412305848673,-0.00430153775960207,-0.014210361056029797
1782845888785518300,5.730518310546875,0.006293582264333963,-0.004284493625164032,-0.01690574735403061
1782845888795523300,5.7405234375,0.010656372644007206,-0.005136705003678799,-0.01896223984658718
1782845888805528300,5.7505283203125,0.011306184343993664,-0.011753861792385578,-0.014680675230920315
1782845888815533300,5.760533203125,0.013628194108605385,-0.00923104863613844,-0.014910239726305008
1782845888825538300,5.770538330078125,0.010246246121823788,-0.005782255437225103,-0.003961984533816576
1782845888835543300,5.780543212890625,0.006296511739492416,-0.0027915253303945065,0.0028272117488086224
1782845888845548300,5.79054833984375,0.0022594258189201355,0.0008175904513336718,0.013354421593248844
1782845888855553300,5.80055322265625,0.005548429675400257,-0.0010868359822779894,0.01811668649315834
1782845888865558300,5.810558349609375,0.0005025385180488229,-0.005846171174198389,0.02424888126552105
1782845888875563300,5.820563232421875,0.0035204326268285513,-0.008052067831158638,0.022936474531888962
1782845888885567500,5.8305673828125,0.00446984963491559,-0.007050985470414162,0.01581757888197899
1782845888895572500,5.840572509765625,0.004574511665850878,-0.007632353343069553,0.009374593384563923
1782845888905577500,5.850577392578125,0.002375007141381502,0.0020777983590960503,0.004656270612031221
1782845888915582500,5.86058251953125,0.002225870033726096,0.001062334980815649,0.003947869874536991
1782845888925587500,5.87058740234375,0.004375840071588755,-0.0013374395202845335,0.01013732235878706
1782845888935592400,5.880592529296875,0.006050968077033758,-0.004032824654132128,0.016755277290940285
1782845888945597400,5.890597412109375,0.009806823916733265,-0.005279717035591602,0.023070698603987694
1782845888955602400,5.9006025390625,0.009437976405024529,-0.0048858351074159145,0.02310212329030037
1782845888965607400,5.910607421875,0.008948487229645252,-0.004544684197753668,0.020055733621120453
1782845888975612400,5.9206123046875,0.01082548312842846,-0.008650746196508408,0.014342720620334148
1782845888985616400,5.930616455078125,0.012526177801191807,-0.011749067343771458,0.0019563580863177776
1782845888995621400,5.940621337890625,0.014141918160021305,-0.012457734905183315,-0.010601777583360672
1782845889005626400,5.95062646484375,0.01305321790277958,-0.009974337182939053,-0.026871029287576675
1782845889015631400,5.96063134765625,0.012543221935629845,-0.010268616490066051,-0.028294755145907402
1782845889025636400,5.97063623046875,0.013361078687012196,-0.005978796631097794,-0.02887958474457264
1782845889035641300,5.980641357421875,0.013463344424962997,-0.0035385421942919493,-0.02437751181423664
1782845889045646300,5.990646240234375,0.015728630125522614,-0.007617173250764608,-0.020785173401236534
1782845889055651300,6.0006513671875,0.016054600477218628,-0.01128328125923872,-0.009110407903790474
1782845889065656300,6.01065625,0.015512913465499878,-0.011843076907098293,-0.00040746363811194897
1782845889075661300,6.020661376953125,0.014215687289834023,-0.011663846671581268,0.007242466323077679
1782845889085665500,6.03066552734375,0.0119706429541111,-0.01426389068365097,0.006896788254380226
1782845889095670500,6.04067041015625,0.013803962618112564,-0.010788998566567898,0.0011499529937282205
1782845889105675500,6.050675537109375,0.007407848723232746,-0.008452607318758965,-0.0012024171883240342
1782845889115680500,6.060680419921875,0.00717508839443326,-0.0111059146001935,-0.000278300343779847
1782845889125685500,6.070685546875,0.003350256709381938,-0.006730873137712479,-0.0020775320008397102
1782845889135690500,6.0806904296875,0.00544430036097765,-0.01173069141805172,0.003528422210365534
1782845889145695500,6.090695556640625,0.0013651363551616669,-0.013448962941765785,0.0006317017832770944
1782845889155700500,6.100700439453125,0.0037614486645907164,-0.009763681329786777,-0.0020871192682534456
1782845889165705500,6.11070556640625,0.0038980687968432903,-0.008054197765886784,-0.0027289411518722773
1782845889175709200,6.120709228515625,0.0009265137487091124,-0.004977980628609657,-0.013164005242288113
1782845889185714200,6.130714111328125,0.0014937670202925801,-0.00444028852507472,-0.018191253766417503
1782845889195719200,6.14071923828125,0.0006444850005209446,-0.007279218174517155,-0.018857844173908234
1782845889205724200,6.15072412109375,-0.0012724583502858877,-0.011610050685703754,-0.024585237726569176
1782845889215729200,6.160729248046875,-0.0020240023732185364,-0.011148258112370968,-0.026487533003091812
1782845889225734100,6.170734130859375,-0.008159392513334751,-0.008342618122696877,-0.023745009675621986
1782845889235739100,6.1807392578125,-0.011350126005709171,-0.0037177728954702616,-0.012193283066153526
1782845889245744000,6.190744140625,-0.016042616218328476,-0.00034168356796726584,-0.004367318004369736
1782845889255749000,6.2007490234375,-0.02021339163184166,-0.0002556634717620909,0.014919028617441654
1782845889265754000,6.210754150390625,-0.017482852563261986,-0.0038978024385869503,0.029625004157423973
1782845889275758000,6.220758056640625,-0.01570918783545494,-0.008888565935194492,0.03965340182185173
1782845889285763000,6.23076318359375,-0.012523781508207321,-0.012613795697689056,0.046181079000234604
1782845889295768300,6.240768310546875,-0.0065460498444736,-0.011717909015715122,0.03490632027387619
1782845889305773300,6.250773193359375,-0.00008175904804375023,-0.007110906299203634,0.01830017752945423
1782845889315778300,6.2607783203125,0.006700247060507536,-0.0005201153689995408,-0.0005605954211205244
1782845889325783300,6.270783203125,0.010787400417029858,-0.0017787253018468618,-0.013755226507782936
1782845889335788300,6.280788330078125,0.011488877236843109,-0.0029923277907073498,-0.022844063118100166
1782845889345793300,6.290793212890625,0.01423459593206644,-0.0005597964627668262,-0.028682511299848557
1782845889355798300,6.30079833984375,0.014027668163180351,0.002141980454325676,-0.03152437135577202
1782845889365802000,6.310802001953125,0.015683887526392937,0.000222373942960985,-0.02791205793619156
1782845889375807000,6.320806884765625,0.014830345287919044,-0.004801413044333458,-0.017134245485067368
1782845889385812000,6.33081201171875,0.009672068059444427,-0.01131044514477253,-0.006637929007411003
1782845889395817000,6.34081689453125,0.0067995828576385975,-0.01125265471637249,-0.0037201696541160345
1782845889405822000,6.350822021484375,0.00185036426410079,-0.004290885291993618,-0.002746784361079335
1782845889415827000,6.360826904296875,0.0003933488915208727,-0.00046072687837295234,-0.004983839578926563
1782845889425832000,6.37083203125,-0.004855209030210972,0.002074069809168577,-0.0003195793251506984
1782845889435837000,6.3808369140625,-0.010786068625748158,-0.004689293913543224,0.00640889722853899
1782845889445842000,6.390842041015625,-0.01233549602329731,-0.010040650144219398,0.01563808135688305
1782845889455847200,6.40084716796875,-0.020124709233641624,-0.00800439715385437,0.019651198759675026
1782845889465851100,6.41085107421875,-0.02334819920361042,-0.004518585279583931,0.02474129945039749
1782845889475856100,6.420856201171875,-0.029197299852967262,-0.003695935010910034,0.031440213322639465
1782845889485861000,6.430861083984375,-0.030359502881765366,-0.004042678512632847,0.033178992569446564
1782845889495866000,6.4408662109375,-0.02731737494468689,0.005520733073353767,0.02887718752026558
1782845889505871000,6.45087109375,-0.021917816251516342,0.005092230159789324,0.02461213618516922
1782845889515876000,6.4608759765625,-0.016892697662115097,0.0029292108956724405,0.01835983246564865
1782845889525881000,6.470881103515625,-0.009559682570397854,0.00130947632715106,0.011987953446805477
1782845889535886000,6.480885986328125,0.0027949875220656395,-0.005840578582137823,0.00720464950427413
1782845889545891000,6.49089111328125,0.007654457353055477,-0.010928281582891941,0.0017646105261519551
1782845889555896000,6.50089599609375,0.016742760315537453,-0.007002249360084534,-0.0065252771601080894
1782845889565900000,6.510900146484375,0.017105218023061752,-0.0026612968649715185,-0.01739044114947319
1782845889575905000,6.520905029296875,0.017198162153363228,-0.0026312030386179686,-0.03237471729516983
1782845889585910000,6.530909912109375,0.019104452803730965,-0.00027510453946888447,-0.04139937087893486
1782845889595915000,6.5409150390625,0.017602162435650826,0.0015763250412419438,-0.046360574662685394
1782845889605920000,6.550919921875,0.01455950178205967,-0.004269579891115427,-0.04246783256530762
1782845889615925000,6.560925048828125,0.01309050153940916,-0.014664163812994957,-0.037566814571619034
1782845889625930000,6.570929931640625,0.014911837875843048,-0.02022537589073181,-0.03423040732741356
1782845889635935000,6.58093505859375,0.012294483371078968,-0.02262089028954506,-0.0356096588075161
1782845889645940000,6.59093994140625,0.006710899528115988,-0.02141900546848774,-0.03160959109663963
1782845889655945000,6.600945068359375,0.0014112089993432164,-0.014808506704866886,-0.03317100182175636
1782845889665949200,6.61094921875,-0.0057710702531039715,-0.00869362335652113,-0.01949939876794815
1782845889675954200,6.6209541015625,-0.00911253783851862,-0.004425108432769775,-0.008043012581765652
1782845889685959200,6.630959228515625,-0.010030795820057392,0.0004114583716727793,0.006843791343271732
1782845889695964200,6.640964111328125,-0.010120544582605362,0.003479952458292246,0.021744176745414734
1782845889705969200,6.65096923828125,-0.004565989598631859,-0.004036286845803261,0.03489912673830986
1782845889715974100,6.66097412109375,0.0018998990999534726,-0.011346664279699326,0.04421619698405266
1782845889725979100,6.670979248046875,0.010355968028306961,-0.008982310071587563,0.04477359727025032
1782845889735984000,6.680984130859375,0.017550764605402946,-0.0065045044757425785,0.03979162126779556
1782845889745989000,6.690989013671875,0.025291774421930313,-0.0051926313899457455,0.030598655343055725
1782845889755993000,6.7009931640625,0.027463048696517944,-0.0043619913049042225,0.017139306291937828
1782845889765998000,6.710998046875,0.02430667169392109,-0.00560941593721509,0.0054573495872318745
1782845889776003000,6.721003173828125,0.02118038572371006,-0.0037670412566512823,-0.008172442205250263
1782845889786008000,6.731008056640625,0.015445801429450512,-0.0089378347620368,-0.01619761250913143
1782845889796013000,6.741012939453125,0.006295446306467056,-0.006391586735844612,-0.022002236917614937
1782845889806018000,6.75101806640625,0.0018959043081849813,-0.0096259955316782,-0.02256256714463234
1782845889816023000,6.76102294921875,-0.0012207929976284504,-0.014552577398717403,-0.021517809480428696
1782845889826028000,6.771028076171875,-0.0027973842807114124,-0.017476461827754974,-0.02249731868505478
1782845889836033000,6.781032958984375,-0.0032562471460551023,-0.01703251339495182,-0.022714899852871895
1782845889846038000,6.7910380859375,-0.0012064119800925255,-0.011729626916348934,-0.012428972870111465
1782845889856042200,6.801042236328125,0.002596848411485553,-0.007870174013078213,-0.00009214537567459047
1782845889866047200,6.811047119140625,0.0017172062071040273,-0.004110589157789946,0.01197836548089981
1782845889876052200,6.82105224609375,0.007956460118293762,-0.0006649913266301155,0.026141589507460594
1782845889886057200,6.83105712890625,0.006148439832031727,-0.0012098740553483367,0.033664219081401825
1782845889896062200,6.841062255859375,0.0056949034333229065,0.001582716591656208,0.041914958506822586
1782845889906067200,6.851067138671875,0.0036509274505078793,0.0015662050573155284,0.04240311682224274
1782845889916072200,6.861072265625,0.0007853662245906889,0.0068022459745407104,0.03972051292657852
1782845889926077200,6.8710771484375,-0.00119575927965343,0.006738330237567425,0.03533828258514404
1782845889936082200,6.881082275390625,-0.0016943031223490834,-0.0007582019316032529,0.03230946883559227
1782845889946086100,6.891086181640625,-0.0008783105295151472,-0.0012492889072746038,0.021808892488479614
1782845889956091100,6.901091064453125,-0.0016969662392511964,-0.005685050040483475,0.006725546903908253
1782845889966096100,6.91109619140625,0.0017614146927371621,-0.008445416577160358,-0.004224305972456932
1782845889976101000,6.92110107421875,-0.00014034859486855567,-0.006252835970371962,-0.016874054446816444
1782845889986106000,6.931106201171875,-0.0041010016575455666,-0.004096208140254021,-0.026545323431491852
1782845889996111000,6.941111083984375,-0.006764162797480822,-0.006430468522012234,-0.020927120000123978
1782845890006116000,6.9511162109375,-0.008272843435406685,-0.010177004151046276,-0.01829591579735279
1782845890016121000,6.96112109375,-0.010823885910212994,-0.013717143796384335,-0.014639928936958313
1782845890026126000,6.9711259765625,-0.013283048756420612,-0.009428655728697777,-0.014255368150770664
1782845890036131000,6.981131103515625,-0.011951467953622341,-0.0040765004232525826,-0.009729859419167042
1782845890046135300,6.99113525390625,-0.0060328589752316475,-0.001725728390738368,-0.008927715010941029
1782845890056140300,7.001140380859375,-0.00631941482424736,-0.006527407560497522,-0.005564675200730562
1782845890066145300,7.011145263671875,-0.0024346618447452784,-0.009443302638828754,-0.004357730504125357
1782845890076150300,7.021150390625,-0.0026399914640933275,-0.014132063835859299,-0.00404640706256032
1782845890086155300,7.0311552734375,-0.002898584585636854,-0.015284148044884205,-0.00637933611869812
1782845890096160300,7.04116015625,-0.00344506511464715,-0.005060805007815361,-0.013630857691168785
1782845890106165200,7.051165283203125,-0.005842708982527256,0.004793956410139799,-0.017431188374757767
1782845890116170200,7.061170166015625,-0.008584433235228062,0.010359164327383041,-0.006155364215373993
1782845890126175200,7.07117529296875,-0.007060572504997253,0.010906443931162357,0.00875008199363947
1782845890136179200,7.08117919921875,-0.0033563817851245403,0.0007004113867878914,0.027471838518977165
1782845890146184200,7.09118408203125,0.007690143771469593,-0.008566590026021004,0.03900066390633583
1782845890156189200,7.101189208984375,0.012295016087591648,-0.016562998294830322,0.04144091531634331
1782845890166194200,7.111194091796875,0.017464477568864822,-0.012704609893262386,0.034574221819639206
1782845890176199200,7.12119921875,0.021633123978972435,-0.007162039168179035,0.014840198680758476
1782845890186204200,7.1312041015625,0.01477415207773447,-0.002767290687188506,-0.0016530241118744016
1782845890196210400,7.14121044921875,0.010240653529763222,0.007768174633383751,-0.022282136604189873
1782845890206215400,7.15121533203125,0.007748999632894993,0.01227317750453949,-0.02949557453393936
1782845890216220400,7.161220458984375,0.003518834710121155,0.0070344735868275166,-0.030483607202768326
1782845890226225400,7.171225341796875,0.0022234732750803232,0.006421147845685482,-0.026991670951247215
1782845890236229000,7.18122900390625,-0.002545981900766492,0.004807005636394024,-0.021733524277806282
1782845890246234000,7.191234130859375,-0.0018780612153932452,-0.00070520507870242,-0.0065532405860722065
1782845890256239000,7.201239013671875,-0.003864779369905591,-0.008203867822885513,0.0009142631897702813
1782845890266244000,7.211244140625,-0.003811782458797097,-0.013711018487811089,0.005259210709482431
1782845890276249000,7.2212490234375,-0.002296443795785308,-0.009546633809804916,0.009308014065027237
1782845890286254000,7.231254150390625,-0.005352953914552927,-0.002496180823072791,0.001984587637707591
1782845890296259000,7.241259033203125,-0.006849383935332298,0.007181213703006506,0.004178766161203384
1782845890306264000,7.25126416015625,-0.0065508438274264336,0.012339756824076176,0.006581203546375036
1782845890316269000,7.26126904296875,-0.010959174484014511,0.011897139251232147,0.013856160454452038
1782845890326273300,7.271273193359375,-0.01218902226537466,0.008241950534284115,0.02329067513346672
1782845890336278300,7.2812783203125,-0.014458567835390568,0.0030605047941207886,0.026461169123649597
1782845890346283300,7.291283203125,-0.014162424020469189,0.001332912128418684,0.028719263151288033
1782845890356288300,7.301288330078125,-0.0087205208837986,0.000925448490306735,0.02534051053225994
1782845890366293200,7.311293212890625,-0.00993225909769535,0.0037172401789575815,0.015589346177875996
1782845890376298200,7.32129833984375,-0.005874134600162506,0.0035625104792416096,0.004448277875781059
1782845890386303200,7.33130322265625,-0.006844324059784412,0.003725496120750904,-0.0035230957437306643
1782845890396308200,7.34130810546875,-0.0044054011814296246,0.0014048174489289522,-0.009929862804710865
1782845890406313200,7.351313232421875,-0.00643845833837986,0.0022386531345546246,-0.015425828285515308
1782845890416318200,7.361318115234375,-0.007533283904194832,0.0087205208837986,-0.0149800144135952
1782845890426322200,7.371322265625,-0.01170699018985033,0.006834736559540033,-0.01432114839553833
1782845890436327200,7.3813271484375,-0.007508249953389168,0.006859770510345697,-0.009347163140773773
1782845890446332200,7.391332275390625,-0.006935670506209135,0.006903978530317545,-0.004577973857522011
1782845890456337200,7.401337158203125,-0.006916761863976717,0.005768406670540571,0.0001478054327890277
1782845890466342100,7.411342041015625,-0.0024109596852213144,0.005231247283518314,-0.0003129214164800942
1782845890476347100,7.42134716796875,0.002645317930728197,0.005255482159554958,0.003460245206952095
1782845890486352100,7.43135205078125,0.005953230429440737,0.0013829795643687248,0.007130081299692392
1782845890496357000,7.441357177734375,0.009590841829776764,-0.005884787067770958,0.0035180358681827784
1782845890506362000,7.451362060546875,0.013517406769096851,-0.0005747101386077702,-0.004747350700199604
1782845890516367000,7.4613671875,0.007531685754656792,0.00250470289029181,-0.011951467953622341
1782845890526371300,7.471371337890625,0.00746111199259758,0.00990136619657278,-0.016101472079753876
1782845890536376300,7.481376220703125,0.005587578285485506,0.010853447020053864,-0.022495189681649208
1782845890546381300,7.49138134765625,0.0065132929012179375,0.009257947094738483,-0.02135615423321724
1782845890556386300,7.50138623046875,0.004384362138807774,0.007697068154811859,-0.016412528231739998
1782845890566391300,7.511391357421875,0.006500243674963713,0.008045143447816372,-0.014612765051424503
1782845890576396300,7.521396240234375,0.006804909091442823,0.0023486416321247816,-0.0005036037764512002
1782845890586401300,7.5314013671875,0.006085323169827461,-0.003385410411283374,0.005042162723839283
1782845890596406300,7.54140625,0.005242166109383106,-0.006596117280423641,0.007089867256581783
1782845890606411300,7.551411376953125,0.00774633651599288,-0.003343865042552352,0.006727410946041346
1782845890616415200,7.561415283203125,0.005747634451836348,0.0004932174342684448,0.004010187927633524
1782845890626420200,7.571420166015625,0.005288239102810621,0.0007217166712507606,0.004463724326342344
1782845890636425200,7.58142529296875,0.004739627707749605,0.00010679275874281302,-0.0002612560929264873
1782845890646430200,7.59143017578125,0.005497829522937536,0.0007941546500660479,-0.006291984114795923
1782845890656435200,7.601435302734375,0.0058080879971385,0.0005957491230219603,-0.010759437456727028
1782845890666440200,7.611440185546875,0.0036514601670205593,0.006928479764610529,-0.018635736778378487
1782845890676445200,7.621445068359375,0.009522931650280952,0.002578738844022155,-0.023538881912827492
1782845890686450200,7.6314501953125,0.01115997601300478,0.00242107966914773,-0.029151493683457375
1782845890696455200,7.641455078125,0.014405038207769394,-0.005164402071386576,-0.03590766713023186
1782845890706460200,7.651460205078125,0.013677729293704033,-0.008770854212343693,-0.03425890579819679
1782845890716464400,7.66146435546875,0.013964285142719746,-0.0038927425630390644,-0.028354676440358162
1782845890726469400,7.671469482421875,0.01377946138381958,-0.004093278665095568,-0.019184613600373268
1782845890736474400,7.681474365234375,0.01589161530137062,-0.004400074947625399,-0.009255816228687763
1782845890746479400,7.691479248046875,0.01386947650462389,-0.006114351563155651,-0.0009174589649774134
1782845890756484400,7.701484375,0.012060923501849174,-0.002898318227380514,0.0028549085836857557
1782845890766489300,7.7114892578125,0.011276090517640114,0.0023086944129318,0.0026783409994095564
1782845890776494300,7.721494384765625,0.007262706756591797,0.005374525208026171,-0.0031851406674832106
1782845890786499300,7.731499267578125,0.008390555158257484,0.0014253237750381231,-0.007419300265610218
1782845890796504300,7.74150439453125,0.008867260999977589,-0.0030208237003535032,-0.015573632903397083
1782845890806508300,7.75150830078125,0.011445733718574047,-0.004006725735962391,-0.02827451564371586
1782845890816513300,7.76151318359375,0.0090555464848876,-0.007888282649219036,-0.037410490214824677
1782845890826518300,7.771518310546875,0.00694871973246336,-0.007936219684779644,-0.04469716548919678
1782845890836523300,7.781523193359375,0.002100967802107334,-0.008172442205250263,-0.044990379363298416
1782845890846528300,7.7915283203125,0.003055178327485919,-0.007898136973381042,-0.04071440547704697
1782845890856533200,7.801533203125,-0.0034405377227813005,-0.007257646415382624,-0.03388180211186409
1782845890866538200,7.811538330078125,-0.007548197638243437,-0.002132659312337637,-0.02082645148038864
1782845890876543200,7.821543212890625,-0.00914609432220459,0.0009731190511956811,-0.01158874575048685
1782845890886548200,7.83154833984375,-0.012586631812155247,0.0009528790251351893,0.004376372788101435
1782845890896553200,7.84155322265625,-0.009576727636158466,-0.0029635655228048563,0.023306654766201973
1782845890906557400,7.851557373046875,-0.007497597485780716,-0.008400674909353256,0.028390629217028618
1782845890916562400,7.8615625,-0.0012844426091760397,-0.010624947026371956,0.030162695795297623
1782845890926567400,7.8715673828125,0.00017789915727917105,-0.009185775183141232,0.02684732712805271
1782845890936572400,7.881572509765625,0.004201402887701988,-0.01124919205904007,0.01215573213994503
1782845890946577400,7.891577392578125,0.004033091012388468,-0.0044232443906366825,-0.006869357544928789
1782845890956582400,7.90158251953125,0.005833654198795557,0.004653075244277716,-0.016090286895632744
1782845890966587400,7.91158740234375,0.004219778813421726,0.007873103022575378,-0.018994463607668877
1782845890976592400,7.92159228515625,0.0034165694378316402,0.0020660804584622383,-0.016752881929278374
1782845890986597400,7.931597412109375,0.0037348170299082994,-0.0020929782185703516,-0.01498347707092762
1782845890996601300,7.941601318359375,0.006454969756305218,-0.006352970842272043,-0.01110405009239912
1782845891006606300,7.9516064453125,0.005620601586997509,-0.010716293938457966,-0.009445167146623135
1782845891016611300,7.961611328125,0.0054672034457325935,-0.015067100524902344,-0.008131695911288261
1782845891026616300,7.9716162109375,0.0035633095540106297,-0.0115573201328516,-0.014094780199229717
1782845891036621300,7.981621337890625,0.005095692351460457,-0.011492871679365635,-0.023200660943984985
1782845891046626300,7.991626220703125,-0.001841842196881771,-0.011060906574130058,-0.021346833556890488
1782845891056631300,8.00163134765625,-0.007485879585146904,-0.007769239600747824,-0.021893581375479698
1782845891066636300,8.01163623046875,-0.013712616637349129,-0.0008125304593704641,-0.0161864273250103
1782845891076641300,8.021641357421874,-0.013925403356552124,0.00210709311068058,-0.010607370175421238
1782845891086645200,8.031645263671875,-0.016468988731503487,0.0038456046022474766,0.0035092474427074194
1782845891096650200,8.041650146484375,-0.013052152469754219,0.004311923868954182,0.012190885841846466
1782845891106655200,8.0516552734375,-0.015116368420422077,0.0055002267472445965,0.01895371824502945
1782845891116660500,8.061660400390625,-0.010691526345908642,0.006305033806711435,0.026188727468252182
1782845891126665500,8.07166552734375,-0.008922388777136803,0.004049070179462433,0.031805865466594696
1782845891136670500,8.08167041015625,-0.011393802240490913,-0.0030064424499869347,0.03177497535943985
1782845891146675500,8.091675537109374,-0.012162922881543636,0.0022330605424940586,0.024341026321053505
1782845891156680400,8.101680419921875,-0.011097658425569534,0.0014879080699756742,0.015590145252645016
1782845891166685400,8.111685546875,-0.01110671367496252,0.005694371182471514,0.005736715160310268
1782845891176690400,8.1216904296875,-0.01050190906971693,0.005775863770395517,-0.0004697816038969904
1782845891186694400,8.1316943359375,-0.007454720325767994,0.005495699122548103,-0.009846505708992481
1782845891196698400,8.141698486328124,-0.0025457157753407955,0.009224124252796173,-0.020599817857146263
1782845891206703400,8.151703369140625,0.0008972189389169216,0.009080846793949604,-0.024277642369270325
1782845891216708400,8.161708251953126,0.004156128969043493,0.010557036846876144,-0.02490135468542576
1782845891226713300,8.17171337890625,0.0073591130785644054,0.008363124914467335,-0.02105814777314663
1782845891236718300,8.18171826171875,0.01323750801384449,0.0032487902790308,-0.013924604281783104
1782845891246723300,8.191723388671875,0.018072476610541344,0.002502838848158717,-0.01209714263677597
1782845891256728300,8.201728271484376,0.017831195145845413,0.0035033884923905134,-0.004263188224285841
1782845891266733300,8.2117333984375,0.01925545372068882,0.005396629683673382,-0.0028391960076987743
1782845891276737500,8.221737548828125,0.024111993610858917,0.00962413102388382,-0.0009121326729655266
1782845891286742500,8.231742431640624,0.01830417290329933,0.01498107984662056,-0.0028535770252346992
1782845891296747500,8.24174755859375,0.01768605224788189,0.01477601658552885,0.0006348976166918874
1782845891306752500,8.25175244140625,0.020446153357625008,0.01338478084653616,0.0017787253018468618
1782845891316757500,8.261757568359375,0.020050140097737312,0.013093431480228901,0.005422994960099459
1782845891326762500,8.271762451171876,0.019934026524424553,0.011776498518884182,0.0067990501411259174
1782845891336767500,8.281767578125,0.021559353917837143,0.006080529186874628,0.009939982555806637
1782845891346772500,8.2917724609375,0.01997317560017109,0.00318940170109272,0.010571950115263462
1782845891356777500,8.301777587890625,0.01781015656888485,-0.0023579627741128206,0.0019217369845137
1782845891366782500,8.311782470703125,0.015028484165668488,0.0005475459038279951,-0.006792392116039991
1782845891376786400,8.321786376953124,0.009841179475188255,-0.0024865935556590557,-0.011034275405108929
1782845891386791400,8.33179150390625,0.0015670040156692266,-0.005260808393359184,-0.01739363744854927
1782845891396796400,8.34179638671875,-0.0014879080699756742,-0.005643771030008793,-0.01775502786040306
1782845891406801400,8.351801513671875,-0.005020857788622379,0.00006418218254111707,-0.020848024636507034
1782845891416806400,8.361806396484376,-0.009069927968084812,0.00011957593233091757,-0.015966981649398804
1782845891426811400,8.371811279296875,-0.007261374965310097,0.00373135507106781,-0.012545619159936905
1782845891436816400,8.38181640625,-0.006898918654769659,0.0028605014085769653,-0.00336197461001575
1782845891446821400,8.3918212890625,-0.004929511342197657,-0.005227518733590841,0.007375624496489763
1782845891456826400,8.401826416015625,0.0017592841759324074,-0.012021242640912533,0.016031164675951004
1782845891466830600,8.41183056640625,0.0051713259890675545,-0.010901383124291897,0.017664480954408646
1782845891476835600,8.421835693359375,0.007337274961173534,-0.002335858531296253,0.015915051102638245
1782845891486840600,8.431840576171876,0.008095476776361465,-0.010487262159585953,0.01543781254440546
1782845891496845600,8.441845458984375,0.01534433476626873,-0.005618737079203129,0.007862450554966927
1782845891506850600,8.4518505859375,0.017309481278061867,-0.0053553506731987,0.004042145796120167
1782845891516855600,8.46185546875,0.01949167624115944,-0.0056951697915792465,-0.0027324033435434103
1782845891526860500,8.471860595703125,0.020316990092396736,-0.006265618838369846,-0.007484814152121544
1782845891536865500,8.481865478515624,0.019760122522711754,-0.006176403257995844,-0.013881194405257702
1782845891546870500,8.49187060546875,0.01962083950638771,-0.009646768681704998,-0.015873504802584648
1782845891556875500,8.50187548828125,0.01996704936027527,-0.013705692254006863,-0.02123444899916649
1782845891566879500,8.51187939453125,0.01822773925960064,-0.011493670754134655,-0.027217239141464233
1782845891576884500,8.521884521484376,0.014784006401896477,-0.013502492569386959,-0.023318639025092125
1782845891586889500,8.531889404296875,0.013034042902290821,-0.009581787511706352,-0.02388535812497139
1782845891596894500,8.54189453125,0.010793792083859444,-0.010398845188319683,-0.01715874671936035
1782845891606899500,8.5518994140625,0.007114901207387447,-0.008830775506794453,-0.009126120246946812
1782845891616904400,8.561904541015625,0.005280249286442995,-0.006558300461620092,-0.0036943370942026377
1782845891626909400,8.571909423828124,0.00398701848462224,-0.003959854133427143,0.006345513742417097
1782845891636914400,8.58191455078125,0.0029792783316224813,-0.0022498385515064,0.016288425773382187
1782845891646919400,8.59191943359375,0.007486412301659584,-0.004539890680462122,0.018430672585964203
1782845891656923400,8.60192333984375,0.008540491573512554,-0.0021664814557880163,0.02359347604215145
1782845891666928400,8.611928466796876,0.011300591751933098,-0.005579322576522827,0.022274678573012352
1782845891676933400,8.621933349609375,0.0030011162161827087,0.01830097660422325,0.08969473093748093
1782845891686938400,8.6319384765625,-0.004473045468330383,0.011572233401238918,0.0786958783864975
1782845891696943400,8.641943359375,0.001347825862467289,0.04017271846532822,-0.004068777430802584
1782845891706948400,8.6519482421875,0.013953632675111294,-0.007441937457770109,-0.06178507208824158
1782845891716953300,8.661953369140624,0.023448601365089417,-0.051485560834407806,-0.06293582171201706
1782845891726958600,8.67195849609375,0.024633973836898804,-0.05305975675582886,-0.04559118673205376
1782845891736963600,8.681963623046874,0.015978699550032616,-0.036910612136125565,-0.0348471961915493
1782845891746968600,8.691968505859375,0.012617791071534157,-0.0142316659912467,-0.029282521456480026
1782845891756972300,8.70197216796875,0.011719772592186928,-0.004066647030413151,-0.0294958408921957
1782845891766977300,8.711977294921875,0.01203695498406887,0.0008820389630272985,-0.029451100155711174
1782845891776982300,8.721982177734375,0.01173175685107708,-0.008810536004602909,-0.02130662091076374
