time,seconds_elapsed,z,y,x
1782845883135253200,0.080253173828125,-0.010267384350299835,-0.0030341350939124823,0.01261654682457447
1782845883145258200,0.09025830078125,-0.013920442201197147,-0.0027262738440185785,0.025696128606796265
1782845883155263200,0.10026318359375,-0.016125064343214035,-0.0031146928668022156,0.036686256527900696
1782845883165267200,0.11026708984375,-0.01933816820383072,-0.00820106454193592,0.045652855187654495
1782845883175272200,0.120272216796875,-0.022442879155278206,-0.004353437572717667,0.03953716158866882
1782845883185276700,0.130276611328125,-0.026773445308208466,-0.00410070363432169,0.03482922539114952
1782845883195281700,0.14028173828125,-0.02515958435833454,-0.0024489229544997215,0.021570168435573578
1782845883205286700,0.15028662109375,-0.022467928007245064,-0.005593849346041679,0.007242627441883087
1782845883215291600,0.160291748046875,-0.022685565054416656,-0.0009041537996381521,-0.007565554231405258
1782845883225296600,0.170296630859375,-0.022931907325983047,-0.003241610014811158,-0.013991761952638626
1782845883235301600,0.180301513671875,-0.01744561269879341,-0.004348432645201683,-0.017396800220012665
1782845883245306600,0.190306640625,-0.02116312086582184,-0.0014924586284905672,-0.019725201651453972
1782845883255310800,0.200310791015625,-0.018361909314990044,0.0030777165666222572,-0.01567383110523224
1782845883265315800,0.21031591796875,-0.015488624572753906,-0.0009567062370479107,-0.006388720124959946
1782845883275320800,0.22032080078125,-0.009832840412855148,0.0007290069479495287,0.002240956062451005
1782845883285325800,0.230325927734375,-0.0029128827154636383,0.0013766876654699445,0.008271950297057629
1782845883295330800,0.240330810546875,0.0018616593442857265,0.003490212606266141,0.00837605632841587
1782845883305335800,0.250335693359375,0.010650090873241425,0.008334502577781677,0.005133391357958317
1782845883315340800,0.2603408203125,0.015020606108009815,0.002148137893527746,0.00321590737439692
1782845883325345800,0.270345703125,0.017771119251847267,-0.0008551089558750391,-0.00044114544289186597
1782845883335350800,0.280350830078125,0.02015107311308384,-0.0031844128388911486,-0.008580980822443962
1782845883345354800,0.290354736328125,0.01654435321688652,-0.0029777514282613993,-0.012924063950777054
1782845883355359700,0.30035986328125,0.019145645201206207,-0.004167556297034025,-0.02328607253730297
1782845883365364700,0.31036474609375,0.014673132449388504,-0.0016245036385953426,-0.01841328665614128
1782845883375369700,0.32036962890625,0.017578892409801483,0.0011662024771794677,-0.022395500913262367
1782845883385374700,0.330374755859375,0.01828889176249504,0.004413128364831209,-0.019770422950387
1782845883395379700,0.340379638671875,0.020350193604826927,0.004357222467660904,-0.011112230829894543
1782845883405384700,0.350384765625,0.019440989941358566,0.0001805869396775961,-0.00967785157263279
1782845883415389700,0.3603896484375,0.022111326456069946,-0.002076728967949748,-0.007054626476019621
1782845883425394700,0.370394775390625,0.024737738072872162,-0.002864491892978549,-0.007748113479465246
1782845883435399000,0.38039892578125,0.021380765363574028,0.0032513272017240524,-0.009822655469179153
1782845883445404000,0.39040380859375,0.018590305000543594,0.004668661393225193,-0.012756926007568836
1782845883455409000,0.400408935546875,0.011848093941807747,0.004133735317736864,-0.013248926028609276
1782845883465414000,0.410413818359375,0.007430974394083023,0.002194155240431428,-0.01640264317393303
1782845883475419000,0.4204189453125,0.0031109496485441923,0.002947618719190359,-0.013680251315236092
1782845883485423900,0.430423828125,-0.0016561085358262062,0.0013840770116075873,-0.010178194381296635
1782845883495428900,0.440428955078125,-0.00689349602907896,0.0036308076232671738,-0.007287845481187105
1782845883505433900,0.450433837890625,-0.008531074039638042,-0.0008984305895864964,-0.008036727085709572
1782845883515438800,0.46043896484375,-0.014397107064723969,-0.00027557252906262875,-0.009404635988175869
1782845883525442800,0.47044287109375,-0.017575323581695557,-0.0001783671323210001,-0.009401173330843449
1782845883535447800,0.48044775390625,-0.017762010917067528,-0.0004923536907881498,-0.010470166802406311
1782845883545452800,0.490452880859375,-0.018093310296535492,0.0072790165431797504,-0.010698133148252964
1782845883555457800,0.500457763671875,-0.017922740429639816,0.0070277368649840355,-0.0040685865096747875
1782845883565462800,0.510462890625,-0.016826316714286804,0.007914570160210133,0.005346220452338457
1782845883575467800,0.5204677734375,-0.016735685989260674,0.011637839488685131,0.012599521316587925
1782845883585472800,0.53047265625,-0.014687980525195599,0.016580134630203247,0.018099214881658554
1782845883595477800,0.540477783203125,-0.01639077626168728,0.020476536825299263,0.022422293201088905
1782845883605481700,0.550481689453125,-0.014186479151248932,0.018008586019277573,0.02841280773282051
1782845883615486700,0.56048681640625,-0.009119703434407711,0.009118633344769478,0.040263768285512924
1782845883625491700,0.57049169921875,-0.007600902579724789,-0.0005813988391309977,0.04289044439792633
1782845883635496700,0.58049658203125,0.002140927128493786,-0.0018576057627797127,0.03285539895296097
1782845883645501700,0.590501708984375,0.004993705078959465,0.002307311864569783,0.017467118799686432
1782845883655506700,0.600506591796875,0.009885497391223907,0.007425565738230944,0.006935552693903446
1782845883665512000,0.610511962890625,0.010888444259762764,0.010690867900848389,-0.004325624089688063
1782845883675517000,0.620516845703125,0.012966732494533062,0.01322997361421585,-0.012019719928503036
1782845883685522000,0.63052197265625,0.013998175039887428,0.006609620992094278,-0.013865823857486248
1782845883695525600,0.640525634765625,0.01253281906247139,0.003796086646616459,-0.011619096621870995
1782845883705530600,0.650530517578125,0.015819426625967026,0.003511394839733839,-0.011257972568273544
1782845883715535600,0.66053564453125,0.013610363006591797,-0.0022086105309426785,-0.010941618122160435
1782845883725540600,0.67054052734375,0.010167427361011505,-0.007716027554124594,-0.008304555900394917
1782845883735545600,0.680545654296875,0.01109025627374649,-0.003008405677974224,-0.012902013026177883
1782845883745550600,0.690550537109375,0.009430041536688805,-0.00195885356515646,-0.018098905682563782
1782845883755555600,0.7005556640625,0.008544063195586205,0.004427378997206688,-0.022342707961797714
1782845883765560600,0.710560546875,0.003018536139279604,0.0013895111624151468,-0.016382019966840744
1782845883775565600,0.720565673828125,-0.0038613188080489635,0.0026998415123671293,-0.010988212190568447
1782845883785569800,0.73056982421875,-0.008084293454885483,0.007477818988263607,-0.004008864983916283
1782845883795574800,0.74057470703125,-0.012884949333965778,0.009562589228153229,0.006940231192857027
1782845883805579800,0.750579833984375,-0.010773329064249992,0.0063955578953027725,0.016612831503152847
1782845883815584800,0.760584716796875,-0.008242471143603325,0.003577639814466238,0.028148792684078217
1782845883825589800,0.77058984375,-0.003940933849662542,0.0007213994394987822,0.03429004177451134
1782845883835594800,0.7805947265625,-0.000021894928067922592,-0.00298811006359756,0.03456627577543259
1782845883845599700,0.790599853515625,0.0056050983257591724,-0.005157520994544029,0.0285017266869545
1782845883855604700,0.800604736328125,0.0049090031534433365,-0.005158879794180393,0.01754702813923359
1782845883865609700,0.810609619140625,0.0029579715337604284,0.0000755626242607832,0.0038237576372921467
1782845883875614700,0.82061474609375,0.0017862224485725164,0.0037999460473656654,-0.004356983117759228
1782845883885618700,0.83061865234375,-0.001385602168738842,0.004646831192076206,-0.005208395887166262
1782845883895623700,0.840623779296875,-0.0031318101100623608,0.0032061010133475065,-0.0043325056321918964
1782845883905628700,0.850628662109375,-0.00016424967907369137,0.0012971472460776567,-0.0070350817404687405
1782845883915633700,0.860633544921875,-0.005477774888277054,-0.0007633203640580177,-0.003228638553991914
1782845883925638700,0.870638671875,-0.007297246716916561,-0.003727684961631894,-0.003458469407632947
1782845883935643600,0.8806435546875,-0.0068307723850011826,-0.004814998246729374,-0.0034916489385068417
1782845883945648600,0.890648681640625,-0.006168177351355553,-0.002751314779743552,-0.005018439143896103
1782845883955653600,0.900653564453125,-0.008090460672974586,-0.004677332937717438,-0.003827994456514716
1782845883965657600,0.91065771484375,-0.008856119588017464,-0.00631491094827652,-0.0031965586822479963
1782845883975662600,0.92066259765625,-0.012132733128964901,-0.005206892266869545,-0.0003668229328468442
1782845883985667600,0.93066748046875,-0.008795525878667831,-0.0008265250362455845,0.00428252387791872
1782845883995672600,0.940672607421875,-0.011797329410910606,0.004798281937837601,0.010134710930287838
1782845884005677800,0.950677734375,-0.012162448838353157,0.011757655069231987,0.009936572052538395
1782845884015682800,0.960682861328125,-0.006981240585446358,0.010019607841968536,0.01745251566171646
1782845884025687800,0.970687744140625,-0.0014663668116554618,0.01039830967783928,0.022091474384069443
1782845884035692800,0.98069287109375,0.0057449121959507465,0.005814278032630682,0.021771127358078957
1782845884045697800,0.99069775390625,0.006991804111748934,0.001312470412813127,0.015446651726961136
1782845884055701800,1.00070166015625,0.012434282340109348,-0.0018239819910377264,0.007539418060332537
1782845884065706800,1.010706787109375,0.01379968598484993,-0.00270282500423491,-0.004330024588853121
1782845884075711700,1.020711669921875,0.01381000131368637,-0.0032076446805149317,-0.02272493951022625
1782845884085716700,1.030716796875,0.009842155501246452,0.0011170627549290657,-0.035993341356515884
1782845884095721700,1.0407216796875,0.00620427867397666,0.004805007949471474,-0.04239797592163086
1782845884105726700,1.050726806640625,-0.002706392202526331,0.007203184999525547,-0.03758377954363823
1782845884115731700,1.060731689453125,-0.004898131359368563,0.006053449586033821,-0.029461180791258812
1782845884125736700,1.07073681640625,-0.0048936037346720695,0.004224657081067562,-0.02144506573677063
1782845884135741700,1.08074169921875,-0.0014237428549677134,-0.00279310648329556,-0.007258702535182238
1782845884145746700,1.09074658203125,0.00362028437666595,-0.007004896178841591,-0.0018831121269613504
1782845884155750700,1.100750732421875,0.010945435613393784,-0.002259285654872656,-0.007101170253008604
1782845884165755600,1.110755615234375,0.014059469103813171,0.004240158945322037,-0.013706076890230179
1782845884175760600,1.1207607421875,0.015414049848914146,0.0029228839557617903,-0.015161057934165001
1782845884185765600,1.130765625,0.016072649508714676,0.0022304621525108814,-0.01431790180504322
1782845884195770600,1.1407705078125,0.01657632365822792,0.003094384679570794,-0.010781027376651764
1782845884205775600,1.150775634765625,0.015450337901711464,0.0012770434841513634,-0.007230234332382679
1782845884215780600,1.160780517578125,0.013693619519472122,0.0046263099648058414,0.000889043090865016
1782845884225785900,1.170785888671875,0.015887532383203506,0.002366351429373026,0.005182324908673763
1782845884235790800,1.180790771484375,0.01558794267475605,-0.002863652538508177,0.01297312043607235
1782845884245794600,1.190794677734375,0.016348540782928467,-0.006806462071835995,0.012757403776049614
1782845884255799600,1.200799560546875,0.019178496673703194,-0.0030055856332182884,0.0011075903894379735
1782845884265804500,1.210804443359375,0.015533961355686188,-0.002826354932039976,-0.008653161115944386
1782845884275809500,1.2208095703125,0.01028229296207428,-0.002827782416716218,-0.018535437062382698
1782845884285814800,1.230814697265625,0.00679408386349678,-0.0034520274493843317,-0.02572038024663925
1782845884295819800,1.24081982421875,0.0013831867836415768,-0.004840496461838484,-0.02605152316391468
1782845884305824800,1.25082470703125,-0.006056886166334152,-0.009002750739455223,-0.016510749235749245
1782845884315829800,1.260829833984375,-0.00983411818742752,-0.008496634662151337,-0.0015527673531323671
1782845884325834800,1.270834716796875,-0.01329303253442049,-0.005584201775491238,0.010119335725903511
1782845884335838500,1.28083837890625,-0.01693982444703579,-0.006906850263476372,0.02318865805864334
1782845884345843500,1.290843505859375,-0.01538374088704586,-0.010640069842338562,0.029219653457403183
1782845884355848400,1.300848388671875,-0.016572756692767143,-0.011294770985841751,0.0335429422557354
1782845884365853400,1.310853515625,-0.017067572101950645,-0.01110382191836834,0.03097166121006012
1782845884375858400,1.3208583984375,-0.018176233395934105,-0.010320832021534443,0.029102908447384834
1782845884385863400,1.330863525390625,-0.01255403459072113,-0.012698768638074398,0.025295652449131012
1782845884395868400,1.340868408203125,-0.009742002002894878,-0.019389960914850235,0.019713401794433594
1782845884405873700,1.350873779296875,-0.0035371030680835247,-0.02242835983633995,0.018533887341618538
1782845884415878700,1.360878662109375,0.0015863149892538786,-0.02222682721912861,0.013468526303768158
1782845884425883600,1.370883544921875,0.007608520798385143,-0.022614849731326103,0.008385350927710533
1782845884435887600,1.3808876953125,0.010775314643979073,-0.01680603250861168,0.005981020163744688
1782845884445892600,1.390892578125,0.014777778647840023,-0.013667230494320393,0.00026081688702106476
1782845884455897600,1.400897705078125,0.011630162596702576,-0.011706652119755745,-0.0022004516795277596
1782845884465902600,1.410902587890625,0.010314826853573322,-0.01185046136379242,-0.0030247000977396965
1782845884475907600,1.420907470703125,0.010346516966819763,-0.017557773739099503,0.0007689765770919621
1782845884485912600,1.43091259765625,0.00749746710062027,-0.026133950799703598,0.005542693194001913
1782845884495917600,1.44091748046875,0.011268112808465958,-0.031281810253858566,0.004156641196459532
1782845884505922600,1.450922607421875,0.01092110201716423,-0.02840079925954342,0.007595581002533436
1782845884515927600,1.460927490234375,0.010597821325063705,-0.025917362421751022,0.008233915083110332
1782845884525931500,1.470931640625,0.009267039597034454,-0.02313622273504734,0.008410749025642872
1782845884535936500,1.4809365234375,0.008605104871094227,-0.017314696684479713,0.004905103240162134
1782845884545941500,1.49094140625,0.009179282002151012,-0.010671972297132015,0.0045759365893900394
1782845884555946500,1.500946533203125,0.0038996899966150522,-0.006705760955810547,0.007113004103302956
1782845884565951500,1.510951416015625,0.0006668786518275738,-0.008643743582069874,0.011910954490303993
1782845884575956500,1.52095654296875,0.001971436897292733,-0.012595041655004025,0.010287085548043251
1782845884585961500,1.53096142578125,-0.00009863823652267456,-0.01716689020395279,0.014879174530506134
1782845884595966500,1.540966552734375,-0.0037219952791929245,-0.017610963433980942,0.009220615960657597
1782845884605971500,1.550971435546875,-0.004573940299451351,-0.019905542954802513,0.00623361486941576
1782845884615975700,1.5609755859375,-0.0058671580627560616,-0.022347906604409218,0.0015200721099972725
1782845884625980700,1.570980712890625,-0.006078346632421017,-0.01532328687608242,-0.009590369649231434
1782845884635985700,1.580985595703125,-0.010302932932972908,-0.01802188903093338,-0.01630977913737297
1782845884645990700,1.59099072265625,-0.01404174417257309,-0.008131173439323902,-0.01839849352836609
1782845884655995600,1.60099560546875,-0.0177677720785141,-0.0064187608659267426,-0.020795870572328568
1782845884666000600,1.611000732421875,-0.013848399743437767,-0.00023383600637316704,-0.02104993909597397
1782845884676005600,1.621005615234375,-0.010901655070483685,0.005555500276386738,-0.01963309571146965
1782845884686010600,1.6310107421875,-0.008200944401323795,0.005228464491665363,-0.010480877012014389
1782845884696015600,1.641015625,-0.006447041407227516,0.003915819339454174,0.001792624476365745
1782845884706020600,1.6510205078125,-0.003003840334713459,-0.0070132608525455,0.015609903261065483
1782845884716024600,1.661024658203125,-0.001903042895719409,-0.015822097659111023,0.026279214769601822
1782845884726029600,1.671029541015625,0.00022482266649603844,-0.01827939599752426,0.03198077529668808
1782845884736034600,1.68103466796875,-0.004023633897304535,-0.022933097556233406,0.02935721166431904
1782845884746039600,1.69103955078125,-0.006378401070833206,-0.021463565528392792,0.025371259078383446
1782845884756044500,1.70104443359375,-0.006719551980495453,-0.007426576688885689,0.016578299924731255
1782845884766049500,1.711049560546875,-0.007085470482707024,0.0003834094386547804,0.006910226307809353
1782845884776054500,1.721054443359375,-0.0073338584043085575,0.005844924598932266,-0.000021267507690936327
1782845884786059500,1.7310595703125,0.003429307136684656,0.007194614503532648,-0.0062605212442576885
1782845884796064500,1.741064453125,0.007641109637916088,-0.0025341587606817484,-0.009857134893536568
1782845884806069500,1.751069580078125,0.011459017172455788,-0.004068938083946705,-0.017375238239765167
1782845884816073700,1.76107373046875,0.016609935089945793,-0.010263793170452118,-0.016175849363207817
1782845884826078700,1.77107861328125,0.01744137331843376,-0.02056756243109703,-0.012400285340845585
1782845884836083700,1.781083740234375,0.013878107070922852,-0.025234535336494446,-0.008071092888712883
1782845884846088700,1.791088623046875,0.01320246234536171,-0.0143933380022645,-0.0044111101888120174
1782845884856093700,1.80109375,0.010154924355447292,-0.009010836482048035,-0.006897088140249252
1782845884866098700,1.8110986328125,0.0037982254289090633,0.0039880527183413506,-0.0013233579229563475
1782845884876103700,1.821103759765625,-0.0007439797045662999,0.0063465614803135395,0.0067688398994505405
1782845884886108700,1.831108642578125,-0.00857500545680523,0.013134160079061985,0.0046441699378192425
1782845884896113700,1.84111376953125,-0.013217959553003311,0.015615693293511868,0.006870040204375982
1782845884906117600,1.85111767578125,-0.014868853613734245,0.012706989422440529,0.003908338490873575
1782845884916122600,1.86112255859375,-0.017186826094985008,0.006841861642897129,0.011160084046423435
1782845884926127600,1.871127685546875,-0.015743926167488098,0.0013432331616058946,0.013496208935976028
1782845884936132600,1.881132568359375,-0.012180349789559841,-0.005333843640983105,0.012534274719655514
1782845884946137600,1.8911376953125,-0.010990715585649014,0.00606475118547678,0.0074226041324436665
1782845884956142600,1.901142578125,-0.010249866172671318,0.013817260973155499,0.0027187042869627476
1782845884966147600,1.911147705078125,-0.0038108760491013527,0.015515025705099106,0.005182128399610519
1782845884976152600,1.921152587890625,-0.0030344936531037092,0.0173474308103323,0.0077954186126589775
1782845884986157600,1.931157470703125,-0.0006142128258943558,0.01318118255585432,0.011518252082169056
1782845884996162600,1.94116259765625,-0.0013722192961722612,0.0034490423277020454,0.015195880085229874
1782845885006166800,1.951166748046875,0.00017001712694764137,-0.002296993974596262,0.02155417762696743
1782845885016171800,1.961171875,0.0034745382145047188,0.00014234567061066628,0.014693005941808224
1782845885026176800,1.9711767578125,0.004562439396977425,0.0006041377782821655,0.008650826290249825
1782845885036181800,1.981181640625,0.0030211261473596096,0.0018083852482959628,0.0006803893484175205
1782845885046186800,1.991186767578125,0.007418004795908928,0.004964497406035662,0.0018335380591452122
1782845885056191700,2.001191650390625,0.006159843411296606,0.005426650866866112,-0.004224271047860384
1782845885066196700,2.01119677734375,0.004644504748284817,0.002442312892526388,-0.008495449088513851
1782845885076201700,2.02120166015625,0.004346834495663643,0.008036965504288673,-0.010601544752717018
1782845885086206700,2.031206787109375,-0.0023211881052702665,0.01291747484356165,-0.01067211851477623
1782845885096211700,2.041211669921875,-0.005821351893246174,0.012466533109545708,-0.004416646435856819
1782845885106215700,2.051215576171875,-0.004855423234403133,0.006605714559555054,0.0026199575513601303
1782845885116220700,2.061220703125,-0.0025267840828746557,-0.0007264323066920042,0.0103612607344985
1782845885126225700,2.0712255859375,-0.0005951934726908803,-0.0015022109728306532,0.010402539744973183
1782845885136230700,2.081230712890625,0.0008519261609762907,-0.0020031037274748087,0.012125381268560886
1782845885146235600,2.091235595703125,0.0015014710370451212,-0.000694692600518465,0.011709394864737988
1782845885156240600,2.10124072265625,0.0011090345215052366,0.0027787042781710625,0.005029810126870871
1782845885166245600,2.11124560546875,0.0017556499224156141,0.011377785354852676,-0.0019436771981418133
1782845885176250600,2.121250732421875,0.0007058451883494854,0.014301423914730549,-0.003486194647848606
1782845885186255000,2.131255126953125,0.0028534182347357273,0.011771420948207378,-0.00418873643502593
1782845885196260000,2.141260009765625,0.007615571841597557,0.010561334900557995,0.00026790969423018396
1782845885206264300,2.151264404296875,0.005863212049007416,0.006263525690883398,0.0054221912287175655
1782845885216269300,2.161269287109375,0.009178634732961655,0.005380237475037575,0.002451907843351364
1782845885226274300,2.1712744140625,0.010936319828033447,-0.0005096099339425564,-0.0008642601314932108
1782845885236279300,2.181279296875,0.011545108631253242,-0.0028711643535643816,-0.003597710747271776
1782845885246284300,2.1912841796875,0.009293671697378159,-0.0028826158959418535,-0.01025534700602293
1782845885256289300,2.201289306640625,0.003942440263926983,-0.002668265951797366,-0.018645230680704117
1782845885266294300,2.211294189453125,-0.002664862433448434,0.00010115536861121655,-0.025856271386146545
1782845885276299300,2.22129931640625,-0.006228646729141474,0.004575395490974188,-0.02813705801963806
1782845885286304300,2.23130419921875,-0.011000232771039009,0.00812166091054678,-0.03155602514743805
1782845885296309200,2.241309326171875,-0.01449560560286045,0.009111332707107067,-0.024620648473501205
1782845885306313200,2.251313232421875,-0.01666421629488468,0.008430629037320614,-0.013413534499704838
1782845885316318200,2.261318115234375,-0.018729470670223236,0.010661756619811058,0.008337806910276413
1782845885326323200,2.2713232421875,-0.014944585040211678,0.012320106849074364,0.02336229756474495
1782845885336328200,2.281328125,-0.010420266538858414,0.00825946219265461,0.029962800443172455
1782845885346333200,2.291333251953125,-0.007054829970002174,-0.0022107551340013742,0.03167467936873436
1782845885356338200,2.301338134765625,-0.006732097361236811,0.003674345789477229,0.029399584978818893
1782845885366343200,2.31134326171875,-0.009499387815594673,0.006525525823235512,0.02348443679511547
1782845885376348200,2.32134814453125,-0.008447020314633846,0.012707153335213661,0.01748684234917164
1782845885386353200,2.331353271484375,-0.007829433307051659,0.013646982610225677,0.007111698854714632
1782845885396358100,2.341358154296875,-0.008189057931303978,0.011433971114456654,0.0007742735324427485
1782845885406362400,2.3513623046875,-0.0068875704891979694,0.009654180146753788,0.0009340632241219282
1782845885416367400,2.361367431640625,-0.0017846452537924051,0.0043581705540418625,-0.003630636492744088
1782845885426372400,2.371372314453125,0.003136876504868269,-0.001334069762378931,-0.010721836239099503
1782845885436377300,2.38137744140625,0.009211182594299316,-0.0010775327682495117,-0.018739182502031326
1782845885446382300,2.39138232421875,0.007598106283694506,-0.006548730656504631,-0.022332852706313133
1782845885456387300,2.40138720703125,0.011680997908115387,-0.004004613030701876,-0.018139705061912537
1782845885466392300,2.411392333984375,0.0073674763552844524,-0.005794523283839226,-0.013803547248244286
1782845885476397300,2.421397216796875,0.004133543930947781,-0.008543144911527634,-0.004048597998917103
1782845885486402300,2.43140234375,0.002891978481784463,-0.007802519481629133,0.004584039095789194
1782845885496406300,2.44140625,0.001316521316766739,-0.007195591926574707,0.008849019184708595
1782845885506411300,2.451411376953125,-0.0003508839290589094,-0.010204964317381382,0.01586831361055374
1782845885516416300,2.461416259765625,-0.00031544826924800873,-0.010854597203433514,0.015069086104631424
1782845885526421200,2.471421142578125,-0.0006608603289350867,-0.01056644320487976,0.012317508459091187
1782845885536426200,2.48142626953125,-0.0030139184091240168,-0.015917852520942688,0.01055491529405117
1782845885546431200,2.49143115234375,-0.005751115269958973,-0.021386122331023216,0.008480312302708626
1782845885556436200,2.501436279296875,-0.011800233274698257,-0.014940493740141392,0.006388681009411812
1782845885566441200,2.511441162109375,-0.014774451032280922,-0.013271757401525974,0.003988107666373253
1782845885576446200,2.5214462890625,-0.01463523879647255,-0.00986199639737606,0.0039152055978775024
1782845885586451200,2.531451171875,-0.011703630909323692,-0.003258688608184457,0.0018304833211004734
1782845885596455400,2.541455322265625,-0.015254508703947067,-0.0006510922685265541,0.002685707760974765
1782845885606460400,2.55146044921875,-0.012169502675533295,0.001292216358706355,-0.0017593742813915014
1782845885616465400,2.56146533203125,-0.009541465900838375,0.0023017525672912598,-0.011812567710876465
1782845885626470400,2.571470458984375,-0.010063711553812027,0.006828594021499157,-0.02031683921813965
1782845885636475400,2.581475341796875,-0.006951207295060158,0.008585208095610142,-0.026660295203328133
1782845885646480400,2.59148046875,-0.006501665338873863,-0.0037012854591012,-0.024253597483038902
1782845885656485400,2.6014853515625,-0.008360227569937706,-0.0027514726389199495,-0.030837785452604294
1782845885666490400,2.611490478515625,-0.004689859226346016,-0.0009125599171966314,-0.026857955381274223
1782845885676495400,2.621495361328125,-0.0033318845089524984,0.00006315414793789387,-0.02714054472744465
1782845885686500400,2.631500244140625,-0.0017925773281604052,-0.006593151018023491,-0.018105238676071167
1782845885696505300,2.64150537109375,-0.0019719633273780346,0.003910568077117205,-0.01283522229641676
1782845885706509300,2.65150927734375,-0.0011522421846166253,0.0036306697875261307,-0.0015330322785302997
1782845885716514300,2.661514404296875,-0.001524175051599741,0.006488719955086708,0.006751681212335825
1782845885726519300,2.671519287109375,-0.0012988717062398791,0.005363001488149166,0.018518857657909393
1782845885736524300,2.681524169921875,0.00656959367915988,0.0016285054152831435,0.02364928647875786
1782845885746529300,2.691529296875,0.007200495805591345,0.0033864579163491726,0.024280721321702003
1782845885756534300,2.7015341796875,0.015362412668764591,0.001109045697376132,0.029614107683300972
1782845885766539300,2.711539306640625,0.015586650930345058,0.0017559275729581714,0.02239241451025009
1782845885776544300,2.721544189453125,0.01645737886428833,0.0015443494776263833,0.01728273369371891
1782845885786549200,2.73154931640625,0.015696512535214424,0.0008937392849475145,0.00996383372694254
1782845885796554200,2.74155419921875,0.011033456772565842,0.005306474398821592,0.0030623776838183403
1782845885806558500,2.751558349609375,0.00436037452891469,0.014162283390760422,-0.0049047344364225864
1782845885816563500,2.7615634765625,0.004903785884380341,0.013001801446080208,-0.004437475465238094
1782845885826568400,2.771568359375,0.0020222458988428116,0.004775030072778463,-0.00274264020845294
1782845885836573400,2.781573486328125,-0.00006010895594954491,-0.005268481560051441,-0.00008264812640845776
1782845885846578400,2.791578369140625,-0.0003509263042360544,-0.006922038272023201,-0.004519207868725061
1782845885856583400,2.80158349609375,-0.002165393205359578,-0.0058197276666760445,-0.003926331177353859
1782845885866588400,2.81158837890625,-0.004571293015033007,-0.008296467363834381,-0.0013952632434666157
1782845885876593400,2.821593505859375,-0.003109903307631612,-0.008269733749330044,-0.004488635808229446
1782845885886598400,2.831598388671875,-0.005520330276340246,0.0003727567382156849,0.0025793935637921095
1782845885896603400,2.841603271484375,-0.001202731509692967,-0.0021511076483875513,0.00750429043546319
1782845885906607000,2.851607177734375,0.0013536368496716022,-0.0005987507756799459,0.011171995662152767
1782845885916612400,2.8616123046875,0.00566285802051425,0.001902961521409452,0.016422461718320847
1782845885926617300,2.871617431640625,0.009061051532626152,-0.0013000222388654947,0.015076234936714172
1782845885936622300,2.881622314453125,0.011655809357762337,0.0014289800310507417,0.015421601943671703
1782845885946627300,2.89162744140625,0.016353890299797058,-0.006709108129143715,0.008131731301546097
1782845885956632300,2.90163232421875,0.015897424891591072,-0.010753117501735687,0.0037388470955193043
1782845885966637300,2.91163720703125,0.014963189139962196,-0.012178175151348114,-0.00659262016415596
1782845885976642300,2.921642333984375,0.01438982505351305,-0.010968922637403011,-0.0160127654671669
1782845885986647300,2.931647216796875,0.010261659510433674,-0.0034742543939501047,-0.02768886275589466
1782845885996652300,2.94165234375,0.008435264229774475,-0.004208487458527088,-0.022219527512788773
1782845886006656300,2.95165625,0.006177435629069805,-0.00744076631963253,-0.01673181913793087
1782845886016661200,2.9616611328125,0.0035160682164132595,-0.01449190266430378,-0.005385618191212416
1782845886026666200,2.971666259765625,0.00413765013217926,-0.011406362988054752,-0.0007381355972029269
1782845886036671200,2.981671142578125,0.005951487459242344,-0.009544766508042812,0.00040946228546090424
1782845886046676200,2.99167626953125,0.004765847697854042,-0.0071324752643704414,0.0017410428263247013
1782845886056681200,3.00168115234375,-0.0015644708182662725,-0.009284131228923798,-0.0030523932073265314
1782845886066686200,3.011686279296875,-0.0010848356178030372,-0.012570738792419434,-0.0061019789427518845
1782845886076691200,3.021691162109375,-0.005800104700028896,-0.016563650220632553,-0.01223083958029747
1782845886086696400,3.031696533203125,-0.011091005988419056,-0.018432389944791794,-0.01837235502898693
1782845886096701400,3.041701416015625,-0.017988327890634537,-0.016391344368457794,-0.012356541119515896
1782845886106705200,3.051705078125,-0.024099482223391533,-0.012587550096213818,-0.011109915561974049
1782845886116710100,3.061710205078125,-0.024399984627962112,-0.009662259370088577,-0.007837857119739056
1782845886126715100,3.071715087890625,-0.024246852844953537,-0.005782832391560078,0.0002927740279119462
1782845886136720100,3.08172021484375,-0.0206555537879467,-0.00533671211451292,0.007838542573153973
1782845886146725000,3.09172509765625,-0.013808035291731358,-0.017674870789051056,0.014920420944690704
1782845886156730000,3.101730224609375,-0.009102843701839447,-0.02689075469970703,0.022313179448246956
1782845886166735000,3.111735107421875,-0.0062559242360293865,-0.03131533041596413,0.016659820452332497
1782845886176740000,3.121739990234375,-0.004459845833480358,-0.026782676577568054,0.011522806249558926
1782845886186745000,3.1317451171875,-0.0007764280308037996,-0.017220597714185715,0.0019183825934305787
1782845886196750000,3.14175,0.0015028316993266344,-0.000619659898802638,-0.0044749281369149685
1782845886206754300,3.15175439453125,0.006001443136483431,0.00935334526002407,-0.007443553768098354
1782845886216759300,3.16175927734375,0.005571930669248104,0.0033406997099518776,-0.00014974450459703803
1782845886226764300,3.171764404296875,0.010157894343137741,-0.003497765399515629,0.013141825795173645
1782845886236769300,3.181769287109375,0.009514166042208672,-0.010196899063885212,0.025355391204357147
1782845886246774300,3.191774169921875,0.010904336348176003,-0.012227559462189674,0.02705235779285431
1782845886256779300,3.201779296875,0.012353839352726936,-0.006886563263833523,0.0245429165661335
1782845886266784300,3.2117841796875,0.01258153934031725,-0.009356644935905933,0.01823575235903263
1782845886276789200,3.221789306640625,0.012398021295666695,-0.008872255682945251,0.010921941138803959
1782845886286794200,3.231794189453125,0.012102143839001656,-0.007984358817338943,0.006375126540660858
1782845886296799200,3.24179931640625,0.008207381702959538,-0.005853618029505014,0.006133199669420719
1782845886306803000,3.251802978515625,0.004840346984565258,-0.0034597027115523815,0.005109214223921299
1782845886316808000,3.261807861328125,-0.0042734937742352486,-0.00018568080849945545,0.00932097528129816
1782845886326813200,3.271813232421875,-0.005642624571919441,-0.004362049512565136,0.014186570420861244
1782845886336818200,3.281818115234375,-0.00847063772380352,-0.008711948059499264,0.016248920932412148
1782845886346823200,3.2918232421875,-0.004762186203151941,-0.006367301568388939,0.014204411767423153
1782845886356828200,3.301828125,-0.0036679753102362156,0.0019518680637702346,0.007546062581241131
1782845886366833200,3.311833251953125,0.0019068196415901184,-0.0023283646441996098,0.004548142198473215
1782845886376838100,3.321838134765625,0.002572343684732914,-0.005781153216958046,0.0059822541661560535
1782845886386843100,3.331843017578125,0.008537025190889835,-0.0039939056150615215,0.004495944362133741
1782845886396848000,3.34184814453125,0.011412846855819225,-0.0027050587814301252,0.007836473174393177
1782845886406852000,3.35185205078125,0.016249412670731544,0.004082806408405304,0.013445090502500534
1782845886416857000,3.361857177734375,0.016194747760891914,0.009686745703220367,0.019232474267482758
1782845886426862000,3.371862060546875,0.013443170115351677,0.0023609227500855923,0.023927096277475357
1782845886436867000,3.3818671875,0.014501468278467655,-0.0001983274705708027,0.02471170574426651
1782845886446872000,3.3918720703125,0.013357373885810375,-0.0009147177916020155,0.023883994668722153
1782845886456877000,3.401876953125,0.015082329511642456,-0.001796982018277049,0.009744174778461456
1782845886466882000,3.411882080078125,0.013870591297745705,-0.0011271967086941004,-0.001353482948616147
1782845886476887000,3.421886962890625,0.018054082989692688,0.003181538311764598,-0.019630949944257736
1782845886486892000,3.43189208984375,0.01974545605480671,0.00043608550913631916,-0.0314955972135067
1782845886496897300,3.441897216796875,0.01745024509727955,-0.0024714788887649775,-0.040256232023239136
1782845886506901000,3.45190087890625,0.017183396965265274,-0.006985004059970379,-0.04094891995191574
1782845886516906000,3.461906005859375,0.016951043158769608,-0.00864933617413044,-0.031756896525621414
1782845886526911000,3.471910888671875,0.01055945735424757,-0.009838970378041267,-0.027496904134750366
1782845886536916000,3.481916015625,0.0049789296463131905,-0.008956009522080421,-0.019419129937887192
1782845886546921000,3.4919208984375,0.0004712629597634077,-0.006505900993943214,-0.017565304413437843
1782845886556926000,3.501926025390625,-0.004814286716282368,-0.0054358020424842834,-0.017046017572283745
1782845886566931000,3.511930908203125,-0.004410284571349621,-0.00264693982899189,-0.020940890535712242
1782845886576936000,3.52193603515625,-0.007638721726834774,-0.0030596277210861444,-0.02866177074611187
1782845886586941000,3.53194091796875,-0.007230725139379501,-0.0027698755729943514,-0.03463417664170265
1782845886596946000,3.54194580078125,-0.006005265284329653,-0.005088279955089092,-0.035065215080976486
1782845886606950100,3.5519501953125,-0.003525329753756523,-0.005907468497753143,-0.032828159630298615
1782845886616955100,3.561955078125,-0.0024189527612179518,-0.0071612028405070305,-0.02420414425432682
1782845886626960100,3.571960205078125,-0.0036626490764319897,-0.010345544666051865,-0.01679096929728985
1782845886636965000,3.581965087890625,-0.003571948269382119,-0.005388971418142319,-0.010674641467630863
1782845886646970000,3.59197021484375,-0.0000051765237003564835,0.002700912533327937,-0.0038239252753555775
1782845886656975000,3.60197509765625,0.0003875975962728262,0.0010857530869543552,0.004926198627799749
1782845886666980000,3.61197998046875,0.004806846845895052,-0.0017153597436845303,0.007364322897046804
1782845886676985000,3.621985107421875,0.007582110818475485,-0.0006574627477675676,0.012291979975998402
1782845886686990000,3.631989990234375,0.010534491389989853,-0.007395526394248009,0.008386188186705112
1782845886696995000,3.6419951171875,0.01413010898977518,-0.01047556847333908,0.00014388759154826403
1782845886706999000,3.6519990234375,0.013365249149501324,-0.01016451045870781,-0.010237647220492363
1782845886717004000,3.662004150390625,0.011602714657783508,-0.010199903510510921,-0.017220929265022278
1782845886727009000,3.672009033203125,0.00896485336124897,-0.007193194702267647,-0.025801900774240494
1782845886737014000,3.682013916015625,0.005859607830643654,-0.004643218591809273,-0.029184915125370026
1782845886747019000,3.69201904296875,0.003018813906237483,-0.0017515576910227537,-0.025642111897468567
1782845886757024000,3.70202392578125,-0.0004694077651947737,-0.0010050944983959198,-0.02116612158715725
1782845886767029000,3.712029052734375,-0.001436934107914567,-0.0027302904054522514,-0.01117953471839428
1782845886777034000,3.722033935546875,0.0006040148437023163,-0.004924393258988857,-0.0023033861070871353
1782845886787039000,3.7320390625,0.003961195703595877,-0.007559324614703655,0.0051710414700210094
1782845886797044000,3.7420439453125,0.008967895992100239,-0.011578253470361233,0.009767965413630009
1782845886807048200,3.752048095703125,0.019017867743968964,-0.016967957839369774,0.009240926243364811
1782845886817053200,3.76205322265625,0.022099943831562996,-0.018717655912041664,0.005886142607778311
1782845886827058200,3.77205810546875,0.028794065117836,-0.016993524506688118,-0.002236498985439539
1782845886837063200,3.782063232421875,0.029804158955812454,-0.014187569729983807,-0.010922091081738472
1782845886847068200,3.792068115234375,0.02983185648918152,-0.00642046146094799,-0.023085812106728554
1782845886857073200,3.8020732421875,0.026405196636915207,-0.003555501811206341,-0.028822021558880806
1782845886867078100,3.812078125,0.02654048427939415,0.0025772256776690483,-0.031152023002505302
1782845886877083100,3.822083251953125,0.027891730889678,0.004788230173289776,-0.03317891061306
1782845886887088000,3.832088134765625,0.026663746684789658,0.0016733970260247588,-0.028828373178839684
1782845886897093000,3.842093017578125,0.030107183381915092,-0.0014126060996204615,-0.020540321245789528
1782845886907097000,3.85209716796875,0.029148714616894722,-0.008081161417067051,-0.01354499626904726
1782845886917102000,3.86210205078125,0.029730502516031265,-0.009002184495329857,-0.0064771221950650215
1782845886927107000,3.872107177734375,0.02946285530924797,-0.008475677110254765,-0.006158608011901379
1782845886937112000,3.882112060546875,0.02404964528977871,-0.012310623191297054,0.0009049659129232168
1782845886947117000,3.892116943359375,0.016725951805710793,-0.014462989754974842,0.004116738215088844
1782845886957122000,3.9021220703125,0.012899421155452728,-0.011076063849031925,-0.0001948248245753348
1782845886967127000,3.912126953125,0.012275176122784615,-0.006264263764023781,-0.00030587869696319103
1782845886977132000,3.922132080078125,0.01066701952368021,0.004827925004065037,-0.0038067291025072336
1782845886987137000,3.932136962890625,0.011038796976208687,0.00852226186543703,-0.000115055066999048
1782845886997142000,3.94214208984375,0.013350225985050201,0.007481116335839033,0.007676753215491772
1782845887007146200,3.952146240234375,0.016571851447224617,0.0035566820297390223,0.01629367657005787
1782845887017151200,3.962151123046875,0.01566416211426258,-0.004370387643575668,0.019372642040252686
1782845887027156200,3.97215625,0.017970725893974304,-0.009843982756137848,0.016596827656030655
1782845887037161200,3.9821611328125,0.020438184961676598,-0.011481341905891895,0.010472848080098629
1782845887047166200,3.992166259765625,0.013243922963738441,-0.011130336672067642,0.0029219873249530792
1782845887057171200,4.002171142578125,0.009995343163609505,-0.005315298214554787,-0.0052445391193032265
1782845887067176200,4.01217626953125,0.006232030689716339,0.0034702043049037457,-0.011310688219964504
1782845887077181200,4.02218115234375,0.004883181769400835,0.00435512512922287,-0.0182139091193676
1782845887087186200,4.032186279296875,-0.000727033126167953,0.008467045612633228,-0.023840902373194695
1782845887097191200,4.042191162109375,-0.0016705779125913978,0.007440417073667049,-0.0240265391767025
1782845887107195100,4.052195068359375,0.0011987118050456047,-0.0003309529274702072,-0.015488711185753345
1782845887117200100,4.0622001953125,0.0022850017994642258,-0.010077609680593014,-0.010133346542716026
1782845887127205000,4.072205078125,0.0010437027085572481,-0.01303664781153202,-0.011232699267566204
1782845887137210000,4.082210205078125,0.002670432673767209,-0.008843617513775826,-0.016975076869130135
1782845887147215000,4.092215087890625,0.007656402885913849,-0.002203824231401086,-0.02073412947356701
1782845887157220000,4.10222021484375,0.003594757756218314,-0.0007935438770800829,-0.023884858936071396
1782845887167225000,4.11222509765625,0.0017127019818872213,0.005203894805163145,-0.02312505804002285
1782845887177230000,4.12222998046875,-0.0026295690331608057,0.008615957573056221,-0.02100040577352047
1782845887187235600,4.132235595703125,-0.0073287165723741055,0.012089252471923828,-0.012971772812306881
1782845887197240600,4.142240478515625,-0.006502588279545307,0.010436671786010265,-0.006639587227255106
1782845887207244500,4.15224462890625,-0.006895937025547028,0.006647792644798756,-0.00042190501699224114
1782845887217249500,4.16224951171875,-0.004938289523124695,0.004615582525730133,0.005964130628854036
1782845887227254500,4.172254638671875,0.0006903011817485094,0.003691731719300151,0.009858737699687481
1782845887237259500,4.182259521484375,0.002575664082542062,0.0004018740728497505,0.014428874477744102
1782845887247264500,4.192264404296875,0.009592561051249504,-0.00249671027995646,0.009479389525949955
1782845887257269500,4.20226953125,0.013954173773527145,-0.0030668387189507484,-0.0016458517638966441
1782845887267274500,4.2122744140625,0.015950480476021767,-0.00042231963016092777,-0.008742110803723335
1782845887277279500,4.222279541015625,0.010856134817004204,0.0005682879127562046,-0.02120225690305233
1782845887287284700,4.23228466796875,0.0077191973105072975,0.0016497975448146462,-0.02590300142765045
1782845887297289700,4.242289794921875,0.00838586874306202,0.0029723364859819412,-0.03410109505057335
1782845887307293700,4.252293701171875,0.0025250506587326527,0.009539425373077393,-0.039312899112701416
1782845887317298700,4.262298583984375,-0.0026995388325303793,0.0108473040163517,-0.03891875222325325
1782845887327303700,4.2723037109375,-0.0040798550471663475,0.007853377610445023,-0.027655446901917458
1782845887337308700,4.28230859375,-0.0047801402397453785,-0.0032212540972977877,-0.017529169097542763
1782845887347313700,4.292313720703125,-0.002716456539928913,-0.009598726406693459,-0.003383788513019681
1782845887357318700,4.302318603515625,-0.0018768621375784278,-0.007723676040768623,0.005971458274871111
1782845887367323600,4.31232373046875,-0.0033815479837358,-0.002837574575096369,0.008729428052902222
1782845887377328600,4.32232861328125,-0.0068973819725215435,-0.0035974904894828796,0.008640410378575325
1782845887387333600,4.332333740234375,-0.005806018598377705,-0.0023497994989156723,0.008087271824479103
1782845887397338600,4.342338623046875,-0.005804476328194141,0.003769372822716832,0.00715868454426527
1782845887407342600,4.352342529296875,-0.00268245255574584,0.0015648080734536052,0.002579379128292203
1782845887417347600,4.36234765625,-0.0022355029359459877,0.00236230855807662,0.004321016371250153
1782845887427352600,4.3723525390625,-0.0013047282118350267,0.004052617121487856,0.004557771608233452
1782845887437357600,4.382357666015625,-0.002559063723310828,0.0017796297324821353,0.002077822107821703
1782845887447362600,4.392362548828125,0.0011437954381108284,0.0006688253488391638,-0.004855451174080372
1782845887457367600,4.402367431640625,-0.0012427634792402387,0.001204304862767458,-0.005017809569835663
1782845887467372500,4.41237255859375,-0.0015815175138413906,-0.004693797789514065,-0.007237288169562817
1782845887477377500,4.42237744140625,0.0017504633869975805,-0.005772029981017113,-0.012839608825743198
1782845887487382500,4.432382568359375,0.0009624341037124395,-0.003991706296801567,-0.014816739596426487
1782845887497387500,4.442387451171875,0.002765238517895341,-0.00038717291317880154,-0.014592082239687443
1782845887507391700,4.452391845703125,-0.0015637297183275223,0.004794007167220116,-0.011277511715888977
1782845887517396700,4.462396728515625,-0.0012691682204604149,0.007687709294259548,-0.0027831054758280516
1782845887527401700,4.472401611328125,-0.005517442710697651,0.0027257073670625687,0.004027928691357374
1782845887537406700,4.48240673828125,-0.005931242369115353,0.0016098155174404383,0.01182480901479721
1782845887547411700,4.49241162109375,-0.005034023895859718,-0.0001864866353571415,0.016065893694758415
1782845887557416700,4.502416748046875,-0.008186855353415012,-0.003110733116045594,0.018444810062646866
1782845887567421700,4.512421630859375,-0.005220626946538687,-0.004393044859170914,0.020779870450496674
1782845887577426700,4.5224267578125,-0.003435565624386072,-0.006923019886016846,0.019408930093050003
1782845887587431700,4.532431640625,-0.001082662958651781,-0.004926981404423714,0.012874599546194077
1782845887597436700,4.542436767578125,0.00641738623380661,-0.004493446089327335,0.011616998352110386
1782845887607440600,4.552440673828125,0.007605423219501972,-0.004517414607107639,0.005447519943118095
1782845887617445600,4.562445556640625,0.009937159717082977,-0.002061570528894663,0.0010385160567238927
1782845887627450600,4.57245068359375,0.008221285417675972,0.0007350149098783731,-0.0028619496151804924
1782845887637455600,4.58245556640625,0.008917029947042465,0.002251808065921068,-0.0021366304717957973
1782845887647460600,4.592460693359375,0.009795606136322021,-0.001820697681978345,-0.0008428666624240577
1782845887657465600,4.602465576171875,0.007513248827308416,-0.005423619877547026,-0.001605036435648799
1782845887667470600,4.612470703125,0.009405691176652908,-0.007344292011111975,-0.00044096866622567177
1782845887677475600,4.6224755859375,0.005822758190333843,-0.004488146863877773,-0.0005787378759123385
1782845887687480600,4.63248046875,0.007037159986793995,-0.002080117119476199,-0.0025494771543890238
1782845887697485600,4.642485595703125,0.007903066463768482,-0.0006408423651009798,-0.000662472506519407
1782845887707489500,4.652489501953125,0.00966368243098259,-0.0036582041066139936,-0.0005106722819618881
1782845887717494500,4.66249462890625,0.010065706446766853,-0.0119567159563303,-0.003787847002968192
1782845887727499500,4.67249951171875,0.008255023509263992,-0.008056250400841236,-0.002333228476345539
1782845887737504800,4.6825048828125,0.004073146265000105,-0.0059511177241802216,-0.005341086070984602
1782845887747509800,4.692509765625,-0.0011032400652766228,0.0031571597792208195,-0.011230667121708393
1782845887757514800,4.7025146484375,-0.009235832840204239,0.004773774184286594,-0.01416084449738264
1782845887767519700,4.712519775390625,-0.013914473354816437,0.0059892404824495316,-0.0036829039454460144
1782845887777524700,4.722524658203125,-0.014737965539097786,0.004980483092367649,0.00571783073246479
1782845887787529700,4.73252978515625,-0.016527609899640083,0.002109062857925892,0.019034167751669884
1782845887797534700,4.74253466796875,-0.011511280201375484,0.0030331795569509268,0.025179145857691765
1782845887807538400,4.752538330078125,-0.00793039333075285,-0.0055898698046803474,0.029133407399058342
1782845887817543400,4.76254345703125,-0.003687529359012842,-0.004808136261999607,0.02667752467095852
1782845887827548400,4.77254833984375,-0.0008600513683632016,0.0012990246759727597,0.017372705042362213
1782845887837553400,4.782553466796875,0.0002609575167298317,0.002080034464597702,0.012379195541143417
1782845887847558400,4.792558349609375,-0.0002133515663444996,0.0007902653887867928,0.003339894115924835
1782845887857563400,4.8025634765625,-0.0030538791324943304,-0.0012782115954905748,-0.0009856121614575386
1782845887867568400,4.812568359375,-0.008570617064833641,0.0012754934141412377,-0.008663239888846874
1782845887877573400,4.822573486328125,-0.013223426416516304,0.0072265928611159325,-0.013288351707160473
1782845887887578400,4.832578369140625,-0.013482285663485527,0.012336666695773602,-0.01516295038163662
1782845887897583400,4.842583251953125,-0.012782365083694458,0.007299515884369612,-0.012959758751094341
1782845887907587600,4.852587646484375,-0.006459221243858337,0.005917335394769907,-0.007800150662660599
1782845887917592600,4.862592529296875,-0.0053979093208909035,0.003795280586928129,-0.0029042374808341265
1782845887927597600,4.87259765625,-0.007680504582822323,0.00017844163812696934,0.004743828438222408
1782845887937602600,4.8826025390625,-0.008336762897670269,-0.002241012640297413,0.008552471175789833
1782845887947607600,4.892607666015625,-0.016901755705475807,0.000059691956266760826,0.01407000795006752
1782845887957612500,4.902612548828125,-0.022406283766031265,0.005525611340999603,0.015881799161434174
1782845887967617500,4.912617431640625,-0.022221196442842484,0.008139770478010178,0.01541148405522108
1782845887977622500,4.92262255859375,-0.021010691300034523,0.011055324226617813,0.01735149882733822
1782845887987627500,4.93262744140625,-0.022034943103790283,0.009647843427956104,0.021241579204797745
1782845887997631500,4.942631591796875,-0.016886139288544655,0.012489273212850094,0.018189484253525734
1782845888007636500,4.952636474609375,-0.01286263670772314,0.012206179089844227,0.011384573765099049
1782845888017641500,4.962641357421875,-0.009909417480230331,0.011474136263132095,0.006570601835846901
1782845888027646500,4.972646484375,-0.009752823039889336,0.00480931019410491,0.007220945321023464
1782845888037651500,4.9826513671875,-0.006304897367954254,-0.0006203360389918089,0.005570389796048403
1782845888047656400,4.992656494140625,-0.0009708523284643888,-0.005852914415299892,-0.002742934040725231
1782845888057661400,5.002661376953125,-0.0015784724382683635,-0.002981658326461911,-0.0076930648647248745
1782845888067666400,5.01266650390625,0.000901196850463748,0.008635316975414753,-0.015125680714845657
1782845888077671400,5.02267138671875,-0.0004165220307186246,0.019150296226143837,-0.019603800028562546
1782845888087676400,5.032676513671875,0.0032141655683517456,0.020628083497285843,-0.02004934661090374
1782845888097681400,5.042681396484375,0.003293372690677643,0.016185343265533447,-0.01563500240445137
1782845888107685600,5.052685546875,0.0028627393767237663,0.011857174336910248,-0.007701978553086519
1782845888117690600,5.062690673828125,0.0038654194213449955,0.004306047689169645,0.0011394498869776726
1782845888127695600,5.072695556640625,0.006287564989179373,-0.0027665095403790474,0.007710000965744257
1782845888137700600,5.08270068359375,0.007343186065554619,-0.006562285590916872,0.0090307192876935
1782845888147705600,5.09270556640625,0.007868095301091671,-0.0008641858585178852,0.0041736457496881485
1782845888157710600,5.102710693359375,0.011183799244463444,0.0032993934582918882,-0.0010853700805455446
1782845888167715600,5.112715576171875,0.007701716385781765,0.005851500667631626,-0.0020425100810825825
1782845888177720600,5.122720458984375,0.0035791427362710238,0.008480839431285858,-0.0019239995162934065
1782845888187725300,5.132725341796875,0.0005284920334815979,0.008816664107143879,0.0018885820172727108
1782845888197730300,5.142730224609375,-0.0026392806321382523,0.005445764400064945,0.01060691848397255
1782845888207734300,5.152734375,-0.00434104073792696,0.005468934308737516,0.014561180025339127
1782845888217739300,5.1627392578125,-0.011018273420631886,0.0018131581600755453,0.02231193147599697
1782845888227744300,5.172744140625,-0.01094876416027546,-0.0030311320442706347,0.01989031955599785
1782845888237749200,5.182749267578125,-0.012317432090640068,-0.0004523862153291702,0.019977474585175514
1782845888247754200,5.192754150390625,-0.011456431820988655,-0.0016297698020935059,0.018542297184467316
1782845888257759200,5.20275927734375,-0.01521228812634945,-0.001615122426301241,0.018533509224653244
1782845888267764200,5.21276416015625,-0.014759018085896969,0.0010315270628780127,0.01492838654667139
1782845888277769200,5.222769287109375,-0.014601794071495533,0.0004223871510475874,0.012339163571596146
1782845888287774200,5.232774169921875,-0.013242516666650772,-0.0024165427312254906,0.011090141721069813
1782845888297778400,5.2427783203125,-0.009571012109518051,0.002336817793548107,0.004482235759496689
1782845888307783400,5.252783447265625,-0.010115894488990307,0.005904920864850283,0.001378854038193822
1782845888317788400,5.262788330078125,-0.008010106161236763,0.013341573067009449,-0.004251096397638321
1782845888327793400,5.27279345703125,-0.004830025602132082,0.014943997375667095,-0.008622408844530582
1782845888337798400,5.28279833984375,-0.0009171962738037109,0.011926204897463322,-0.005795842036604881
1782845888347803400,5.292803466796875,0.0037068501114845276,0.004707973450422287,-0.006003834772855043
1782845888357808400,5.302808349609375,0.008772209286689758,0.00020966888405382633,-0.005743938498198986
1782845888367813400,5.3128134765625,0.010563718155026436,-0.0007804944179952145,-0.007146625313907862
1782845888377818400,5.322818359375,0.016623908653855324,-0.004029475152492523,-0.010632072575390339
1782845888387823400,5.3328232421875,0.01745161972939968,-0.0030488998163491488,-0.012500014156103134
1782845888397827300,5.342827392578125,0.018351657316088676,-0.0020373768638819456,-0.01983371376991272
1782845888407832300,5.352832275390625,0.01601499877870083,-0.004734892398118973,-0.020767951384186745
1782845888417837300,5.36283740234375,0.017882337793707848,-0.0056109558790922165,-0.02205977961421013
1782845888427842300,5.37284228515625,0.012913411483168602,-0.007360653020441532,-0.02309495024383068
1782845888437847300,5.382847412109375,0.005990524310618639,-0.0049451664090156555,-0.014218103140592575
1782845888447852300,5.392852294921875,0.0001169226597994566,-0.008771329186856747,-0.017775285989046097
1782845888457857300,5.402857177734375,0.0006512503605335951,-0.0055822692811489105,-0.007536596152931452
1782845888467862300,5.4128623046875,-0.003016987582668662,-0.0036999471485614777,-0.009029564447700977
1782845888477867300,5.4228671875,-0.0027072331868112087,-0.009170148521661758,-0.01067329477518797
1782845888487872300,5.432872314453125,-0.0013530158903449774,-0.012763284146785736,-0.0044614714570343494
1782845888497876500,5.44287646484375,0.00234999624080956,-0.013368457555770874,-0.007092829328030348
1782845888507881500,5.452881591796875,-0.002198150148615241,-0.007700718007981777,-0.005929827224463224
1782845888517886500,5.462886474609375,-0.004311521537601948,-0.0033418203238397837,0.0021831151098012924
1782845888527891500,5.472891357421875,-0.00646149180829525,0.003806636668741703,0.009707344695925713
1782845888537896400,5.482896484375,-0.006373467389494181,0.007414031773805618,0.017320649698376656
1782845888547901400,5.4929013671875,-0.0007241036510095,0.002335117431357503,0.02541372925043106
1782845888557906400,5.502906494140625,0.0010151932947337627,-0.006833101622760296,0.029674800112843513
1782845888567911400,5.512911376953125,0.0048315031453967094,-0.009786280803382397,0.02051166258752346
1782845888577916400,5.52291650390625,0.005912719294428825,-0.004346282221376896,0.012862822972238064
1782845888587921400,5.53292138671875,0.008506106212735176,-0.001747569302096963,0.0001744586043059826
1782845888597925400,5.54292529296875,0.009613320231437683,-0.002240801230072975,-0.010815214365720749
1782845888607930400,5.552930419921875,0.006791701074689627,0.00012621632777154446,-0.024809591472148895
1782845888617935400,5.562935302734375,0.004049486480653286,-0.0037236970383673906,-0.030916796997189522
1782845888627940400,5.5729404296875,0.00010854029096662998,-0.0055082812905311584,-0.03421219065785408
1782845888637945300,5.5829453125,-0.003939422313123941,-0.006324853748083115,-0.042166296392679214
1782845888647950300,5.592950439453125,-0.01261280570179224,-0.0017154549714177847,-0.035189080983400345
1782845888657955300,5.602955322265625,-0.014142805710434914,-0.0028973862063139677,-0.027798527851700783
1782845888667960300,5.612960205078125,-0.018191074952483177,-0.0041064610704779625,-0.012508254498243332
1782845888677965300,5.62296533203125,-0.015968050807714462,-0.0037089469842612743,-0.004850153345614672
1782845888687970300,5.63297021484375,-0.01066196896135807,-0.0005831948947161436,0.003830420318990946
1782845888697974500,5.642974609375,-0.013043100945651531,-0.0008633597753942013,0.016086021438241005
1782845888707979500,5.6529794921875,-0.011575966142117977,0.0010610406752675772,0.018375007435679436
1782845888717984500,5.662984619140625,-0.010178325697779655,0.0008200451266020536,0.022019531577825546
1782845888727989500,5.672989501953125,-0.008896546438336372,0.00036890548653900623,0.022020330652594566
1782845888737994500,5.682994384765625,-0.012209616601467133,-0.003175154095515609,0.01650235615670681
1782845888747999500,5.69299951171875,-0.007858010940253735,-0.0016222649719566107,0.012873002327978611
1782845888758004500,5.70300439453125,-0.00510113500058651,-0.0029929259326308966,0.0009924015030264854
1782845888768009500,5.713009521484375,-0.005119244568049908,-0.0008536085952073336,-0.006409588269889355
1782845888778014500,5.723014404296875,-0.0015068775974214077,-0.0034001502208411694,-0.013183661736547947
1782845888788018400,5.733018310546875,0.006833344232290983,-0.0016728239133954048,-0.018661517649888992
1782845888798023400,5.7430234375,0.007826143875718117,-0.003119494067505002,-0.02056378498673439
1782845888808028400,5.7530283203125,0.008781420066952705,-0.006518752314150333,-0.01562708429992199
1782845888818033400,5.763033447265625,0.009539046324789524,-0.00496608205139637,-0.007958201691508293
1782845888828038400,5.773038330078125,0.007165104150772095,-0.0016054392326623201,-0.005038312170654535
1782845888838043400,5.78304345703125,0.00485626794397831,0.0004696615505963564,0.004739621188491583
1782845888848048400,5.79304833984375,-0.001439444487914443,0.0046225949190557,0.015904657542705536
1782845888858053400,5.803053466796875,0.0012633425649255514,0.00042148586362600327,0.022300830110907555
1782845888868058400,5.813058349609375,-0.0020352487917989492,-0.004359953571110964,0.028984032571315765
1782845888878063400,5.8230634765625,0.0015458769630640745,-0.0062859924510121346,0.02323296293616295
1782845888888067300,5.8330673828125,0.00007448066025972366,-0.007712114602327347,0.015937501564621925
1782845888898072300,5.843072265625,0.0004607788287103176,-0.0010026702657341957,0.007481291890144348
1782845888908077300,5.853077392578125,0.00036943238228559494,0.006457109935581684,0.001497967867180705
1782845888918082300,5.863082275390625,-0.00008558854460716248,0.0038214821834117174,0.004816153552383184
1782845888928087300,5.87308740234375,0.002381830243393779,0.001169506460428238,0.011363535188138485
1782845888938092500,5.883092529296875,0.007101905532181263,-0.0036859135143458843,0.013535719364881516
1782845888948097500,5.89309765625,0.008129619993269444,-0.0029468866996467113,0.020825324580073357
1782845888958102500,5.9031025390625,0.007613580673933029,-0.0014975813683122396,0.023429814726114273
1782845888968107500,5.913107421875,0.008450612425804138,-0.00351439299993217,0.01884331740438938
1782845888978112500,5.923112548828125,0.008400279097259045,-0.005605506710708141,0.013222450390458107
1782845888988116200,5.9331162109375,0.008658871985971928,-0.00803777202963829,0.0019218591041862965
1782845888998121200,5.943121337890625,0.01292947307229042,-0.007283140905201435,-0.0172406118363142
1782845889008126200,5.953126220703125,0.011454347521066666,-0.006803772412240505,-0.02577844075858593
1782845889018131200,5.963131103515625,0.010383408516645432,-0.0059795379638671875,-0.027095017954707146
1782845889028136200,5.97313623046875,0.009190578013658524,-0.0023970534093677998,-0.027764802798628807
1782845889038141200,5.98314111328125,0.011559756472706795,-0.004406210035085678,-0.02286967635154724
1782845889048146200,5.993146240234375,0.011210082098841667,-0.0067013222724199295,-0.01564265415072441
1782845889058151200,6.003151123046875,0.012404032982885838,-0.0077048297971487045,-0.006998356897383928
1782845889068156200,6.01315625,0.012400837615132332,-0.008841199800372124,0.0008957850513979793
1782845889078161200,6.0231611328125,0.011920781806111336,-0.008891697973012924,0.010162141174077988
1782845889088165400,6.033165283203125,0.011691484600305557,-0.009655492380261421,0.006233978550881147
1782845889098170400,6.04317041015625,0.009527328424155712,-0.007425777614116669,0.0012131918920204043
1782845889108175400,6.05317529296875,0.006387993693351746,-0.0010267344769090414,0.00027203073841519654
1782845889118180400,6.063180419921875,0.004028349183499813,-0.002042102161794901,-0.00015106151113286614
1782845889128185300,6.073185302734375,0.00045412080362439156,-0.006812622305005789,0.00073603744385764
1782845889138190300,6.0831904296875,0.00009232363663613796,-0.0067656273022294044,0.00461959931999445
1782845889148195300,6.0931953125,0.0005059125833213329,-0.010513493791222572,0.0003082076436839998
1782845889158200300,6.103200439453125,0.0002560373395681381,-0.00931389071047306,-0.0011221065651625395
1782845889168205300,6.113205322265625,-0.0015466564800590277,-0.006699997931718826,-0.005345347337424755
1782845889178209300,6.123209228515625,-0.0019752567168325186,-0.005730265751481056,-0.012821274809539318
1782845889188214000,6.133214111328125,-0.0018439629347994924,-0.0040532732382416725,-0.01592731848359108
1782845889198219000,6.143218994140625,0.0009846650063991547,-0.005555392242968082,-0.019948776811361313
1782845889208224000,6.15322412109375,-0.0038242051377892494,-0.011279057711362839,-0.024892402812838554
1782845889218229000,6.16322900390625,-0.011056859977543354,-0.006306621711701155,-0.025882257148623466
1782845889228234000,6.17323388671875,-0.009661896154284477,-0.003837072756141424,-0.022746652364730835
1782845889238239000,6.183239013671875,-0.016617722809314728,-0.0016573711764067411,-0.013650708831846714
1782845889248244000,6.193243896484375,-0.020762400701642036,0.0055336966179311275,0.0030576970893889666
1782845889258249000,6.2032490234375,-0.020206261426210403,0.0043271686881780624,0.0216108039021492
1782845889268254000,6.21325390625,-0.020090414211153984,-0.0021017021499574184,0.033187828958034515
1782845889278258200,6.223258056640625,-0.016611862927675247,-0.00812698807567358,0.03796907514333725
1782845889288263200,6.23326318359375,-0.013702093623578548,-0.011361663229763508,0.04123091697692871
1782845889298268200,6.24326806640625,-0.0060190558433532715,-0.008420031517744064,0.030633581802248955
1782845889308273200,6.253273193359375,-0.0027074150275439024,-0.002457480411976576,0.015688985586166382
1782845889318278100,6.263278076171875,0.0036399206146597862,0.0012060123262926936,-0.002385845873504877
1782845889328283100,6.273283203125,0.007816556841135025,0.000630236929282546,-0.01403158251196146
1782845889338288000,6.2832880859375,0.009582933969795704,0.0031230305321514606,-0.023120321333408356
1782845889348293000,6.293293212890625,0.011257529258728027,0.0032082516700029373,-0.02831268683075905
1782845889358298000,6.303298095703125,0.012859209440648556,0.00682692788541317,-0.031910140067338943
1782845889368302000,6.313302001953125,0.012649085372686386,0.00033627147786319256,-0.02243674360215664
1782845889378307000,6.32330712890625,0.012613428756594658,-0.00576749537140131,-0.01279959175735712
1782845889388312000,6.33331201171875,0.00678643211722374,-0.009300445206463337,-0.0027376359794288874
1782845889398317000,6.343317138671875,0.002939509227871895,-0.005400757305324078,-0.0025043566711246967
1782845889408322000,6.353322021484375,-0.00033804308623075485,0.002356231678277254,-0.0005373460007831454
1782845889418327000,6.3633271484375,-0.005600029602646828,0.0034416334237903357,-0.003970048855990171
1782845889428332000,6.37333203125,-0.005006144754588604,0.00257956818677485,0.0011613296810537577
1782845889438337000,6.3833369140625,-0.012762768194079399,-0.003932311199605465,0.010823446325957775
1782845889448342000,6.393342041015625,-0.018978318199515343,-0.007342488504946232,0.019517336040735245
1782845889458347000,6.403346923828125,-0.023437375202775,-0.004905019886791706,0.021927088499069214
1782845889468351200,6.413351318359375,-0.029791945591568947,0.0011440834496170282,0.03185322508215904
1782845889478356200,6.423356201171875,-0.031440455466508865,-0.00042560393922030926,0.03561415523290634
1782845889488361200,6.433361328125,-0.030238039791584015,0.005103385075926781,0.029569843783974648
1782845889498366200,6.4433662109375,-0.030009020119905472,0.008128449320793152,0.028310712426900864
1782845889508371200,6.45337109375,-0.023652054369449615,0.008227518759667873,0.022540174424648285
1782845889518376200,6.463376220703125,-0.01951191946864128,0.004992398899048567,0.016335293650627136
1782845889528381200,6.473381103515625,-0.00701823178678751,0.004249909892678261,0.012180228717625141
1782845889538386200,6.48338623046875,0.0033089742064476013,-0.001700124703347683,0.00675670150667429
1782845889548391200,6.49339111328125,0.007000913843512535,-0.006458394229412079,0.0019845832139253616
1782845889558396200,6.503396240234375,0.012112290598452091,-0.004201031289994717,-0.009168175049126148
1782845889568400100,6.513400146484375,0.015334981493651867,-0.0004249350167810917,-0.02034945599734783
1782845889578405000,6.523405029296875,0.01640288159251213,0.0020288608502596617,-0.032220736145973206
1782845889588410000,6.53341015625,0.01753818802535534,0.004484295379370451,-0.03990235924720764
1782845889598415000,6.5434150390625,0.0134673360735178,0.0024634613655507565,-0.04524018615484238
1782845889608420000,6.553420166015625,0.013564273715019226,-0.0016902708448469639,-0.04337543994188309
1782845889618425000,6.563425048828125,0.011430410668253899,-0.012362499721348286,-0.03575120493769646
1782845889628430000,6.57343017578125,0.011314828880131245,-0.01621023565530777,-0.03256393224000931
1782845889638435000,6.58343505859375,0.0077589768916368484,-0.02049153298139572,-0.03174075111746788
1782845889648440000,6.593440185546875,0.003950655926018953,-0.0178840309381485,-0.030859775841236115
1782845889658445000,6.603445068359375,-0.003280458739027381,-0.009086627513170242,-0.02625587023794651
1782845889668449300,6.61344921875,-0.007910630665719509,-0.0042495280504226685,-0.017181148752570152
1782845889678454300,6.623454345703125,-0.00891120731830597,0.0003696840722113848,-0.0019337255507707596
1782845889688459300,6.633459228515625,-0.010993532836437225,0.003475995035842061,0.010445445775985718
1782845889698464300,6.64346435546875,-0.011770784854888916,0.005574265494942665,0.02771512046456337
1782845889708469200,6.65346923828125,-0.007819718681275845,-0.003042658558115363,0.04064210131764412
1782845889718474200,6.66347412109375,-0.0001392581034451723,-0.007187370210886002,0.04732993245124817
1782845889728479200,6.673479248046875,0.009438001550734043,-0.00491782370954752,0.04696428030729294
1782845889738484200,6.683484130859375,0.018464282155036926,-0.00472614448517561,0.038512974977493286
1782845889748489200,6.6934892578125,0.022076327353715897,-0.0018238313496112823,0.027257390320301056
1782845889758493200,6.7034931640625,0.02305760234594345,-0.005505734123289585,0.013624236918985844
1782845889768498200,6.713498291015625,0.018880967050790787,-0.0046516587026417255,0.00047780884779058397
1782845889778503200,6.723503173828125,0.01775825023651123,-0.002507396973669529,-0.01015919353812933
1782845889788508200,6.733508056640625,0.0133339399471879,-0.005450722761452198,-0.018654676154255867
1782845889798513200,6.74351318359375,0.0033566157799214125,-0.0061201052740216255,-0.022118328139185905
1782845889808518100,6.75351806640625,-0.0015372089110314846,-0.0063230376690626144,-0.022673863917589188
1782845889818523100,6.763523193359375,-0.004958963021636009,-0.014729803428053856,-0.02267320640385151
1782845889828528000,6.773528076171875,-0.0047903843224048615,-0.01241125538945198,-0.023315293714404106
1782845889838533000,6.783533203125,-0.002367021283134818,-0.011784450151026249,-0.017714286223053932
1782845889848538000,6.7935380859375,-0.003417105646803975,-0.009449390694499016,-0.010093118995428085
1782845889858542000,6.8035419921875,0.0013960388023406267,-0.0034833569079637527,0.0035893903113901615
1782845889868547300,6.81354736328125,0.0006362390704452991,-0.0024662958458065987,0.01903838850557804
1782845889878552300,6.82355224609375,0.006793593987822533,0.0009000624995678663,0.02883443422615528
1782845889888557300,6.833557373046875,0.0039346907287836075,0.0033432466443628073,0.03533947095274925
1782845889898562300,6.843562255859375,0.0019832677207887173,0.002654854441061616,0.04316982254385948
1782845889908567300,6.8535673828125,-0.0009416819084435701,0.00423810351639986,0.04052530229091644
1782845889918572300,6.863572265625,-0.0033290283754467964,0.008994290605187416,0.04216216132044792
1782845889928577300,6.873577392578125,-0.005812159739434719,0.008538623340427876,0.03631545603275299
1782845889938582300,6.883582275390625,-0.0031087957322597504,0.0008986834436655045,0.030614979565143585
1782845889948586200,6.893586181640625,-0.0034696541260927916,0.0003785681910812855,0.01927896775305271
1782845889958591200,6.90359130859375,-0.0022161731030792,-0.003800723236054182,0.0031085899099707603
1782845889968596200,6.91359619140625,-0.0021120435558259487,-0.002822810783982277,-0.007104632910341024
1782845889978601200,6.923601318359375,-0.00697504635900259,-0.002310302807018161,-0.018205948173999786
1782845889988606200,6.933606201171875,-0.005585941486060619,-0.0011265275534242392,-0.024469435214996338
1782845889998611200,6.943611083984375,-0.008996931836009026,-0.004670682828873396,-0.01830234006047249
1782845890008616200,6.9536162109375,-0.009463783353567123,-0.008811632171273232,-0.015803763642907143
1782845890018621200,6.96362109375,-0.015521228313446045,-0.011192934587597847,-0.016632188111543655
1782845890028626200,6.973626220703125,-0.01464318297803402,-0.0038500670343637466,-0.011600677855312824
1782845890038631200,6.983631103515625,-0.01282409206032753,0.0014575101668015122,-0.009687882848083973
1782845890048635100,6.99363525390625,-0.00840031448751688,-0.0016778295394033194,-0.0058348216116428375
1782845890058640100,7.00364013671875,-0.004449024796485901,-0.0016439594328403473,-0.003651786595582962
1782845890068645000,7.01364501953125,-0.003051397856324911,-0.006315676961094141,-0.0020946364384144545
1782845890078650000,7.023650146484375,-0.0035442360676825047,-0.012620075605809689,-0.0019317634869366884
1782845890088655400,7.0336552734375,-0.005788481794297695,-0.008304955437779427,-0.010834977962076664
1782845890098660400,7.043660400390625,-0.005709317047148943,0.00015856372192502022,-0.012323488481342793
1782845890108665300,7.053665283203125,-0.006215051282197237,0.010747558437287807,-0.014099284075200558
1782845890118670300,7.06367041015625,-0.01286664605140686,0.013690181076526642,-0.002593012060970068
1782845890128675300,7.07367529296875,-0.007505171000957489,0.012294151820242405,0.013648275285959244
1782845890138679000,7.083678955078125,-0.003476887010037899,0.0009274932090193033,0.03176364302635193
1782845890148684300,7.093684326171875,0.006536598317325115,-0.005239589139819145,0.04433109983801842
1782845890158689300,7.103689208984375,0.011448575183749199,-0.009812549687922001,0.041934482753276825
1782845890168694300,7.1136943359375,0.01740606687963009,-0.0095403753221035,0.02895769476890564
1782845890178699300,7.12369921875,0.01586102694272995,-0.004666667431592941,0.011571388691663742
1782845890188705300,7.133705322265625,0.013505196198821068,0.005419522523880005,-0.007880073972046375
1782845890198710300,7.143710205078125,0.00878223218023777,0.011400613933801651,-0.02402723953127861
1782845890208715300,7.15371533203125,0.006122533231973648,0.016012143343687057,-0.0300355963408947
1782845890218720300,7.16372021484375,-0.0005005091661587358,0.011534529738128185,-0.031328532844781876
1782845890228725200,7.173725341796875,-0.0008523126598447561,0.009018907323479652,-0.024950528517365456
1782845890238729200,7.183729248046875,-0.0045425728894770145,0.006173599511384964,-0.016568582504987717
1782845890248734200,7.193734130859375,-0.006327689625322819,0.0002640453167259693,-0.004977439064532518
1782845890258739200,7.2037392578125,-0.005548839457333088,-0.01045940537005663,0.004150139633566141
1782845890268744200,7.213744140625,-0.003915522713214159,-0.009187745861709118,0.006889733485877514
1782845890278749200,7.223749267578125,-0.0031842608004808426,-0.00562092661857605,0.007064212113618851
1782845890288754200,7.233754150390625,-0.00548603106290102,0.005451965145766735,0.0038021064829081297
1782845890298759200,7.24375927734375,-0.007267392706125975,0.014697701670229435,0.004141098819673061
1782845890308764200,7.25376416015625,-0.010775042697787285,0.01502793375402689,0.00901015568524599
1782845890318769200,7.26376904296875,-0.01576559618115425,0.014593066647648811,0.017074530944228172
1782845890328773400,7.2737734375,-0.015407666563987732,0.011970652267336845,0.025740455836057663
1782845890338778400,7.2837783203125,-0.014634733088314533,0.004837013781070709,0.031039796769618988
1782845890348783400,7.293783447265625,-0.012555602937936783,0.00308971363119781,0.03164007142186165
1782845890358788400,7.303788330078125,-0.010846370831131935,0.004388715606182814,0.022871864959597588
1782845890368793300,7.31379345703125,-0.009467119351029396,0.006705399602651596,0.01460940856486559
1782845890378798300,7.32379833984375,-0.007906535640358925,0.006961929611861706,0.003908590879291296
1782845890388803300,7.33380322265625,-0.007009316701442003,0.007561140693724155,-0.0018947033677250147
1782845890398808300,7.343808349609375,-0.005982415750622749,0.006135797128081322,-0.010139305144548416
1782845890408813300,7.353813232421875,-0.009343057870864868,0.005988790653645992,-0.012791813351213932
1782845890418818300,7.363818359375,-0.010959470644593239,0.009043559432029724,-0.014373324811458588
1782845890428822300,7.373822265625,-0.011848700232803822,0.007086135447025299,-0.009293612092733383
1782845890438827300,7.3838271484375,-0.012161623686552048,0.007201558910310268,-0.008041391149163246
1782845890448832300,7.393832275390625,-0.009970907121896744,0.009462050162255764,-0.0032346516381949186
1782845890458837200,7.403837158203125,-0.005451451987028122,0.009400947950780392,-0.00048314384184777737
1782845890468842200,7.41384228515625,-0.0034442273899912834,0.008227826096117496,0.004781659226864576
1782845890478847200,7.42384716796875,0.0012645763345062733,0.005186755210161209,0.007413857616484165
1782845890488852200,7.433852294921875,0.0046273497864604,-0.0005965656600892544,0.006976566277444363
1782845890498857200,7.443857177734375,0.008473895490169525,-0.0006173038855195045,0.002107634674757719
1782845890508862200,7.4538623046875,0.009119445458054543,0.0036935550160706043,-0.007991338148713112
1782845890518867200,7.4638671875,0.008703583851456642,0.008949268609285355,-0.015620888210833073
1782845890528871400,7.473871337890625,0.00288564246147871,0.012004180811345577,-0.019325343891978264
1782845890538876400,7.48387646484375,0.0026204916648566723,0.014375275000929832,-0.023475181311368942
1782845890548881400,7.49388134765625,0.002401046920567751,0.014942262321710587,-0.01696401834487915
1782845890558886400,7.503886474609375,0.0017351300921291113,0.01206858828663826,-0.016242440789937973
1782845890568891400,7.513891357421875,0.0015135554131120443,0.008950293064117432,-0.007698222063481808
1782845890578896400,7.523896484375,0.0032184398733079433,0.004046731162816286,0.002983521204441786
1782845890588901400,7.5339013671875,0.004830983933061361,-0.001017269678413868,0.006898634135723114
1782845890598906400,7.54390625,0.0042637307196855545,-0.0006897009443491697,0.01054450124502182
1782845890608911400,7.553911376953125,0.0038916869089007378,-0.0002998141571879387,0.005412856582552195
1782845890618915300,7.563915283203125,0.004812425933778286,0.0032998849637806416,0.0038132781628519297
1782845890628920300,7.57392041015625,0.005523756146430969,0.0024572608526796103,0.0012643665540963411
1782845890638925300,7.58392529296875,0.0021125709172338247,0.00464997161179781,-0.0014534471556544304
1782845890648930300,7.593930419921875,0.0011916500516235828,0.0038049505092203617,-0.0067371586337685585
1782845890658935300,7.603935302734375,0.003944586031138897,0.006855908781290054,-0.010951903648674488
1782845890668940300,7.613940185546875,0.0038678874261677265,0.008253268897533417,-0.01966922916471958
1782845890678945300,7.6239453125,0.007043384946882725,0.007810146082192659,-0.025806428864598274
1782845890688950300,7.6339501953125,0.009072447195649147,0.0022087194956839085,-0.030324747785925865
1782845890698955300,7.643955322265625,0.01322390977293253,-0.0040706247091293335,-0.03685387969017029
1782845890708960300,7.653960205078125,0.012509915977716446,-0.0019403623882681131,-0.032499875873327255
1782845890718964200,7.663964111328125,0.00972458440810442,0.0018935173284262419,-0.028409862890839577
1782845890728969200,7.67396923828125,0.01288921944797039,-0.0007067930418998003,-0.014689790084958076
1782845890738974200,7.68397412109375,0.012687380425632,-0.0007731739897280931,-0.007793562486767769
1782845890748979500,7.6939794921875,0.012497496791183949,-0.0023287266958504915,-0.000540177570655942
1782845890758984400,7.703984375,0.012020004913210869,0.003964343573898077,0.002573576522991061
1782845890768989400,7.713989501953125,0.006881969049572945,0.005177679937332869,-0.0003590963897295296
1782845890778994400,7.723994384765625,0.007109165191650391,0.007511605974286795,-0.004921119660139084
1782845890788999400,7.73399951171875,0.005611669272184372,0.004036447033286095,-0.007911317050457
1782845890799004400,7.74400439453125,0.007319077383726835,-0.0021008348558098078,-0.020410386845469475
1782845890809008400,7.75400830078125,0.008979825302958488,-0.005044693127274513,-0.027439001947641373
1782845890819013400,7.764013427734375,0.007675087079405785,-0.003906430676579475,-0.03794964402914047
1782845890829018400,7.774018310546875,0.0013253120705485344,-0.0038963109254837036,-0.04485894739627838
1782845890839023400,7.7840234375,0.0004502104129642248,-0.0068939439952373505,-0.04108872637152672
1782845890849028400,7.7940283203125,-0.0027154891286045313,-0.003799617988988757,-0.03997179493308067
1782845890859033300,7.804033447265625,-0.005673251114785671,-0.00012389547191560268,-0.031197955831885338
1782845890869038300,7.814038330078125,-0.008306585252285004,0.0025999858044087887,-0.018049130216240883
1782845890879043300,7.824043212890625,-0.010475071147084236,0.004771650303155184,-0.0057718176394701
1782845890889048300,7.83404833984375,-0.010727537795901299,0.004427303560078144,0.010532320477068424
1782845890899053300,7.84405322265625,-0.011893469840288162,-0.0015123444609344006,0.021026773378252983
1782845890909057300,7.854057373046875,-0.009626854211091995,-0.003708919510245323,0.029804019257426262
1782845890919062300,7.864062255859375,-0.002283242531120777,-0.004842333495616913,0.027786729857325554
1782845890929067300,7.8740673828125,-0.0011575244134292006,-0.006289761513471603,0.023873213678598404
1782845890939072300,7.884072265625,0.004218514077365398,-0.005906969308853149,0.003985877614468336
1782845890949077200,7.8940771484375,0.0012618731707334518,0.0025488329119980335,-0.007936295121908188
1782845890959082200,7.904082275390625,0.0050847698003053665,0.010242555290460587,-0.021090641617774963
1782845890969087500,7.91408740234375,0.0015795172657817602,0.013403460383415222,-0.018393924459815025
1782845890979092500,7.924092529296875,0.0029789109248667955,0.006213267333805561,-0.015608693473041058
1782845890989097500,7.934097412109375,0.003405016614124179,-0.00020308676175773144,-0.011091173626482487
1782845890999101200,7.94410107421875,0.0024825551081448793,-0.0038197950925678015,-0.01041905116289854
1782845891009106200,7.954106201171875,0.00452706404030323,-0.008716816082596779,-0.009791344404220581
1782845891019111200,7.964111083984375,0.00035952311009168625,-0.010741024278104305,-0.011827102862298489
1782845891029116200,7.9741162109375,0.0029832692816853523,-0.0073673315346241,-0.016661806032061577
1782845891039121200,7.98412109375,0.00020225695334374905,-0.006159464828670025,-0.021054815500974655
1782845891049126400,7.99412646484375,-0.0036995403934270144,-0.005455858074128628,-0.022567491978406906
1782845891059131400,8.00413134765625,-0.011692332103848457,-0.002084398176521063,-0.020001955330371857
1782845891069136400,8.014136474609375,-0.014884397387504578,0.0017785168020054698,-0.014196797274053097
1782845891079141400,8.024141357421875,-0.01592259481549263,0.0054481616243720055,-0.006030648481100798
1782845891089145000,8.03414501953125,-0.017051775008440018,0.006414356641471386,0.0067634438164532185
1782845891099150000,8.044150146484375,-0.014601612463593483,0.006862006150186062,0.014182954095304012
1782845891109155000,8.054155029296876,-0.01545355748385191,0.009846078231930733,0.022296007722616196
1782845891119160000,8.06416015625,-0.011707567609846592,0.007493420969694853,0.027433793991804123
1782845891129165000,8.0741650390625,-0.012434078380465508,0.004589776508510113,0.03139151632785797
1782845891139170000,8.084170166015625,-0.011345196515321732,0.003821550402790308,0.031145524233579636
1782845891149175000,8.094175048828125,-0.013128449209034443,0.0037339322734624147,0.024648476392030716
1782845891159180300,8.10418017578125,-0.014770904555916786,0.0064059775322675705,0.015233220532536507
1782845891169185300,8.114185302734375,-0.012517604045569897,0.010180475190281868,0.004490828141570091
1782845891179190300,8.124190185546874,-0.013088473118841648,0.010463672690093517,-0.0033131453674286604
1782845891189193500,8.134193359375,-0.008467355743050575,0.009103329852223396,-0.010442693717777729
1782845891199198500,8.144198486328126,-0.0026212953962385654,0.013220365159213543,-0.020522382110357285
1782845891209203500,8.154203369140625,0.0002658376470208168,0.014478708617389202,-0.02766125090420246
1782845891219208400,8.16420849609375,0.0032881724182516336,0.01572367548942566,-0.02297932840883732
1782845891229213400,8.17421337890625,0.005126286298036575,0.009726502001285553,-0.018401088193058968
1782845891239218400,8.184218505859375,0.013716721907258034,0.004989838693290949,-0.012648801319301128
1782845891249223400,8.194223388671874,0.01609013043344021,0.006777086295187473,-0.009943029843270779
1782845891259228400,8.204228515625,0.019098099321126938,0.007229939103126526,-0.0032874522730708122
1782845891269233400,8.2142333984375,0.019254427403211594,0.00918230228126049,-0.00115772255230695
1782845891279237600,8.224237548828125,0.01826123520731926,0.012200538069009781,-0.0032463420648127794
1782845891289242600,8.23424267578125,0.01561378687620163,0.01911277323961258,-0.0022119705099612474
1782845891299247600,8.24424755859375,0.01692277379333973,0.016456754878163338,0.0003675252082757652
1782845891309252600,8.254252685546875,0.01788896881043911,0.017470354214310646,0.003402197267860174
1782845891319257600,8.264257568359374,0.020225204527378082,0.014700611121952534,0.005955258384346962
1782845891329262600,8.2742626953125,0.01859348639845848,0.013184472918510437,0.00979074276983738
1782845891339267600,8.284267578125,0.016405630856752396,0.0064368294551968575,0.010673116892576218
1782845891349272600,8.2942724609375,0.016587790101766586,0.0067209890112280846,0.006714594550430775
1782845891359277600,8.304277587890626,0.013562411069869995,0.0018882184522226453,0.0032256164122372866
1782845891369282600,8.314282470703125,0.010458496399223804,0.0025580034125596285,-0.0062874616123735905
1782845891379286300,8.324286376953125,0.003377361688762903,-0.0017152773216366768,-0.012203617952764034
1782845891389291300,8.334291259765624,-0.0010352297686040401,-0.0020439112558960915,-0.01702420599758625
1782845891399296300,8.344296142578125,-0.005963032133877277,-0.001474848948419094,-0.01995406113564968
1782845891409301200,8.35430126953125,-0.010241400450468063,0.002836542669683695,-0.019685082137584686
1782845891419306200,8.36430615234375,-0.011432421393692493,0.004703446291387081,-0.015869515016674995
1782845891429311200,8.374311279296874,-0.009449431672692299,0.00445284228771925,-0.007931697182357311
1782845891439316500,8.38431640625,-0.006520276423543692,0.0035218289121985435,0.0022205947898328304
1782845891449321500,8.394321533203126,-0.005452615208923817,-0.0044122603721916676,0.011933675967156887
1782845891459326500,8.404326416015625,0.0015438022091984749,-0.0065688481554389,0.018920717760920525
1782845891469330400,8.414330322265625,0.003711881348863244,-0.006245806813240051,0.0188370943069458
1782845891479335400,8.42433544921875,0.006583750247955322,-0.002548177959397435,0.01651889644563198
1782845891489340400,8.43434033203125,0.006647399626672268,-0.0024520375300198793,0.013064243830740452
1782845891499345400,8.444345458984374,0.0098994430154562,-0.0015192688442766666,0.007486729882657528
1782845891509350400,8.454350341796875,0.012442762032151222,-0.0015371120534837246,0.002665609121322632
1782845891519355400,8.46435546875,0.014169500209391117,-0.001724837115034461,-0.0011439877562224865
1782845891529360400,8.4743603515625,0.016106417402625084,-0.004319288767874241,-0.009189397096633911
1782845891539365400,8.484365478515626,0.018200712278485298,-0.005555439740419388,-0.012103945016860962
1782845891549370400,8.494370361328125,0.017713885754346848,-0.008974405936896801,-0.017170608043670654
1782845891559375400,8.504375244140626,0.014848578721284866,-0.007055194117128849,-0.02646210417151451
1782845891569379300,8.51437939453125,0.014377199113368988,-0.009142314083874226,-0.027222702279686928
1782845891579384300,8.52438427734375,0.013003552332520485,-0.009075606241822243,-0.022774165496230125
1782845891589389300,8.534389404296874,0.008253272622823715,-0.004774867556989193,-0.01912696659564972
1782845891599394300,8.544394287109375,0.00587916374206543,-0.005118864588439465,-0.013412989675998688
1782845891609399300,8.5543994140625,0.006605408154428005,-0.007412645034492016,-0.01050907839089632
1782845891619404300,8.564404296875,-0.0015193235594779253,-0.003163511399179697,0.0005155696999281645
1782845891629409300,8.5744091796875,0.0031888787634670734,-0.0013022278435528278,0.008089333772659302
1782845891639414300,8.584414306640625,0.002055157907307148,0.001429622177965939,0.017181646078824997
1782845891649419300,8.594419189453125,0.002571810968220234,-0.003837045282125473,0.022094910964369774
1782845891659423200,8.60442333984375,0.006372268311679363,-0.0005029109306633472,0.027205390855669975
1782845891669428200,8.61442822265625,0.008389346301555634,-0.0038869897834956646,0.028049612417817116
1782845891679433500,8.62443359375,-0.004376993048936129,0.01760895363986492,0.10422848165035248
1782845891689438500,8.6344384765625,-0.008459885604679585,0.03090771473944187,0.0605691522359848
1782845891699443500,8.644443359375,-0.0004148663720116019,0.03537999838590622,-0.02416132390499115
1782845891709448400,8.654448486328125,0.016120433807373047,-0.0192041527479887,-0.06574072688817978
1782845891719453400,8.664453369140626,0.022562913596630096,-0.051923979073762894,-0.057951007038354874
1782845891729458400,8.67445849609375,0.02094877138733864,-0.04769327864050865,-0.040024738758802414
1782845891739463400,8.68446337890625,0.013959094882011414,-0.02662344090640545,-0.035351209342479706
1782845891749468400,8.694468505859374,0.010355038568377495,-0.005468088202178478,-0.027041615918278694
1782845891759472400,8.704472412109375,0.010438172146677971,0.003963981755077839,-0.029096819460392
1782845891769477400,8.714477294921876,0.008782219141721725,0.0016989634605124593,-0.02652766741812229
