time,seconds_elapsed,z,y,x
1782846969612355600,0.05835546875,0.3084716796875,-0.0229034423828125,0.003082275390625
1782846969622360600,0.068360595703125,0.25457763671875,-0.0210723876953125,0.0214996337890625
1782846969632365600,0.078365478515625,0.193084716796875,-0.0121002197265625,0.0384979248046875
1782846969642370600,0.08837060546875,0.1381988525390625,0.0072021484375,0.0516204833984375
1782846969652375600,0.09837548828125,0.0889739990234375,0.0142059326171875,0.0518341064453125
1782846969662381300,0.10838134765625,0.0537567138671875,0.0339202880859375,0.046173095703125
1782846969672386300,0.11838623046875,0.0462188720703125,0.0582275390625,0.03009033203125
1782846969682391300,0.128391357421875,0.0433197021484375,0.0719757080078125,0.0214385986328125
1782846969692396300,0.138396240234375,0.0319976806640625,0.0832061767578125,0.0286102294921875
1782846969702401300,0.1484013671875,0.0242462158203125,0.0914306640625,0.0394439697265625
1782846969712406300,0.15840625,-0.012420654296875,0.0838470458984375,0.0283966064453125
1782846969722411500,0.16841162109375,-0.0907135009765625,0.0635223388671875,0.0104217529296875
1782846969732417300,0.178417236328125,-0.177825927734375,0.0186004638671875,-0.003204345703125
1782846969742422300,0.18842236328125,-0.2834625244140625,-0.0684661865234375,-0.005828857421875
1782846969752427300,0.19842724609375,-0.4336700439453125,-0.1441650390625,0.0353546142578125
1782846969762432300,0.208432373046875,-0.6319427490234375,-0.190704345703125,0.089447021484375
1782846969772437200,0.218437255859375,-0.8408660888671875,-0.267486572265625,0.138671875
1782846969782442200,0.228442138671875,-1.0261383056640625,-0.370391845703125,0.240478515625
1782846969792448500,0.238448486328125,-1.2147064208984375,-0.45867919921875,0.3502349853515625
1782846969802453500,0.24845361328125,-1.4154052734375,-0.519317626953125,0.41973876953125
1782846969812458500,0.25845849609375,-1.66363525390625,-0.6069183349609375,0.4278564453125
1782846969822463500,0.26846337890625,-1.9857635498046875,-0.8030853271484375,0.3887786865234375
1782846969832468500,0.278468505859375,-2.2566680908203125,-0.9129791259765625,0.293670654296875
1782846969842473500,0.288473388671875,-2.440765380859375,-0.7903289794921875,0.2181854248046875
1782846969852478500,0.298478515625,-2.6475982666015625,-0.5890655517578125,0.2900390625
1782846969862484500,0.308484375,-2.8980712890625,-0.4032440185546875,0.428131103515625
1782846969872489500,0.318489501953125,-3.0667572021484375,-0.2203521728515625,0.455963134765625
1782846969882494500,0.328494384765625,-3.05682373046875,-0.12054443359375,0.3024139404296875
1782846969892499500,0.33849951171875,-2.8683624267578125,-0.1422271728515625,0.1034393310546875
1782846969902504400,0.34850439453125,-2.59234619140625,-0.240020751953125,-0.03924560546875
1782846969912509400,0.358509521484375,-2.243560791015625,-0.399169921875,-0.077484130859375
1782846969922515500,0.368515380859375,-1.8155364990234375,-0.588531494140625,-0.0785675048828125
1782846969932520400,0.3785205078125,-1.4307403564453125,-0.792083740234375,0.0332183837890625
1782846969942525400,0.388525390625,-1.0972137451171875,-0.9515380859375,0.240020751953125
1782846969952530400,0.398530517578125,-0.8394317626953125,-0.852142333984375,0.37548828125
1782846969962535400,0.408535400390625,-0.7884979248046875,-0.6596527099609375,0.374755859375
1782846969972540400,0.41854052734375,-0.851959228515625,-0.532745361328125,0.2147979736328125
1782846969982545400,0.42854541015625,-0.7977294921875,-0.365692138671875,0.0720367431640625
1782846969992551400,0.438551513671875,-0.7418670654296875,-0.2086639404296875,-0.0427093505859375
1782846970002556400,0.448556396484375,-0.682830810546875,-0.092529296875,-0.154296875
1782846970012561400,0.4585615234375,-0.630035400390625,0.0058441162109375,-0.220245361328125
1782846970022566400,0.46856640625,-0.56915283203125,0.0794677734375,-0.24267578125
1782846970032571400,0.4785712890625,-0.503662109375,0.124725341796875,-0.2438507080078125
1782846970042576400,0.488576416015625,-0.44610595703125,0.134490966796875,-0.235443115234375
1782846970052582400,0.49858251953125,-0.4042205810546875,0.1012725830078125,-0.217742919921875
1782846970062587400,0.50858740234375,-0.37200927734375,0.0562591552734375,-0.1619110107421875
1782846970072592400,0.51859228515625,-0.3393402099609375,0.01910400390625,-0.0678558349609375
1782846970082597400,0.528597412109375,-0.3028564453125,-0.0177764892578125,0.0050201416015625
1782846970092602400,0.538602294921875,-0.26983642578125,-0.031036376953125,0.063232421875
1782846970102607600,0.548607666015625,-0.2559051513671875,-0.0395965576171875,0.09783935546875
1782846970112612600,0.558612548828125,-0.2567138671875,-0.0465087890625,0.1228485107421875
1782846970122618400,0.568618408203125,-0.238037109375,-0.0578460693359375,0.1421966552734375
1782846970132623400,0.578623291015625,-0.26739501953125,-0.0561676025390625,0.1895599365234375
1782846970142628400,0.58862841796875,-0.3816070556640625,-0.042816162109375,0.2496795654296875
1782846970152633300,0.59863330078125,-0.4669647216796875,-0.0167236328125,0.278594970703125
1782846970162638300,0.608638427734375,-0.5626220703125,-0.011749267578125,0.271209716796875
1782846970172643300,0.618643310546875,-0.654815673828125,-0.0587615966796875,0.171630859375
1782846970182648300,0.6286484375,-0.7582244873046875,-0.08831787109375,0.04412841796875
1782846970192654300,0.638654296875,-0.84796142578125,-0.1031036376953125,-0.0144500732421875
1782846970202659300,0.648659423828125,-0.915252685546875,-0.1188507080078125,-0.007904052734375
1782846970212664300,0.658664306640625,-1.0108489990234375,-0.1414947509765625,0.03955078125
1782846970222669300,0.66866943359375,-1.165618896484375,-0.168548583984375,0.09063720703125
1782846970232674300,0.67867431640625,-1.316558837890625,-0.2214508056640625,0.12457275390625
1782846970242679300,0.68867919921875,-1.4637908935546875,-0.2950286865234375,0.1652984619140625
1782846970252685600,0.698685546875,-1.5594635009765625,-0.3807373046875,0.1988983154296875
1782846970262690600,0.708690673828125,-1.65472412109375,-0.462890625,0.2649078369140625
1782846970272695600,0.718695556640625,-1.7667999267578125,-0.53106689453125,0.3201446533203125
1782846970282700500,0.728700439453125,-1.8955535888671875,-0.6112823486328125,0.290802001953125
1782846970292705500,0.73870556640625,-2.0696258544921875,-0.7122650146484375,0.26898193359375
1782846970302710500,0.74871044921875,-2.261627197265625,-0.767578125,0.3203582763671875
1782846970312715500,0.758715576171875,-2.37774658203125,-0.7625579833984375,0.3326873779296875
1782846970322721500,0.768721435546875,-2.434326171875,-0.79388427734375,0.2618560791015625
1782846970332726500,0.7787265625,-2.4949798583984375,-0.8296661376953125,0.18115234375
1782846970342731500,0.7887314453125,-2.5209808349609375,-0.836090087890625,0.1092987060546875
1782846970352736500,0.798736572265625,-2.4898834228515625,-0.8090972900390625,0.068634033203125
1782846970362741500,0.808741455078125,-2.4247283935546875,-0.77520751953125,0.030426025390625
1782846970372746500,0.81874658203125,-2.309661865234375,-0.7389678955078125,-0.0052032470703125
1782846970382752500,0.82875244140625,-2.1419677734375,-0.687896728515625,0.0052490234375
1782846970392757500,0.838757568359375,-1.9268646240234375,-0.619537353515625,0.0594635009765625
1782846970402762500,0.848762451171875,-1.6714019775390625,-0.530853271484375,0.12091064453125
1782846970412767500,0.858767578125,-1.4137420654296875,-0.4521942138671875,0.15863037109375
1782846970422772500,0.8687724609375,-1.180938720703125,-0.3683319091796875,0.1934814453125
1782846970432777500,0.878777587890625,-0.9630126953125,-0.280181884765625,0.221405029296875
1782846970442782500,0.888782470703125,-0.7685699462890625,-0.1981353759765625,0.2026214599609375
1782846970452788500,0.89878857421875,-0.62518310546875,-0.12664794921875,0.1322784423828125
1782846970462793500,0.90879345703125,-0.5236358642578125,-0.0644989013671875,0.040191650390625
1782846970472798500,0.918798583984375,-0.4568634033203125,0.0163421630859375,-0.008514404296875
1782846970482803500,0.928803466796875,-0.390472412109375,0.1018524169921875,-0.0249786376953125
1782846970492808400,0.938808349609375,-0.2882232666015625,0.1622467041015625,-0.039764404296875
1782846970502813400,0.9488134765625,-0.1787261962890625,0.1971893310546875,-0.0445404052734375
1782846970512819500,0.9588193359375,-0.08154296875,0.22003173828125,-0.04144287109375
1782846970522824400,0.968824462890625,0.0002899169921875,0.2176513671875,-0.0332794189453125
1782846970532829400,0.978829345703125,0.069091796875,0.2017059326171875,-0.0107269287109375
1782846970542834400,0.98883447265625,0.1535186767578125,0.193206787109375,0.0227203369140625
1782846970552839400,0.99883935546875,0.241058349609375,0.1560821533203125,0.041015625
1782846970562844400,1.008844482421875,0.304962158203125,0.1038818359375,0.0565338134765625
1782846970572849400,1.018849365234375,0.3518829345703125,0.0672760009765625,0.0640106201171875
1782846970582855400,1.02885546875,0.38812255859375,0.0402374267578125,0.038330078125
1782846970592860400,1.0388603515625,0.396759033203125,0.01751708984375,0.024261474609375
1782846970602865400,1.048865478515625,0.4021148681640625,0.006011962890625,0.029876708984375
1782846970612870400,1.058870361328125,0.4055633544921875,-0.0128326416015625,0.03759765625
1782846970622875400,1.06887548828125,0.4163055419921875,-0.01312255859375,0.0797576904296875
1782846970632880400,1.07888037109375,0.4205322265625,-0.0199432373046875,0.12969970703125
1782846970642886400,1.088886474609375,0.375244140625,-0.0124053955078125,0.1535186767578125
1782846970652891400,1.098891357421875,0.2571563720703125,0.0320587158203125,0.140655517578125
1782846970662896400,1.108896484375,0.1311798095703125,0.0802764892578125,0.095367431640625
1782846970672901400,1.1189013671875,0.05224609375,0.1075439453125,0.0498199462890625
1782846970682906400,1.12890625,0.00994873046875,0.1304168701171875,0.0298309326171875
1782846970692911400,1.138911376953125,-0.0238189697265625,0.1187744140625,0.0273590087890625
1782846970702916400,1.148916259765625,-0.07452392578125,0.0648193359375,0.0505523681640625
1782846970712922400,1.15892236328125,-0.1641998291015625,0.0017242431640625,0.0793304443359375
1782846970722927400,1.16892724609375,-0.2763214111328125,-0.059906005859375,0.11553955078125
1782846970732932400,1.178932373046875,-0.4387969970703125,-0.1488494873046875,0.1193695068359375
1782846970742937300,1.188937255859375,-0.6454315185546875,-0.2396697998046875,0.0737152099609375
1782846970752942300,1.1989423828125,-0.849365234375,-0.36895751953125,-0.005218505859375
1782846970762947300,1.208947265625,-1.0588531494140625,-0.5511016845703125,-0.068939208984375
1782846970772952300,1.218952392578125,-1.3446502685546875,-0.6612396240234375,-0.02313232421875
1782846970782958600,1.22895849609375,-1.6602783203125,-0.6801605224609375,0.13818359375
1782846970792963600,1.238963623046875,-1.971435546875,-0.6903839111328125,0.419219970703125
1782846970802968600,1.248968505859375,-2.15716552734375,-0.7936553955078125,0.6412506103515625
1782846970812973600,1.2589736328125,-2.1630401611328125,-1.0961456298828125,0.6704254150390625
1782846970822978600,1.268978515625,-2.0430145263671875,-1.4412689208984375,0.581085205078125
1782846970832983600,1.278983642578125,-1.8797607421875,-1.5471954345703125,0.546844482421875
1782846970842989600,1.288989501953125,-1.86309814453125,-1.41552734375,0.5930633544921875
1782846970852994600,1.29899462890625,-2.053497314453125,-1.209442138671875,0.605377197265625
1782846970862999600,1.30899951171875,-2.223388671875,-1.01690673828125,0.53948974609375
1782846970873004500,1.319004638671875,-2.170501708984375,-0.877105712890625,0.4127044677734375
1782846970883009500,1.329009521484375,-1.99346923828125,-0.8031158447265625,0.3300628662109375
1782846970893014500,1.3390146484375,-1.7819366455078125,-0.77203369140625,0.2481231689453125
1782846970903019500,1.34901953125,-1.576507568359375,-0.76654052734375,0.0795745849609375
1782846970913025300,1.359025390625,-1.4151611328125,-0.7789459228515625,-0.1077117919921875
1782846970923030300,1.3690302734375,-1.2689056396484375,-0.77734375,-0.2576141357421875
1782846970933035300,1.37903515625,-1.14959716796875,-0.7402801513671875,-0.3652496337890625
1782846970943040300,1.389040283203125,-1.057586669921875,-0.662017822265625,-0.415740966796875
1782846970953045200,1.399045166015625,-0.9882965087890625,-0.561859130859375,-0.39630126953125
1782846970963050200,1.40905029296875,-0.9459991455078125,-0.447662353515625,-0.3119659423828125
1782846970973056300,1.41905615234375,-0.9146575927734375,-0.3468475341796875,-0.2264251708984375
1782846970983061800,1.429061767578125,-0.8633270263671875,-0.2641754150390625,-0.1386566162109375
1782846970993066800,1.439066650390625,-0.7781829833984375,-0.2190093994140625,-0.0478515625
1782846971003071700,1.44907177734375,-0.69036865234375,-0.2059783935546875,0.0309295654296875
1782846971013076700,1.45907666015625,-0.5812530517578125,-0.19464111328125,0.0911407470703125
1782846971023081700,1.469081787109375,-0.465240478515625,-0.1992034912109375,0.150238037109375
1782846971033086700,1.479086669921875,-0.36907958984375,-0.20599365234375,0.2070770263671875
1782846971043092700,1.4890927734375,-0.2851715087890625,-0.203582763671875,0.2231903076171875
1782846971053097700,1.49909765625,-0.2333221435546875,-0.1773834228515625,0.2174224853515625
1782846971063102700,1.509102783203125,-0.2380828857421875,-0.14520263671875,0.191436767578125
1782846971073107700,1.519107666015625,-0.257965087890625,-0.1003875732421875,0.1566314697265625
1782846971083112700,1.52911279296875,-0.284912109375,-0.057830810546875,0.137603759765625
1782846971093117700,1.53911767578125,-0.32025146484375,-0.0281829833984375,0.147430419921875
1782846971103122700,1.549122802734375,-0.3000946044921875,-0.0154876708984375,0.1841583251953125
1782846971113128700,1.559128662109375,-0.2736053466796875,-0.015777587890625,0.194061279296875
1782846971123133700,1.5691337890625,-0.3783416748046875,-0.0656890869140625,0.1158905029296875
1782846971133138700,1.579138671875,-0.4119415283203125,-0.0597686767578125,0.19647216796875
1782846971143143700,1.589143798828125,-0.375946044921875,-0.0648651123046875,0.2672882080078125
1782846971153148700,1.599148681640625,-0.4478912353515625,-0.0941314697265625,0.267974853515625
1782846971163153700,1.609153564453125,-0.481475830078125,-0.079681396484375,0.2705535888671875
1782846971173160000,1.619159912109375,-0.5501251220703125,-0.0635986328125,0.224395751953125
1782846971183165000,1.6291650390625,-0.6470489501953125,-0.05499267578125,0.152801513671875
1782846971193170000,1.639169921875,-0.706817626953125,-0.0540313720703125,0.0758209228515625
1782846971203175000,1.6491748046875,-0.758148193359375,-0.0487060546875,-0.009124755859375
1782846971213180000,1.659179931640625,-0.865936279296875,-0.05084228515625,-0.094940185546875
1782846971223185000,1.669184814453125,-0.9918975830078125,-0.0572662353515625,-0.1337738037109375
1782846971233190000,1.67918994140625,-1.1196441650390625,-0.07489013671875,-0.1319427490234375
1782846971243195600,1.689195556640625,-1.270172119140625,-0.1141204833984375,-0.114410400390625
1782846971253201000,1.699200927734375,-1.417999267578125,-0.1798553466796875,-0.0886383056640625
1782846971263206000,1.709205810546875,-1.5643768310546875,-0.2796478271484375,-0.033905029296875
1782846971273211000,1.7192109375,-1.7082672119140625,-0.431365966796875,0.068695068359375
1782846971283216000,1.7292158203125,-1.80096435546875,-0.5708465576171875,0.1763763427734375
1782846971293220900,1.739220947265625,-1.8799591064453125,-0.6782379150390625,0.3711395263671875
1782846971303225900,1.749225830078125,-1.9828033447265625,-0.7830810546875,0.624114990234375
1782846971313231600,1.759231689453125,-2.1257171630859375,-0.8495941162109375,0.79046630859375
1782846971323236600,1.769236572265625,-2.31915283203125,-0.8680572509765625,0.853485107421875
1782846971333241600,1.77924169921875,-2.582489013671875,-0.8386077880859375,0.8264617919921875
1782846971343246600,1.78924658203125,-2.83001708984375,-0.7930908203125,0.730682373046875
1782846971353251600,1.79925146484375,-2.96209716796875,-0.7589569091796875,0.5952911376953125
1782846971363256600,1.809256591796875,-2.9078369140625,-0.7454681396484375,0.468017578125
1782846971373262600,1.8192626953125,-2.700225830078125,-0.7442169189453125,0.343536376953125
1782846971383267600,1.829267578125,-2.47137451171875,-0.75775146484375,0.2152862548828125
1782846971393272600,1.8392724609375,-2.1588592529296875,-0.7808074951171875,0.10845947265625
1782846971403277600,1.849277587890625,-1.9317474365234375,-0.7500152587890625,0.0126190185546875
1782846971413282600,1.859282470703125,-1.7009429931640625,-0.6396484375,-0.0166015625
1782846971423287600,1.86928759765625,-1.4800262451171875,-0.50604248046875,-0.012420654296875
1782846971433292500,1.87929248046875,-1.2817535400390625,-0.3532562255859375,-0.0144195556640625
1782846971443298800,1.889298828125,-1.076934814453125,-0.237640380859375,-0.02783203125
1782846971453303800,1.8993037109375,-0.8896942138671875,-0.145477294921875,-0.0160369873046875
1782846971463308800,1.909308837890625,-0.724609375,-0.0740814208984375,0.030303955078125
1782846971473313800,1.919313720703125,-0.612701416015625,-0.0318450927734375,0.06884765625
1782846971483318800,1.92931884765625,-0.53265380859375,-0.008026123046875,0.0702667236328125
1782846971493323800,1.93932373046875,-0.417572021484375,0.01739501953125,0.0630035400390625
1782846971503328800,1.949328857421875,-0.318450927734375,0.03826904296875,0.062957763671875
1782846971513334800,1.959334716796875,-0.216888427734375,0.0554351806640625,0.0638580322265625
1782846971523339800,1.96933984375,-0.108154296875,0.0619659423828125,0.0690460205078125
1782846971533344800,1.9793447265625,-0.005126953125,0.0623321533203125,0.0685882568359375
1782846971543349800,1.989349853515625,0.076690673828125,0.0594482421875,0.070831298828125
1782846971553354800,1.999354736328125,0.1134185791015625,0.0458984375,0.072052001953125
1782846971563359700,2.00935986328125,0.2025604248046875,0.05706787109375,0.044952392578125
1782846971573365800,2.01936572265625,0.242645263671875,0.0463714599609375,0.034759521484375
1782846971583370800,2.029370849609375,0.2365875244140625,0.0140838623046875,0.0145721435546875
1782846971593375700,2.039375732421875,0.2185211181640625,-0.0084381103515625,-0.018585205078125
1782846971603380700,2.049380615234375,0.2257080078125,-0.01654052734375,-0.0250091552734375
1782846971613385700,2.0593857421875,0.24072265625,-0.007171630859375,0.0037078857421875
1782846971623390700,2.069390625,0.2518768310546875,-0.0137939453125,0.041595458984375
1782846971633395700,2.079395751953125,0.2441864013671875,-0.018798828125,0.0724029541015625
1782846971643401700,2.089401611328125,0.21966552734375,-0.011383056640625,0.0767059326171875
1782846971653406700,2.09940673828125,0.1981353759765625,0.008392333984375,0.0691680908203125
1782846971663411700,2.10941162109375,0.1823272705078125,0.0378265380859375,0.0467071533203125
1782846971673416700,2.119416748046875,0.1564483642578125,0.0554656982421875,0.0153656005859375
1782846971683421700,2.129421630859375,0.128204345703125,0.0690460205078125,-0.0180511474609375
1782846971693426700,2.1394267578125,0.1102294921875,0.09112548828125,-0.0486297607421875
1782846971703432700,2.1494326171875,0.06829833984375,0.0910186767578125,-0.0446319580078125
1782846971713437700,2.159437744140625,0.009002685546875,0.0796356201171875,-0.0203094482421875
1782846971723442700,2.169442626953125,-0.047607421875,0.0794830322265625,-0.010345458984375
1782846971733447700,2.17944775390625,-0.1040802001953125,0.0811614990234375,0.009033203125
1782846971743452700,2.18945263671875,-0.1938629150390625,0.0755615234375,0.030548095703125
1782846971753457700,2.199457763671875,-0.3215789794921875,0.02496337890625,0.0639495849609375
1782846971763462700,2.209462646484375,-0.4927215576171875,-0.05419921875,0.10125732421875
1782846971773468700,2.21946875,-0.7082672119140625,-0.141448974609375,0.083038330078125
1782846971783473700,2.2294736328125,-0.9744873046875,-0.2225494384765625,0.038360595703125
1782846971793478700,2.239478759765625,-1.22198486328125,-0.3201141357421875,0.030426025390625
1782846971803483600,2.249483642578125,-1.4141998291015625,-0.4412841796875,0.1145477294921875
1782846971813488600,2.259488525390625,-1.5653076171875,-0.5585784912109375,0.2794647216796875
1782846971823493600,2.26949365234375,-1.7236480712890625,-0.6487884521484375,0.4657440185546875
1782846971833498600,2.27949853515625,-1.8769378662109375,-0.739349365234375,0.599884033203125
1782846971843504600,2.289504638671875,-2.0084381103515625,-0.8084869384765625,0.658966064453125
1782846971853509600,2.299509521484375,-2.1840667724609375,-0.847991943359375,0.68817138671875
1782846971863514600,2.3095146484375,-2.396087646484375,-0.8367462158203125,0.7218475341796875
1782846971873519600,2.31951953125,-2.5857086181640625,-0.7493133544921875,0.7327423095703125
1782846971883524600,2.329524658203125,-2.7249603271484375,-0.6501922607421875,0.6902923583984375
1782846971893529600,2.339529541015625,-2.7024383544921875,-0.606048583984375,0.5741729736328125
1782846971903534600,2.34953466796875,-2.4966278076171875,-0.639434814453125,0.437896728515625
1782846971913540600,2.35954052734375,-2.22796630859375,-0.7341156005859375,0.3484649658203125
1782846971923545900,2.3695458984375,-1.9357452392578125,-0.8537139892578125,0.3153228759765625
1782846971933550800,2.37955078125,-1.645965576171875,-0.9766998291015625,0.2950897216796875
1782846971943555800,2.389555908203125,-1.4016571044921875,-1.040374755859375,0.28521728515625
1782846971953560800,2.399560791015625,-1.24755859375,-0.9942779541015625,0.2867584228515625
1782846971963565800,2.40956591796875,-1.1907501220703125,-0.87481689453125,0.2767333984375
1782846971973571800,2.41957177734375,-1.1771240234375,-0.717559814453125,0.2503204345703125
1782846971983576300,2.429576416015625,-1.1504364013671875,-0.5517425537109375,0.2118072509765625
1782846971993581300,2.439581298828125,-1.1108856201171875,-0.4183197021484375,0.157928466796875
1782846972003586300,2.44958642578125,-1.051116943359375,-0.295806884765625,0.09814453125
1782846972013591300,2.45959130859375,-0.9709320068359375,-0.2014007568359375,0.0397491455078125
1782846972023596300,2.46959619140625,-0.8645477294921875,-0.1378326416015625,-0.0132904052734375
1782846972033601300,2.479601318359375,-0.750946044921875,-0.092315673828125,-0.0501251220703125
1782846972043607300,2.489607177734375,-0.62841796875,-0.0670928955078125,-0.0792083740234375
1782846972053612300,2.4996123046875,-0.5240631103515625,-0.054840087890625,-0.0868072509765625
1782846972063617300,2.5096171875,-0.4323577880859375,-0.0518341064453125,-0.0679473876953125
1782846972073622300,2.519622314453125,-0.3486480712890625,-0.0583343505859375,-0.0457305908203125
1782846972083627500,2.52962744140625,-0.2622833251953125,-0.0714263916015625,-0.0269775390625
1782846972093632500,2.539632568359375,-0.1849365234375,-0.0724945068359375,-0.0054931640625
1782846972103637500,2.549637451171875,-0.1271820068359375,-0.0636444091796875,0.0245819091796875
1782846972113643500,2.5596435546875,-0.08392333984375,-0.0495452880859375,0.0519866943359375
1782846972123648500,2.5696484375,-0.0689849853515625,-0.0364837646484375,0.0669708251953125
1782846972133653500,2.579653564453125,-0.0915069580078125,-0.0337677001953125,0.0712127685546875
1782846972143658500,2.589658447265625,-0.1384429931640625,-0.0054473876953125,0.0680084228515625
1782846972153663500,2.59966357421875,-0.1879119873046875,0.005126953125,0.0743255615234375
1782846972163668500,2.60966845703125,-0.209075927734375,0.0219573974609375,0.10711669921875
1782846972173673500,2.619673583984375,-0.2066497802734375,0.0289459228515625,0.1360015869140625
1782846972183679200,2.62967919921875,-0.2149505615234375,0.0096435546875,0.155517578125
1782846972193684200,2.639684326171875,-0.227935791015625,0.0019989013671875,0.18157958984375
1782846972203689200,2.649689208984375,-0.249237060546875,-0.0086517333984375,0.1986236572265625
1782846972213694200,2.659694091796875,-0.2936859130859375,-0.007843017578125,0.2123565673828125
1782846972223699500,2.669699462890625,-0.3588714599609375,-0.0170440673828125,0.1914215087890625
1782846972233704400,2.679704345703125,-0.4404449462890625,-0.0237274169921875,0.1572113037109375
1782846972243709400,2.68970947265625,-0.5335693359375,-0.0224456787109375,0.1240081787109375
1782846972253715200,2.699715087890625,-0.651641845703125,-0.0464324951171875,0.0735626220703125
1782846972263720200,2.70972021484375,-0.79888916015625,-0.1104278564453125,0.0270233154296875
1782846972273725200,2.71972509765625,-0.972198486328125,-0.1932830810546875,-0.0115203857421875
1782846972283730200,2.729730224609375,-1.1829833984375,-0.2662506103515625,-0.0464324951171875
1782846972293735200,2.739735107421875,-1.4428253173828125,-0.3350982666015625,-0.0486297607421875
1782846972303740200,2.749740234375,-1.748931884765625,-0.4145050048828125,-0.0027313232421875
1782846972313746400,2.759746337890625,-2.052459716796875,-0.5019989013671875,0.1601409912109375
1782846972323751400,2.76975146484375,-2.3137664794921875,-0.597930908203125,0.4386138916015625
1782846972333756400,2.77975634765625,-2.5225067138671875,-0.700897216796875,0.7392578125
1782846972343761400,2.789761474609375,-2.6630859375,-0.7572479248046875,0.9723358154296875
1782846972353766400,2.799766357421875,-2.8098297119140625,-0.777252197265625,1.0820770263671875
1782846972363771400,2.809771484375,-3.006988525390625,-0.8080291748046875,1.0281524658203125
1782846972373776400,2.8197763671875,-3.15289306640625,-0.821014404296875,0.856536865234375
1782846972383782400,2.829782470703125,-3.1403656005859375,-0.8257904052734375,0.6658935546875
1782846972393787400,2.839787353515625,-2.9743804931640625,-0.8353271484375,0.4976043701171875
1782846972403792400,2.84979248046875,-2.7327880859375,-0.833099365234375,0.3167877197265625
1782846972413797400,2.85979736328125,-2.49041748046875,-0.8093109130859375,0.15374755859375
1782846972423802400,2.86980224609375,-2.309234619140625,-0.74237060546875,0.0254364013671875
1782846972433807400,2.879807373046875,-2.1582794189453125,-0.6169891357421875,-0.030059814453125
1782846972443812400,2.889812255859375,-2.0121917724609375,-0.47265625,-0.014739990234375
1782846972453818400,2.899818359375,-1.8279571533203125,-0.3255615234375,0.057769775390625
1782846972463823400,2.9098232421875,-1.5993804931640625,-0.2130584716796875,0.168731689453125
1782846972473828400,2.919828369140625,-1.3302154541015625,-0.1407928466796875,0.27154541015625
1782846972483833300,2.929833251953125,-1.0279541015625,-0.0885772705078125,0.3426055908203125
1782846972493838300,2.93983837890625,-0.7227325439453125,-0.0453643798828125,0.3665924072265625
1782846972503843300,2.94984326171875,-0.4557342529296875,-0.0159454345703125,0.331146240234375
1782846972513848300,2.959848388671875,-0.2200164794921875,0.0042724609375,0.2506561279296875
1782846972523854300,2.969854248046875,-0.013275146484375,0.0220794677734375,0.1589813232421875
1782846972533859300,2.979859375,0.1421966552734375,0.040557861328125,0.0561981201171875
1782846972543864300,2.9898642578125,0.249908447265625,0.0594329833984375,-0.0323333740234375
1782846972553869300,2.999869384765625,0.3191986083984375,0.0912017822265625,-0.08990478515625
1782846972563874300,3.009874267578125,0.36822509765625,0.116455078125,-0.1391754150390625
1782846972573879300,3.01987939453125,0.3999481201171875,0.1207427978515625,-0.1954498291015625
1782846972583885300,3.02988525390625,0.4091949462890625,0.11712646484375,-0.2471466064453125
1782846972593890300,3.039890380859375,0.404144287109375,0.0906524658203125,-0.2861785888671875
1782846972603895600,3.0498955078125,0.3917999267578125,0.0780487060546875,-0.31866455078125
1782846972613900500,3.059900634765625,0.3761138916015625,0.0790252685546875,-0.3189849853515625
1782846972623905500,3.069905517578125,0.3623809814453125,0.0792999267578125,-0.267608642578125
1782846972633910500,3.07991064453125,0.335723876953125,0.0935211181640625,-0.186676025390625
1782846972643915500,3.08991552734375,0.315521240234375,0.1017913818359375,-0.0964202880859375
1782846972653921300,3.09992138671875,0.2926177978515625,0.083038330078125,-0.0108642578125
1782846972663926300,3.10992626953125,0.259490966796875,0.058563232421875,0.048095703125
1782846972673931300,3.11993115234375,0.2191925048828125,0.0478973388671875,0.0894775390625
1782846972683936300,3.129936279296875,0.174224853515625,0.0469207763671875,0.1061859130859375
1782846972693941200,3.139941162109375,0.141693115234375,0.0423126220703125,0.0927276611328125
1782846972703946200,3.1499462890625,0.1054840087890625,0.04156494140625,0.057281494140625
1782846972713951200,3.159951171875,0.06195068359375,0.0561981201171875,0.047882080078125
1782846972723957200,3.169957275390625,0.0221710205078125,0.074737548828125,0.067901611328125
1782846972733962200,3.179962158203125,-0.009368896484375,0.083099365234375,0.0941162109375
1782846972743967200,3.18996728515625,-0.04193115234375,0.089202880859375,0.12994384765625
1782846972753972200,3.19997216796875,-0.081146240234375,0.0990142822265625,0.1883087158203125
1782846972763977200,3.209977294921875,-0.1412811279296875,0.09478759765625,0.2299041748046875
1782846972773982200,3.219982177734375,-0.2080078125,0.0469512939453125,0.228607177734375
1782846972783988200,3.22998828125,-0.31427001953125,-0.020050048828125,0.2005767822265625
1782846972793993200,3.2399931640625,-0.470550537109375,-0.0885467529296875,0.1760406494140625
1782846972803998200,3.249998291015625,-0.63970947265625,-0.1649932861328125,0.1573944091796875
1782846972814003200,3.260003173828125,-0.8522491455078125,-0.2601318359375,0.11358642578125
1782846972824008200,3.27000830078125,-1.1108856201171875,-0.3729095458984375,0.034423828125
1782846972834013400,3.280013427734375,-1.3838653564453125,-0.4919281005859375,-0.033172607421875
1782846972844018400,3.290018310546875,-1.64605712890625,-0.6209259033203125,-0.0393218994140625
1782846972854024400,3.3000244140625,-1.898345947265625,-0.7301025390625,0.0869293212890625
1782846972864029400,3.310029541015625,-2.1277313232421875,-0.7892913818359375,0.3299713134765625
1782846972874034400,3.320034423828125,-2.27276611328125,-0.8307342529296875,0.620849609375
1782846972884039400,3.330039306640625,-2.376434326171875,-0.80535888671875,0.808837890625
1782846972894044400,3.34004443359375,-2.6208038330078125,-0.6812896728515625,0.854217529296875
1782846972904049400,3.35004931640625,-3.0352630615234375,-0.475616455078125,0.823822021484375
1782846972914054400,3.360054443359375,-3.272216796875,-0.2941741943359375,0.7630767822265625
1782846972924060400,3.370060302734375,-3.2041473388671875,-0.26068115234375,0.7082672119140625
1782846972934065400,3.3800654296875,-2.87255859375,-0.356170654296875,0.655364990234375
1782846972944070400,3.3900703125,-2.3728790283203125,-0.5173492431640625,0.5884246826171875
1782846972954075400,3.400075439453125,-1.81378173828125,-0.690216064453125,0.5377655029296875
1782846972964080400,3.410080322265625,-1.3253326416015625,-0.7875823974609375,0.4981842041015625
1782846972974085400,3.42008544921875,-0.9944000244140625,-0.778076171875,0.4429779052734375
1782846972984091000,3.4300908203125,-0.854156494140625,-0.701202392578125,0.36029052734375
1782846972994096600,3.4400966796875,-0.8524017333984375,-0.5872802734375,0.2507781982421875
1782846973004101600,3.4501015625,-0.90582275390625,-0.4365997314453125,0.1665496826171875
1782846973014106600,3.460106689453125,-0.9570159912109375,-0.2913818359375,0.1201171875
1782846973024111900,3.47011181640625,-0.981048583984375,-0.1813201904296875,0.071197509765625
1782846973034116900,3.480116943359375,-0.9926300048828125,-0.1062774658203125,0.0250396728515625
1782846973044121900,3.490121826171875,-0.9630584716796875,-0.0581817626953125,0.0054779052734375
1782846973054126800,3.500126953125,-0.8847808837890625,-0.021484375,0.006988525390625
1782846973064132600,3.510132568359375,-0.7874908447265625,-0.0240936279296875,0.0101470947265625
1782846973074137600,3.5201376953125,-0.6728668212890625,-0.0333709716796875,0.0227508544921875
1782846973084142600,3.530142578125,-0.5496368408203125,-0.0518951416015625,0.052703857421875
1782846973094147600,3.540147705078125,-0.42425537109375,-0.0626068115234375,0.09478759765625
1782846973104152600,3.550152587890625,-0.3134613037109375,-0.0570526123046875,0.126495361328125
1782846973114157600,3.560157470703125,-0.2297515869140625,-0.0545806884765625,0.136322021484375
1782846973124163600,3.57016357421875,-0.1694488525390625,-0.038177490234375,0.1447296142578125
1782846973134168600,3.58016845703125,-0.139404296875,-0.0177001953125,0.146636962890625
1782846973144173600,3.590173583984375,-0.1526031494140625,-0.0079193115234375,0.1394805908203125
1782846973154178600,3.600178466796875,-0.1896820068359375,-0.0039825439453125,0.136993408203125
1782846973164183600,3.61018359375,-0.22918701171875,0.0037384033203125,0.145538330078125
1782846973174188500,3.6201884765625,-0.2607269287109375,0.0020904541015625,0.1542816162109375
1782846973184193500,3.630193603515625,-0.28314208984375,-0.007293701171875,0.1518402099609375
1782846973194199800,3.64019970703125,-0.294921875,-0.01300048828125,0.1432952880859375
1782846973204204800,3.650204833984375,-0.3080596923828125,-0.0119781494140625,0.1317901611328125
1782846973214209800,3.660209716796875,-0.3359375,-0.008056640625,0.1429595947265625
1782846973224214800,3.67021484375,-0.3861541748046875,-0.002044677734375,0.1568450927734375
1782846973234219800,3.6802197265625,-0.452362060546875,0.0062255859375,0.1538238525390625
1782846973244224800,3.690224853515625,-0.5411376953125,0.0049285888671875,0.125732421875
1782846973254229800,3.700229736328125,-0.6282196044921875,-0.0125732421875,0.0750579833984375
1782846973264235800,3.71023583984375,-0.7134246826171875,-0.02862548828125,0.0248565673828125
1782846973274240800,3.72024072265625,-0.8146209716796875,-0.0437774658203125,-0.0146331787109375
1782846973284245800,3.730245849609375,-0.9579010009765625,-0.07452392578125,-0.0381011962890625
1782846973294250800,3.740250732421875,-1.129974365234375,-0.1171722412109375,-0.0437774658203125
1782846973304255700,3.750255859375,-1.331939697265625,-0.171844482421875,-0.0127410888671875
1782846973314260700,3.7602607421875,-1.545989990234375,-0.2244720458984375,0.057769775390625
1782846973324265700,3.770265625,-1.764434814453125,-0.2785797119140625,0.147064208984375
1782846973334271700,3.780271728515625,-1.938751220703125,-0.3277587890625,0.2109527587890625
1782846973344276700,3.79027685546875,-2.0677947998046875,-0.3870697021484375,0.263641357421875
1782846973354281700,3.80028173828125,-2.17486572265625,-0.4449920654296875,0.3389892578125
1782846973364286700,3.81028662109375,-2.308074951171875,-0.515411376953125,0.425018310546875
1782846973374291700,3.820291748046875,-2.4498138427734375,-0.6260833740234375,0.499908447265625
1782846973384296700,3.830296630859375,-2.5730743408203125,-0.758575439453125,0.5597991943359375
1782846973394302700,3.840302734375,-2.6469879150390625,-0.8669891357421875,0.601043701171875
1782846973404307700,3.8503076171875,-2.6551666259765625,-0.9318389892578125,0.6291046142578125
1782846973414312700,3.860312744140625,-2.621063232421875,-0.923187255859375,0.6202239990234375
1782846973424318000,3.87031787109375,-2.569976806640625,-0.85113525390625,0.5530242919921875
1782846973434323000,3.880322998046875,-2.5200958251953125,-0.77056884765625,0.455535888671875
1782846973444328000,3.890327880859375,-2.45556640625,-0.6653289794921875,0.3819580078125
1782846973454333000,3.9003330078125,-2.3452606201171875,-0.5283355712890625,0.34539794921875
1782846973464338700,3.910338623046875,-2.164825439453125,-0.392486572265625,0.308929443359375
1782846973474343700,3.92034375,-1.9136962890625,-0.2819061279296875,0.2436981201171875
1782846973484348700,3.9303486328125,-1.6197967529296875,-0.1908416748046875,0.162078857421875
1782846973494353700,3.940353759765625,-1.324951171875,-0.1112060546875,0.083770751953125
1782846973504358700,3.950358642578125,-1.0412750244140625,-0.0471343994140625,-0.0014190673828125
1782846973514363600,3.96036376953125,-0.7767333984375,-0.01373291015625,-0.09771728515625
1782846973524368600,3.97036865234375,-0.5493011474609375,0.0060272216796875,-0.1865081787109375
1782846973534374700,3.980374755859375,-0.3615570068359375,0.0265350341796875,-0.2573089599609375
1782846973544379600,3.990379638671875,-0.2046051025390625,0.0469970703125,-0.2970733642578125
1782846973554384600,4.000384521484375,-0.0826263427734375,0.0727691650390625,-0.298187255859375
1782846973564389600,4.0103896484375,0.015045166015625,0.1049652099609375,-0.2832794189453125
1782846973574394600,4.02039453125,0.09466552734375,0.1373443603515625,-0.26031494140625
1782846973584399600,4.030399658203125,0.1535797119140625,0.163177490234375,-0.2393951416015625
1782846973594404600,4.040404541015625,0.1923065185546875,0.1645660400390625,-0.226654052734375
1782846973604410600,4.05041064453125,0.212890625,0.1461639404296875,-0.2087554931640625
1782846973614415600,4.06041552734375,0.2297821044921875,0.120330810546875,-0.1731109619140625
1782846973624420600,4.070420654296875,0.2452239990234375,0.09027099609375,-0.11767578125
1782846973634425600,4.080425537109375,0.276947021484375,0.050445556640625,-0.050323486328125
1782846973644430600,4.0904306640625,0.3140411376953125,0.0073394775390625,0.0514678955078125
1782846973654435600,4.100435546875,0.36273193359375,-0.0157623291015625,0.1535797119140625
1782846973664441900,4.11044189453125,0.3853607177734375,-0.0257568359375,0.23394775390625
1782846973674446800,4.12044677734375,0.3851318359375,-0.0305633544921875,0.2816009521484375
1782846973684451800,4.130451904296875,0.351287841796875,-0.0358428955078125,0.2837371826171875
1782846973694456800,4.140456787109375,0.2895965576171875,-0.0301513671875,0.2524871826171875
1782846973704461800,4.1504619140625,0.2097625732421875,-0.006805419921875,0.2063140869140625
1782846973714466800,4.160466796875,0.12567138671875,0.0266571044921875,0.1582489013671875
1782846973724471800,4.170471923828125,0.0473785400390625,0.0527496337890625,0.1108245849609375
1782846973734477800,4.180477783203125,-0.0012054443359375,0.0804290771484375,0.0603179931640625
1782846973744482800,4.19048291015625,-0.0202178955078125,0.0951995849609375,0.0095977783203125
1782846973754487800,4.20048779296875,-0.0258331298828125,0.0896148681640625,-0.01751708984375
1782846973764492800,4.210492919921875,-0.034423828125,0.0782012939453125,-0.01153564453125
1782846973774497800,4.220497802734375,-0.0615692138671875,0.0656585693359375,0.0350494384765625
1782846973784502800,4.230502685546875,-0.116180419921875,0.0211029052734375,0.0608978271484375
1782846973794507800,4.2405078125,-0.201324462890625,-0.05499267578125,0.0536651611328125
1782846973804513800,4.250513671875,-0.3268280029296875,-0.139373779296875,0.0017852783203125
1782846973814518800,4.260518798828125,-0.4540557861328125,-0.2022705078125,-0.0791473388671875
1782846973824523800,4.270523681640625,-0.601409912109375,-0.2698974609375,-0.164764404296875
1782846973834528800,4.28052880859375,-0.8034210205078125,-0.3734588623046875,-0.2258148193359375
1782846973844533800,4.29053369140625,-1.067901611328125,-0.43304443359375,-0.185943603515625
1782846973854538800,4.300538818359375,-1.4107208251953125,-0.4189605712890625,-0.0198974609375
1782846973864544500,4.31054443359375,-1.7956085205078125,-0.3643341064453125,0.25543212890625
1782846973874549500,4.320549560546875,-2.0914306640625,-0.30511474609375,0.4841461181640625
1782846973884554800,4.3305546875,-2.24981689453125,-0.2307891845703125,0.7073974609375
1782846973894559700,4.340559814453125,-2.413970947265625,-0.2873687744140625,0.7611083984375
1782846973904564700,4.350564697265625,-2.5319671630859375,-0.398162841796875,0.5960845947265625
1782846973914569700,4.36056982421875,-2.6260223388671875,-0.400970458984375,0.510650634765625
1782846973924574700,4.37057470703125,-2.7991485595703125,-0.220123291015625,0.5782470703125
1782846973934580700,4.380580810546875,-2.909454345703125,-0.074371337890625,0.6685638427734375
1782846973944585700,4.390585693359375,-2.88433837890625,-0.1201171875,0.714111328125
1782846973954590700,4.4005908203125,-2.694061279296875,-0.2384033203125,0.7447357177734375
1782846973964595700,4.410595703125,-2.343963623046875,-0.41204833984375,0.753875732421875
1782846973974600700,4.4206005859375,-1.9324951171875,-0.6057281494140625,0.780029296875
1782846973984605700,4.430605712890625,-1.5989990234375,-0.6876983642578125,0.788360595703125
1782846973994611000,4.44061083984375,-1.41796875,-0.586517333984375,0.723968505859375
1782846974004617000,4.450616943359375,-1.360626220703125,-0.4306793212890625,0.55584716796875
1782846974014622000,4.4606220703125,-1.3417816162109375,-0.2971038818359375,0.3370819091796875
1782846974024627000,4.470626953125,-1.2928619384765625,-0.1595916748046875,0.159942626953125
1782846974034632000,4.4806318359375,-1.203948974609375,-0.0492401123046875,0.0123748779296875
1782846974044637000,4.490636962890625,-1.0881195068359375,0.0127105712890625,-0.1164703369140625
1782846974054642000,4.500641845703125,-0.945953369140625,0.0706329345703125,-0.192108154296875
1782846974064647000,4.51064697265625,-0.7986907958984375,0.1167755126953125,-0.23944091796875
1782846974074653200,4.520653076171875,-0.658721923828125,0.129608154296875,-0.27288818359375
1782846974084658200,4.530658203125,-0.52618408203125,0.1154327392578125,-0.290435791015625
1782846974094663200,4.5406630859375,-0.3980255126953125,0.0789337158203125,-0.2985076904296875
1782846974104668200,4.550668212890625,-0.2870330810546875,0.0258941650390625,-0.2836761474609375
1782846974114673200,4.560673095703125,-0.1938323974609375,-0.019378662109375,-0.24267578125
1782846974124678100,4.57067822265625,-0.1338348388671875,-0.0505218505859375,-0.1865234375
1782846974134684200,4.58068408203125,-0.111907958984375,-0.072296142578125,-0.139923095703125
1782846974144689200,4.590689208984375,-0.116424560546875,-0.0782470703125,-0.08575439453125
1782846974154694100,4.600694091796875,-0.146240234375,-0.077606201171875,-0.039825439453125
1782846974164699100,4.61069921875,-0.178466796875,-0.0728302001953125,-0.02069091796875
1782846974174704000,4.6207041015625,-0.2180938720703125,-0.0519561767578125,-0.0027008056640625
1782846974184709000,4.630709228515625,-0.2685699462890625,-0.00958251953125,0.021697998046875
1782846974194714000,4.640714111328125,-0.34539794921875,0.0352630615234375,0.052276611328125
1782846974204720000,4.65072021484375,-0.433013916015625,0.056121826171875,0.082733154296875
1782846974214725000,4.66072509765625,-0.4929656982421875,0.062896728515625,0.112640380859375
1782846974224730000,4.670730224609375,-0.5270538330078125,0.0713958740234375,0.137847900390625
1782846974234735000,4.680735107421875,-0.55859375,0.071533203125,0.1586761474609375
1782846974244740000,4.690739990234375,-0.5782012939453125,0.054473876953125,0.16363525390625
1782846974254745000,4.7007451171875,-0.58831787109375,0.03564453125,0.159271240234375
1782846974264750000,4.71075,-0.59564208984375,0.0091094970703125,0.1525421142578125
1782846974274755800,4.720755859375,-0.6107635498046875,-0.0250396728515625,0.13262939453125
1782846974284760800,4.7307607421875,-0.646240234375,-0.0611724853515625,0.1124725341796875
1782846974294765800,4.740765869140625,-0.6859588623046875,-0.1099700927734375,0.0803070068359375
1782846974304771000,4.75077099609375,-0.749908447265625,-0.1892242431640625,0.0604705810546875
1782846974314776000,4.760776123046875,-0.8382415771484375,-0.289520263671875,0.065643310546875
1782846974324781000,4.770781005859375,-0.957275390625,-0.3961639404296875,0.0898284912109375
1782846974334786000,4.7807861328125,-1.157073974609375,-0.4962615966796875,0.1136474609375
1782846974344792000,4.7907919921875,-1.3963623046875,-0.578369140625,0.1665802001953125
1782846974354797000,4.800797119140625,-1.6467437744140625,-0.6304931640625,0.2266082763671875
1782846974364802000,4.810802001953125,-1.91314697265625,-0.6446990966796875,0.279815673828125
1782846974374807000,4.82080712890625,-2.20458984375,-0.6363067626953125,0.3389892578125
1782846974384812000,4.83081201171875,-2.4936065673828125,-0.61163330078125,0.3839569091796875
1782846974394817000,4.840817138671875,-2.7560272216796875,-0.5843963623046875,0.38897705078125
1782846974404823000,4.850822998046875,-2.95166015625,-0.569976806640625,0.36090087890625
1782846974414828000,4.860828125,-3.0401763916015625,-0.58221435546875,0.3241729736328125
1782846974424833000,4.8708330078125,-3.009002685546875,-0.59283447265625,0.303955078125
1782846974434838000,4.880838134765625,-2.8640899658203125,-0.642181396484375,0.26971435546875
1782846974444843000,4.890843017578125,-2.6459503173828125,-0.7072906494140625,0.215118408203125
1782846974454848000,4.900847900390625,-2.36553955078125,-0.7241973876953125,0.196258544921875
1782846974464853000,4.91085302734375,-2.0854949951171875,-0.6967926025390625,0.225067138671875
1782846974474859000,4.92085888671875,-1.83306884765625,-0.6406707763671875,0.25860595703125
1782846974484864000,4.930864013671875,-1.6097259521484375,-0.5803680419921875,0.2659149169921875
1782846974494869000,4.940868896484375,-1.4065704345703125,-0.4913330078125,0.2499542236328125
1782846974504874000,4.9508740234375,-1.2152557373046875,-0.387786865234375,0.215118408203125
1782846974514879000,4.96087890625,-1.0142669677734375,-0.30230712890625,0.160400390625
1782846974524884000,4.970884033203125,-0.824432373046875,-0.236114501953125,0.123992919921875
1782846974534889000,4.980888916015625,-0.6693572998046875,-0.18621826171875,0.108673095703125
1782846974544895200,4.990895263671875,-0.5445404052734375,-0.1509857177734375,0.1088104248046875
1782846974554900200,5.000900146484375,-0.4406890869140625,-0.1243133544921875,0.1109466552734375
1782846974564905200,5.0109052734375,-0.3545074462890625,-0.0949554443359375,0.1080169677734375
1782846974574910200,5.02091015625,-0.2971954345703125,-0.0565032958984375,0.09033203125
1782846974584915200,5.030915283203125,-0.245574951171875,-0.0252838134765625,0.062103271484375
1782846974594920200,5.040920166015625,-0.1956024169921875,0.0047760009765625,0.0404815673828125
1782846974604926200,5.05092626953125,-0.1579742431640625,0.0460357666015625,0.0214080810546875
1782846974614931200,5.06093115234375,-0.136199951171875,0.0904541015625,0.00311279296875
1782846974624936200,5.070936279296875,-0.1222381591796875,0.114532470703125,-0.0136566162109375
1782846974634941200,5.080941162109375,-0.096221923828125,0.1304473876953125,-0.015228271484375
1782846974644946200,5.0909462890625,-0.044342041015625,0.13690185546875,-0.0105743408203125
1782846974654951200,5.100951171875,0.0286865234375,0.13848876953125,-0.0059051513671875
1782846974664956200,5.1109560546875,0.113311767578125,0.1393890380859375,-0.0075836181640625
1782846974674962000,5.1209619140625,0.170867919921875,0.1134796142578125,-0.0141143798828125
1782846974684967200,5.13096728515625,0.2065887451171875,0.090576171875,-0.0010223388671875
1782846974694972200,5.14097216796875,0.22979736328125,0.0666656494140625,0.019775390625
1782846974704977200,5.15097705078125,0.2532806396484375,0.03887939453125,0.04107666015625
1782846974714982100,5.160982177734375,0.2659912109375,0.0264892578125,0.0657806396484375
1782846974724987100,5.170987060546875,0.275421142578125,0.021942138671875,0.07794189453125
1782846974734992100,5.1809921875,0.2715301513671875,0.019989013671875,0.0714874267578125
1782846974744998000,5.190997802734375,0.2452545166015625,0.010162353515625,0.05670166015625
1782846974755003000,5.2010029296875,0.21051025390625,-0.00103759765625,0.0359954833984375
1782846974765008000,5.2110078125,0.1810455322265625,0.000518798828125,0.0272979736328125
1782846974775012900,5.221012939453125,0.1267242431640625,0.0072021484375,0.01611328125
1782846974785017900,5.231017822265625,0.0426025390625,0.0155181884765625,-0.001617431640625
1782846974795022800,5.24102294921875,-0.0615386962890625,0.020782470703125,-0.020843505859375
1782846974805027800,5.25102783203125,-0.173858642578125,-0.0043182373046875,-0.028472900390625
1782846974815034000,5.2610341796875,-0.3025665283203125,-0.061187744140625,-0.0497589111328125
1782846974825039000,5.2710390625,-0.445770263671875,-0.160247802734375,-0.12249755859375
1782846974835044000,5.281044189453125,-0.62164306640625,-0.280364990234375,-0.204833984375
1782846974845049000,5.291049072265625,-0.8158721923828125,-0.373779296875,-0.245330810546875
1782846974855054000,5.30105419921875,-1.031097412109375,-0.45001220703125,-0.22467041015625
1782846974865059000,5.31105908203125,-1.2492828369140625,-0.5381011962890625,-0.1259002685546875
1782846974875065000,5.321065185546875,-1.4355010986328125,-0.6469268798828125,0.03265380859375
1782846974885070000,5.331070068359375,-1.5931854248046875,-0.727081298828125,0.2555389404296875
1782846974895075000,5.341074951171875,-1.7371368408203125,-0.7796783447265625,0.423309326171875
1782846974905080000,5.351080078125,-1.8813323974609375,-0.852020263671875,0.4496307373046875
1782846974915085000,5.3610849609375,-2.073455810546875,-0.8969268798828125,0.35345458984375
1782846974925090000,5.371090087890625,-2.3563079833984375,-0.792022705078125,0.2568206787109375
1782846974935095000,5.381094970703125,-2.7234649658203125,-0.5404510498046875,0.227813720703125
1782846974945101000,5.39110107421875,-2.9798736572265625,-0.2965087890625,0.248809814453125
1782846974955106000,5.40110595703125,-3.04638671875,-0.1237640380859375,0.31475830078125
1782846974965111000,5.411111083984375,-2.943695068359375,-0.0358123779296875,0.3878021240234375
1782846974975116000,5.421115966796875,-2.656829833984375,-0.1046295166015625,0.373382568359375
1782846974985121000,5.43112109375,-2.2230072021484375,-0.3220062255859375,0.3358001708984375
1782846974995125800,5.441125732421875,-1.7425537109375,-0.60260009765625,0.3585205078125
1782846975005130800,5.451130859375,-1.3030548095703125,-0.7781829833984375,0.4525604248046875
1782846975015136800,5.46113671875,-0.97296142578125,-0.7771453857421875,0.508453369140625
1782846975025141800,5.471141845703125,-0.79681396484375,-0.6925811767578125,0.4340667724609375
1782846975035146800,5.481146728515625,-0.770782470703125,-0.590057373046875,0.2391510009765625
1782846975045151700,5.49115185546875,-0.815399169921875,-0.46343994140625,0.0328369140625
1782846975055156700,5.50115673828125,-0.8475494384765625,-0.3155975341796875,-0.087554931640625
1782846975065161700,5.51116162109375,-0.8848724365234375,-0.213348388671875,-0.190216064453125
1782846975075166700,5.521166748046875,-0.906341552734375,-0.13238525390625,-0.245880126953125
1782846975085172700,5.5311728515625,-0.8869781494140625,-0.059539794921875,-0.2268829345703125
1782846975095177700,5.541177734375,-0.8378143310546875,-0.0076141357421875,-0.1703948974609375
1782846975105182700,5.5511826171875,-0.7678070068359375,0.013885498046875,-0.115814208984375
1782846975115187700,5.561187744140625,-0.677703857421875,0.0160064697265625,-0.061920166015625
1782846975125192700,5.571192626953125,-0.5706329345703125,0.000946044921875,-0.0108642578125
1782846975135197700,5.58119775390625,-0.4437103271484375,-0.01190185546875,0.0330352783203125
1782846975145203700,5.59120361328125,-0.3094482421875,-0.0115814208984375,0.0628204345703125
1782846975155208700,5.601208740234375,-0.1902618408203125,-0.0032196044921875,0.0802154541015625
1782846975165213700,5.611213623046875,-0.10198974609375,0.003662109375,0.073699951171875
1782846975175218700,5.62121875,-0.04638671875,0.0037994384765625,0.0482177734375
1782846975185223700,5.6312236328125,-0.0148468017578125,-0.0053863525390625,0.00653076171875
1782846975195228700,5.641228759765625,-0.00665283203125,-0.0140380859375,-0.0363922119140625
1782846975205233700,5.651233642578125,-0.0271453857421875,-0.0198211669921875,-0.0646514892578125
1782846975215239700,5.66123974609375,-0.0499267578125,-0.0216522216796875,-0.0628662109375
1782846975225244700,5.67124462890625,-0.079803466796875,-0.0302581787109375,-0.0321044921875
1782846975235249700,5.681249755859375,-0.12774658203125,-0.04095458984375,-0.0055084228515625
1782846975245254700,5.691254638671875,-0.1867218017578125,-0.04376220703125,0.0203704833984375
1782846975255259600,5.701259765625,-0.28216552734375,-0.0363922119140625,0.041961669921875
1782846975265264600,5.7112646484375,-0.401336669921875,-0.0098114013671875,0.0659942626953125
1782846975275269600,5.72126953125,-0.53656005859375,0.0071868896484375,0.083465576171875
1782846975285275600,5.731275634765625,-0.7152252197265625,-0.0065765380859375,0.0670928955078125
1782846975295280600,5.74128076171875,-0.938629150390625,-0.0140228271484375,0.0532989501953125
1782846975305285600,5.75128564453125,-1.20098876953125,-0.0600433349609375,0.049774169921875
1782846975315290600,5.76129052734375,-1.4448089599609375,-0.193511962890625,0.0515289306640625
1782846975325295600,5.771295654296875,-1.6461181640625,-0.3451995849609375,0.0989227294921875
1782846975335300600,5.781300537109375,-1.80194091796875,-0.49725341796875,0.178314208984375
1782846975345305600,5.7913056640625,-1.947784423828125,-0.630950927734375,0.279296875
1782846975355311600,5.8013115234375,-2.0996551513671875,-0.75799560546875,0.374847412109375
1782846975365316600,5.811316650390625,-2.3010711669921875,-0.8546905517578125,0.4916534423828125
1782846975375321600,5.821321533203125,-2.5673370361328125,-0.8738555908203125,0.6127777099609375
1782846975385326600,5.83132666015625,-2.8914794921875,-0.8025360107421875,0.6824188232421875
1782846975395331600,5.84133154296875,-3.2689056396484375,-0.663421630859375,0.670867919921875
1782846975405336600,5.851336669921875,-3.5645599365234375,-0.534332275390625,0.5749053955078125
1782846975415341600,5.861341552734375,-3.6049346923828125,-0.4656829833984375,0.43701171875
1782846975425347600,5.87134765625,-3.3695831298828125,-0.440093994140625,0.306793212890625
1782846975435352600,5.8813525390625,-2.980865478515625,-0.457611083984375,0.154876708984375
1782846975445357600,5.891357666015625,-2.559326171875,-0.4914398193359375,0.001556396484375
1782846975455362800,5.90136279296875,-2.166229248046875,-0.5296478271484375,-0.1360321044921875
1782846975465367800,5.911367919921875,-1.8090972900390625,-0.511138916015625,-0.2070770263671875
1782846975475372800,5.921372802734375,-1.5079803466796875,-0.4404754638671875,-0.216033935546875
1782846975485377800,5.931377685546875,-1.336273193359375,-0.3623046875,-0.1105499267578125
1782846975495383800,5.9413837890625,-1.0341339111328125,-0.2419891357421875,0.051361083984375
1782846975505388800,5.951388916015625,-0.803955078125,-0.1657562255859375,0.1522064208984375
1782846975515393800,5.961393798828125,-0.653717041015625,-0.0994415283203125,0.2289581298828125
1782846975525398800,5.971398681640625,-0.5284881591796875,-0.0424346923828125,0.22576904296875
1782846975535403800,5.98140380859375,-0.43798828125,-0.007049560546875,0.18475341796875
1782846975545408800,5.99140869140625,-0.352386474609375,0.0202484130859375,0.145477294921875
1782846975555414800,6.001414794921875,-0.2838287353515625,0.0546112060546875,0.046234130859375
1782846975565419800,6.011419677734375,-0.175628662109375,0.08978271484375,0.011016845703125
1782846975575424800,6.0214248046875,-0.0689849853515625,0.085357666015625,-0.00634765625
1782846975585429800,6.0314296875,-0.013458251953125,0.09576416015625,-0.03497314453125
1782846975595434800,6.041434814453125,0.0545501708984375,0.1016693115234375,-0.0474090576171875
1782846975605439700,6.051439697265625,0.10772705078125,0.08526611328125,-0.0606842041015625
1782846975615444700,6.06144482421875,0.1696319580078125,0.0738372802734375,-0.053192138671875
1782846975625450500,6.071450439453125,0.2251129150390625,0.0648345947265625,-0.0465850830078125
1782846975635455500,6.08145556640625,0.272216796875,0.0481414794921875,-0.0428619384765625
1782846975645460500,6.09146044921875,0.3035736083984375,0.041900634765625,-0.0230712890625
1782846975655465700,6.1014658203125,0.312286376953125,0.03790283203125,0.0097198486328125
1782846975665470700,6.111470703125,0.3202362060546875,0.0225982666015625,0.0444488525390625
1782846975675475700,6.121475830078125,0.3443756103515625,0.0011749267578125,0.0466156005859375
1782846975685480700,6.131480712890625,0.3705596923828125,-0.01336669921875,0.0288848876953125
1782846975695486700,6.14148681640625,0.3809356689453125,-0.0142059326171875,0.0218353271484375
1782846975705491700,6.15149169921875,0.3813629150390625,0.007049560546875,0.0160980224609375
1782846975715496700,6.16149658203125,0.3429412841796875,0.014892578125,0.025054931640625
1782846975725501700,6.171501708984375,0.29498291015625,0.020538330078125,0.042266845703125
1782846975735506700,6.181506591796875,0.2390289306640625,0.044219970703125,0.0620880126953125
1782846975745511700,6.19151171875,0.1603240966796875,0.0670318603515625,0.0803680419921875
1782846975755517700,6.201517578125,0.0789947509765625,0.0830078125,0.108306884765625
1782846975765522700,6.211522705078125,-0.004180908203125,0.0818023681640625,0.122955322265625
1782846975775527700,6.221527587890625,-0.076812744140625,0.0724029541015625,0.123046875
1782846975785532700,6.23153271484375,-0.135467529296875,0.072998046875,0.102691650390625
1782846975795537700,6.24153759765625,-0.1903076171875,0.06207275390625,0.06988525390625
1782846975805542700,6.251542724609375,-0.270782470703125,0.0052947998046875,0.04498291015625
1782846975815547600,6.261547607421875,-0.4105224609375,-0.0720977783203125,0.0737762451171875
1782846975825553700,6.2715537109375,-0.612396240234375,-0.1380157470703125,0.1349945068359375
1782846975835558700,6.28155859375,-0.8891754150390625,-0.2299652099609375,0.1483306884765625
1782846975845563600,6.291563720703125,-1.240936279296875,-0.331878662109375,0.088043212890625
1782846975855568600,6.301568603515625,-1.5893096923828125,-0.4508819580078125,0.045379638671875
1782846975865573600,6.31157373046875,-1.868438720703125,-0.5040130615234375,0.1040496826171875
1782846975875578600,6.32157861328125,-2.0570068359375,-0.5694122314453125,0.17047119140625
1782846975885583600,6.33158349609375,-2.17474365234375,-0.762542724609375,0.12603759765625
1782846975895589600,6.341589599609375,-2.2043914794921875,-1.0167999267578125,-0.0094451904296875
1782846975905594600,6.3515947265625,-2.17926025390625,-1.1392822265625,-0.1235198974609375
1782846975915599600,6.361599609375,-2.207763671875,-1.0717010498046875,-0.122711181640625
1782846975925604600,6.3716044921875,-2.373779296875,-0.8331298828125,0.03045654296875
1782846975935609600,6.381609619140625,-2.5908355712890625,-0.5373077392578125,0.235687255859375
1782846975945614600,6.391614501953125,-2.715484619140625,-0.394012451171875,0.3737030029296875
1782846975955620900,6.401620849609375,-2.6544036865234375,-0.3952789306640625,0.483734130859375
1782846975965625900,6.4116259765625,-2.383026123046875,-0.559112548828125,0.5500946044921875
1782846975975630800,6.421630859375,-1.9320831298828125,-0.7750244140625,0.6090240478515625
1782846975985635800,6.4316357421875,-1.479156494140625,-0.8682403564453125,0.686767578125
1782846975995641000,6.44164111328125,-1.16082763671875,-0.849334716796875,0.6704254150390625
1782846976005646000,6.45164599609375,-1.0366363525390625,-0.793243408203125,0.4718017578125
1782846976015651000,6.461651123046875,-1.0891876220703125,-0.6703643798828125,0.228790283203125
1782846976025656800,6.47165673828125,-1.1715087890625,-0.457061767578125,0.0817718505859375
1782846976035661800,6.481661865234375,-1.202362060546875,-0.2798004150390625,-0.017181396484375
1782846976045666800,6.491666748046875,-1.1728668212890625,-0.13287353515625,-0.0543060302734375
1782846976055671800,6.501671875,-1.1008148193359375,-0.0296173095703125,-0.0911102294921875
1782846976065676800,6.5116767578125,-1.0039825439453125,0.01055908203125,-0.139190673828125
1782846976075682000,6.52168212890625,-0.8761138916015625,0.0158843994140625,-0.1680145263671875
1782846976085687000,6.53168701171875,-0.720123291015625,-0.020965576171875,-0.1629791259765625
1782846976095692800,6.54169287109375,-0.5641937255859375,-0.0692138671875,-0.1149444580078125
1782846976105697800,6.55169775390625,-0.4227752685546875,-0.1061248779296875,-0.0493927001953125
1782846976115702800,6.561702880859375,-0.2982177734375,-0.1316070556640625,-0.0007476806640625
1782846976125707800,6.571707763671875,-0.2125244140625,-0.1423187255859375,0.0369110107421875
1782846976135712800,6.581712646484375,-0.1586151123046875,-0.128204345703125,0.0502471923828125
1782846976145717800,6.5917177734375,-0.1452789306640625,-0.1138153076171875,0.0422821044921875
1782846976155723800,6.601723876953125,-0.1655120849609375,-0.097137451171875,0.0319671630859375
1782846976165729000,6.61172900390625,-0.208526611328125,-0.074493408203125,0.024505615234375
1782846976175734000,6.621734130859375,-0.26080322265625,-0.036773681640625,0.0351104736328125
1782846976185739000,6.631739013671875,-0.321441650390625,-0.0117950439453125,0.0569915771484375
1782846976195744000,6.641743896484375,-0.3826141357421875,0.0065765380859375,0.0795440673828125
1782846976205749000,6.6517490234375,-0.41351318359375,0.018463134765625,0.1086273193359375
1782846976215754000,6.66175390625,-0.4342041015625,0.0116729736328125,0.152801513671875
1782846976225760000,6.671760009765625,-0.4405059814453125,-0.00567626953125,0.2064666748046875
1782846976235765000,6.681764892578125,-0.449432373046875,-0.043853759765625,0.2408294677734375
1782846976245770000,6.69177001953125,-0.4605865478515625,-0.0561981201171875,0.264892578125
1782846976255775000,6.70177490234375,-0.4664306640625,-0.04083251953125,0.253570556640625
1782846976265780000,6.711780029296875,-0.49853515625,-0.073486328125,0.1820831298828125
1782846976275785000,6.721784912109375,-0.5661773681640625,-0.1035003662109375,0.109039306640625
1782846976285791000,6.731791015625,-0.6503448486328125,-0.1170654296875,0.0384674072265625
1782846976295796000,6.7417958984375,-0.8082122802734375,-0.1148529052734375,-0.033416748046875
1782846976305801000,6.751801025390625,-1.03570556640625,-0.1181488037109375,-0.097137451171875
1782846976315806000,6.761805908203125,-1.3324737548828125,-0.1272735595703125,-0.1257781982421875
1782846976325811000,6.77181103515625,-1.61431884765625,-0.09869384765625,-0.0671234130859375
1782846976335816000,6.78181591796875,-1.8493499755859375,-0.081878662109375,0.0717926025390625
1782846976345821000,6.791821044921875,-2.05108642578125,-0.11248779296875,0.2211151123046875
1782846976355827000,6.801826904296875,-2.23175048828125,-0.1786041259765625,0.3409576416015625
1782846976365832000,6.81183203125,-2.3687286376953125,-0.2673492431640625,0.4373626708984375
1782846976375837000,6.8218369140625,-2.432525634765625,-0.342620849609375,0.49267578125
1782846976385842000,6.831842041015625,-2.4485626220703125,-0.434295654296875,0.4870758056640625
1782846976395847000,6.841846923828125,-2.4387664794921875,-0.559417724609375,0.42864990234375
1782846976405852000,6.851851806640625,-2.3739013671875,-0.686798095703125,0.374359130859375
1782846976415858000,6.86185791015625,-2.221343994140625,-0.7993316650390625,0.34625244140625
1782846976425863000,6.87186279296875,-2.0427703857421875,-0.8921356201171875,0.325653076171875
1782846976435868000,6.881867919921875,-1.9113922119140625,-0.9412384033203125,0.3349609375
1782846976445873000,6.891872802734375,-1.8260955810546875,-0.9389495849609375,0.3310699462890625
1782846976455878100,6.901878173828125,-1.8082733154296875,-0.8927154541015625,0.3093109130859375
1782846976465883100,6.911883056640625,-1.8258819580078125,-0.789398193359375,0.285400390625
1782846976475888000,6.92188818359375,-1.8520660400390625,-0.6587371826171875,0.2516937255859375
1782846976485894000,6.931893798828125,-1.858245849609375,-0.5214691162109375,0.2237091064453125
1782846976495899000,6.94189892578125,-1.8050537109375,-0.3697052001953125,0.2183837890625
1782846976505903900,6.95190380859375,-1.667205810546875,-0.226409912109375,0.232635498046875
1782846976515908900,6.961908935546875,-1.4738616943359375,-0.128936767578125,0.2395172119140625
1782846976525913900,6.971913818359375,-1.2376708984375,-0.077239990234375,0.2259674072265625
1782846976535918800,6.9819189453125,-0.968109130859375,-0.06414794921875,0.2004852294921875
1782846976545924900,6.9919248046875,-0.689605712890625,-0.0737152099609375,0.1591796875
1782846976555929900,7.001929931640625,-0.4258575439453125,-0.0900115966796875,0.121124267578125
1782846976565934800,7.011934814453125,-0.1994781494140625,-0.09197998046875,0.1005706787109375
1782846976575939800,7.02193994140625,-0.008453369140625,-0.0782012939453125,0.082305908203125
1782846976585944800,7.03194482421875,0.1414642333984375,-0.06219482421875,0.0430908203125
1782846976595949800,7.04194970703125,0.245361328125,-0.0395355224609375,-0.0025787353515625
1782846976605954800,7.051954833984375,0.2977294921875,-0.0041046142578125,-0.0453948974609375
1782846976615960800,7.0619609375,0.315765380859375,0.021728515625,-0.091705322265625
1782846976625965800,7.0719658203125,0.3101654052734375,0.0437774658203125,-0.129791259765625
1782846976635970800,7.081970703125,0.2715606689453125,0.0728759765625,-0.15655517578125
1782846976645975800,7.091975830078125,0.2349090576171875,0.100738525390625,-0.1793060302734375
1782846976655980800,7.101980712890625,0.198883056640625,0.1085357666015625,-0.19537353515625
1782846976665985800,7.11198583984375,0.167022705078125,0.1016845703125,-0.2108612060546875
1782846976675992000,7.121991943359375,0.1501922607421875,0.0935821533203125,-0.2151947021484375
1782846976685997000,7.1319970703125,0.1316986083984375,0.0916900634765625,-0.1924896240234375
1782846976696002000,7.142001953125,0.1103363037109375,0.085113525390625,-0.1453704833984375
1782846976706007000,7.152007080078125,0.0809783935546875,0.07550048828125,-0.0847930908203125
1782846976716012000,7.162011962890625,0.044281005859375,0.071258544921875,-0.0367431640625
1782846976726017000,7.17201708984375,0.016326904296875,0.0716094970703125,-0.003021240234375
1782846976736022000,7.18202197265625,-0.0214080810546875,0.07421875,0.0131988525390625
1782846976746028000,7.192028076171875,-0.051025390625,0.079833984375,0.0234222412109375
1782846976756033000,7.202032958984375,-0.058441162109375,0.08697509765625,0.0308685302734375
1782846976766038000,7.2120380859375,-0.062530517578125,0.0833892822265625,0.0435943603515625
1782846976776043000,7.22204296875,-0.066131591796875,0.0744781494140625,0.068023681640625
1782846976786048000,7.232048095703125,-0.07952880859375,0.0600433349609375,0.08349609375
1782846976796053000,7.242052978515625,-0.0946197509765625,0.0123748779296875,0.0772552490234375
1782846976806059000,7.25205908203125,-0.1075286865234375,-0.076019287109375,0.06243896484375
1782846976816064000,7.26206396484375,-0.1128997802734375,-0.1799163818359375,0.0419921875
1782846976826069000,7.272069091796875,-0.159149169921875,-0.2891082763671875,0.02117919921875
1782846976836074000,7.282073974609375,-0.2929229736328125,-0.393829345703125,-0.023834228515625
1782846976846079000,7.292078857421875,-0.5359039306640625,-0.4636077880859375,-0.0913238525390625
1782846976856084000,7.302083984375,-0.8026275634765625,-0.4880523681640625,-0.0741729736328125
1782846976866089000,7.3120888671875,-1.0615234375,-0.4976959228515625,0.0682525634765625
1782846976876094700,7.3220947265625,-1.2953643798828125,-0.5144805908203125,0.2838592529296875
1782846976886099700,7.332099609375,-1.4803619384765625,-0.5898590087890625,0.4306640625
1782846976896104700,7.342104736328125,-1.6542816162109375,-0.7740325927734375,0.4442291259765625
1782846976906109700,7.352109619140625,-1.7889404296875,-0.9228973388671875,0.4215240478515625
1782846976916115000,7.362114990234375,-2.01483154296875,-0.8281097412109375,0.473297119140625
1782846976926120000,7.372119873046875,-2.555419921875,-0.5545196533203125,0.5490875244140625
1782846976936126000,7.3821259765625,-3.1602935791015625,-0.1629791259765625,0.7160797119140625
1782846976946131000,7.392130859375,-3.4944915771484375,0.193023681640625,0.92449951171875
1782846976956136000,7.402135986328125,-3.5121002197265625,0.35107421875,1.0410614013671875
1782846976966141000,7.412140869140625,-3.2461700439453125,0.2638702392578125,1.0029449462890625
1782846976976146000,7.42214599609375,-2.751800537109375,-0.066131591796875,0.867919921875
1782846976986151000,7.43215087890625,-2.1409912109375,-0.62652587890625,0.7821197509765625
1782846976996156200,7.44215625,-1.58941650390625,-1.011627197265625,0.8522186279296875
1782846977006161200,7.4521611328125,-1.3321990966796875,-0.772308349609375,1.041259765625
1782846977016166100,7.462166259765625,-1.4181365966796875,-0.5063018798828125,0.796875
1782846977026171100,7.472171142578125,-1.491302490234375,-0.3381195068359375,0.3968048095703125
1782846977036176100,7.482176025390625,-1.47705078125,-0.2403106689453125,0.0546722412109375
1782846977046181000,7.49218115234375,-1.24334716796875,-0.0605926513671875,-0.1092987060546875
1782846977056186000,7.50218603515625,-1.0364227294921875,0.08929443359375,-0.13287353515625
1782846977066192400,7.5121923828125,-0.8210296630859375,0.1455078125,-0.1815032958984375
1782846977076197400,7.522197265625,-0.6502532958984375,0.136993408203125,-0.2176666259765625
1782846977086202400,7.532202392578125,-0.5450897216796875,0.0883941650390625,-0.23126220703125
1782846977096207400,7.542207275390625,-0.45037841796875,0.0369873046875,-0.1914215087890625
1782846977106212400,7.55221240234375,-0.391021728515625,-0.0082855224609375,-0.0857391357421875
1782846977116217300,7.56221728515625,-0.360931396484375,-0.0585784912109375,0.0027313232421875
1782846977126223400,7.572223388671875,-0.256927490234375,-0.1344451904296875,0.0150299072265625
1782846977136228400,7.582228271484375,-0.19024658203125,-0.1513824462890625,0.0714569091796875
1782846977146233300,7.5922333984375,-0.2098236083984375,-0.1200714111328125,0.107574462890625
1782846977156238300,7.60223828125,-0.2756805419921875,-0.0892333984375,0.078521728515625
1782846977166243300,7.612243408203125,-0.3017578125,-0.091949462890625,0.0237274169921875
1782846977176248300,7.622248291015625,-0.3174285888671875,-0.102508544921875,0.004608154296875
1782846977186253300,7.63225341796875,-0.34088134765625,-0.0582275390625,0.0132293701171875
1782846977196259300,7.64225927734375,-0.3548736572265625,-0.0581817626953125,0.0526885986328125
1782846977206264300,7.652264404296875,-0.34454345703125,-0.0463409423828125,0.1067047119140625
1782846977216269300,7.662269287109375,-0.3138885498046875,-0.0201873779296875,0.13336181640625
1782846977226274300,7.6722744140625,-0.282989501953125,-0.018768310546875,0.121673583984375
1782846977236279300,7.682279296875,-0.277008056640625,-0.0332183837890625,0.109710693359375
1782846977246284300,7.6922841796875,-0.3109283447265625,-0.0543212890625,0.117523193359375
1782846977256290300,7.702290283203125,-0.372894287109375,-0.0782623291015625,0.1491546630859375
1782846977266295300,7.71229541015625,-0.448760986328125,-0.0850067138671875,0.1785736083984375
1782846977276300300,7.72230029296875,-0.5396728515625,-0.0538177490234375,0.1745452880859375
1782846977286305300,7.73230517578125,-0.617584228515625,0.010833740234375,0.1324462890625
1782846977296310300,7.742310302734375,-0.6875457763671875,0.077606201171875,0.0933685302734375
1782846977306315500,7.7523154296875,-0.7430267333984375,0.103973388671875,0.044097900390625
1782846977316320500,7.762320556640625,-0.7927093505859375,0.0538787841796875,0.0130157470703125
1782846977326326300,7.772326171875,-0.8468780517578125,-0.06085205078125,0.0436553955078125
1782846977336331300,7.782331298828125,-0.8917083740234375,-0.19573974609375,0.1173553466796875
1782846977346336300,7.792336181640625,-0.9576416015625,-0.3197479248046875,0.179290771484375
1782846977356341200,7.80234130859375,-1.10430908203125,-0.4012603759765625,0.167938232421875
1782846977366346200,7.81234619140625,-1.37969970703125,-0.4053802490234375,0.1262054443359375
1782846977376351200,7.822351318359375,-1.723907470703125,-0.3881378173828125,0.1255340576171875
1782846977386357200,7.832357177734375,-2.0629425048828125,-0.412139892578125,0.175872802734375
1782846977396362200,7.8423623046875,-2.3492431640625,-0.5040435791015625,0.2119293212890625
1782846977406367200,7.8523671875,-2.4760894775390625,-0.6118621826171875,0.2417144775390625
1782846977416372200,7.862372314453125,-2.5010223388671875,-0.66815185546875,0.2821502685546875
1782846977426377200,7.872377197265625,-2.4857940673828125,-0.7188873291015625,0.3333282470703125
1782846977436382200,7.88238232421875,-2.47454833984375,-0.7864837646484375,0.3493499755859375
1782846977446388200,7.89238818359375,-2.52191162109375,-0.83282470703125,0.3189239501953125
1782846977456393200,7.902393310546875,-2.456024169921875,-0.8457489013671875,0.3690032958984375
1782846977466398200,7.912398193359375,-2.371124267578125,-0.92401123046875,0.3629150390625
1782846977476403200,7.9224033203125,-2.4407501220703125,-0.84515380859375,0.3997650146484375
1782846977486408200,7.932408203125,-2.4000701904296875,-0.689300537109375,0.3678741455078125
1782846977496413200,7.9424130859375,-2.3165283203125,-0.5612030029296875,0.3497314453125
1782846977506418200,7.952418212890625,-2.1687774658203125,-0.43707275390625,0.3392333984375
1782846977516424400,7.962424560546875,-1.95697021484375,-0.36181640625,0.295867919921875
1782846977526429400,7.972429443359375,-1.6731414794921875,-0.3137359619140625,0.282135009765625
1782846977536434400,7.982434326171875,-1.3680267333984375,-0.2639007568359375,0.2991485595703125
1782846977546439400,7.992439453125,-1.074249267578125,-0.2034149169921875,0.3253173828125
1782846977556444400,8.0024443359375,-0.8000946044921875,-0.138763427734375,0.340362548828125
1782846977566449400,8.012449462890626,-0.5692291259765625,-0.0836181640625,0.33074951171875
1782846977576455400,8.022455322265625,-0.3911285400390625,-0.047515869140625,0.2998199462890625
1782846977586460400,8.03246044921875,-0.267333984375,-0.0084381103515625,0.26409912109375
1782846977596465400,8.04246533203125,-0.201141357421875,0.05340576171875,0.1783599853515625
1782846977606470400,8.052470458984375,-0.199188232421875,0.0816802978515625,0.024749755859375
1782846977616475400,8.062475341796874,-0.1736297607421875,0.136077880859375,-0.07977294921875
1782846977626480400,8.07248046875,-0.1184539794921875,0.1666259765625,-0.136932373046875
1782846977636485400,8.0824853515625,-0.042694091796875,0.1469268798828125,-0.095245361328125
1782846977646491400,8.092491455078125,0.0172576904296875,0.14385986328125,-0.0202789306640625
1782846977656496400,8.102496337890624,0.0895843505859375,0.1024169921875,0.007659912109375
1782846977666501400,8.11250146484375,0.1544952392578125,0.05816650390625,0.0124053955078125
1782846977676506400,8.12250634765625,0.202117919921875,0.01458740234375,0.009185791015625
1782846977686511400,8.132511474609375,0.221099853515625,-0.0177001953125,0.00201416015625
1782846977696516400,8.142516357421876,0.2151031494140625,-0.02734375,-0.006256103515625
1782846977706522000,8.152522216796875,0.184661865234375,-0.0184783935546875,-0.0065765380859375
1782846977716527000,8.162527099609376,0.1244049072265625,0.0084381103515625,-0.0050811767578125
1782846977726532000,8.172531982421875,0.073699951171875,0.0324249267578125,-0.0070037841796875
1782846977736537300,8.182537353515626,0.0605621337890625,0.0375213623046875,0.01202392578125
1782846977746542300,8.192542236328125,0.068756103515625,0.0182037353515625,0.027008056640625
1782846977756547300,8.20254736328125,0.071136474609375,0.00469970703125,0.0382843017578125
1782846977766552300,8.21255224609375,0.0650787353515625,0.005828857421875,0.0537109375
1782846977776558300,8.222558349609375,0.0420989990234375,0.00494384765625,0.0568389892578125
1782846977786563300,8.232563232421874,0.0071258544921875,0.0013427734375,0.0473480224609375
1782846977796568300,8.242568359375,-0.0212249755859375,-0.0007171630859375,0.035064697265625
1782846977806573300,8.2525732421875,-0.05169677734375,-0.007110595703125,0.0245819091796875
1782846977816578300,8.262578369140625,-0.0973052978515625,-0.0139007568359375,0.0163726806640625
1782846977826583300,8.272583251953124,-0.1623077392578125,-0.022186279296875,0.014495849609375
1782846977836589300,8.28258935546875,-0.263214111328125,-0.062103271484375,0.01092529296875
1782846977846594300,8.29259423828125,-0.4088592529296875,-0.1342315673828125,0.0073089599609375
1782846977856599300,8.302599365234375,-0.58001708984375,-0.1945037841796875,0.04345703125
1782846977866604300,8.312604248046876,-0.758636474609375,-0.3006744384765625,0.0711669921875
1782846977876609300,8.322609375,-0.959564208984375,-0.4168548583984375,0.083099365234375
1782846977886614300,8.3326142578125,-1.177490234375,-0.455291748046875,0.161895751953125
1782846977896619300,8.342619384765625,-1.3428802490234375,-0.448211669921875,0.2467498779296875
1782846977906625300,8.352625244140626,-1.4954376220703125,-0.42333984375,0.338714599609375
1782846977916630300,8.36263037109375,-1.6664581298828125,-0.4324951171875,0.4174652099609375
1782846977926635300,8.37263525390625,-1.8064727783203125,-0.5552520751953125,0.4404449462890625
1782846977936640300,8.38264013671875,-1.909149169921875,-0.6884918212890625,0.411285400390625
1782846977946645200,8.392645263671875,-2.0129241943359375,-0.68890380859375,0.38018798828125
1782846977956650200,8.402650146484374,-2.1806793212890625,-0.5643463134765625,0.4080047607421875
1782846977966656300,8.41265625,-2.3490447998046875,-0.33984375,0.5046234130859375
1782846977976661200,8.4226611328125,-2.44366455078125,-0.1818389892578125,0.554351806640625
1782846977986666200,8.432666259765625,-2.4264068603515625,-0.1686553955078125,0.53558349609375
1782846977996672300,8.44267236328125,-2.2919921875,-0.287261962890625,0.462310791015625
1782846978006677200,8.45267724609375,-2.0502166748046875,-0.492034912109375,0.3752899169921875
1782846978016682200,8.46268212890625,-1.767791748046875,-0.643157958984375,0.3051605224609375
1782846978026687200,8.472687255859375,-1.532470703125,-0.7054595947265625,0.254669189453125
1782846978036693000,8.48269287109375,-1.39935302734375,-0.6743927001953125,0.170928955078125
1782846978046698000,8.492697998046875,-1.339630126953125,-0.6210479736328125,0.0637054443359375
1782846978056703000,8.502702880859376,-1.3273162841796875,-0.524566650390625,0.0329132080078125
1782846978066708000,8.5127080078125,-1.3180694580078125,-0.4195404052734375,-0.00537109375
1782846978076713000,8.522712890625,-1.28314208984375,-0.3556671142578125,0.027984619140625
1782846978086718200,8.53271826171875,-1.187530517578125,-0.2725372314453125,0.15777587890625
1782846978096723200,8.54272314453125,-1.075775146484375,-0.2016143798828125,0.2594146728515625
1782846978106729200,8.552729248046875,-0.9674835205078125,-0.131134033203125,0.29522705078125
1782846978116734200,8.562734130859376,-0.8592987060546875,-0.0824127197265625,0.2751312255859375
1782846978126739200,8.5727392578125,-0.75616455078125,-0.0560150146484375,0.2430267333984375
1782846978136744200,8.582744140625,-0.6720123291015625,-0.0445709228515625,0.2215728759765625
1782846978146749200,8.592749267578125,-0.5871429443359375,-0.0491790771484375,0.1973419189453125
1782846978156754200,8.602754150390625,-0.5194091796875,-0.0545806884765625,0.1568450927734375
1782846978166760200,8.61276025390625,-0.4727325439453125,-0.05438232421875,0.0992584228515625
1782846978176765200,8.62276513671875,-0.42962646484375,-0.0516510009765625,0.0295257568359375
1782846978186770200,8.632770263671874,-0.3927459716796875,-0.046661376953125,-0.005096435546875
1782846978196775200,8.642775146484375,-0.3818359375,-0.0512542724609375,-0.0092315673828125
1782846978206780200,8.6527802734375,-0.3791961669921875,-0.055084228515625,0.009796142578125
1782846978216785200,8.66278515625,-0.3813934326171875,-0.0599822998046875,0.039276123046875
1782846978226790100,8.6727900390625,-0.3873138427734375,-0.0474090576171875,0.03857421875
1782846978236796200,8.682796142578125,-0.433074951171875,-0.012542724609375,0.0360260009765625
1782846978246801200,8.69280126953125,-0.3363189697265625,0.0343475341796875,0.072723388671875
1782846978256806100,8.70280615234375,-0.2440338134765625,0.0159759521484375,0.105072021484375
1782846978266811100,8.71281103515625,-0.208831787109375,-0.01605224609375,0.1695556640625
1782846978276816100,8.722816162109375,-0.2754669189453125,-0.0439300537109375,0.1952056884765625
1782846978286821000,8.732821044921875,-0.3954010009765625,-0.030487060546875,0.14056396484375
