time,seconds_elapsed,z,y,x
1782846969631113500,0.077113525390625,-0.2954976558685303,-0.11988720297813416,-0.42705875635147095
1782846969641118500,0.087118408203125,-0.2518908977508545,0.013054082170128822,-0.4821363687515259
1782846969651123500,0.09712353515625,-0.20046018064022064,0.1548740714788437,-0.4850642681121826
1782846969661128400,0.10712841796875,-0.14025913178920746,0.26070255041122437,-0.4677739143371582
1782846969671133400,0.117133544921875,-0.0891626626253128,0.31445714831352234,-0.4526122808456421
1782846969681138400,0.127138427734375,-0.05409317463636398,0.31288957595825195,-0.443769633769989
1782846969691143400,0.137143310546875,-0.027797119691967964,0.24376428127288818,-0.44397735595703125
1782846969701149400,0.1471494140625,-0.02254113368690014,0.1294402927160263,-0.4630570709705353
1782846969711154400,0.157154541015625,-0.030233141034841537,0.014860988594591618,-0.4711882472038269
1782846969721159400,0.167159423828125,-0.04743460193276405,-0.11086035519838333,-0.45249584317207336
1782846969731164400,0.177164306640625,-0.07377299666404724,-0.19314298033714294,-0.4271489381790161
1782846969741169400,0.18716943359375,-0.1123519316315651,-0.18667380511760712,-0.3946303725242615
1782846969751174400,0.19717431640625,-0.12069721519947052,-0.0814744159579277,-0.3450170159339905
1782846969761180400,0.207180419921875,-0.09789781272411346,0.12478107213973999,-0.29078561067581177
1782846969771185400,0.217185302734375,-0.013304362073540688,0.2504551112651825,-0.2533876597881317
1782846969781190400,0.2271904296875,0.13226501643657684,0.16146884858608246,-0.27252423763275146
1782846969791195400,0.2371953125,0.2749539911746979,-0.09017323702573776,-0.36472395062446594
1782846969801200400,0.247200439453125,0.39048877358436584,-0.43417978286743164,-0.4852355420589447
1782846969811205400,0.257205322265625,0.4744763672351837,-0.6179762482643127,-0.6209489703178406
1782846969821210400,0.26721044921875,0.5599862933158875,-0.4711613953113556,-0.8416759967803955
1782846969831216400,0.27721630859375,0.5753183960914612,-0.07441909611225128,-1.3552613258361816
1782846969841221400,0.287221435546875,0.4572586119174957,0.12814538180828094,-1.9648381471633911
1782846969851226400,0.297226318359375,0.2979152798652649,-0.20094862580299377,-2.1791741847991943
1782846969861231400,0.3072314453125,0.21321044862270355,-0.7471421957015991,-1.9441112279891968
1782846969871236400,0.317236328125,0.13551804423332214,-1.129764437675476,-1.480838418006897
1782846969881241300,0.327241455078125,0.030036810785531998,-1.2304072380065918,-0.9285328984260559
1782846969891246300,0.337246337890625,-0.13327781856060028,-1.1221609115600586,-0.3478172719478607
1782846969901252600,0.347252685546875,-0.3533678650856018,-0.9046049118041992,0.24245283007621765
1782846969911257600,0.357257568359375,-0.5620960593223572,-0.6741357445716858,0.6319862008094788
1782846969921262600,0.3672626953125,-0.654800534248352,-0.5026377439498901,0.6746776700019836
1782846969931267600,0.377267578125,-0.5289387702941895,-0.3746587634086609,0.4771867096424103
1782846969941272600,0.3872724609375,-0.22777633368968964,-0.26993364095687866,0.1367807686328888
1782846969951277600,0.397277587890625,0.15137417614459991,-0.21475960314273834,-0.11777695268392563
1782846969961283300,0.407283447265625,0.3726717233657837,-0.19800296425819397,-0.16572833061218262
1782846969971288300,0.417288330078125,0.41478827595710754,-0.1698027402162552,-0.10731508582830429
1782846969981293300,0.427293212890625,0.3759700357913971,-0.20857955515384674,-0.028849178925156593
1782846969991298600,0.437298583984375,0.29995274543762207,-0.2324734330177307,0.0401780903339386
1782846970001303600,0.447303466796875,0.201827734708786,-0.2182670533657074,0.10367950052022934
1782846970011308500,0.45730859375,0.09927792102098465,-0.18640099465847015,0.15291203558444977
1782846970021313500,0.4673134765625,-0.007869328372180462,-0.14137180149555206,0.18211327493190765
1782846970031319300,0.4773193359375,-0.11380322277545929,-0.08032789081335068,0.18128050863742828
1782846970041324300,0.48732421875,-0.2228848785161972,-0.00024206377565860748,0.185601606965065
1782846970051329300,0.497329345703125,-0.31666862964630127,0.0962972566485405,0.19509604573249817
1782846970061334300,0.507334228515625,-0.35883045196533203,0.13034552335739136,0.21030156314373016
1782846970071339300,0.51733935546875,-0.37251803278923035,0.08854560554027557,0.19736045598983765
1782846970081344300,0.52734423828125,-0.36949124932289124,-0.013007808476686478,0.15387152135372162
1782846970091350300,0.537350341796875,-0.364201158285141,-0.08113386482000351,0.07684331387281418
1782846970101355300,0.547355224609375,-0.36734530329704285,-0.06683334708213806,-0.014696327969431877
1782846970111360300,0.5573603515625,-0.399160236120224,0.007345004938542843,-0.11831140518188477
1782846970121365500,0.567365478515625,-0.44560661911964417,0.13869719207286835,-0.25908324122428894
1782846970131370500,0.57737060546875,-0.4637656509876251,0.2859843671321869,-0.3469851315021515
1782846970141375500,0.58737548828125,-0.4263691306114197,0.33488139510154724,-0.35161110758781433
1782846970151380500,0.59738037109375,-0.34493550658226013,0.3022427558898926,-0.3098072111606598
1782846970161386500,0.607386474609375,-0.2406892031431198,0.1966567039489746,-0.23879791796207428
1782846970171391500,0.6173916015625,-0.14510037004947662,0.06729765236377716,-0.16552849113941193
1782846970181396500,0.627396484375,-0.10658290982246399,0.03254834562540054,-0.09919516742229462
1782846970191401500,0.6374013671875,-0.1558370143175125,0.05065251141786575,-0.05333978682756424
1782846970201406500,0.647406494140625,-0.23943403363227844,0.09939073026180267,-0.025152010843157768
1782846970211411500,0.657411376953125,-0.30649295449256897,0.26050636172294617,0.013814296573400497
1782846970221417500,0.66741748046875,-0.3577709197998047,0.40081050992012024,0.09755837917327881
1782846970231422500,0.67742236328125,-0.38418707251548767,0.47402265667915344,0.2209644615650177
1782846970241427500,0.687427490234375,-0.38178035616874695,0.48006612062454224,0.3639200031757355
1782846970251432400,0.697432373046875,-0.31538453698158264,0.4814584255218506,0.48382189869880676
1782846970261437400,0.7074375,-0.1386306881904602,0.5710444450378418,0.5897403955459595
1782846970271442400,0.7174423828125,0.10224131494760513,0.603897750377655,0.6728403568267822
1782846970281447400,0.727447509765625,0.3065771162509918,0.5765278339385986,0.7508658766746521
1782846970291453400,0.737453369140625,0.4471462070941925,0.5290263295173645,0.8730823397636414
1782846970301458400,0.74745849609375,0.5252865552902222,0.4608190059661865,0.9707291722297668
1782846970311463400,0.75746337890625,0.5277087092399597,0.35696321725845337,0.9672468304634094
1782846970321468400,0.767468505859375,0.47796350717544556,0.2516409754753113,0.8825305104255676
1782846970331473400,0.777473388671875,0.4047524034976959,0.1711442768573761,0.7700612545013428
1782846970341478400,0.787478515625,0.3239479064941406,0.10058865696191788,0.6529459953308105
1782846970351484400,0.797484375,0.2552359402179718,0.021447233855724335,0.5612211227416992
1782846970361489400,0.807489501953125,0.16304533183574677,-0.04042026773095131,0.4985778331756592
1782846970371494700,0.81749462890625,0.04756294563412666,-0.07066498696804047,0.42324525117874146
1782846970381499600,0.827499755859375,-0.05804337561130524,-0.12924787402153015,0.3392081558704376
1782846970391504600,0.837504638671875,-0.13423775136470795,-0.23548750579357147,0.2324175238609314
1782846970401509600,0.847509521484375,-0.1824975162744522,-0.32819390296936035,0.11476355046033859
1782846970411514600,0.8575146484375,-0.18857590854167938,-0.41432425379753113,0.028109079226851463
1782846970421520400,0.867520263671875,-0.14172910153865814,-0.5402772426605225,0.0028036413714289665
1782846970431525400,0.877525390625,-0.06821601092815399,-0.7346733808517456,0.016054730862379074
1782846970441530400,0.8875302734375,0.0008584561292082071,-0.8662174344062805,0.04006827250123024
1782846970451535400,0.897535400390625,0.011322015896439552,-0.8483654856681824,0.09115596115589142
1782846970461540400,0.907540283203125,-0.030038032680749893,-0.7404246926307678,0.19249862432479858
1782846970471545300,0.91754541015625,-0.08740811794996262,-0.6278699040412903,0.3600330054759979
1782846970481550300,0.92755029296875,-0.13678959012031555,-0.5658388137817383,0.559283435344696
1782846970491556400,0.937556396484375,-0.17304320633411407,-0.5160398483276367,0.7383370995521545
1782846970501561300,0.947561279296875,-0.20765753090381622,-0.4475698173046112,0.8813086152076721
1782846970511566300,0.95756640625,-0.23175381124019623,-0.3663244843482971,1.0085196495056152
1782846970521571300,0.9675712890625,-0.25687187910079956,-0.306214839220047,1.1339004039764404
1782846970531576300,0.977576416015625,-0.2588135898113251,-0.2634143829345703,1.2571216821670532
1782846970541581300,0.987581298828125,-0.2467331886291504,-0.2078406810760498,1.3365453481674194
1782846970551587300,0.99758740234375,-0.2280082255601883,-0.08884983509778976,1.3786225318908691
1782846970561592300,1.00759228515625,-0.17901262640953064,0.07778511941432953,1.3977469205856323
1782846970571597300,1.017597412109375,-0.1497415453195572,0.24058735370635986,1.3520662784576416
1782846970581602300,1.027602294921875,-0.18762703239917755,0.33914896845817566,1.2391208410263062
1782846970591607300,1.037607177734375,-0.2591680586338043,0.3391849398612976,1.0717424154281616
1782846970601612300,1.0476123046875,-0.3460982143878937,0.23269453644752502,0.8520024418830872
1782846970611617300,1.0576171875,-0.40533944964408875,0.0819321870803833,0.5743988156318665
1782846970621623600,1.06762353515625,-0.4054325819015503,-0.08143231272697449,0.24476921558380127
1782846970631628500,1.077628662109375,-0.34360677003860474,-0.2119876593351364,-0.09511245042085648
1782846970641633500,1.087633544921875,-0.2440337836742401,-0.26313069462776184,-0.38087373971939087
1782846970651638500,1.097638427734375,-0.14240436255931854,-0.2807682752609253,-0.5347713828086853
1782846970661643500,1.1076435546875,-0.07600321620702744,-0.2556304335594177,-0.5555550456047058
1782846970671648500,1.1176484375,-0.07112617045640945,-0.1506912261247635,-0.5338723659515381
1782846970681653500,1.127653564453125,-0.12770861387252808,-0.05905316397547722,-0.512998640537262
1782846970691659500,1.137659423828125,-0.20461271703243256,-0.02530398778617382,-0.5172884464263916
1782846970701664500,1.14766455078125,-0.23290395736694336,-0.004674629308283329,-0.5281261205673218
1782846970711669500,1.15766943359375,-0.19460929930210114,-0.002544100396335125,-0.5099319219589233
1782846970721674500,1.167674560546875,-0.10010383278131485,0.04500610753893852,-0.46793943643569946
1782846970731679500,1.177679443359375,0.015465637668967247,0.2245047688484192,-0.36971569061279297
1782846970741684500,1.1876845703125,0.13158686459064484,0.44859254360198975,-0.20076125860214233
1782846970751690500,1.1976904296875,0.2047814577817917,0.6936845779418945,-0.018929675221443176
1782846970761695500,1.207695556640625,0.2343173772096634,1.1767382621765137,0.12769633531570435
1782846970771700500,1.217700439453125,0.25243937969207764,1.847233772277832,0.25435522198677063
1782846970781705500,1.22770556640625,0.3290066123008728,2.287893772125244,0.5010697841644287
1782846970791710500,1.23771044921875,0.5553655028343201,2.2197787761688232,0.8735083341598511
1782846970801715500,1.247715576171875,0.8436282873153687,1.7924970388412476,1.1168361902236938
1782846970811720400,1.257720458984375,1.0343865156173706,1.416495442390442,1.0376551151275635
1782846970821726200,1.267726318359375,1.0750811100006104,1.2527068853378296,0.44492602348327637
1782846970831731200,1.277731201171875,0.9996840357780457,0.9825791716575623,-0.5406374931335449
1782846970841736200,1.287736083984375,0.8597158789634705,0.3410488963127136,-1.3544960021972656
1782846970851741400,1.297741455078125,0.7043971419334412,-0.4279753267765045,-1.5721375942230225
1782846970861746400,1.307746337890625,0.5467305779457092,-0.9035165905952454,-1.284064531326294
1782846970871751400,1.31775146484375,0.4176921546459198,-0.8526603579521179,-0.7317277789115906
1782846970881757400,1.32775732421875,0.43888986110687256,-0.3382646441459656,-0.1145268902182579
1782846970891762400,1.337762451171875,0.629460871219635,0.38136300444602966,0.39213842153549194
1782846970901767400,1.347767333984375,0.85606849193573,1.0749974250793457,0.7191402316093445
1782846970911772400,1.3577724609375,0.9369599223136902,1.5412569046020508,0.853888988494873
1782846970921777400,1.36777734375,0.8132109642028809,1.6713203191757202,0.7923192381858826
1782846970931782400,1.377782470703125,0.5090692043304443,1.4567697048187256,0.5501531958580017
1782846970941787400,1.387787353515625,0.0973825603723526,0.9642929434776306,0.1907777488231659
1782846970951793400,1.39779345703125,-0.3314184546470642,0.32793325185775757,-0.17420828342437744
1782846970961798400,1.40779833984375,-0.689395546913147,-0.28338637948036194,-0.466467946767807
1782846970971803400,1.417803466796875,-0.9439554214477539,-0.741371750831604,-0.610930860042572
1782846970981808400,1.427808349609375,-1.0876274108886719,-1.0108181238174438,-0.639076292514801
1782846970991813600,1.437813720703125,-1.1361682415008545,-1.0895004272460938,-0.5920627117156982
1782846971001818600,1.447818603515625,-1.1224151849746704,-1.0318583250045776,-0.5222646594047546
1782846971011824600,1.45782470703125,-1.0620605945587158,-0.9350321888923645,-0.4653864800930023
1782846971021829600,1.46782958984375,-0.9732909202575684,-0.8102771639823914,-0.44839978218078613
1782846971031834600,1.477834716796875,-0.8650230169296265,-0.6558049917221069,-0.4818567931652069
1782846971041839900,1.48783984375,-0.7802801132202148,-0.5890384912490845,-0.5578715801239014
1782846971051844900,1.497844970703125,-0.7447149157524109,-0.5661510229110718,-0.6573811173439026
1782846971061849900,1.507849853515625,-0.7584720849990845,-0.5584333539009094,-0.742588996887207
1782846971071854800,1.517854736328125,-0.8035058975219727,-0.570486843585968,-0.8018291592597961
1782846971081860900,1.52786083984375,-0.8398854732513428,-0.5405339598655701,-0.8193886280059814
1782846971091865900,1.537865966796875,-0.8421925902366638,-0.46471133828163147,-0.8219186663627625
1782846971101870800,1.547870849609375,-0.8088359236717224,-0.20527851581573486,-0.8543599843978882
1782846971111875800,1.557875732421875,-0.8060646653175354,-0.03303271532058716,-0.8277009725570679
1782846971121880800,1.567880859375,-0.7630724906921387,-0.1996307224035263,-0.7115235924720764
1782846971131885800,1.5778857421875,-0.6081526875495911,-0.32855966687202454,-0.6987076997756958
1782846971141890800,1.587890869140625,-0.43864673376083374,-0.3898361921310425,-0.6770119667053223
1782846971151896800,1.597896728515625,-0.2743888199329376,-0.4647013545036316,-0.6365364789962769
1782846971161901800,1.60790185546875,-0.15184585750102997,-0.5636990666389465,-0.6057084798812866
1782846971171906800,1.61790673828125,-0.09951234608888626,-0.6022459268569946,-0.5718647837638855
1782846971181911800,1.627911865234375,-0.10398481786251068,-0.5273230671882629,-0.5319963693618774
1782846971191916800,1.637916748046875,-0.13600586354732513,-0.38697633147239685,-0.49451661109924316
1782846971201921800,1.647921875,-0.15629224479198456,-0.23597170412540436,-0.4375964403152466
1782846971211927600,1.657927490234375,-0.1851681023836136,-0.10545124113559723,-0.35570502281188965
1782846971221932500,1.6679326171875,-0.24824900925159454,-0.0036053212825208902,-0.26673537492752075
1782846971231937500,1.6779375,-0.34409430623054504,0.05822103098034859,-0.18104472756385803
1782846971241942500,1.687942626953125,-0.46923375129699707,0.10841779410839081,-0.09387649595737457
1782846971251947500,1.697947509765625,-0.5961336493492126,0.10526274144649506,-0.012454603798687458
1782846971261952500,1.707952392578125,-0.6863104701042175,0.19354087114334106,0.06287819147109985
1782846971271957800,1.717957763671875,-0.7055032849311829,0.39327022433280945,0.1437956690788269
1782846971281963800,1.7279638671875,-0.6504794359207153,0.4342925548553467,0.11390546709299088
1782846971291968800,1.73796875,-0.5320616960525513,0.5099542737007141,-0.044949695467948914
1782846971301973800,1.747973876953125,-0.3537296950817108,0.4500488042831421,-0.2558891177177429
1782846971311978800,1.757978759765625,-0.1318524032831192,0.3382921814918518,-0.4936724007129669
1782846971321983700,1.767983642578125,0.11392568051815033,0.2865363657474518,-0.5906547904014587
1782846971331988700,1.77798876953125,0.3654756247997284,0.28907808661460876,-0.4099246561527252
1782846971341994800,1.787994873046875,0.5840876698493958,0.31766989827156067,0.045063313096761703
1782846971351999700,1.797999755859375,0.748665452003479,0.28509998321533203,0.5978524088859558
1782846971362004700,1.808004638671875,0.8318012952804565,0.23408086597919464,1.0487552881240845
1782846971372009700,1.818009765625,0.8367372155189514,0.21498972177505493,1.262475609779358
1782846971382014700,1.8280146484375,0.764805793762207,0.25740504264831543,1.2567139863967896
1782846971392019700,1.838019775390625,0.629570484161377,0.27216747403144836,1.0354706048965454
1782846971402024700,1.848024658203125,0.4556210935115814,0.18828539550304413,0.7558651566505432
1782846971412030700,1.85803076171875,0.2593842148780823,-0.12215130776166916,0.47024619579315186
1782846971422035700,1.86803564453125,0.08640523254871368,-0.5112500190734863,0.23390527069568634
1782846971432040700,1.878040771484375,-0.06937158107757568,-0.8464884757995605,0.06362302601337433
1782846971442045700,1.888045654296875,-0.21885092556476593,-1.0472445487976074,-0.07566390931606293
1782846971452050700,1.89805078125,-0.3374388515949249,-1.1031626462936401,-0.1828681379556656
1782846971462055700,1.9080556640625,-0.3942984640598297,-1.1104196310043335,-0.23403890430927277
1782846971472060700,1.918060791015625,-0.4019787311553955,-1.0491522550582886,-0.2146417796611786
1782846971482066700,1.928066650390625,-0.3902668058872223,-0.9449284672737122,-0.1309131532907486
1782846971492071700,1.93807177734375,-0.37441912293434143,-0.7688804864883423,-0.03197404742240906
1782846971502076700,1.94807666015625,-0.3657713532447815,-0.533242404460907,0.06759825348854065
1782846971512081700,1.95808154296875,-0.33274203538894653,-0.3599609136581421,0.18348996341228485
1782846971522086700,1.968086669921875,-0.2825199067592621,-0.24439257383346558,0.30494391918182373
1782846971532091600,1.978091552734375,-0.2241327464580536,-0.16498003900051117,0.4144001007080078
1782846971542096600,1.9880966796875,-0.16388660669326782,-0.04923175275325775,0.5267717838287354
1782846971552103000,1.99810302734375,-0.1255948841571808,0.03196217119693756,0.6240903735160828
1782846971562108000,2.00810791015625,-0.08701107650995255,0.009755146689713001,0.6868528127670288
1782846971572113000,2.01811279296875,-0.059502750635147095,0.0006527286022901535,0.7217833399772644
1782846971582118000,2.028117919921875,-0.05717429518699646,0.0614076666533947,0.7407749891281128
1782846971592123000,2.038122802734375,-0.08061730116605759,0.18666812777519226,0.7377866506576538
1782846971602128000,2.0481279296875,-0.10582400113344193,0.33031946420669556,0.6935128569602966
1782846971612133600,2.058133544921875,-0.11662738025188446,0.3998620808124542,0.6009323596954346
1782846971622138600,2.068138671875,-0.09413494169712067,0.38113972544670105,0.45674657821655273
1782846971632143600,2.0781435546875,-0.05092940852046013,0.28348052501678467,0.2718217372894287
1782846971642148600,2.088148681640625,-0.004407146014273167,0.13389091193675995,0.07004135102033615
1782846971652153900,2.09815380859375,0.0353088416159153,-0.04450119659304619,-0.12462107837200165
1782846971662158800,2.108158935546875,0.047242823988199234,-0.216621994972229,-0.2893003523349762
1782846971672163800,2.118163818359375,0.023801680654287338,-0.3128097653388977,-0.4175371527671814
1782846971682169600,2.128169677734375,-0.019981026649475098,-0.2803857624530792,-0.5256950855255127
1782846971692174600,2.138174560546875,-0.06896667927503586,-0.16301335394382477,-0.5956834554672241
1782846971702179600,2.1481796875,-0.08978776633739471,-0.04474968835711479,-0.6060739755630493
1782846971712184600,2.1581845703125,-0.08785617351531982,0.05756203457713127,-0.5673254728317261
1782846971722189600,2.168189453125,-0.07010200619697571,0.13499179482460022,-0.5094298720359802
1782846971732194600,2.178194580078125,-0.05424022674560547,0.21339073777198792,-0.4517923891544342
1782846971742199600,2.188199462890625,-0.07446292042732239,0.26225775480270386,-0.4067605137825012
1782846971752205600,2.19820556640625,-0.11331257969141006,0.2718144655227661,-0.34839680790901184
1782846971762210600,2.20821044921875,-0.1554807871580124,0.26750263571739197,-0.2754777669906616
1782846971772215600,2.218215576171875,-0.18500912189483643,0.37364718317985535,-0.16953882575035095
1782846971782220500,2.228220458984375,-0.19552068412303925,0.5984398126602173,-0.0115570779889822
1782846971792225800,2.238225830078125,-0.23571977019309998,0.848173975944519,0.18225820362567902
1782846971802230800,2.248230712890625,-0.2823728322982788,1.0176931619644165,0.3095840811729431
1782846971812236800,2.25823681640625,-0.2784353494644165,1.0383769273757935,0.2828752398490906
1782846971822241800,2.26824169921875,-0.1793331801891327,0.9532595276832581,0.09166937321424484
1782846971832246800,2.278246826171875,-0.028509046882390976,0.8285897374153137,-0.23552580177783966
1782846971842251800,2.288251708984375,0.0987250953912735,0.6833563446998596,-0.63384610414505
1782846971852256800,2.2982568359375,0.15828081965446472,0.5696886777877808,-0.9965915679931641
1782846971862261800,2.30826171875,0.20151661336421967,0.34741100668907166,-1.1808151006698608
1782846971872266800,2.318266845703125,0.29171228408813477,0.008710182271897793,-0.996037483215332
1782846971882272800,2.328272705078125,0.38681429624557495,-0.2245803326368332,-0.4897995591163635
1782846971892277800,2.33827783203125,0.4233808219432831,-0.2300874888896942,0.1331327110528946
1782846971902282800,2.34828271484375,0.40246543288230896,0.015600252896547318,0.6517288684844971
1782846971912287700,2.358287841796875,0.38232606649398804,0.33738359808921814,0.9829534292221069
1782846971922292700,2.368292724609375,0.396279901266098,0.5869333148002625,1.0808042287826538
1782846971932297700,2.378297607421875,0.44423410296440125,0.7412006855010986,0.9432753920555115
1782846971942302700,2.388302734375,0.4958803355693817,0.7443574666976929,0.6245361566543579
1782846971952308700,2.398308837890625,0.534909725189209,0.5970620512962341,0.25417888164520264
1782846971962313700,2.408313720703125,0.5368423461914062,0.3421933650970459,-0.04336782172322273
1782846971972318700,2.418318603515625,0.5110093951225281,0.043521977961063385,-0.22748546302318573
1782846971982323700,2.42832373046875,0.4786362051963806,-0.23434670269489288,-0.2997080981731415
1782846971992328400,2.438328369140625,0.4636037349700928,-0.422687828540802,-0.2830508351325989
1782846972002333400,2.44833349609375,0.4757607579231262,-0.49907413125038147,-0.2054925262928009
1782846972012339500,2.45833935546875,0.4742555618286133,-0.5022475123405457,-0.09233881533145905
1782846972022344400,2.468344482421875,0.44216224551200867,-0.46897950768470764,0.020767992362380028
1782846972032349400,2.478349365234375,0.38312527537345886,-0.41829395294189453,0.12038779258728027
1782846972042354400,2.4883544921875,0.30011501908302307,-0.36735478043556213,0.18752403557300568
1782846972052359400,2.498359375,0.2034723460674286,-0.3221747875213623,0.2387976050376892
1782846972062364400,2.508364501953125,0.1189756989479065,-0.29159751534461975,0.2863033413887024
1782846972072369400,2.518369384765625,0.052307456731796265,-0.2772026062011719,0.31003183126449585
1782846972082375200,2.528375244140625,-0.0029026344418525696,-0.2513275146484375,0.2882862985134125
1782846972092380200,2.538380126953125,-0.048179034143686295,-0.20724447071552277,0.2148975431919098
1782846972102385400,2.548385498046875,-0.07129167765378952,-0.15146000683307648,0.08773498982191086
1782846972112390400,2.558390380859375,-0.09088268876075745,-0.09764710068702698,-0.07497429847717285
1782846972122395400,2.5683955078125,-0.11025464534759521,-0.049655042588710785,-0.2494543194770813
1782846972132400400,2.578400390625,-0.12142687290906906,-0.0107012540102005,-0.3911326229572296
1782846972142405400,2.5884052734375,-0.13089105486869812,0.012434309348464012,-0.48014944791793823
1782846972152411400,2.598411376953125,-0.14763034880161285,0.0023422606755048037,-0.5075685381889343
1782846972162416400,2.60841650390625,-0.1555354744195938,-0.039552703499794006,-0.532893180847168
1782846972172421400,2.61842138671875,-0.16257208585739136,-0.07903700321912766,-0.5577905178070068
1782846972182426400,2.62842626953125,-0.15739047527313232,-0.07996074855327606,-0.5890097618103027
1782846972192431400,2.638431396484375,-0.13506412506103516,-0.05696169286966324,-0.6350288987159729
1782846972202436400,2.648436279296875,-0.09739267081022263,-0.01970706693828106,-0.7084011435508728
1782846972212441300,2.65844140625,-0.03983084484934807,-0.0018146189395338297,-0.7743146419525146
1782846972222447400,2.668447265625,0.0053170835599303246,-0.019762422889471054,-0.8264794945716858
1782846972232452400,2.678452392578125,0.03326642885804176,-0.06108669564127922,-0.8573154211044312
1782846972242457300,2.688457275390625,0.013862653635442257,-0.1202060803771019,-0.8565993309020996
1782846972252462300,2.69846240234375,-0.05028863623738289,-0.17408528923988342,-0.8142731785774231
1782846972262467300,2.70846728515625,-0.11630179733037949,-0.1360558718442917,-0.7221201658248901
1782846972272472300,2.718472412109375,-0.15248669683933258,0.062284912914037704,-0.5964298844337463
1782846972282477300,2.728477294921875,-0.1517360955476761,0.391248881816864,-0.4725993275642395
1782846972292483300,2.7384833984375,-0.16975238919258118,0.7902370095252991,-0.3340603709220886
1782846972302488300,2.74848828125,-0.2438230961561203,1.1558181047439575,-0.1901627629995346
1782846972312493300,2.758493408203125,-0.33138731122016907,1.3488253355026245,-0.08465923368930817
1782846972322498300,2.768498291015625,-0.33815059065818787,1.2727930545806885,-0.08275246620178223
1782846972332503300,2.77850341796875,-0.20493152737617493,0.9390968680381775,-0.24306730926036835
1782846972342508300,2.78850830078125,0.0031080928165465593,0.36818814277648926,-0.5036517977714539
1782846972352514300,2.798514404296875,0.1987479031085968,-0.24196869134902954,-0.6298952698707581
1782846972362519300,2.808519287109375,0.36829036474227905,-0.6143168210983276,-0.38837650418281555
1782846972372524300,2.818524169921875,0.5396496057510376,-0.6744682788848877,0.11712341755628586
1782846972382529300,2.828529296875,0.7415643334388733,-0.5082408785820007,0.6469834446907043
1782846972392534300,2.8385341796875,0.954238772392273,-0.23911058902740479,0.9856144785881042
1782846972402539300,2.848539306640625,1.0979026556015015,-0.029342493042349815,1.0744272470474243
1782846972412544300,2.858544189453125,1.0618863105773926,0.0628494843840599,0.9695541858673096
1782846972422550500,2.868550537109375,0.8193619251251221,0.024174703285098076,0.8022410273551941
1782846972432555500,2.878555419921875,0.445481538772583,-0.174721360206604,0.6559221744537354
1782846972442560500,2.888560546875,0.06303863972425461,-0.4614742398262024,0.5807234644889832
1782846972452565500,2.8985654296875,-0.20429691672325134,-0.7652530670166016,0.5823562741279602
1782846972462570500,2.908570556640625,-0.31055769324302673,-1.050158143043518,0.6408286094665527
1782846972472575500,2.918575439453125,-0.2576148509979248,-1.2760320901870728,0.7286702990531921
1782846972482580500,2.92858056640625,-0.07893262058496475,-1.394357442855835,0.8015146255493164
1782846972492586500,2.93858642578125,0.16589736938476562,-1.3683546781539917,0.8737605810165405
1782846972502591500,2.948591552734375,0.41976672410964966,-1.177939534187317,0.9474584460258484
1782846972512596500,2.958596435546875,0.6315793395042419,-0.8524442911148071,1.0034199953079224
1782846972522601500,2.9686015625,0.757009744644165,-0.4809724986553192,1.0279148817062378
1782846972532606500,2.9786064453125,0.7863034605979919,-0.16588060557842255,1.0271494388580322
1782846972542611500,2.988611572265625,0.7449944615364075,0.04816839471459389,1.0142711400985718
1782846972552617200,2.9986171875,0.6562584638595581,0.12882542610168457,0.9999460577964783
1782846972562622200,3.008622314453125,0.5135762095451355,0.12654167413711548,0.9670416116714478
1782846972572627200,3.018627197265625,0.3300202190876007,0.11638358235359192,0.9104670286178589
1782846972582632200,3.028632080078125,0.1324196606874466,0.11805275827646255,0.83460932970047
1782846972592637200,3.03863720703125,-0.06635816395282745,0.12855041027069092,0.7537986040115356
1782846972602642200,3.04864208984375,-0.24419867992401123,0.1744004487991333,0.655809760093689
1782846972612647200,3.058647216796875,-0.39194124937057495,0.225568026304245,0.5339546799659729
1782846972622653200,3.068653076171875,-0.5077466368675232,0.280044823884964,0.400524765253067
1782846972632658200,3.078658203125,-0.5851820111274719,0.2926378548145294,0.24157027900218964
1782846972642663200,3.0886630859375,-0.609041690826416,0.21735452115535736,0.0609704852104187
1782846972652668200,3.098668212890625,-0.5774635076522827,0.08448835462331772,-0.14918328821659088
1782846972662673200,3.108673095703125,-0.5030900239944458,-0.06137092038989067,-0.3659614622592926
1782846972672678100,3.11867822265625,-0.4065399765968323,-0.2087627798318863,-0.5598171949386597
1782846972682683100,3.12868310546875,-0.337550550699234,-0.3320716619491577,-0.7206673622131348
1782846972692689400,3.138689453125,-0.32529279589653015,-0.3633163869380951,-0.8477845191955566
1782846972702694400,3.1486943359375,-0.3643900454044342,-0.3226633667945862,-0.920780599117279
1782846972712699400,3.158699462890625,-0.408150851726532,-0.23713305592536926,-0.9455602169036865
1782846972722704400,3.168704345703125,-0.4444628357887268,-0.15165221691131592,-0.9376921653747559
1782846972732709400,3.17870947265625,-0.46676042675971985,-0.057539571076631546,-0.9114640355110168
1782846972742714400,3.18871435546875,-0.4467242956161499,0.021448366343975067,-0.8766632080078125
1782846972752719400,3.19871923828125,-0.38384678959846497,0.09267114847898483,-0.8279228210449219
1782846972762725400,3.208725341796875,-0.31794473528862,0.12837007641792297,-0.7600472569465637
1782846972772730400,3.21873046875,-0.29073256254196167,0.13886266946792603,-0.6802746653556824
1782846972782735400,3.2287353515625,-0.28334346413612366,0.18590770661830902,-0.5947606563568115
1782846972792740400,3.238740234375,-0.2656337022781372,0.3042162358760834,-0.4968567490577698
1782846972802745300,3.248745361328125,-0.2218739241361618,0.4749176502227783,-0.39135846495628357
1782846972812750300,3.258750244140625,-0.16764158010482788,0.7471787333488464,-0.2611096203327179
1782846972822756400,3.26875634765625,-0.1390041708946228,1.092436671257019,-0.14235363900661469
1782846972832761300,3.27876123046875,-0.1968728005886078,1.438761830329895,-0.07861887663602829
1782846972842766300,3.288766357421875,-0.3378361463546753,1.6902110576629639,-0.10808057337999344
1782846972852771300,3.298771240234375,-0.44694507122039795,1.7877508401870728,-0.3135482668876648
1782846972862776300,3.3087763671875,-0.4107913076877594,1.6285170316696167,-0.7704867720603943
1782846972872781300,3.31878125,-0.2945810854434967,1.1558713912963867,-1.5708329677581787
1782846972882786300,3.328786376953125,-0.3051414489746094,0.4346993565559387,-2.4946658611297607
1782846972892792600,3.33879248046875,-0.3856216371059418,-0.339694082736969,-2.788485050201416
1782846972902797600,3.348797607421875,-0.4514693021774292,-0.8050788044929504,-2.249455213546753
1782846972912802600,3.358802490234375,-0.485972136259079,-0.9670504331588745,-1.1671850681304932
1782846972922807600,3.3688076171875,-0.4336053729057312,-0.8570690751075745,0.07916074991226196
1782846972932812500,3.3788125,-0.25472110509872437,-0.5240277647972107,1.1014801263809204
1782846972942817500,3.388817626953125,0.012502660043537617,-0.09172725677490234,1.6227400302886963
1782846972952822500,3.398822509765625,0.2946712374687195,0.2926395833492279,1.5900204181671143
1782846972962828300,3.408828369140625,0.5270683169364929,0.5472026467323303,1.146864891052246
1782846972972833300,3.418833251953125,0.6518632769584656,0.6131225824356079,0.5311216115951538
1782846972982838300,3.42883837890625,0.6426645517349243,0.49335718154907227,-0.03926277160644531
1782846972992843500,3.438843505859375,0.5400527119636536,0.2320859283208847,-0.44257882237434387
1782846973002848500,3.4488486328125,0.4066201448440552,-0.04696597158908844,-0.6756596565246582
1782846973012853500,3.458853515625,0.27518782019615173,-0.2992139160633087,-0.7691193222999573
1782846973022858500,3.4688583984375,0.1634659767150879,-0.4679109752178192,-0.7376927137374878
1782846973032864800,3.47886474609375,0.08827480673789978,-0.5122581720352173,-0.5934673547744751
1782846973042869800,3.488869873046875,0.05081053450703621,-0.489910751581192,-0.3831683397293091
1782846973052874800,3.498874755859375,0.027209866791963577,-0.4284961223602295,-0.16430418193340302
1782846973062879700,3.508879638671875,0.009157555177807808,-0.3373848497867584,0.021612145006656647
1782846973072884700,3.518884765625,-0.014887060970067978,-0.27141302824020386,0.159651517868042
1782846973082889700,3.5288896484375,-0.032689228653907776,-0.24334783852100372,0.2301160842180252
1782846973092895700,3.538895751953125,-0.031906258314847946,-0.2374904900789261,0.22776424884796143
1782846973102900700,3.548900634765625,-0.027826625853776932,-0.21902789175510406,0.16529031097888947
1782846973112905700,3.55890576171875,-0.020335953682661057,-0.17751799523830414,0.057472504675388336
1782846973122910700,3.56891064453125,-0.0036771087907254696,-0.11586108803749084,-0.08515845239162445
1782846973132915700,3.578915771484375,0.010022458620369434,-0.03573349863290787,-0.2408873289823532
1782846973142920700,3.588920654296875,0.024206720292568207,0.04279087111353874,-0.3660087585449219
1782846973152925700,3.59892578125,0.0474739596247673,0.0898023247718811,-0.43303680419921875
1782846973162931700,3.608931640625,0.08455861359834671,0.09371399879455566,-0.4604855477809906
1782846973172936700,3.618936767578125,0.11530906707048416,0.06933675706386566,-0.44908270239830017
1782846973182941700,3.628941650390625,0.14417944848537445,0.03126358613371849,-0.4208606481552124
1782846973192946700,3.63894677734375,0.16164419054985046,0.00869116559624672,-0.395370751619339
1782846973202951700,3.64895166015625,0.17258574068546295,0.0030152485705912113,-0.38214120268821716
1782846973212956700,3.658956787109375,0.19968953728675842,-0.0024037514813244343,-0.37457436323165894
1782846973222961700,3.668961669921875,0.2313978523015976,-0.04743253067135811,-0.36519375443458557
1782846973232967700,3.6789677734375,0.2695942223072052,-0.12679019570350647,-0.3328970670700073
1782846973242972700,3.68897265625,0.2971816062927246,-0.2086348682641983,-0.2648545205593109
1782846973252977700,3.698977783203125,0.3093802332878113,-0.262964129447937,-0.19065989553928375
1782846973262982700,3.708982666015625,0.2948860824108124,-0.275022953748703,-0.129581019282341
1782846973272987600,3.718987548828125,0.24532973766326904,-0.1897490918636322,-0.06761325150728226
1782846973282992600,3.72899267578125,0.16512681543827057,-0.014341982081532478,-0.009611595422029495
1782846973292998000,3.738997802734375,0.07867128401994705,0.2077653855085373,0.05197160691022873
1782846973303004000,3.74900390625,0.0011008684523403645,0.36362987756729126,0.11947671324014664
1782846973313009000,3.7590087890625,-0.01956792362034321,0.42815375328063965,0.21425461769104004
1782846973323014000,3.769013916015625,-0.00850614532828331,0.3792799115180969,0.32844698429107666
1782846973333019000,3.779018798828125,-0.0007731247460469604,0.2711486518383026,0.41118982434272766
1782846973343023900,3.78902392578125,-0.017467627301812172,0.2021448165178299,0.41299310326576233
1782846973353028900,3.79902880859375,-0.05278513580560684,0.21544970571994781,0.30867496132850647
1782846973363034600,3.80903466796875,-0.05175511911511421,0.26743075251579285,0.15973533689975739
1782846973373039600,3.81903955078125,0.010002520866692066,0.2557205855846405,0.04293493926525116
1782846973383044600,3.829044677734375,0.09895488619804382,0.1308228224515915,0.0026789482217282057
1782846973393049600,3.839049560546875,0.18114802241325378,-0.048883821815252304,0.002211563289165497
1782846973403054600,3.8490546875,0.2661629319190979,-0.20252849161624908,-0.020507948473095894
1782846973413059600,3.8590595703125,0.3499044179916382,-0.25322043895721436,-0.07091252505779266
1782846973423064800,3.86906494140625,0.4145737588405609,-0.15974733233451843,-0.1099463477730751
1782846973433070600,3.879070556640625,0.4681594967842102,0.02783694490790367,-0.1132715716958046
1782846973443075600,3.88907568359375,0.5377968549728394,0.21001248061656952,-0.053974296897649765
1782846973453080600,3.89908056640625,0.6299675107002258,0.27651506662368774,0.06838251650333405
1782846973463085600,3.90908544921875,0.7252550721168518,0.1959773749113083,0.2423580139875412
1782846973473090600,3.919090576171875,0.7942078113555908,-0.00873955711722374,0.4073658883571625
1782846973483095600,3.929095458984375,0.8392997980117798,-0.24827255308628082,0.5346370935440063
1782846973493100500,3.9391005859375,0.8600298166275024,-0.4620881676673889,0.6144765615463257
1782846973503106800,3.94910693359375,0.8431972861289978,-0.6341438293457031,0.6731268167495728
1782846973513111800,3.95911181640625,0.7818058133125305,-0.7135002613067627,0.6869558691978455
1782846973523116800,3.96911669921875,0.6736918687820435,-0.7061777710914612,0.6766999363899231
1782846973533121800,3.979121826171875,0.5142899751663208,-0.6477096676826477,0.6594748497009277
1782846973543126800,3.989126708984375,0.31775692105293274,-0.5741695761680603,0.6376098990440369
1782846973553131800,3.9991318359375,0.09582851827144623,-0.5283605456352234,0.6267015933990479
1782846973563136800,4.00913671875,-0.12975697219371796,-0.5461813807487488,0.619450569152832
1782846973573142800,4.019142822265625,-0.34857746958732605,-0.5865187048912048,0.6083318591117859
1782846973583147800,4.029147705078125,-0.549826979637146,-0.6025926470756531,0.6033408641815186
1782846973593152800,4.03915283203125,-0.7329286336898804,-0.5692959427833557,0.626095175743103
1782846973603157800,4.04915771484375,-0.8916496634483337,-0.48837026953697205,0.6844308376312256
1782846973613162800,4.059162841796875,-1.0113499164581299,-0.3471982479095459,0.7667480707168579
1782846973623167700,4.069167724609375,-1.0847800970077515,-0.1792740821838379,0.8412162661552429
1782846973633172700,4.0791728515625,-1.0916236639022827,-0.021124117076396942,0.8618965148925781
1782846973643178800,4.0891787109375,-1.0240367650985718,0.14650636911392212,0.792055606842041
1782846973653183700,4.099183837890625,-0.9071119427680969,0.21759891510009766,0.6216061115264893
1782846973663188700,4.109188720703125,-0.7436566948890686,0.19785530865192413,0.3731376826763153
1782846973673193700,4.11919384765625,-0.5672067999839783,0.10696002095937729,0.07196984440088272
1782846973683198700,4.12919873046875,-0.3954719603061676,0.0015499474247917533,-0.23522330820560455
1782846973693203700,4.13920361328125,-0.2489272654056549,-0.0902276411652565,-0.4944780170917511
1782846973703209700,4.149209716796875,-0.1415225863456726,-0.1820177435874939,-0.676243007183075
1782846973713214700,4.159214599609375,-0.07429348677396774,-0.24966761469841003,-0.7561735510826111
1782846973723219700,4.1692197265625,-0.03862692788243294,-0.28410667181015015,-0.7387697100639343
1782846973733224700,4.179224609375,-0.03324095159769058,-0.27964773774147034,-0.672959566116333
1782846973743229700,4.189229736328125,-0.06397814303636551,-0.2349175214767456,-0.6001701354980469
1782846973753234700,4.199234619140625,-0.12138205021619797,-0.14353860914707184,-0.5570045709609985
1782846973763239700,4.20923974609375,-0.15727542340755463,-0.0524420402944088,-0.5549606680870056
1782846973773245700,4.21924560546875,-0.14100298285484314,0.009643432684242725,-0.5581088066101074
1782846973783250700,4.229250732421875,-0.11005783826112747,0.009321722202003002,-0.5516176223754883
1782846973793255700,4.239255615234375,-0.08706410974264145,-0.02201835811138153,-0.5155491232872009
1782846973803261000,4.249260986328125,-0.12658491730690002,0.005686114076524973,-0.47224491834640503
1782846973813266000,4.259265869140625,-0.23683711886405945,0.11403362452983856,-0.4534744322299957
1782846973823271000,4.26927099609375,-0.40565040707588196,0.36982667446136475,-0.4916536211967468
1782846973833276000,4.27927587890625,-0.5734186172485352,0.7773374319076538,-0.5991883873939514
1782846973843281700,4.28928173828125,-0.7072445154190063,1.2209150791168213,-0.7601722478866577
1782846973853286700,4.29928662109375,-0.7598126530647278,1.5084766149520874,-0.8783537149429321
1782846973863291600,4.309291748046875,-0.683350145816803,1.6550710201263428,-0.8825950026512146
1782846973873296600,4.319296630859375,-0.479520320892334,1.2052929401397705,-1.044913411140442
1782846973883301600,4.329301513671875,-0.24293817579746246,0.622943103313446,-1.3787164688110352
1782846973893306600,4.339306640625,-0.13091151416301727,0.06207869574427605,-1.7914576530456543
1782846973903312600,4.349312744140625,-0.2471986711025238,-0.4232708215713501,-2.1942455768585205
1782846973913317600,4.359317626953125,-0.5289259552955627,-0.7181326150894165,-2.3125972747802734
1782846973923322600,4.369322509765625,-0.7215064167976379,-0.7629172205924988,-2.021491289138794
1782846973933327600,4.37932763671875,-0.7842236161231995,-0.6825712323188782,-1.4140069484710693
1782846973943332600,4.38933251953125,-0.7032280564308167,-0.5043253898620605,-0.650898277759552
1782846973953337600,4.399337646484375,-0.5099877715110779,-0.2590559720993042,-0.004283815622329712
1782846973963342600,4.409342529296875,-0.21322380006313324,-0.027611143887043,0.3035120964050293
1782846973973348600,4.4193486328125,0.20374013483524323,0.09442475438117981,0.2376164346933365
1782846973983353600,4.429353515625,0.6777421832084656,0.12187053263187408,-0.03687754273414612
1782846973993359000,4.439359130859375,1.0850530862808228,0.12763254344463348,-0.29276710748672485
1782846974003364000,4.449364013671875,1.286515474319458,0.0673966184258461,-0.364610880613327
1782846974013369000,4.459369140625,1.332017183303833,-0.06427645683288574,-0.24596118927001953
1782846974023374000,4.4693740234375,1.3131821155548096,-0.24390730261802673,-0.02399331144988537
1782846974033379000,4.479379150390625,1.2630348205566406,-0.4134518802165985,0.22984854876995087
1782846974043385000,4.489385009765625,1.1859146356582642,-0.5387241244316101,0.47432059049606323
1782846974053390000,4.49939013671875,1.1141951084136963,-0.5936286449432373,0.682198703289032
1782846974063395000,4.50939501953125,1.041884422302246,-0.5765054821968079,0.8535799980163574
1782846974073400000,4.519400146484375,0.9543944001197815,-0.49242228269577026,0.9915767312049866
1782846974083405000,4.529405029296875,0.8494890332221985,-0.37366756796836853,1.0964559316635132
1782846974093410000,4.53941015625,0.7256166338920593,-0.23200789093971252,1.1530678272247314
1782846974103416000,4.549416015625,0.6002228856086731,-0.10673043876886368,1.157191276550293
1782846974113421000,4.559421142578125,0.48040860891342163,-0.013398896902799606,1.1085752248764038
1782846974123426000,4.569426025390625,0.3734007775783539,0.04760710895061493,1.0188082456588745
1782846974133431000,4.57943115234375,0.27715227007865906,0.08708634227514267,0.8970091938972473
1782846974143436000,4.58943603515625,0.19990864396095276,0.08661049604415894,0.7582842111587524
1782846974153441000,4.59944091796875,0.1338595747947693,0.012284598313272,0.6113970279693604
1782846974163446000,4.609446044921875,0.04610366374254227,-0.10269991308450699,0.44450056552886963
1782846974173452000,4.6194521484375,-0.06061292812228203,-0.2270522266626358,0.2761736214160919
1782846974183457000,4.62945703125,-0.15684296190738678,-0.331336110830307,0.11958616971969604
1782846974193462000,4.6394619140625,-0.22738024592399597,-0.38689124584198,0.0063477614894509315
1782846974203467000,4.649467041015625,-0.2637689411640167,-0.41242527961730957,-0.05325934663414955
1782846974213472000,4.659471923828125,-0.2725642919540405,-0.3889465928077698,-0.09511518478393555
1782846974223477200,4.669477294921875,-0.24619722366333008,-0.32383593916893005,-0.11780695617198944
1782846974233482200,4.679482177734375,-0.19894900918006897,-0.2429450899362564,-0.1122279018163681
1782846974243488000,4.689488037109375,-0.15257275104522705,-0.1788620501756668,-0.0789477527141571
1782846974253493000,4.699492919921875,-0.11667200922966003,-0.11501569300889969,-0.05254010856151581
1782846974263498000,4.709498046875,-0.09988212585449219,-0.056060291826725006,-0.03560756519436836
1782846974273503000,4.7195029296875,-0.09674997627735138,-0.005153434816747904,-0.015277259983122349
1782846974283508000,4.729508056640625,-0.09936754405498505,0.023516805842518806,-0.0004252734361216426
1782846974293513000,4.739512939453125,-0.11278615146875381,0.053779639303684235,0.002911134622991085
1782846974303518000,4.74951806640625,-0.14532025158405304,0.11747928708791733,-0.0018653285223990679
1782846974313524000,4.75952392578125,-0.1911388784646988,0.1801367998123169,-0.03755701333284378
1782846974323529000,4.769529052734375,-0.22269265353679657,0.26911306381225586,-0.08997295796871185
1782846974333534000,4.779533935546875,-0.21062614023685455,0.4069734513759613,-0.12635360658168793
1782846974343539000,4.7895390625,-0.12601877748966217,0.5623619556427002,-0.1407492458820343
1782846974353544000,4.7995439453125,-0.005722195841372013,0.6753172278404236,-0.15200750529766083
1782846974363549000,4.809548828125,0.11433984339237213,0.7829380631446838,-0.171603724360466
1782846974373555000,4.819554931640625,0.22866135835647583,0.877668023109436,-0.1643652468919754
1782846974383560000,4.829559814453125,0.3200840651988983,0.892720103263855,-0.07967721670866013
1782846974393565000,4.83956494140625,0.35403698682785034,0.7916968464851379,0.12792018055915833
1782846974403570000,4.84956982421875,0.310973584651947,0.6041250824928284,0.45158472657203674
1782846974413575000,4.859574951171875,0.22037045657634735,0.3884921371936798,0.8499704003334045
1782846974423580200,4.869580078125,0.1638302505016327,0.13520780205726624,1.215425729751587
1782846974433585200,4.879585205078125,0.12222474813461304,-0.07004415988922119,1.4433475732803345
1782846974443591200,4.889591064453125,0.06624732166528702,-0.15444926917552948,1.483595848083496
1782846974453596200,4.89959619140625,-0.00986875593662262,-0.15047982335090637,1.3496092557907104
1782846974463601200,4.90960107421875,-0.07492878288030624,-0.13468028604984283,1.1061440706253052
1782846974473606100,4.919606201171875,-0.10790617018938065,-0.1739150434732437,0.8333665132522583
1782846974483611100,4.929611083984375,-0.09166126698255539,-0.309835821390152,0.586855947971344
1782846974493616000,4.9396162109375,-0.03700228035449982,-0.5088950991630554,0.40312767028808594
1782846974503621000,4.94962109375,0.009873954579234123,-0.6910414099693298,0.27828797698020935
1782846974513627100,4.959627197265625,0.026182087138295174,-0.7929896116256714,0.16659845411777496
1782846974523632000,4.969632080078125,0.02175450697541237,-0.8142268061637878,0.07238833606243134
1782846974533637000,4.97963720703125,0.0324135459959507,-0.7900071740150452,-0.016469895839691162
1782846974543642000,4.98964208984375,0.0685611367225647,-0.7648100852966309,-0.07545468956232071
1782846974553647000,4.999647216796875,0.1307843029499054,-0.73193359375,-0.11000547558069229
1782846974563652000,5.009652099609375,0.211509570479393,-0.6875896453857422,-0.12910149991512299
1782846974573657000,5.019656982421875,0.2857646048069,-0.6733782291412354,-0.110049769282341
1782846974583663000,5.0296630859375,0.3343849182128906,-0.6746407151222229,-0.06577132642269135
1782846974593668000,5.039668212890625,0.3536829650402069,-0.6598769426345825,-0.012986409477889538
1782846974603673000,5.049673095703125,0.34773874282836914,-0.6084184646606445,0.060772791504859924
1782846974613678000,5.059677978515625,0.3154657483100891,-0.5325212478637695,0.189577117562294
1782846974623683000,5.06968310546875,0.26277366280555725,-0.4489193260669708,0.3803088963031769
1782846974633688000,5.07968798828125,0.20534153282642365,-0.3633647561073303,0.5967613458633423
1782846974643694000,5.089694091796875,0.13807493448257446,-0.276904821395874,0.8008394241333008
1782846974653699000,5.099698974609375,0.05708952993154526,-0.17534595727920532,0.9338587522506714
1782846974663704000,5.1097041015625,-0.03905590996146202,-0.05263484641909599,0.978440523147583
1782846974673709000,5.119708984375,-0.1229872927069664,0.07533377408981323,0.9507583379745483
1782846974683714000,5.129714111328125,-0.17082153260707855,0.15307587385177612,0.8738818764686584
1782846974693719000,5.139718994140625,-0.18903116881847382,0.14721772074699402,0.7390108704566956
1782846974703724000,5.14972412109375,-0.18018968403339386,0.07955504208803177,0.5605844855308533
1782846974713730000,5.15972998046875,-0.16176114976406097,-0.021014709025621414,0.35630273818969727
1782846974723735000,5.169735107421875,-0.15526656806468964,-0.15051202476024628,0.13767969608306885
1782846974733740000,5.179739990234375,-0.15296265482902527,-0.25093159079551697,-0.07296329736709595
1782846974743745000,5.1897451171875,-0.1657983809709549,-0.2947866916656494,-0.2536546289920807
1782846974753750000,5.19975,-0.18039198219776154,-0.2976711690425873,-0.4129153788089752
1782846974763755000,5.209755126953125,-0.20471258461475372,-0.24177871644496918,-0.551201343536377
1782846974773760000,5.219760009765625,-0.24752609431743622,-0.18510983884334564,-0.6505302786827087
1782846974783766000,5.22976611328125,-0.3058079779148102,-0.10421227663755417,-0.6839925050735474
1782846974793771000,5.23977099609375,-0.3633072078227997,0.012151882983744144,-0.6417209506034851
1782846974803776000,5.24977587890625,-0.3872193396091461,0.11870592087507248,-0.5239700675010681
1782846974813781000,5.259781005859375,-0.4399206340312958,0.20726481080055237,-0.3810557723045349
1782846974823786000,5.269785888671875,-0.5171242952346802,0.33335262537002563,-0.2304718941450119
1782846974833791000,5.279791015625,-0.5984705686569214,0.5301317572593689,-0.08041448146104813
1782846974843796000,5.2897958984375,-0.6813197731971741,0.7845445871353149,0.04302721470594406
1782846974853802000,5.299802001953125,-0.7567346096038818,1.012134075164795,0.11027389764785767
1782846974863807000,5.309806884765625,-0.8187320828437805,1.1039923429489136,0.08466985076665878
1782846974873812000,5.31981201171875,-0.8153029680252075,0.9758116006851196,-0.11402193456888199
1782846974883817000,5.32981689453125,-0.7154120802879333,0.6186442971229553,-0.5076390504837036
1782846974893822000,5.339822021484375,-0.5666433572769165,0.09736061096191406,-1.0810264348983765
1782846974903827000,5.349826904296875,-0.4451921582221985,-0.393476665019989,-1.7954124212265015
1782846974913833200,5.359833251953125,-0.43196237087249756,-0.766255795955658,-2.4865095615386963
1782846974923838200,5.369838134765625,-0.5346933603286743,-0.9398279190063477,-2.793081760406494
1782846974933843200,5.37984326171875,-0.6594139933586121,-0.8959773778915405,-2.514709711074829
1782846974943848200,5.38984814453125,-0.7203559279441833,-0.7686493992805481,-1.8039672374725342
1782846974953853200,5.399853271484375,-0.6610066294670105,-0.6071560978889465,-0.8337850570678711
1782846974963858200,5.409858154296875,-0.50887131690979,-0.3496319651603699,0.16424475610256195
1782846974973863200,5.41986328125,-0.3559541702270508,-0.0338796004652977,0.9628058671951294
1782846974983869200,5.429869140625,-0.20774182677268982,0.21469658613204956,1.3789321184158325
1782846974993873700,5.439873779296875,-0.008521664887666702,0.30910325050354004,1.3646469116210938
1782846975003878700,5.449878662109375,0.2847231328487396,0.26407375931739807,1.0265613794326782
1782846975013883600,5.459883544921875,0.5752148628234863,0.1613052934408188,0.5337161421775818
1782846975023888600,5.469888671875,0.7588592767715454,0.08975214511156082,0.07512900978326797
1782846975033893600,5.4798935546875,0.7913626432418823,0.03811771422624588,-0.22419510781764984
1782846975043898600,5.489898681640625,0.7613648176193237,-0.016360361129045486,-0.37807679176330566
1782846975053905000,5.49990478515625,0.6971900463104248,-0.08584462851285934,-0.4309466779232025
1782846975063910000,5.509909912109375,0.582258403301239,-0.13306482136249542,-0.376212477684021
1782846975073915000,5.519914794921875,0.44590404629707336,-0.17021244764328003,-0.2345741242170334
1782846975083920000,5.529919921875,0.316854327917099,-0.20680749416351318,-0.03403434157371521
1782846975093924900,5.5399248046875,0.21623262763023376,-0.22276009619235992,0.18257705867290497
1782846975103929900,5.549929931640625,0.13827712833881378,-0.2319508194923401,0.4013250470161438
1782846975113934800,5.559934814453125,0.07753469049930573,-0.23465552926063538,0.6073128581047058
1782846975123940600,5.569940673828125,0.03976478800177574,-0.218486025929451,0.7778591513633728
1782846975133945600,5.579945556640625,0.029019199311733246,-0.1679019331932068,0.8797527551651001
1782846975143950600,5.58995068359375,0.03886612877249718,-0.07440779358148575,0.8982836604118347
1782846975153955600,5.59995556640625,0.05545256286859512,0.04574151709675789,0.8435922265052795
1782846975163960600,5.609960693359375,0.06231646612286568,0.16727250814437866,0.7253952026367188
1782846975173965600,5.619965576171875,0.04896124452352524,0.2577155828475952,0.5711963176727295
1782846975183971600,5.6299716796875,0.017919160425662994,0.29054322838783264,0.39265841245651245
1782846975193976600,5.6399765625,-0.029544495046138763,0.3122711777687073,0.19346193969249725
1782846975203981600,5.649981689453125,-0.09942449629306793,0.2794584631919861,-0.009418264031410217
1782846975213986600,5.659986572265625,-0.18174520134925842,0.19079387187957764,-0.2284102588891983
1782846975223991600,5.669991455078125,-0.2570260167121887,0.10657564550638199,-0.4559568464756012
1782846975233996500,5.67999658203125,-0.2915211319923401,0.028699761256575584,-0.6857967376708984
1782846975244001500,5.69000146484375,-0.27215614914894104,0.008969574235379696,-0.9009144306182861
1782846975254007600,5.700007568359375,-0.2135985642671585,0.08993180096149445,-1.0630247592926025
1782846975264012500,5.710012451171875,-0.15104512870311737,0.17902351915836334,-1.159008502960205
1782846975274017500,5.720017578125,-0.11841235309839249,0.2022761106491089,-1.1763849258422852
1782846975284022500,5.7300224609375,-0.11928696930408478,0.2546917796134949,-1.1298824548721313
1782846975294027500,5.740027587890625,-0.14406129717826843,0.38686421513557434,-0.9905759692192078
1782846975304032500,5.750032470703125,-0.2216476947069168,0.4497808516025543,-0.7416431307792664
1782846975314037500,5.76003759765625,-0.3120388388633728,0.44392696022987366,-0.44049984216690063
1782846975324043800,5.770043701171875,-0.3734268546104431,0.3899320363998413,-0.1854138821363449
1782846975334048800,5.780048828125,-0.3662930428981781,0.3870992064476013,-0.060527604073286057
1782846975344053800,5.7900537109375,-0.2966034412384033,0.44633039832115173,-0.09477847814559937
1782846975354058800,5.800058837890625,-0.16130419075489044,0.5580347776412964,-0.29488253593444824
1782846975364063700,5.810063720703125,0.03001793846487999,0.6398523449897766,-0.6133902072906494
1782846975374068700,5.82006884765625,0.2034568339586258,0.5298683047294617,-0.9251592755317688
1782846975384073700,5.83007373046875,0.3151743710041046,0.1883634626865387,-1.0066114664077759
1782846975394079700,5.840079833984375,0.40321341156959534,-0.2218158096075058,-0.6559235453605652
1782846975404084700,5.850084716796875,0.5093249678611755,-0.5304155349731445,0.09547078609466553
1782846975414089700,5.86008984375,0.6411793828010559,-0.6105047464370728,0.8941666483879089
1782846975424094700,5.8700947265625,0.7640763521194458,-0.47770074009895325,1.4541010856628418
1782846975434099700,5.880099609375,0.8313174247741699,-0.2642284035682678,1.669942021369934
1782846975444104700,5.890104736328125,0.7826046943664551,-0.10735468566417694,1.5790764093399048
1782846975454109700,5.900109619140625,0.572881281375885,-0.04335040599107742,1.2992429733276367
1782846975464115700,5.91011572265625,0.23704642057418823,0.008990001864731312,0.8690043091773987
1782846975474120700,5.92012060546875,-0.14271582663059235,-0.18076688051223755,0.606360137462616
1782846975484125700,5.930125732421875,-0.377625972032547,-0.5441874861717224,0.4088618755340576
1782846975494130700,5.940130615234375,-0.47516584396362305,-0.8550151586532593,0.18677395582199097
1782846975504135700,5.9501357421875,-0.44992828369140625,-1.0006136894226074,0.007312569301575422
1782846975514140700,5.960140625,-0.33786430954933167,-0.9938748478889465,-0.08006974309682846
1782846975524146700,5.970146728515625,-0.20454715192317963,-0.9026278257369995,-0.051663149148225784
1782846975534151700,5.980151611328125,-0.07217153161764145,-0.7412804961204529,0.07208169251680374
1782846975544156700,5.99015673828125,0.03718257695436478,-0.6030658483505249,0.25612127780914307
1782846975554161700,6.00016162109375,0.06765100359916687,-0.5539140105247498,0.4826788008213043
1782846975564167000,6.0101669921875,0.10001817345619202,-0.4368405342102051,0.6254956722259521
1782846975574172000,6.020171875,0.0859212651848793,-0.29958227276802063,0.7891256213188171
1782846975584177000,6.030177001953125,0.05932676047086716,-0.14566902816295624,0.9243739247322083
1782846975594182700,6.0401826171875,0.015114560723304749,-0.004099640995264053,1.0538195371627808
1782846975604187600,6.050187744140625,-0.01081869751214981,0.11517800390720367,1.17679762840271
1782846975614192600,6.060192626953125,-0.001963153714314103,0.2298760861158371,1.2619613409042358
1782846975624197600,6.07019775390625,0.024288607761263847,0.3561362326145172,1.3036998510360718
1782846975634202600,6.08020263671875,0.059542201459407806,0.4870569705963135,1.2927536964416504
1782846975644207600,6.09020751953125,0.11163496971130371,0.5973821878433228,1.2522629499435425
1782846975654212600,6.100212646484375,0.17304746806621552,0.6332020163536072,1.1725664138793945
1782846975664218600,6.110218505859375,0.21306505799293518,0.5765693187713623,1.0323874950408936
1782846975674223600,6.1202236328125,0.2029586285352707,0.4368817210197449,0.8046106100082397
1782846975684228600,6.130228515625,0.15619617700576782,0.2991204559803009,0.49483099579811096
1782846975694233600,6.140233642578125,0.06646203994750977,0.15012536942958832,0.15221798419952393
1782846975704238600,6.150238525390625,-0.03891647234559059,-0.01177978515625,-0.18284162878990173
1782846975714243600,6.16024365234375,-0.12412936985492706,-0.13073040544986725,-0.46783632040023804
1782846975724248600,6.17024853515625,-0.16697648167610168,-0.2035965472459793,-0.6890912055969238
1782846975734254600,6.180254638671875,-0.16861192882061005,-0.18753156065940857,-0.8446131348609924
1782846975744259600,6.190259521484375,-0.12343937158584595,-0.11386014521121979,-0.9150798916816711
1782846975754264600,6.2002646484375,-0.03860117867588997,-0.018308859318494797,-0.9081647396087646
1782846975764269600,6.21026953125,0.07489772886037827,0.05327124148607254,-0.8212519884109497
1782846975774274600,6.220274658203125,0.17322403192520142,0.08910327404737473,-0.7043266892433167
1782846975784279600,6.230279541015625,0.22654317319393158,0.11609888076782227,-0.5974152684211731
1782846975794285800,6.240285888671875,0.21515363454818726,0.15013088285923004,-0.5344703793525696
1782846975804290800,6.250290771484375,0.15457473695278168,0.21828848123550415,-0.48570722341537476
1782846975814295800,6.2602958984375,0.1235198825597763,0.32798993587493896,-0.4337753355503082
1782846975824300800,6.27030078125,0.1660592257976532,0.4609021544456482,-0.34406745433807373
1782846975834305800,6.280305908203125,0.2917513847351074,0.6848173141479492,-0.16391155123710632
1782846975844310800,6.290310791015625,0.43806275725364685,1.0771015882492065,0.12146370112895966
1782846975854315800,6.300315673828125,0.5561121702194214,1.529902458190918,0.4422081410884857
1782846975864321800,6.31032177734375,0.67645663022995,1.768437147140503,0.6680403351783752
1782846975874326800,6.320326904296875,0.7705245614051819,1.688484787940979,0.7233904004096985
1782846975884331800,6.330331787109375,0.78509122133255,1.3356270790100098,0.5663407444953918
1782846975894336800,6.340336669921875,0.6556158065795898,0.8824920654296875,0.10212032496929169
1782846975904341800,6.350341796875,0.367665559053421,0.4545404016971588,-0.6900565028190613
1782846975914346800,6.3603466796875,-0.053957581520080566,0.025641506537795067,-1.5194237232208252
1782846975924352800,6.370352783203125,-0.47709184885025024,-0.33292779326438904,-1.9837312698364258
1782846975934357800,6.380357666015625,-0.8329910635948181,-0.6688858270645142,-1.874171257019043
1782846975944362800,6.39036279296875,-1.0704193115234375,-0.87617027759552,-1.2349704504013062
1782846975954367700,6.40036767578125,-1.1481550931930542,-0.8323865532875061,-0.33941614627838135
1782846975964372700,6.410372802734375,-1.021021842956543,-0.537811279296875,0.3973187506198883
1782846975974377700,6.420377685546875,-0.6201652884483337,-0.12602105736732483,0.7066571116447449
1782846975984382700,6.4303828125,-0.011445613577961922,0.2660073935985565,0.5452467799186707
1782846975994388700,6.440388671875,0.5534912943840027,0.5746731162071228,0.09322230517864227
1782846976004393700,6.450393798828125,0.8192399144172668,0.7413758635520935,-0.3888365924358368
1782846976014398700,6.460398681640625,0.8346953392028809,0.7131590843200684,-0.7167715430259705
1782846976024403700,6.47040380859375,0.7040027976036072,0.4539680778980255,-0.8699400424957275
1782846976034409000,6.480408935546875,0.5104514360427856,0.025994382798671722,-0.8988246917724609
1782846976044414000,6.4904140625,0.31607291102409363,-0.43361520767211914,-0.8583688735961914
1782846976054419000,6.5004189453125,0.14465029537677765,-0.7650865912437439,-0.7651609182357788
1782846976064425000,6.510425048828125,-0.006461462005972862,-0.8925833106040955,-0.6149215698242188
1782846976074430000,6.520429931640625,-0.13246187567710876,-0.873252272605896,-0.43600261211395264
1782846976084435000,6.53043505859375,-0.21163266897201538,-0.7618823051452637,-0.2794620096683502
1782846976094440000,6.54043994140625,-0.21610970795154572,-0.5835729837417603,-0.15445110201835632
1782846976104445000,6.55044482421875,-0.16783219575881958,-0.41225141286849976,-0.08985569328069687
1782846976114450000,6.560449951171875,-0.10929272323846817,-0.2826247215270996,-0.07706879079341888
1782846976124455000,6.570454833984375,-0.06585344672203064,-0.18705269694328308,-0.12388088554143906
1782846976134461000,6.5804609375,-0.07037975639104843,-0.12000414729118347,-0.2377786785364151
1782846976144466000,6.5904658203125,-0.09802860766649246,-0.0938376858830452,-0.374297171831131
1782846976154471000,6.600470947265625,-0.13918083906173706,-0.1033150777220726,-0.490214467048645
1782846976164476000,6.610475830078125,-0.17500224709510803,-0.1160120815038681,-0.5801131129264832
1782846976174481000,6.62048095703125,-0.2160189151763916,-0.10449390858411789,-0.6213659644126892
1782846976184486000,6.63048583984375,-0.24707035720348358,-0.06335417926311493,-0.5987683534622192
1782846976194492000,6.640491943359375,-0.2629105746746063,-0.014554948545992374,-0.5148955583572388
1782846976204497000,6.650496826171875,-0.2474156618118286,0.050954245030879974,-0.42335590720176697
1782846976214502000,6.660501953125,-0.20353342592716217,0.09963630139827728,-0.33470407128334045
1782846976224507000,6.6705068359375,-0.11479464918375015,0.10924261063337326,-0.251309871673584
1782846976234512000,6.680511962890625,0.0181447584182024,0.09863044321537018,-0.1659473180770874
1782846976244516900,6.690516845703125,0.17664720118045807,0.07022675126791,-0.10887149721384048
1782846976254521900,6.70052197265625,0.2883591055870056,-0.0007510236464440823,-0.09446672350168228
1782846976264528100,6.710528076171875,0.34907904267311096,-0.035541336983442307,-0.09860841184854507
1782846976274533000,6.720533203125,0.37445923686027527,-0.012410718016326427,-0.1115441843867302
1782846976284538000,6.7305380859375,0.3557630479335785,0.10954048484563828,-0.13804982602596283
1782846976294543000,6.740543212890625,0.2837162911891937,0.33298903703689575,-0.13565590977668762
1782846976304548000,6.750548095703125,0.15813492238521576,0.5798315405845642,-0.03421993553638458
1782846976314553000,6.760552978515625,0.019322188571095467,0.7690933346748352,0.1905154436826706
1782846976324558800,6.770558837890625,-0.07878564298152924,0.7474152445793152,0.49330854415893555
1782846976334564000,6.780564208984375,-0.1227049008011818,0.6196405291557312,0.7799432277679443
1782846976344569000,6.790569091796875,-0.1108478307723999,0.5181373953819275,0.9640408158302307
1782846976354574000,6.800573974609375,-0.02715293876826763,0.44078531861305237,1.0673775672912598
1782846976364579000,6.8105791015625,0.10184735059738159,0.3160773515701294,1.1159907579421997
1782846976374584000,6.820583984375,0.21557338535785675,0.1310364007949829,1.1183639764785767
1782846976384589000,6.830589111328125,0.25536635518074036,-0.040953993797302246,1.129634976387024
1782846976394594800,6.8405947265625,0.23517264425754547,-0.1469360888004303,1.1979734897613525
1782846976404599800,6.850599853515625,0.2097734808921814,-0.15055479109287262,1.254469871520996
1782846976414604800,6.860604736328125,0.20198559761047363,-0.05495821312069893,1.194390058517456
1782846976424609800,6.87060986328125,0.22184200584888458,0.08546145260334015,0.9913058876991272
1782846976434614800,6.88061474609375,0.2766599655151367,0.2215905338525772,0.685735821723938
1782846976444619800,6.890619873046875,0.35306718945503235,0.3211248219013214,0.32543420791625977
1782846976454625800,6.900625732421875,0.4197458326816559,0.362697035074234,-0.03349388763308525
1782846976464630800,6.910630859375,0.4635160267353058,0.33731046319007874,-0.32140740752220154
1782846976474635800,6.9206357421875,0.46897098422050476,0.25044718384742737,-0.4678056240081787
1782846976484640800,6.930640869140625,0.429019957780838,0.1282651722431183,-0.45749494433403015
1782846976494645800,6.940645751953125,0.3763735294342041,-0.02893562987446785,-0.33978989720344543
1782846976504650800,6.950650634765625,0.3456101715564728,-0.20545370876789093,-0.1649245023727417
1782846976514655700,6.96065576171875,0.35273411870002747,-0.3645615875720978,0.03564055636525154
1782846976524662000,6.970662109375,0.39385488629341125,-0.4718562364578247,0.22541487216949463
1782846976534667000,6.9806669921875,0.4501919448375702,-0.5293288826942444,0.3729257881641388
1782846976544672000,6.990672119140625,0.513649582862854,-0.5432564616203308,0.4700120985507965
1782846976554677000,7.000677001953125,0.5763925909996033,-0.5509485006332397,0.5287401080131531
1782846976564682000,7.010681884765625,0.6374996900558472,-0.5702608227729797,0.5486493706703186
1782846976574687000,7.02068701171875,0.6812402606010437,-0.5598244667053223,0.5215356945991516
1782846976584693000,7.03069287109375,0.6858226656913757,-0.4868718087673187,0.446761816740036
1782846976594698000,7.040697998046875,0.6713367104530334,-0.37702733278274536,0.349854975938797
1782846976604703000,7.050702880859375,0.6280381083488464,-0.2711993455886841,0.24759145081043243
1782846976614708000,7.0607080078125,0.5500644445419312,-0.19867534935474396,0.14809095859527588
1782846976624713000,7.070712890625,0.4433404505252838,-0.12954860925674438,0.0624808594584465
1782846976634718000,7.080718017578125,0.3149142861366272,-0.05800652131438255,0.015445971861481667
1782846976644723000,7.090722900390625,0.18435707688331604,-0.009081323631107807,0.009813652373850346
1782846976654729000,7.10072900390625,0.042426034808158875,0.032169442623853683,0.02985154092311859
1782846976664734000,7.11073388671875,-0.11618919670581818,0.06394089013338089,0.0391499325633049
1782846976674739000,7.120739013671875,-0.27811577916145325,0.09214669466018677,0.007465503644198179
1782846976684744000,7.130743896484375,-0.41040804982185364,0.09966526925563812,-0.06651268154382706
1782846976694749000,7.1407490234375,-0.48955586552619934,0.06910256296396255,-0.16432952880859375
1782846976704754000,7.15075390625,-0.501784086227417,0.021312013268470764,-0.2632623612880707
1782846976714760000,7.160760009765625,-0.480830579996109,-0.01349576935172081,-0.34186530113220215
1782846976724765000,7.170764892578125,-0.4706341326236725,-0.006986402440816164,-0.38878002762794495
1782846976734770000,7.18077001953125,-0.47290152311325073,0.02290119044482708,-0.3705538809299469
1782846976744775000,7.19077490234375,-0.4857252240180969,0.036989036947488785,-0.3167574405670166
1782846976754780000,7.20077978515625,-0.5102667808532715,0.04082931578159332,-0.25314173102378845
1782846976764785000,7.210784912109375,-0.5339330434799194,0.0715213492512703,-0.18540476262569427
1782846976774791000,7.220791015625,-0.5518087148666382,0.12566819787025452,-0.11360273510217667
1782846976784796000,7.2307958984375,-0.5650917291641235,0.16450047492980957,-0.02889314852654934
1782846976794801000,7.24080078125,-0.5816035866737366,0.19363385438919067,0.05516740307211876
1782846976804806000,7.250805908203125,-0.6001593470573425,0.21229088306427002,0.10036498308181763
1782846976814811000,7.260810791015625,-0.611110270023346,0.2352001965045929,0.06546692550182343
1782846976824815900,7.27081591796875,-0.6128137111663818,0.3529411256313324,-0.013431299477815628
1782846976834820900,7.28082080078125,-0.6161152124404907,0.6426445841789246,-0.08301836997270584
1782846976844827000,7.290826904296875,-0.6133643984794617,1.0764371156692505,-0.08380202203989029
1782846976854831900,7.300831787109375,-0.5912068486213684,1.4848510026931763,-0.05281774327158928
1782846976864836900,7.3108369140625,-0.5408434867858887,1.6735600233078003,-0.038113657385110855
1782846976874841900,7.320841796875,-0.45417705178260803,1.5716267824172974,-0.18938785791397095
1782846976884846800,7.330846923828125,-0.3852473497390747,1.2588450908660889,-0.6049124598503113
1782846976894851800,7.340851806640625,-0.3605955243110657,0.9202347993850708,-1.4043428897857666
1782846976904857900,7.35085791015625,-0.49452126026153564,0.6337056159973145,-2.61863374710083
1782846976914862800,7.36086279296875,-0.9214387536048889,0.37459495663642883,-3.6223249435424805
1782846976924867800,7.370867919921875,-1.3850808143615723,0.10724415630102158,-3.8166847229003906
1782846976934872800,7.380872802734375,-1.5498663187026978,-0.24718104302883148,-3.2668917179107666
1782846976944877800,7.3908779296875,-1.4157638549804688,-0.5866977572441101,-2.2357606887817383
1782846976954882800,7.4008828125,-1.170835256576538,-0.6036975383758545,-0.9872722625732422
1782846976964887800,7.4108876953125,-0.9179716110229492,-0.28727301955223083,0.0608484148979187
1782846976974894000,7.42089404296875,-0.6457310318946838,0.13051250576972961,0.46406376361846924
1782846976984899000,7.430899169921875,-0.2969606816768646,0.33778271079063416,0.09427289664745331
1782846976994903300,7.4409033203125,0.2135060578584671,0.12136226147413254,-0.5584537982940674
1782846977004908300,7.450908203125,0.6695008277893066,-0.39657652378082275,-0.8866310715675354
1782846977014913300,7.460913330078125,0.770491898059845,-0.7216259837150574,-0.7940388321876526
1782846977024918300,7.470918212890625,0.7550439834594727,-0.5414934158325195,-0.4236399233341217
1782846977034924300,7.48092431640625,0.7327365279197693,-0.16607558727264404,0.0633249431848526
1782846977044929300,7.49092919921875,0.741134524345398,0.1360502541065216,0.4480651915073395
1782846977054934300,7.500934326171875,0.726049542427063,0.3373735249042511,0.6626707315444946
1782846977064939300,7.510939208984375,0.6507773995399475,0.41120946407318115,0.7048608064651489
1782846977074944300,7.5209443359375,0.5033301115036011,0.39338067173957825,0.6603093147277832
1782846977084949200,7.53094921875,0.28920766711235046,0.2875019311904907,0.59774249792099
1782846977094954200,7.540954345703125,0.05568493530154228,0.03779994696378708,0.5630673766136169
1782846977104960300,7.550960205078125,-0.1493748277425766,-0.46707266569137573,0.5969870090484619
1782846977114965200,7.56096533203125,-0.33967846632003784,-0.8010367751121521,0.5955105423927307
1782846977124970200,7.57097021484375,-0.41490164399147034,-0.8560892939567566,0.580049991607666
1782846977134975200,7.580975341796875,-0.3678978979587555,-0.8234602212905884,0.6083897352218628
1782846977144980200,7.590980224609375,-0.2819015681743622,-0.6671028137207031,0.6849501729011536
1782846977154985200,7.600985107421875,-0.20548270642757416,-0.41809409856796265,0.7684714794158936
1782846977164991500,7.610991455078125,-0.1361115723848343,-0.16496869921684265,0.8042100071907043
1782846977174996500,7.62099658203125,-0.07187611609697342,0.0458761528134346,0.7939531207084656
1782846977185001500,7.63100146484375,-0.013058066368103027,0.1505861133337021,0.7644195556640625
1782846977195006500,7.64100634765625,0.06798272579908371,0.13550622761249542,0.7409195303916931
1782846977205011500,7.651011474609375,0.19077353179454803,0.01508649904280901,0.6910743117332458
1782846977215016400,7.661016357421875,0.32111263275146484,-0.15426284074783325,0.5613450407981873
1782846977225022200,7.671022216796875,0.4190259873867035,-0.21306873857975006,0.33499443531036377
1782846977235027200,7.681027099609375,0.5040056109428406,-0.1624969094991684,0.05699583888053894
1782846977245032200,7.6910322265625,0.5554329752922058,-0.09574873000383377,-0.18088924884796143
1782846977255037200,7.701037109375,0.5878859758377075,-0.09427253901958466,-0.338760644197464
1782846977265042400,7.71104248046875,0.6150121092796326,-0.10275417566299438,-0.39701196551322937
1782846977275047400,7.72104736328125,0.6155343651771545,-0.002903746208176017,-0.3898586928844452
1782846977285052400,7.731052490234375,0.6002600789070129,0.11814777553081512,-0.3148564100265503
1782846977295058200,7.74105810546875,0.5675585865974426,0.1576845347881317,-0.17779283225536346
1782846977305063200,7.751063232421875,0.4751873016357422,0.10985245555639267,-0.03269496560096741
1782846977315068200,7.761068115234375,0.3251940906047821,-0.04304707795381546,0.08361832797527313
1782846977325073200,7.7710732421875,0.14726462960243225,-0.25270918011665344,0.14388523995876312
1782846977335078100,7.781078125,0.0063466522842645645,-0.4261062741279602,0.13229677081108093
1782846977345083100,7.791083251953125,-0.11667686700820923,-0.49683019518852234,0.055249299854040146
1782846977355089200,7.801089111328125,-0.2463805377483368,-0.3560195565223694,-0.03401293605566025
1782846977365094100,7.81109423828125,-0.34037795662879944,-0.10090747475624084,-0.006711751222610474
1782846977375099400,7.821099365234375,-0.33326226472854614,0.11970292031764984,0.1900857388973236
1782846977385104400,7.8311044921875,-0.22214818000793457,0.3120354115962982,0.5249924659729004
1782846977395109400,7.841109375,-0.06593620032072067,0.5438084006309509,0.8750719428062439
1782846977405114400,7.8511142578125,0.05009585991501808,0.7837358117103577,1.1145265102386475
1782846977415119400,7.861119384765625,0.1318112164735794,0.960940957069397,1.173730731010437
1782846977425125400,7.87112548828125,0.2005244642496109,1.058068871498108,1.0646286010742188
1782846977435130400,7.88113037109375,0.21702700853347778,0.9768084287643433,0.8643905520439148
1782846977445135400,7.89113525390625,0.21299344301223755,0.9197227954864502,0.637717604637146
1782846977455140400,7.901140380859375,0.20844289660453796,0.6460023522377014,0.32097214460372925
1782846977465145300,7.911145263671875,0.19425413012504578,0.23247237503528595,0.042266152799129486
1782846977475150300,7.921150390625,0.11080904304981232,-0.06539633870124817,-0.1438390165567398
1782846977485156400,7.93115625,-0.037533361464738846,-0.32766348123550415,-0.26189881563186646
1782846977495161300,7.941161376953125,-0.16624073684215546,-0.5106164813041687,-0.33147284388542175
1782846977505166300,7.951166259765625,-0.2686777114868164,-0.606842041015625,-0.348886638879776
1782846977515171300,7.96117138671875,-0.3669419586658478,-0.5613216757774353,-0.3336687982082367
1782846977525176300,7.97117626953125,-0.4320618808269501,-0.48407822847366333,-0.33913975954055786
1782846977535181300,7.981181396484375,-0.46273374557495117,-0.41318273544311523,-0.38911184668540955
1782846977545186300,7.991186279296875,-0.47323453426361084,-0.36964619159698486,-0.4870644211769104
1782846977555192300,8.0011923828125,-0.45857304334640503,-0.3534014821052551,-0.6024045944213867
1782846977565197300,8.011197265625,-0.40596577525138855,-0.42089781165122986,-0.6876239776611328
1782846977575202300,8.021202392578125,-0.2753680944442749,-0.4927304685115814,-0.7107871174812317
1782846977585207300,8.031207275390624,-0.07439947873353958,-0.5594238638877869,-0.6384599804878235
1782846977595212300,8.04121240234375,0.11871059238910675,-0.6146040558815002,-0.451321005821228
1782846977605217300,8.05121728515625,0.2269526869058609,-0.45522651076316833,-0.16534720361232758
1782846977615223300,8.061223388671875,0.2710389196872711,-0.1965680569410324,0.1866220086812973
1782846977625228300,8.071228271484374,0.2926684021949768,0.07313863933086395,0.4995737373828888
1782846977635233300,8.0812333984375,0.3335399329662323,0.2703116238117218,0.7369948029518127
1782846977645238300,8.09123828125,0.3380538821220398,0.3143322169780731,0.8657161593437195
1782846977655243500,8.101243408203125,0.28935638070106506,0.21682430803775787,0.8669185638427734
1782846977665248500,8.11124853515625,0.21176494657993317,0.06650251150131226,0.7655577063560486
1782846977675253500,8.12125341796875,0.131492480635643,-0.04092594236135483,0.5953865051269531
1782846977685259300,8.13125927734375,0.05913930386304855,-0.04890699312090874,0.3938954472541809
1782846977695264300,8.14126416015625,0.010268965736031532,0.019084041938185692,0.20308980345726013
1782846977705269200,8.151269287109375,-0.023813501000404358,0.07577904313802719,0.06801126897335052
1782846977715274200,8.161274169921874,-0.061567533761262894,0.07992398738861084,-0.002117488533258438
1782846977725279200,8.171279296875,-0.09834703803062439,0.0259457565844059,-0.035875339061021805
1782846977735284200,8.1812841796875,-0.12057245522737503,-0.05552806705236435,-0.07452765852212906
1782846977745290200,8.191290283203125,-0.13181939721107483,-0.1127011626958847,-0.12915895879268646
1782846977755295200,8.201295166015624,-0.12345573306083679,-0.13758067786693573,-0.18474553525447845
1782846977765300200,8.21130029296875,-0.10329615324735641,-0.1490890085697174,-0.21112169325351715
1782846977775305200,8.22130517578125,-0.07675935328006744,-0.1382688581943512,-0.20038142800331116
1782846977785310200,8.231310302734375,-0.051792632788419724,-0.09550469368696213,-0.1743391901254654
1782846977795315200,8.241315185546876,-0.028087304905056953,-0.03396037220954895,-0.1484908163547516
1782846977805320200,8.2513203125,-0.01624516397714615,0.02648829109966755,-0.12041594088077545
1782846977815326200,8.261326171875,-0.007127564866095781,0.09044037759304047,-0.0982014536857605
1782846977825331200,8.271331298828125,0.00709983054548502,0.14842770993709564,-0.05085374414920807
1782846977835336200,8.281336181640626,0.025280166417360306,0.19803094863891602,0.04085993021726608
1782846977845341200,8.291341064453125,0.030306324362754822,0.2843058407306671,0.1719934046268463
1782846977855346200,8.30134619140625,0.04361280798912048,0.40927654504776,0.3053157925605774
1782846977865351200,8.31135107421875,0.0213204026222229,0.5425521731376648,0.42752689123153687
1782846977875357400,8.321357421875,-0.005333577282726765,0.686577558517456,0.5122937560081482
1782846977885362400,8.331362548828125,-0.007714351639151573,0.8003228902816772,0.5064219236373901
1782846977895367400,8.341367431640625,-0.008860842324793339,0.7291259765625,0.3896995484828949
1782846977905372400,8.351372314453124,0.016085529699921608,0.47923895716667175,0.17976000905036926
1782846977915377400,8.36137744140625,0.08527525514364243,0.17131547629833221,-0.11800642311573029
1782846977925382400,8.37138232421875,0.17987878620624542,-0.004339198581874371,-0.5102702379226685
1782846977935387400,8.381387451171875,0.231017604470253,0.06653071194887161,-0.9884001016616821
1782846977945393400,8.391393310546874,0.18062157928943634,0.255956768989563,-1.4018433094024658
1782846977955398400,8.4013984375,0.08948048949241638,0.373375803232193,-1.5294580459594727
1782846977965403400,8.4114033203125,0.035492297261953354,0.2788892388343811,-1.322824239730835
1782846977975408400,8.421408447265625,0.028017867356538773,0.03321743756532669,-0.8808934688568115
1782846977985413400,8.431413330078126,-0.001239315839484334,-0.14245891571044922,-0.3554827868938446
1782846977995419100,8.441419189453125,-0.06945139169692993,-0.15295469760894775,0.05835593119263649
1782846978005425200,8.451425048828124,-0.15279865264892578,-0.05865839123725891,0.23348304629325867
1782846978015430100,8.46143017578125,-0.18861471116542816,0.06517539918422699,0.1329021155834198
1782846978025435100,8.47143505859375,-0.15393675863742828,0.14220650494098663,-0.13103172183036804
1782846978035440000,8.481440185546875,-0.14603808522224426,0.1174287274479866,-0.39329394698143005
1782846978045445000,8.491445068359376,-0.158701553940773,0.020574316382408142,-0.5480347275733948
1782846978055450000,8.5014501953125,-0.2296934425830841,-0.10100218653678894,-0.5478429794311523
1782846978065455000,8.511455078125,-0.3196302354335785,-0.15733416378498077,-0.445774644613266
1782846978075461000,8.521461181640625,-0.3132154941558838,-0.1314764767885208,-0.2733818292617798
1782846978085466000,8.531466064453125,-0.17660760879516602,-0.08652850240468979,-0.07493670284748077
1782846978095471000,8.54147119140625,-0.012248759157955647,-0.07323773205280304,0.1212112307548523
1782846978105476000,8.55147607421875,0.1299530565738678,-0.06058396399021149,0.29038527607917786
1782846978115481000,8.561481201171874,0.20417216420173645,-0.058770887553691864,0.4108693599700928
1782846978125486000,8.571486083984375,0.24553366005420685,-0.0741107314825058,0.479754775762558
1782846978135492000,8.5814921875,0.2855154275894165,-0.13418258726596832,0.5188286900520325
1782846978145497000,8.5914970703125,0.32077670097351074,-0.2321104258298874,0.5395987033843994
1782846978155502000,8.601502197265624,0.33192893862724304,-0.32576897740364075,0.5419540405273438
1782846978165507000,8.611507080078125,0.30946919322013855,-0.3562958836555481,0.5360608696937561
1782846978175512000,8.621511962890626,0.2549455165863037,-0.31447333097457886,0.5260633826255798
1782846978185517000,8.63151708984375,0.18998579680919647,-0.19560031592845917,0.5223357677459717
1782846978195522000,8.64152197265625,0.12849633395671844,-0.0301988385617733,0.5384622812271118
1782846978205528300,8.6515283203125,0.09162115305662155,0.12881052494049072,0.5648890137672424
1782846978215533300,8.661533203125,0.06960746645927429,0.2597946524620056,0.6113508343696594
1782846978225538300,8.671538330078125,0.022341102361679077,0.5803463459014893,0.8098964095115662
1782846978235543300,8.681543212890626,-0.06385929882526398,0.7120338082313538,1.0929532051086426
1782846978245548300,8.69154833984375,-0.07013166695833206,0.5700885653495789,1.0593366622924805
1782846978255553300,8.70155322265625,0.02284514717757702,0.05849558860063553,0.5821706056594849
1782846978265558300,8.711558349609374,0.06057937070727348,-0.4608408510684967,0.10213367640972137
1782846978275564300,8.721564208984375,0.05946563929319382,-0.9030544757843018,-0.23405233025550842
1782846978285569300,8.7315693359375,0.03642210736870766,-0.9869813323020935,-0.28716135025024414
1782846978295574300,8.74157421875,-0.041328880935907364,-0.782435417175293,-0.17096710205078125
