time,seconds_elapsed,z,y,x
1782845466913764400,0.068764404296875,-0.19464591145515442,-0.04568839073181152,-0.052254680544137955
1782845466923768300,0.078768310546875,-0.20783735811710358,-0.04595790430903435,-0.04153386130928993
1782845466933773300,0.088773193359375,-0.2210649996995926,-0.039389219135046005,-0.028611138463020325
1782845466943778300,0.0987783203125,-0.22966675460338593,-0.03347859904170036,-0.013646037317812443
1782845466953782300,0.1087822265625,-0.2391207069158554,-0.02160356193780899,-0.007436877116560936
1782845466963787300,0.118787353515625,-0.23889033496379852,-0.01378212496638298,-0.012991432100534439
1782845466973791500,0.12879150390625,-0.23348252475261688,-0.01804238371551037,-0.028247617185115814
1782845466983796500,0.13879638671875,-0.22465334832668304,-0.021832594648003578,-0.04387877508997917
1782845466993801500,0.148801513671875,-0.21148455142974854,-0.023498933762311935,-0.060993313789367676
1782845467003805400,0.158805419921875,-0.20465993881225586,-0.01792760193347931,-0.07819972932338715
1782845467013810400,0.168810546875,-0.2003309577703476,-0.008711732923984528,-0.08719216287136078
1782845467023815400,0.1788154296875,-0.20168331265449524,-0.005553489550948143,-0.0875554159283638
1782845467033819100,0.188819091796875,-0.19497428834438324,-0.005255215801298618,-0.0760742574930191
1782845467043824000,0.19882421875,-0.17724508047103882,-0.014218883588910103,-0.05871231481432915
1782845467053828400,0.208828369140625,-0.15817685425281525,-0.020679978653788567,-0.04830308258533478
1782845467063833300,0.218833251953125,-0.13932274281978607,-0.014581073075532913,-0.03596785292029381
1782845467073838300,0.22883837890625,-0.11714500188827515,-0.012031628750264645,-0.0227415319532156
1782845467083842300,0.23884228515625,-0.09565648436546326,-0.007419300265610218,-0.009946906939148903
1782845467093847300,0.248847412109375,-0.06985045224428177,-0.012866529636085033,0.0073561836034059525
1782845467103852300,0.258852294921875,-0.04303694888949394,-0.028552815318107605,0.026041187345981598
1782845467113856300,0.268856201171875,-0.02292129397392273,-0.04526468366384506,0.041724544018507004
1782845467123861200,0.278861328125,0.0014921691035851836,-0.062187738716602325,0.05528562515974045
1782845467133865500,0.288865478515625,0.034892737865448,-0.08472367376089096,0.07883302867412567
1782845467143870500,0.298870361328125,0.0760313868522644,-0.09634517878293991,0.11557453125715256
1782845467153875500,0.30887548828125,0.11368315666913986,-0.10668117552995682,0.1530500054359436
1782845467163879400,0.31887939453125,0.13333062827587128,-0.10659568756818771,0.20107212662696838
1782845467173884400,0.328884521484375,0.13381825387477875,-0.10091489553451538,0.23160313069820404
1782845467183888100,0.33888818359375,0.10077641159296036,-0.08540783822536469,0.2322995513677597
1782845467193893000,0.34889306640625,0.039734628051519394,-0.05997997894883156,0.21653150022029877
1782845467203898000,0.358898193359375,-0.02978053316473961,-0.038973499089479446,0.17315687239170074
1782845467213902300,0.36890234375,-0.08364429324865341,-0.00983505416661501,0.09878649562597275
1782845467223907300,0.3789072265625,-0.10716959834098816,0.02155216410756111,0.011281150393188
1782845467233912300,0.388912353515625,-0.10355222225189209,0.038052044808864594,-0.07163237780332565
1782845467243916300,0.398916259765625,-0.0837220624089241,0.028504878282546997,-0.14967763423919678
1782845467253921300,0.40892138671875,-0.044547758996486664,-0.01447161752730608,-0.21455250680446625
1782845467263925200,0.41892529296875,0.0009049421059899032,-0.07305982708930969,-0.2567439079284668
1782845467273930200,0.42893017578125,0.036073580384254456,-0.12730416655540466,-0.2774558365345001
1782845467283935200,0.438935302734375,0.05613623932003975,-0.13875016570091248,-0.2666045129299164
1782845467293939500,0.448939453125,0.07072397321462631,-0.16203391551971436,-0.24108105897903442
1782845467303944400,0.4589443359375,0.08991178125143051,-0.18710064888000488,-0.1975058764219284
1782845467313948400,0.468948486328125,0.1081581637263298,-0.18713073432445526,-0.13881833851337433
1782845467323953400,0.478953369140625,0.12754064798355103,-0.17994047701358795,-0.06816067546606064
1782845467333958400,0.48895849609375,0.14957883954048157,-0.17874151468276978,-0.0028482507914304733
1782845467343962000,0.498962158203125,0.17681019008159637,-0.17486076056957245,0.05056250840425491
1782845467353967000,0.508967041015625,0.20384500920772552,-0.1751244068145752,0.11148498207330704
1782845467363972400,0.518972412109375,0.2284720540046692,-0.1557171642780304,0.1856878399848938
1782845467373976300,0.528976318359375,0.24710991978645325,-0.1512204110622406,0.25815191864967346
1782845467383981300,0.538981201171875,0.2552456259727478,-0.15420235693454742,0.30347439646720886
1782845467393985300,0.5489853515625,0.2375158816576004,-0.14932583272457123,0.343628466129303
1782845467403990300,0.558990234375,0.19244827330112457,-0.16723692417144775,0.3558899462223053
1782845467413995300,0.568995361328125,0.12016022950410843,-0.09846505522727966,0.3319435715675354
1782845467423999200,0.578999267578125,0.027167705819010735,-0.03965766355395317,0.2775343954563141
1782845467434004200,0.589004150390625,-0.06596437096595764,0.0005102616851218045,0.19024397432804108
1782845467444008400,0.599008544921875,-0.15183906257152557,0.009077117778360844,0.08369196951389313
1782845467454013400,0.609013427734375,-0.2306574434041977,-0.03707493096590042,-0.02935815416276455
1782845467464018400,0.619018310546875,-0.2974924147129059,-0.10934086889028549,-0.12243004143238068
1782845467474022400,0.6290224609375,-0.3384896218776703,-0.16541185975074768,-0.20113231241703033
1782845467484027400,0.63902734375,-0.3563160300254822,-0.21110612154006958,-0.24952806532382965
1782845467494032400,0.649032470703125,-0.35745373368263245,-0.2496817409992218,-0.26586949825286865
1782845467504036400,0.659036376953125,-0.37199485301971436,-0.23205134272575378,-0.2479429543018341
1782845467514041300,0.669041259765625,-0.3791406452655792,-0.1938789188861847,-0.2207973599433899
1782845467524045300,0.67904541015625,-0.35367897152900696,-0.19348157942295074,-0.20081086456775665
1782845467534050300,0.68905029296875,-0.3230326473712921,-0.17243994772434235,-0.1763761043548584
1782845467544055300,0.69905517578125,-0.2902936041355133,-0.16154815256595612,-0.1622736006975174
1782845467554059300,0.709059326171875,-0.2548733055591583,-0.17201757431030273,-0.15749402344226837
1782845467564064300,0.719064208984375,-0.20666955411434174,-0.17311106622219086,-0.17301172018051147
1782845467574068200,0.729068115234375,-0.1522449254989624,-0.16828301548957825,-0.19571730494499207
1782845467584073200,0.7390732421875,-0.08228235691785812,-0.1700364500284195,-0.203904390335083
1782845467594078200,0.749078125,-0.020050939172506332,-0.1622256636619568,-0.19790615141391754
1782845467604082400,0.75908251953125,0.024820128455758095,-0.14821769297122955,-0.18435253202915192
1782845467614087400,0.76908740234375,0.04956142604351044,-0.134381502866745,-0.1812094748020172
1782845467624092400,0.779092529296875,0.05991686135530472,-0.11389194428920746,-0.17775055766105652
1782845467634096400,0.789096435546875,0.05276307836174965,-0.10016041994094849,-0.1891893595457077
1782845467644101400,0.799101318359375,0.03671939671039581,-0.0887322649359703,-0.21798425912857056
1782845467654105300,0.809105224609375,0.01278503704816103,-0.07507078349590302,-0.24964232742786407
1782845467664110300,0.8191103515625,-0.025541845709085464,-0.06040608510375023,-0.3094494640827179
1782845467674115300,0.829115234375,-0.07536718994379044,-0.03804938122630119,-0.3683987855911255
1782845467684119300,0.839119384765625,-0.12328358739614487,-0.013697169721126556,-0.42868104577064514
1782845467694124300,0.849124267578125,-0.1649460792541504,0.019989952445030212,-0.48054638504981995
1782845467704128300,0.859128173828125,-0.20363754034042358,0.040884315967559814,-0.5191704630851746
1782845467714133200,0.86913330078125,-0.241095170378685,0.05843401327729225,-0.5359941720962524
1782845467724138200,0.87913818359375,-0.27249598503112793,0.06654227524995804,-0.5197867155075073
1782845467734142200,0.88914208984375,-0.2843853831291199,0.05811044201254845,-0.46221503615379333
1782845467744147200,0.899147216796875,-0.2793930172920227,0.03663284704089165,-0.3798826038837433
1782845467754152200,0.909152099609375,-0.2716189920902252,0.022878417745232582,-0.2920864522457123
1782845467764156400,0.919156494140625,-0.25636202096939087,0.00794554129242897,-0.20091766119003296
1782845467774161400,0.929161376953125,-0.2290310561656952,-0.013705958612263203,-0.12447428703308105
1782845467784165400,0.939165283203125,-0.20344527065753937,-0.04712729901075363,-0.04580583795905113
1782845467794169600,0.949169677734375,-0.17361760139465332,-0.060934457927942276,0.010088054463267326
1782845467804174600,0.959174560546875,-0.14573802053928375,-0.05103708431124687,0.03325995057821274
1782845467814178800,0.9691787109375,-0.12025823444128036,-0.030728617683053017,0.030611705034971237
1782845467824183800,0.979183837890625,-0.09471825510263443,-0.012034025974571705,0.010071010328829288
1782845467834187800,0.989187744140625,-0.07014180719852448,-0.009170329198241234,0.0009856359101831913
1782845467844192800,0.99919287109375,-0.05067356303334236,-0.01582210697233677,0.007733819540590048
1782845467854197800,1.00919775390625,-0.04044409468770027,-0.02406592108309269,0.015576829202473164
1782845467864201500,1.019201416015625,-0.03104287013411522,-0.03007614240050316,0.022910375148057938
1782845467874206500,1.02920654296875,-0.024566862732172012,-0.024210797622799873,0.03670182079076767
1782845467884211500,1.03921142578125,-0.02490348555147648,-0.025722673162817955,0.06238348409533501
1782845467894215700,1.049215576171875,-0.0329052209854126,-0.036726322025060654,0.09062204509973526
1782845467904220700,1.059220703125,-0.0466119758784771,-0.03480139002203941,0.11038349568843842
1782845467914224600,1.069224609375,-0.047260988503694534,-0.024087226018309593,0.11142852157354355
1782845467924229600,1.079229736328125,-0.05156039446592331,-0.012319516390562057,0.09465087205171585
1782845467934234600,1.089234619140625,-0.05859007686376572,0.007105846423655748,0.05658391863107681
1782845467944238600,1.099238525390625,-0.05055239051580429,0.027707528322935104,0.01841655746102333
1782845467954243600,1.10924365234375,-0.04102253541350365,0.028956551104784012,-0.007450992241501808
1782845467964247800,1.119247802734375,-0.02280304953455925,0.0275043286383152,-0.017725201323628426
1782845467974252800,1.129252685546875,0.0005984122981317341,0.030349915847182274,-0.014085991308093071
1782845467984257800,1.1392578125,0.021131383255124092,0.03098241612315178,0.011011105962097645
1782845467994261800,1.14926171875,0.039332225918769836,0.02785533294081688,0.03110385686159134
1782845468004266800,1.159266845703125,0.054836615920066833,0.027678232640028,0.0439315065741539
1782845468014271700,1.169271728515625,0.0741535872220993,0.04380553588271141,0.05216866359114647
1782845468024275500,1.179275390625,0.087092824280262,0.04324893653392792,0.07448941469192505
1782845468034280400,1.189280517578125,0.0993817150592804,0.04276344180107117,0.0875048115849495
1782845468044284700,1.19928466796875,0.10584787279367447,0.04514191299676895,0.09387989342212677
1782845468054289700,1.20928955078125,0.11402484029531479,0.042818304151296616,0.10605080425739288
1782845468064294700,1.219294677734375,0.1285310834646225,0.051722850650548935,0.10141796618700027
1782845468074298600,1.229298583984375,0.1439608931541443,0.0657755509018898,0.10224940627813339
1782845468084303600,1.2393037109375,0.16062243282794952,0.07796777039766312,0.10321879386901855
1782845468094307600,1.2493076171875,0.19002239406108856,0.10135404765605927,0.11540142446756363
1782845468104312600,1.2593125,0.21879012882709503,0.11896180361509323,0.12512728571891785
1782845468114317600,1.269317626953125,0.24979199469089508,0.12278424203395844,0.1398143619298935
1782845468124321800,1.27932177734375,0.27554184198379517,0.12868553400039673,0.16088715195655823
1782845468134326800,1.289326904296875,0.29442310333251953,0.12812840938568115,0.1855541467666626
1782845468144331800,1.299331787109375,0.29395920038223267,0.12287452071905136,0.20405779778957367
1782845468154335700,1.309335693359375,0.28217390179634094,0.11769814044237137,0.2167711853981018
1782845468164340700,1.3193408203125,0.26321619749069214,0.11182054132223129,0.20328068733215332
1782845468174344400,1.329344482421875,0.24416500329971313,0.10779464244842529,0.17054936289787292
1782845468184349400,1.339349365234375,0.22351191937923431,0.10470724105834961,0.12229954451322556
1782845468194354400,1.3493544921875,0.21210293471813202,0.10445024073123932,0.0799877792596817
1782845468204358700,1.359358642578125,0.20146147906780243,0.10274635255336761,0.04403270408511162
1782845468214363600,1.36936376953125,0.20168252289295197,0.10335568338632584,0.029700903221964836
1782845468224367600,1.37936767578125,0.20563837885856628,0.0936758890748024,0.03176698461174965
1782845468234372600,1.38937255859375,0.22324134409427643,0.08157448470592499,0.02148318849503994
1782845468244377600,1.399377685546875,0.24488192796707153,0.08713649958372116,0.02394368313252926
1782845468254381600,1.409381591796875,0.25775352120399475,0.09856918454170227,0.036848559975624084
1782845468264386600,1.419386474609375,0.26296931505203247,0.08975092321634293,0.052735649049282074
1782845468274391600,1.4293916015625,0.27111193537712097,0.05889793857932091,0.08649095147848129
1782845468284395800,1.439395751953125,0.2636220455169678,0.013918212614953518,0.11332815885543823
1782845468294400800,1.44940087890625,0.25487491488456726,-0.0320303700864315,0.12921550869941711
1782845468304404700,1.45940478515625,0.24092446267604828,-0.06864484399557114,0.12440823763608932
1782845468314409700,1.46940966796875,0.21877947449684143,-0.09519602358341217,0.11740519106388092
1782845468324414700,1.479414794921875,0.1934264600276947,-0.09847357869148254,0.11871200054883957
1782845468334418400,1.48941845703125,0.17489324510097504,-0.0896526575088501,0.11563339084386826
1782845468344423400,1.49942333984375,0.17103245854377747,-0.061468422412872314,0.11381631344556808
1782845468354427600,1.509427734375,0.17773351073265076,-0.05282912775874138,0.11655377596616745
1782845468364432600,1.5194326171875,0.2000177800655365,-0.05482330173254013,0.11255450546741486
1782845468374437600,1.529437744140625,0.2081204503774643,-0.04884210601449013,0.10601538419723511
1782845468384441600,1.539441650390625,0.18373867869377136,-0.06823897361755371,0.10885617882013321
1782845468394446600,1.549446533203125,0.13401825726032257,-0.06416007876396179,0.09766051173210144
1782845468404450600,1.559450439453125,0.06916522234678268,-0.037644848227500916,0.046546462923288345
1782845468414455600,1.56945556640625,0.02160542644560337,-0.008334629237651825,-0.03983236849308014
1782845468424460500,1.57946044921875,0.0016676714876666665,0.0344860702753067,-0.13677489757537842
1782845468434464800,1.58946484375,0.009700563736259937,0.06869916617870331,-0.21839918196201324
1782845468444469800,1.5994697265625,0.04436000809073448,0.08599906414747238,-0.2699132263660431
1782845468454474800,1.609474853515625,0.09169875830411911,0.07366996258497238,-0.2923698127269745
1782845468464478700,1.619478759765625,0.12960699200630188,0.02532106824219227,-0.2765498459339142
1782845468474483700,1.629483642578125,0.1417912244796753,-0.05211273580789566,-0.23995454609394073
1782845468484487400,1.6394873046875,0.13648328185081482,-0.12293630838394165,-0.17442107200622559
1782845468494492400,1.649492431640625,0.13296258449554443,-0.16035957634449005,-0.1019122526049614
1782845468504497400,1.659497314453125,0.12855318188667297,-0.1720692366361618,-0.022168418392539024
1782845468514501600,1.669501708984375,0.11380433291196823,-0.15988287329673767,0.04957713931798935
1782845468524506600,1.679506591796875,0.11062877625226974,-0.13568618893623352,0.10391122102737427
1782845468534511600,1.68951171875,0.11457664519548416,-0.12487668544054031,0.12386228889226913
1782845468544515600,1.699515625,0.11996475607156754,-0.1174406111240387,0.09244924038648605
1782845468554520600,1.7095205078125,0.11710398644208908,-0.11043117195367813,0.034329213201999664
1782845468564524500,1.719524658203125,0.11072065681219101,-0.09646821767091751,-0.0207500196993351
1782845468574529500,1.729529541015625,0.09608498960733414,-0.07381989806890488,-0.058877430856227875
1782845468584534500,1.739534423828125,0.06992395967245102,-0.058696068823337555,-0.06501095741987228
1782845468594538800,1.749538818359375,0.024030234664678574,-0.04194239154458046,-0.04839256778359413
1782845468604543700,1.759543701171875,-0.038784947246313095,-0.019594473764300346,-0.025852635502815247
1782845468614547700,1.769547607421875,-0.11455534398555756,0.00014620754518546164,-0.004685565363615751
1782845468624552700,1.779552734375,-0.20099622011184692,0.023143667727708817,0.013027118518948555
1782845468634557700,1.7895576171875,-0.28209108114242554,0.05970407649874687,0.01305428333580494
1782845468644561400,1.7995615234375,-0.36247512698173523,0.09728846698999405,0.004218447022140026
1782845468654566400,1.80956640625,-0.4357890188694,0.15538160502910614,-0.01756620965898037
1782845468664571600,1.819571533203125,-0.4933449923992157,0.22899377346038818,-0.018510567024350166
1782845468674575600,1.82957568359375,-0.5348186492919922,0.2874855697154999,0.0026940538082271814
1782845468684580600,1.83958056640625,-0.5635514855384827,0.33696043491363525,0.021205686032772064
1782845468694584600,1.84958447265625,-0.5677470564842224,0.3796578347682953,0.023380689322948456
1782845468704589600,1.859589599609375,-0.5388426780700684,0.3941715359687805,0.029578132554888725
1782845468714594600,1.869594482421875,-0.48889005184173584,0.37688735127449036,0.05332900211215019
1782845468724598500,1.8795986328125,-0.41700974106788635,0.3313957750797272,0.09109928458929062
1782845468734603500,1.889603515625,-0.3309542238712311,0.279296875,0.12824265658855438
1782845468744607700,1.899607666015625,-0.23946824669837952,0.23253443837165833,0.15690386295318604
1782845468754612700,1.90961279296875,-0.14450019598007202,0.1814454197883606,0.16965001821517944
1782845468764617700,1.91961767578125,-0.058280616998672485,0.12906184792518616,0.1834060400724411
1782845468774621700,1.92962158203125,0.0009456885163672268,0.10444624722003937,0.19067861139774323
1782845468784626700,1.939626708984375,0.039928507059812546,0.11940255761146545,0.20705251395702362
1782845468794631400,1.94963134765625,0.07869214564561844,0.15020520985126495,0.24072392284870148
1782845468804635600,1.9596357421875,0.10140571743249893,0.16777221858501434,0.2951999604701996
1782845468814640600,1.969640625,0.08479451388120651,0.1871427297592163,0.3383018970489502
1782845468824644400,1.979644287109375,0.045288652181625366,0.20930235087871552,0.3598569631576538
1782845468834649300,1.9896494140625,-0.0008103998843580484,0.2214929759502411,0.35341504216194153
1782845468844654300,1.999654296875,-0.053821418434381485,0.2284451574087143,0.3230680823326111
1782845468854658300,2.009658203125,-0.11865447461605072,0.24192315340042114,0.2610830068588257
1782845468864663300,2.019663330078125,-0.18623565137386322,0.23813453316688538,0.19179339706897736
1782845468874667500,2.02966748046875,-0.25120478868484497,0.2422800064086914,0.11778256297111511
1782845468884672500,2.039672607421875,-0.32796135544776917,0.25197339057922363,0.047688424587249756
1782845468894677500,2.049677490234375,-0.4034995138645172,0.2508266270160675,-0.009379653260111809
1782845468904681500,2.059681396484375,-0.4702087938785553,0.24988946318626404,-0.05056117847561836
1782845468914686500,2.0696865234375,-0.5214045643806458,0.22828003764152527,-0.07574828714132309
1782845468924691500,2.07969140625,-0.5639837384223938,0.19918687641620636,-0.09400665760040283
1782845468934695400,2.0896953125,-0.5931709408760071,0.17273609340190887,-0.10446355491876602
1782845468944700400,2.099700439453125,-0.6208683252334595,0.15060202777385712,-0.11376704275608063
1782845468954704600,2.10970458984375,-0.6424815058708191,0.12693051993846893,-0.11643286794424057
1782845468964709600,2.119709716796875,-0.6510166525840759,0.11812956631183624,-0.11364107578992844
1782845468974714600,2.129714599609375,-0.6525394320487976,0.11493830382823944,-0.10675893723964691
1782845468984718300,2.13971826171875,-0.6344634890556335,0.11011185497045517,-0.10737412422895432
1782845468994723300,2.149723388671875,-0.6097823977470398,0.09737768769264221,-0.11696363985538483
1782845469004727300,2.159727294921875,-0.575100302696228,0.07534296065568924,-0.12291739881038666
1782845469014732300,2.169732177734375,-0.5283682346343994,0.05110233277082443,-0.13570083677768707
1782845469024737300,2.1797373046875,-0.47809386253356934,0.025675268843770027,-0.14296594262123108
1782845469034741500,2.189741455078125,-0.4263305366039276,0.006551908794790506,-0.1529216319322586
1782845469044746500,2.19974658203125,-0.37525057792663574,-0.01128221582621336,-0.1549547016620636
1782845469054751500,2.20975146484375,-0.3376970887184143,-0.024945562705397606,-0.15011413395404816
1782845469064755500,2.21975537109375,-0.31251049041748047,-0.02899942733347416,-0.129539355635643
1782845469074760400,2.229760498046875,-0.3068392872810364,-0.030470291152596474,-0.10171864181756973
1782845469084764400,2.239764404296875,-0.30256280303001404,-0.030836209654808044,-0.08291272819042206
1782845469094769400,2.249769287109375,-0.2916390299797058,-0.040159404277801514,-0.07118549942970276
1782845469104774400,2.2597744140625,-0.27016037702560425,-0.05423421040177345,-0.06949998438358307
1782845469114778600,2.269778564453125,-0.2533547580242157,-0.07285982370376587,-0.06798464059829712
1782845469124783600,2.27978369140625,-0.23070351779460907,-0.08976423740386963,-0.05548882484436035
1782845469134787300,2.289787353515625,-0.21197457611560822,-0.11244052648544312,-0.03622245416045189
1782845469144792300,2.299792236328125,-0.21316207945346832,-0.12771375477313995,-0.026204172521829605
1782845469154797300,2.30979736328125,-0.21964633464813232,-0.1371394842863083,-0.021344702690839767
1782845469164801300,2.31980126953125,-0.22205889225006104,-0.14857162535190582,-0.02419162169098854
1782845469174806300,2.32980615234375,-0.22434602677822113,-0.16033267974853516,-0.03160319849848747
1782845469184811300,2.339811279296875,-0.22383175790309906,-0.17012539505958557,-0.04078498110175133
1782845469194815500,2.3498154296875,-0.21663270890712738,-0.17947761714458466,-0.03207271546125412
1782845469204820500,2.359820556640625,-0.203251913189888,-0.19632184505462646,-0.0041002025827765465
1782845469214824400,2.369824462890625,-0.1839487999677658,-0.21042674779891968,0.00033209618413820863
1782845469224829400,2.379829345703125,-0.14361095428466797,-0.2282067984342575,-0.00481446273624897
1782845469234834400,2.38983447265625,-0.0761517584323883,-0.24741964042186737,-0.014662032946944237
1782845469244838400,2.39983837890625,-0.0059745353646576405,-0.2698841989040375,0.016762735322117805
1782845469254843400,2.409843505859375,0.04831187054514885,-0.28201279044151306,0.102923184633255
1782845469264847600,2.41984765625,0.0955323800444603,-0.27961593866348267,0.2085321694612503
1782845469274852600,2.4298525390625,0.13502812385559082,-0.26176902651786804,0.3132631182670593
1782845469284857600,2.439857666015625,0.15552620589733124,-0.23509666323661804,0.38413622975349426
1782845469294861300,2.449861328125,0.16239982843399048,-0.2074277549982071,0.39701154828071594
1782845469304866600,2.459866455078125,0.1895741969347,-0.18124915659427643,0.37333735823631287
1782845469314871600,2.46987158203125,0.17154964804649353,-0.15009762346744537,0.2797674536705017
1782845469324875300,2.479875244140625,0.10014497488737106,-0.10213915258646011,0.08185065537691116
1782845469334880300,2.48988037109375,-0.004052532371133566,-0.08972855657339096,-0.1743057519197464
1782845469344884500,2.499884521484375,-0.10364729911088943,-0.12024624645709991,-0.41951072216033936
1782845469354889500,2.509889404296875,-0.17176297307014465,-0.19045010209083557,-0.6021284461021423
1782845469364894500,2.51989453125,-0.18063928186893463,-0.26659706234931946,-0.6645702719688416
1782845469374898400,2.5298984375,-0.13942979276180267,-0.32030317187309265,-0.5939871668815613
1782845469384903400,2.5399033203125,-0.07676775008440018,-0.3411317467689514,-0.4246274530887604
1782845469394908400,2.549908447265625,-0.02652614936232567,-0.34990713000297546,-0.24755573272705078
1782845469404912400,2.559912353515625,-0.013050021603703499,-0.3538547456264496,-0.11218619346618652
1782845469414917400,2.56991748046875,0.017257284373044968,-0.35309919714927673,0.002101234160363674
1782845469424921600,2.579921630859375,0.05897170677781105,-0.34511691331863403,0.10774297267198563
1782845469434926600,2.589926513671875,0.0770452469587326,-0.306009978055954,0.1851741224527359
1782845469444931600,2.599931640625,0.060375992208719254,-0.23237597942352295,0.23051176965236664
1782845469454935600,2.609935546875,0.04021213576197624,-0.131184384226799,0.23925092816352844
1782845469464940500,2.6199404296875,0.01643303595483303,-0.042811911553144455,0.24970251321792603
1782845469474944300,2.6299443359375,0.0068152956664562225,0.014594655483961105,0.27251407504081726
1782845469484949200,2.63994921875,0.006650445982813835,0.04453098401427269,0.2914808392524719
1782845469494954200,2.649954345703125,0.009459281340241432,0.05423101410269737,0.30375856161117554
1782845469504958500,2.65995849609375,0.011235077865421772,0.0566859170794487,0.30678096413612366
1782845469514963500,2.66996337890625,0.006960171274840832,0.06732817739248276,0.28546610474586487
1782845469524968400,2.679968505859375,0.014554974623024464,0.07971613109111786,0.22369274497032166
1782845469534972400,2.689972412109375,0.030372019857168198,0.09263326227664948,0.11507705599069595
1782845469544977400,2.699977294921875,0.04090135917067528,0.0980496034026146,-0.005114600993692875
1782845469554981400,2.7099814453125,0.05193430557847023,0.10069252550601959,-0.09556859731674194
1782845469564986400,2.719986328125,0.06698968261480331,0.10024537891149521,-0.16180993616580963
1782845469574991400,2.729991455078125,0.07142198830842972,0.09199490398168564,-0.1936568170785904
1782845469584995600,2.73999560546875,0.08059178292751312,0.07981866598129272,-0.2071545124053955
1782845469595000600,2.75000048828125,0.08681239187717438,0.04993986338376999,-0.21261905133724213
1782845469605004500,2.760004638671875,0.09105613827705383,0.007869108580052853,-0.20073284208774567
1782845469615009500,2.770009521484375,0.08710294216871262,-0.027476631104946136,-0.2016018182039261
1782845469625014500,2.7800146484375,0.0724068209528923,-0.05748859420418739,-0.20555874705314636
1782845469635018200,2.790018310546875,0.06119012087583542,-0.07704098522663116,-0.21641965210437775
1782845469645023200,2.800023193359375,0.04958939179778099,-0.08355294913053513,-0.23461756110191345
1782845469655028200,2.8100283203125,0.045758433640003204,-0.062009841203689575,-0.25761687755584717
1782845469665032400,2.820032470703125,0.044547226279973984,-0.03768745809793472,-0.26411154866218567
1782845469675037400,2.830037353515625,0.030546989291906357,-0.013727263547480106,-0.24939145147800446
1782845469685041400,2.84004150390625,0.017349695786833763,0.005199822131544352,-0.22431965172290802
1782845469695046400,2.85004638671875,0.0014415690675377846,0.020805945619940758,-0.19779163599014282
1782845469705051400,2.860051513671875,-0.013398629613220692,0.021228855475783348,-0.17814603447914124
1782845469715055400,2.870055419921875,-0.02636156603693962,0.011963984929025173,-0.15396906435489655
1782845469725060400,2.880060302734375,-0.03842994570732117,-0.009240636602044106,-0.11337236315011978
1782845469735065300,2.8900654296875,-0.05345070734620094,-0.036430180072784424,-0.07221720367670059
1782845469745069600,2.900069580078125,-0.05313272774219513,-0.043060120195150375,-0.022458704188466072
1782845469755074600,2.910074462890625,-0.05024639144539833,-0.031495075672864914,0.02190529927611351
1782845469765078500,2.92007861328125,-0.03442109003663063,-0.010803911834955215,0.06355900317430496
1782845469775083500,2.93008349609375,-0.008019044063985348,-0.0003110571997240186,0.10590752214193344
1782845469785088500,2.940088623046875,0.022668560966849327,0.0038772961124777794,0.1428234577178955
1782845469795093000,2.950093017578125,0.055568985641002655,0.0033718282356858253,0.16974642872810364
1782845469805098000,2.960097900390625,0.08444058150053024,0.004936435259878635,0.17524611949920654
1782845469815102200,2.970102294921875,0.11654658615589142,0.009493636898696423,0.14770929515361786
1782845469825107200,2.980107177734375,0.14462615549564362,0.012703544460237026,0.09730204939842224
1782845469835112200,2.9901123046875,0.17260345816612244,0.015995744615793228,0.032635971903800964
1782845469845116200,3.0001162109375,0.19632770121097565,0.017045030370354652,-0.030786940827965736
1782845469855121200,3.01012109375,0.21028558909893036,0.01890205219388008,-0.0922127515077591
1782845469865126100,3.020126220703125,0.22163039445877075,0.03163302689790726,-0.14838626980781555
1782845469875130000,3.030130126953125,0.2181384563446045,0.04777258262038231,-0.19699695706367493
1782845469885135000,3.040135009765625,0.20670098066329956,0.05638284981250763,-0.2281242460012436
1782845469895139300,3.050139404296875,0.20811831951141357,0.046355247497558594,-0.2605897784233093
1782845469905144300,3.060144287109375,0.21232983469963074,0.015302523970603943,-0.2946116626262665
1782845469915149300,3.0701494140625,0.2154926061630249,-0.013856160454452038,-0.3229855000972748
1782845469925153300,3.0801533203125,0.20998385548591614,-0.03915033116936684,-0.3392406404018402
1782845469935158300,3.090158203125,0.2011142075061798,-0.05509654060006142,-0.33884570002555847
1782845469945162000,3.100161865234375,0.19875410199165344,-0.05733918771147728,-0.32747188210487366
1782845469955167000,3.1101669921875,0.18875980377197266,-0.04676031321287155,-0.3119536340236664
1782845469965172000,3.120171875,0.1827879250049591,-0.034143056720495224,-0.2949192523956299
1782845469975176200,3.13017626953125,0.17363889515399933,-0.02028449811041355,-0.27403661608695984
1782845469985181200,3.14018115234375,0.16551253199577332,-0.005695968866348267,-0.25306981801986694
1782845469995186200,3.150186279296875,0.1547110229730606,0.018096711486577988,-0.23076210916042328
1782845470005190100,3.160190185546875,0.13944044709205627,0.025604961439967155,-0.1917196363210678
1782845470015195100,3.170195068359375,0.12511451542377472,0.03317233547568321,-0.15550623834133148
1782845470025199000,3.18019921875,0.10667744278907776,0.039868053048849106,-0.11292362213134766
1782845470035204000,3.1902041015625,0.08692611008882523,0.03267219290137291,-0.08752239495515823
1782845470045209000,3.200208984375,0.07685616612434387,0.023312246426939964,-0.07376796007156372
1782845470055213300,3.21021337890625,0.07616960257291794,0.014168815687298775,-0.06429296731948853
1782845470065218300,3.22021826171875,0.08919671922922134,0.01287505216896534,-0.06310706585645676
1782845470075222300,3.23022216796875,0.11043143272399902,0.024333035573363304,-0.06519178301095963
1782845470085227300,3.240227294921875,0.12958009541034698,0.040159136056900024,-0.052564941346645355
1782845470095232300,3.250232177734375,0.1576700508594513,0.04379461705684662,-0.04675232619047165
1782845470105236000,3.260236083984375,0.18875953555107117,0.054136473685503006,-0.0482088066637516
1782845470115241000,3.270240966796875,0.2142409235239029,0.07031837105751038,-0.058934956789016724
1782845470125246000,3.280245849609375,0.225069060921669,0.0888446494936943,-0.060144562274217606
1782845470135250200,3.290250244140625,0.22523711621761322,0.10693177580833435,-0.04884263873100281
1782845470145255200,3.300255126953125,0.21649129688739777,0.1159558966755867,-0.046488404273986816
1782845470155259100,3.310259033203125,0.2061486393213272,0.11402830481529236,-0.051428571343421936
1782845470165264100,3.32026416015625,0.1981186717748642,0.10826948285102844,-0.060807958245277405
1782845470175269000,3.33026904296875,0.1864258050918579,0.09099382162094116,-0.060688380151987076
1782845470185273000,3.340273193359375,0.16861139237880707,0.07921705394983292,-0.06167082116007805
1782845470195278000,3.350278076171875,0.15138259530067444,0.0687047615647316,-0.045410092920064926
1782845470205282300,3.3602822265625,0.12308358401060104,0.061403706669807434,-0.03086124360561371
1782845470215287300,3.370287353515625,0.09842856973409653,0.0637291744351387,-0.016626646742224693
1782845470225292300,3.380292236328125,0.07368354499340057,0.0730489119887352,-0.011797270737588406
1782845470235296300,3.390296142578125,0.05217026174068451,0.07612858712673187,0.005512743256986141
1782845470245301200,3.40030126953125,0.029405025765299797,0.07062835991382599,0.026713902130723
1782845470255306200,3.41030615234375,0.015094797126948833,0.07027868926525116,0.04734567925333977
1782845470265310000,3.42031005859375,0.011922173202037811,0.07104328274726868,0.05392634868621826
1782845470275315000,3.43031494140625,0.0138417799025774,0.07935367524623871,0.06826294213533401
1782845470285319200,3.440319091796875,0.024748489260673523,0.09220156818628311,0.07417196780443192
1782845470295324200,3.45032421875,0.03831489756703377,0.09866265952587128,0.08742784708738327
1782845470305329200,3.4603291015625,0.06077519804239273,0.1034020185470581,0.1057509332895279
1782845470315333000,3.4703330078125,0.09036025404930115,0.1065666601061821,0.1148083433508873
1782845470325338000,3.480338134765625,0.12576457858085632,0.09776650369167328,0.11234624683856964
1782845470335343000,3.490343017578125,0.1631668210029602,0.09108410030603409,0.10814671218395233
1782845470345347000,3.50034716796875,0.19729788601398468,0.08798764646053314,0.11233372986316681
1782845470355352000,3.51035205078125,0.22875913977622986,0.08306559175252914,0.09856199473142624
1782845470365356300,3.520356201171875,0.2563271224498749,0.0948021411895752,0.09922432154417038
1782845470375361300,3.530361328125,0.2856951355934143,0.09826931357383728,0.11188045889139175
1782845470385366300,3.5403662109375,0.3156279921531677,0.09032457321882248,0.12560239434242249
1782845470395370200,3.550370361328125,0.33858391642570496,0.08000961691141129,0.14400644600391388
1782845470405375200,3.560375244140625,0.34963417053222656,0.05583556741476059,0.14922410249710083
1782845470415379000,3.57037890625,0.34002920985221863,0.0356069952249527,0.12428706139326096
1782845470425384000,3.580384033203125,0.3029095232486725,0.03683897480368614,0.06578513979911804
1782845470435389000,3.590388916015625,0.2662428617477417,0.045218609273433685,-0.02545742318034172
1782845470445393200,3.60039306640625,0.24132180213928223,0.048111602663993835,-0.12893961369991302
1782845470455398100,3.610398193359375,0.22610875964164734,0.06302983313798904,-0.2285705953836441
1782845470465403100,3.620403076171875,0.22995756566524506,0.060979995876550674,-0.29663485288619995
1782845470475407000,3.630406982421875,0.24263794720172882,0.043112583458423615,-0.32538822293281555
1782845470485412000,3.640412109375,0.2636129856109619,0.0030924626626074314,-0.3283962607383728
1782845470495416000,3.650416015625,0.28389430046081543,-0.06307510286569595,-0.31074321269989014
1782845470505421000,3.660421142578125,0.30371302366256714,-0.12856782972812653,-0.29437223076820374
1782845470515426000,3.670426025390625,0.30744755268096924,-0.166508287191391,-0.2777405381202698
1782845470525430300,3.68043017578125,0.3018764853477478,-0.16675196588039398,-0.2579953372478485
1782845470535435300,3.690435302734375,0.28217869997024536,-0.14316008985042572,-0.21772034466266632
1782845470545439200,3.700439208984375,0.24681803584098816,-0.10708863288164139,-0.1575203835964203
1782845470555444200,3.7104443359375,0.218081995844841,-0.07856351882219315,-0.06794869154691696
1782845470565449200,3.72044921875,0.20386365056037903,-0.07229922711849213,0.033899642527103424
1782845470575453000,3.730452880859375,0.20264525711536407,-0.08020082861185074,0.13071885704994202
1782845470585458000,3.7404580078125,0.2162574678659439,-0.09011764079332352,0.21431416273117065
1782845470595463000,3.750462890625,0.23862162232398987,-0.10278736799955368,0.26747778058052063
1782845470605467100,3.760467041015625,0.2661778926849365,-0.1151481568813324,0.29068055748939514
1782845470615472000,3.77047216796875,0.28424397110939026,-0.11053024232387543,0.28436142206192017
1782845470625476000,3.78047607421875,0.2882152795791626,-0.08221151679754257,0.2619847357273102
1782845470635481000,3.790481201171875,0.2849438488483429,-0.04165823012590408,0.2254219353199005
1782845470645486000,3.800486083984375,0.2792111337184906,0.015471900813281536,0.1772456169128418
1782845470655490000,3.810489990234375,0.2632947564125061,0.07756110280752182,0.13222621381282806
1782845470665495000,3.8204951171875,0.23640455305576324,0.12683890759944916,0.11621608585119247
1782845470675499300,3.830499267578125,0.19949233531951904,0.14443467557430267,0.1272655427455902
1782845470685504300,3.840504150390625,0.15781866014003754,0.15909750759601593,0.14370816946029663
1782845470695509200,3.85050927734375,0.10930625349283218,0.20131127536296844,0.16051457822322845
1782845470705513200,3.86051318359375,0.05367254838347435,0.2647046148777008,0.1627604216337204
1782845470715518200,3.870518310546875,-0.00965688843280077,0.25625839829444885,0.1827263981103897
1782845470725523200,3.880523193359375,-0.06052592769265175,0.21616984903812408,0.21705108880996704
1782845470735527000,3.89052685546875,-0.10159027576446533,0.1661844402551651,0.26685407757759094
1782845470745532200,3.9005322265625,-0.12328518182039261,0.12242525070905685,0.31884270906448364
1782845470755536100,3.9105361328125,-0.1373717039823532,0.09357815235853195,0.3500615954399109
1782845470765541000,3.920541015625,-0.14298085868358612,0.09098503738641739,0.33680465817451477
1782845470775546000,3.930546142578125,-0.13143499195575714,0.09260769933462143,0.29412856698036194
1782845470785550000,3.940550048828125,-0.12046515941619873,0.08005382120609283,0.24474237859249115
1782845470795554600,3.950554443359375,-0.09956493973731995,0.05013027787208557,0.2063947170972824
1782845470805559600,3.9605595703125,-0.07057536393404007,0.006138586439192295,0.16396629810333252
1782845470815563800,3.970563720703125,-0.031186947599053383,-0.029474802315235138,0.1262679249048233
1782845470825568800,3.98056884765625,0.020794760435819626,-0.05909740924835205,0.07970095425844193
1782845470835572700,3.99057275390625,0.07157272100448608,-0.0753253772854805,0.05145280435681343
1782845470845577700,4.00057763671875,0.11970562487840652,-0.09248173236846924,0.04063158109784126
1782845470855582700,4.010582763671875,0.16602864861488342,-0.10064777731895447,0.0409194715321064
1782845470865586700,4.020586669921875,0.18894115090370178,-0.09235602617263794,0.04475149139761925
1782845470875591700,4.030591796875,0.2092118114233017,-0.07132530957460403,0.05541825294494629
1782845470885596000,4.040595947265625,0.21835896372795105,-0.05781456455588341,0.06776919215917587
1782845470895601000,4.050600830078125,0.22225730121135712,-0.056174855679273605,0.09524316340684891
1782845470905606000,4.06060595703125,0.21090424060821533,-0.06145830079913139,0.13516607880592346
1782845470915609600,4.070609619140625,0.17058399319648743,-0.06879211217164993,0.17594918608665466
1782845470925614600,4.080614501953125,0.11920681595802307,-0.06969412416219711,0.2187131643295288
1782845470935619600,4.09061962890625,0.05782521516084671,-0.05579482391476631,0.25553908944129944
1782845470945623600,4.10062353515625,-0.0031587753910571337,-0.04454110190272331,0.28423598408699036
1782845470955628500,4.110628662109375,-0.06271611154079437,-0.023518376052379608,0.3115895688533783
1782845470965632800,4.1206328125,-0.10050103813409805,0.011669971980154514,0.32980746030807495
1782845470975637800,4.1306376953125,-0.12262605130672455,0.03459952399134636,0.33548957109451294
1782845470985642800,4.140642822265625,-0.13940343260765076,0.050511911511421204,0.3357495069503784
1782845470995646700,4.150646728515625,-0.15199992060661316,0.0618700236082077,0.31742775440216064
1782845471005651700,4.160651611328125,-0.15879178047180176,0.06820808351039886,0.28269854187965393
1782845471015655700,4.17065576171875,-0.1722860187292099,0.06982754915952682,0.2511579394340515
1782845471025660700,4.18066064453125,-0.18829533457756042,0.06840622425079346,0.21893900632858276
1782845471035665700,4.190665771484375,-0.197292298078537,0.05264563485980034,0.1931593418121338
1782845471045670000,4.200669921875,-0.18882104754447937,0.022532206028699875,0.1644829511642456
1782845471055675000,4.2106748046875,-0.18490247428417206,-0.0023345269728451967,0.1298368275165558
1782845471065680000,4.220679931640625,-0.1694747805595398,-0.01901257410645485,0.0879620760679245
1782845471075683600,4.23068359375,-0.14145566523075104,-0.012379970401525497,0.03285808116197586
1782845471085688600,4.2406884765625,-0.09607619792222977,0.016465526074171066,-0.011060373857617378
1782845471095692500,4.250692626953125,-0.04868338257074356,0.03726614639163017,-0.031157920137047768
1782845471105697500,4.260697509765625,0.0005499427788890898,0.048888180404901505,-0.03278937190771103
1782845471115702500,4.27070263671875,0.04596882313489914,0.06325113773345947,-0.023572970181703568
1782845471125706800,4.280706787109375,0.08299048990011215,0.07300709933042526,-0.024264059960842133
1782845471135711700,4.290711669921875,0.10044831037521362,0.07544948160648346,-0.020232833921909332
1782845471145715700,4.3007158203125,0.1019628494977951,0.058526162058115005,-0.012120045721530914
1782845471155720700,4.310720703125,0.08684754371643066,0.041906170547008514,-0.0012170645641162992
1782845471165725700,4.3207255859375,0.07476425170898438,0.041377533227205276,0.0025960493367165327
1782845471175729700,4.330729736328125,0.0636327713727951,0.04529344663023949,0.0022413162514567375
1782845471185734700,4.340734619140625,0.04310113191604614,0.05143203213810921,0.012056396342813969
1782845471195739600,4.35073974609375,0.025706429034471512,0.050700195133686066,0.022119151428341866
1782845471205743900,4.360743896484375,-0.0023965786676853895,0.047986965626478195,0.040052078664302826
1782845471215748900,4.370748779296875,-0.02569843828678131,0.04019695520401001,0.05878395587205887
1782845471225752600,4.380752685546875,-0.04609265923500061,0.022758042439818382,0.07009599357843399
1782845471235757600,4.390757568359375,-0.06029396504163742,-0.004120443016290665,0.07795844972133636
1782845471245762600,4.400762451171875,-0.07428275048732758,-0.03790104389190674,0.09021031856536865
1782845471255766500,4.4107666015625,-0.09190408885478973,-0.07011570781469345,0.10078040510416031
1782845471265771500,4.420771484375,-0.11611728370189667,-0.08443845063447952,0.10068479925394058
1782845471275775700,4.430775634765625,-0.13555942475795746,-0.09069661051034927,0.09484821557998657
1782845471285780700,4.44078076171875,-0.15146516263484955,-0.08764542639255524,0.07946233451366425
1782845471295785700,4.45078564453125,-0.16704198718070984,-0.08100936561822891,0.061172012239694595
1782845471305789700,4.460789794921875,-0.182908296585083,-0.07530487328767776,0.05372022092342377
1782845471315794700,4.470794677734375,-0.20384341478347778,-0.07243052124977112,0.03057761676609516
1782845471325799700,4.480799560546875,-0.22335000336170197,-0.07428514957427979,-0.00818123109638691
1782845471335803600,4.4908037109375,-0.23711934685707092,-0.06843498349189758,-0.06835056096315384
1782845471345808600,4.50080859375,-0.25471457839012146,-0.0707671120762825,-0.1354081630706787
1782845471355812900,4.510812744140625,-0.24387897551059723,-0.08955784887075424,-0.1866186112165451
1782845471365817900,4.52081787109375,-0.23233044147491455,-0.10763857513666153,-0.21637198328971863
1782845471375822800,4.53082275390625,-0.21612431108951569,-0.16440892219543457,-0.2171911746263504
1782845471385826600,4.54082666015625,-0.19044983386993408,-0.20020127296447754,-0.18842850625514984
1782845471395831600,4.55083154296875,-0.18124862015247345,-0.21203289926052094,-0.14216725528240204
1782845471405836500,4.56083642578125,-0.20261035859584808,-0.20025533437728882,-0.11230630427598953
1782845471415840500,4.570840576171875,-0.24300971627235413,-0.1709483116865158,-0.11701983213424683
1782845471425845500,4.580845458984375,-0.28166523575782776,-0.12198316305875778,-0.17328736186027527
1782845471435849700,4.590849609375,-0.31453877687454224,-0.08043971657752991,-0.2909013330936432
1782845471445854700,4.600854736328125,-0.3510637581348419,-0.05944442003965378,-0.4479474127292633
1782845471455859700,4.610859619140625,-0.3932351768016815,-0.07841970771551132,-0.5932364463806152
1782845471465863700,4.62086376953125,-0.42988720536231995,-0.15106594562530518,-0.7080578207969666
1782845471475868700,4.63086865234375,-0.44837990403175354,-0.2374732792377472,-0.7348745465278625
1782845471485872600,4.64087255859375,-0.4236958622932434,-0.33826592564582825,-0.6330653429031372
1782845471495877600,4.650877685546875,-0.38279691338539124,-0.37262070178985596,-0.42723894119262695
1782845471505882600,4.660882568359375,-0.34013041853904724,-0.34240955114364624,-0.19646058976650238
1782845471515886800,4.670886962890625,-0.2938273549079895,-0.28447192907333374,0.007965780794620514
1782845471525891800,4.680891845703125,-0.2440318465232849,-0.23096796870231628,0.17631298303604126
1782845471535896800,4.690896728515625,-0.19049005210399628,-0.18892331421375275,0.29057642817497253
1782845471545900500,4.700900634765625,-0.1415693759918213,-0.14656732976436615,0.34611478447914124
1782845471555905500,4.710905517578125,-0.10618555545806885,-0.1218196451663971,0.3799699544906616
1782845471565909500,4.720909423828125,-0.10805429518222809,-0.07782582193613052,0.4081254303455353
1782845471575914500,4.73091455078125,-0.12691454589366913,-0.025478195399045944,0.43564626574516296
1782845471585919700,4.740919677734375,-0.14193157851696014,0.0068214209750294685,0.45602506399154663
1782845471595923700,4.750923828125,-0.16543236374855042,0.012871856801211834,0.4804134964942932
1782845471605928700,4.7609287109375,-0.19645793735980988,-0.0005336974863894284,0.4916379153728485
1782845471615932700,4.7709326171875,-0.21834751963615417,-0.01902029663324356,0.4875235855579376
1782845471625937700,4.780937744140625,-0.2246440351009369,-0.0530051626265049,0.45536431670188904
1782845471635942700,4.790942626953125,-0.21380922198295593,-0.03741847723722458,0.39526131749153137
1782845471645946600,4.800946533203125,-0.17653429508209229,-0.058813516050577164,0.33329859375953674
1782845471655951600,4.81095166015625,-0.1242806687951088,-0.004809136036783457,0.26543378829956055
1782845471665956600,4.82095654296875,-0.07174129784107208,0.041477400809526443,0.20202340185642242
1782845471675960800,4.8309609375,-0.028781047090888023,0.07107257843017578,0.16645023226737976
1782845471685965800,4.8409658203125,0.003442401997745037,0.080292709171772,0.14461417496204376
1782845471695969500,4.850969482421875,0.021102888509631157,0.08016514033079147,0.10848386585712433
1782845471705974500,4.860974609375,0.021745774894952774,0.08004130423069,0.05513222888112068
1782845471715979500,4.8709794921875,0.016026902943849564,0.06390654295682907,0.006645385641604662
1782845471725983700,4.880983642578125,0.014073207974433899,0.03448953479528427,-0.0390523262321949
1782845471735988700,4.89098876953125,0.0027542412281036377,0.0003603257064241916,-0.061883606016635895
1782845471745992700,4.90099267578125,-0.02178279310464859,-0.03737879544496536,-0.049082592129707336
1782845471755997700,4.910997802734375,-0.045035917311906815,-0.05932217836380005,-0.027717914432287216
1782845471766002700,4.921002685546875,-0.05896451696753502,-0.07545134425163269,-0.0054632085375487804
1782845471776006700,4.931006591796875,-0.06461814045906067,-0.07493895292282104,0.020070115104317665
1782845471786011600,4.94101171875,-0.075108602643013,-0.07441697269678116,0.05486804246902466
1782845471796017000,4.951016845703125,-0.08791174739599228,-0.07189416140317917,0.08381793648004532
1782845471806020900,4.961020751953125,-0.09265083819627762,-0.06600484997034073,0.09455952793359756
1782845471816025900,4.97102587890625,-0.0870472863316536,-0.051429104059934616,0.08286585658788681
1782845471826029800,4.98102978515625,-0.0683731958270073,-0.04397597908973694,0.048166465014219284
1782845471836034800,4.991034912109375,-0.04910895600914955,-0.028895564377307892,-0.0016429040115326643
1782845471846040000,5.0010400390625,-0.023066703230142593,-0.011665711179375648,-0.057743191719055176
1782845471856043800,5.011043701171875,0.01829964481294155,0.003965180367231369,-0.1185908317565918
1782845471866048800,5.021048828125,0.05943270027637482,0.01013945322483778,-0.1783183366060257
1782845471876053800,5.0310537109375,0.1053948625922203,0.021677065640687943,-0.21587742865085602
1782845471886057700,5.0410576171875,0.14497530460357666,0.028437500819563866,-0.23138529062271118
1782845471896063000,5.05106298828125,0.17913566529750824,0.035232022404670715,-0.23249369859695435
1782845471906067000,5.06106689453125,0.1995687633752823,0.032222386449575424,-0.20139862596988678
1782845471916072000,5.071072021484375,0.19132281839847565,0.016865799203515053,-0.14470365643501282
1782845471926077000,5.081076904296875,0.17468126118183136,0.0026706180069595575,-0.0967092290520668
1782845471936081000,5.091080810546875,0.13562627136707306,-0.00017550231132190675,-0.08992749452590942
1782845471946086000,5.1010859375,0.0919610857963562,-0.0062333946116268635,-0.1214662417769432
1782845471956089900,5.11108984375,0.04698002710938454,-0.00935328844934702,-0.16479720175266266
1782845471966094800,5.1210947265625,0.01480717584490776,-0.019355054944753647,-0.22585256397724152
1782845471976099800,5.131099853515625,-0.011391937732696533,-0.030065756291151047,-0.2815565764904022
1782845471986104000,5.14110400390625,-0.027817515656352043,-0.024767398834228516,-0.3394808769226074
1782845471996109000,5.151109130859375,-0.02593972161412239,-0.024449151009321213,-0.3750998377799988
1782845472006114000,5.161114013671875,-0.010616958141326904,-0.03812900930643082,-0.3863847255706787
1782845472016117800,5.17111767578125,0.001621066126972437,-0.0568864531815052,-0.3755376636981964
1782845472026122800,5.181122802734375,0.013625530526041985,-0.07394266873598099,-0.3536243736743927
1782845472036127000,5.191126953125,0.02929743565618992,-0.08736632764339447,-0.322968453168869
1782845472046132000,5.201132080078125,0.04776805639266968,-0.08186663687229156,-0.29590967297554016
1782845472056137000,5.211136962890625,0.06263621896505356,-0.07035485655069351,-0.2664141058921814
1782845472066141000,5.221140869140625,0.07650622725486755,-0.048708949238061905,-0.23724503815174103
1782845472076146000,5.23114599609375,0.081218421459198,-0.029220202937722206,-0.21723590791225433
1782845472086150000,5.24114990234375,0.09443675726652145,-0.00950668565928936,-0.2140670120716095
1782845472096155000,5.25115478515625,0.1048947274684906,0.00845766719430685,-0.21880877017974854
1782845472106159900,5.261159912109375,0.11855088174343109,0.02640444226562977,-0.22117073833942413
1782845472116164000,5.2711640625,0.12106197327375412,0.03081383928656578,-0.20446498692035675
1782845472126169000,5.281169189453125,0.11689066886901855,0.04162946715950966,-0.18339405953884125
1782845472136174000,5.291174072265625,0.11235583573579788,0.05004905164241791,-0.16347335278987885
1782845472146178000,5.301177978515625,0.10551630705595016,0.054840344935655594,-0.12753506004810333
1782845472156183000,5.31118310546875,0.07624443620443344,0.08473299443721771,-0.08702810853719711
1782845472166186800,5.321186767578125,0.057494983077049255,0.07969748973846436,-0.05505313351750374
1782845472176191700,5.331191650390625,0.042747728526592255,0.08912774175405502,-0.04153332859277725
1782845472186196700,5.34119677734375,0.03371721878647804,0.09752655774354935,-0.040527984499931335
1782845472196201000,5.351200927734375,0.03392920643091202,0.0989188551902771,-0.039023831486701965
1782845472206206000,5.3612060546875,0.04602288454771042,0.09756197780370712,-0.03942517191171646
1782845472216210000,5.3712099609375,0.06181569769978523,0.08786220848560333,-0.03886990249156952
1782845472226215000,5.38121484375,0.0804213359951973,0.0786450132727623,-0.030308371409773827
1782845472236220000,5.391219970703125,0.09396591037511826,0.0725833922624588,-0.025648904964327812
1782845472246224000,5.401223876953125,0.11192413419485092,0.06520084291696548,-0.013951235450804234
1782845472256228900,5.411228759765625,0.1379520148038864,0.06678382307291031,-0.00290364446118474
1782845472266233900,5.42123388671875,0.16754558682441711,0.06871861219406128,0.009740245528519154
1782845472276238000,5.431238037109375,0.19541876018047333,0.06548500061035156,0.011365838348865509
1782845472286243000,5.4412431640625,0.2202596664428711,0.06597688794136047,0.007245395798236132
1782845472296247000,5.4512470703125,0.23853400349617004,0.07088615745306015,-0.0008974852971732616
1782845472306252000,5.461251953125,0.24782390892505646,0.07939469069242477,-0.007217166479676962
1782845472316257000,5.471257080078125,0.24376365542411804,0.08111242949962616,-0.007245662156492472
1782845472326260700,5.4812607421875,0.2345893383026123,0.08961404114961624,-0.00640729907900095
1782845472336265700,5.491265625,0.2315613180398941,0.10031329095363617,0.002356098499149084
1782845472346270000,5.50127001953125,0.2251572161912918,0.10547821968793869,0.01841469295322895
1782845472356275000,5.51127490234375,0.2258099615573883,0.10941970348358154,0.04295651987195015
1782845472366280000,5.521280029296875,0.2317754477262497,0.09838729351758957,0.05950646847486496
1782845472376284000,5.531283935546875,0.23733799159526825,0.08391567319631577,0.08400861918926239
1782845472386289000,5.541288818359375,0.23891137540340424,0.06559792160987854,0.1185801774263382
1782845472396294000,5.5512939453125,0.23455896973609924,0.050036270171403885,0.1530236303806305
1782845472406297900,5.5612978515625,0.22524696588516235,0.034816302359104156,0.1758836805820465
1782845472416302800,5.571302734375,0.2074410766363144,0.027212979272007942,0.19603155553340912
1782845472426307000,5.58130712890625,0.1802659034729004,0.02322303131222725,0.21747133135795593
1782845472436312000,5.59131201171875,0.1402692198753357,0.019646672531962395,0.22298142313957214
1782845472446317000,5.601317138671875,0.09828396141529083,0.020849620923399925,0.22578519582748413
1782845472456321000,5.611321044921875,0.058996208012104034,0.013715545646846294,0.214906707406044
1782845472466326000,5.621325927734375,0.03822195529937744,0.009556220844388008,0.20135948061943054
1782845472476331000,5.6313310546875,0.029987460002303123,0.012538428418338299,0.18837283551692963
1782845472486334700,5.641334716796875,0.02738555148243904,0.018918829038739204,0.17594093084335327
1782845472496339700,5.651339599609375,0.03343731909990311,0.017964886501431465,0.16274763643741608
1782845472506344000,5.661343994140625,0.05586140230298042,0.012281433679163456,0.143307626247406
1782845472516349000,5.671348876953125,0.08970591425895691,-0.011815646663308144,0.10836268961429596
1782845472526354000,5.68135400390625,0.12543462216854095,-0.03481896594166756,0.05529574677348137
1782845472536358000,5.69135791015625,0.15526734292507172,-0.07854034751653671,-0.01937716081738472
1782845472546363000,5.70136279296875,0.16482996940612793,-0.07786709815263748,-0.10253649204969406
1782845472556366800,5.711366943359375,0.15647056698799133,-0.06398563832044601,-0.19531117379665375
1782845472566371800,5.721371826171875,0.13333195447921753,-0.05057023465633392,-0.28916415572166443
1782845472576376800,5.731376953125,0.1006147563457489,-0.029734725132584572,-0.3711695373058319
1782845472586381000,5.741381103515625,0.07774113118648529,-0.005356681998819113,-0.42666342854499817
1782845472596386000,5.751385986328125,0.05389811843633652,0.004196076653897762,-0.462536484003067
1782845472606391000,5.76139111328125,0.030726220458745956,-0.010464092716574669,-0.4802590310573578
1782845472616395000,5.77139501953125,0.01866050250828266,-0.05606326833367348,-0.47237154841423035
1782845472626400000,5.78139990234375,0.022411299869418144,-0.11663633584976196,-0.45379838347435
1782845472636403700,5.79140380859375,0.0440974198281765,-0.16340038180351257,-0.4173746109008789
1782845472646408700,5.80140869140625,0.08201391249895096,-0.19437959790229797,-0.3474445044994354
1782845472656413700,5.81141357421875,0.12292778491973877,-0.23860511183738708,-0.25321149826049805
1782845472666418000,5.82141796875,0.16243071854114532,-0.27198997139930725,-0.12971219420433044
1782845472676423000,5.8314228515625,0.2057771235704422,-0.2676226496696472,-0.0024053670931607485
1782845472686427000,5.841427001953125,0.23361089825630188,-0.23992498219013214,0.1337311714887619
1782845472696431900,5.851431884765625,0.2448534220457077,-0.19727179408073425,0.25096696615219116
1782845472706436900,5.861436767578125,0.23790444433689117,-0.14666268229484558,0.3596116900444031
1782845472716440800,5.87144091796875,0.23275761306285858,-0.06179226189851761,0.4279468059539795
1782845472726445800,5.88144580078125,0.2224048376083374,-0.07771210372447968,0.5200493335723877
1782845472736450800,5.891450927734375,0.19595006108283997,-0.05022828280925751,0.5994019508361816
1782845472746455000,5.901455078125,0.16355137526988983,-0.03133102506399155,0.6519055962562561
1782845472756460000,5.9114599609375,0.10016601532697678,-0.010068346746265888,0.6635828018188477
1782845472766464000,5.921464111328125,0.029161613434553146,-0.0014705975772812963,0.6534020304679871
1782845472776469000,5.931468994140625,-0.050453584641218185,0.015109444037079811,0.6207825541496277
1782845472786474000,5.941473876953125,-0.13907372951507568,0.03241892531514168,0.5580547451972961
1782845472796477400,5.9514775390625,-0.22066020965576172,0.050152383744716644,0.4589973986148834
1782845472806482400,5.961482421875,-0.2955632209777832,0.08426214754581451,0.3160642087459564
1782845472816487400,5.9714873046875,-0.3588692247867584,0.09827170521020889,0.17458485066890717
1782845472826491600,5.98149169921875,-0.4026068449020386,0.08791787177324295,0.0412566252052784
1782845472836496600,5.99149658203125,-0.4118568003177643,0.06638328731060028,-0.08231804519891739
1782845472846500600,6.00150048828125,-0.3871879279613495,0.033363550901412964,-0.208818718791008
1782845472856505600,6.011505615234375,-0.3393271863460541,-0.018698852509260178,-0.3299126625061035
1782845472866510600,6.021510498046875,-0.26752492785453796,-0.0815206915140152,-0.44745951890945435
1782845472876514600,6.0315146484375,-0.1673562377691269,-0.11983931809663773,-0.5377212762832642
1782845472886519600,6.04151953125,-0.0589221715927124,-0.147360697388649,-0.5917171239852905
1782845472896523800,6.051523681640625,0.04167846962809563,-0.15817898511886597,-0.6085605621337891
1782845472906528800,6.06152880859375,0.13269253075122833,-0.16197025775909424,-0.5761232376098633
1782845472916533800,6.07153369140625,0.20878756046295166,-0.15490782260894775,-0.5011304616928101
1782845472926537700,6.081537841796875,0.24902793765068054,-0.14965207874774933,-0.39127081632614136
1782845472936542700,6.091542724609375,0.25866377353668213,-0.14694656431674957,-0.2766217291355133
1782845472946547700,6.101547607421875,0.2536548972129822,-0.1405283510684967,-0.15932254493236542
1782845472956551400,6.111551513671875,0.24551042914390564,-0.12140019983053207,-0.0550568588078022
1782845472966556700,6.121556640625,0.2430773675441742,-0.10655360668897629,0.03466770052909851
1782845472976560600,6.131560546875,0.2262009084224701,-0.08996717631816864,0.10638449341058731
1782845472986565600,6.141565673828125,0.19881083071231842,-0.059429239481687546,0.1490589827299118
1782845472996570600,6.151570556640625,0.1717432588338852,-0.031748075038194656,0.17134219408035278
1782845473006574600,6.16157470703125,0.12115439027547836,0.008027033880352974,0.16902364790439606
1782845473016579600,6.17157958984375,0.052437376230955124,0.06019223481416702,0.16823934018611908
1782845473026584600,6.18158447265625,-0.022829947993159294,0.11095554381608963,0.16806943714618683
1782845473036588500,6.191588623046875,-0.09598086029291153,0.14684830605983734,0.1619388312101364
1782845473046593800,6.20159375,-0.14847736060619354,0.1829698234796524,0.1465441733598709
1782845473056597800,6.21159765625,-0.1975620836019516,0.20389826595783234,0.13736052811145782
1782845473066602800,6.221602783203125,-0.2296571582555771,0.2042335569858551,0.14338725805282593
1782845473076607700,6.231607666015625,-0.24734720587730408,0.1995043158531189,0.15333256125450134
1782845473086611700,6.24161181640625,-0.26114025712013245,0.184494748711586,0.16459853947162628
1782845473096616700,6.25161669921875,-0.2731548249721527,0.17230439186096191,0.17403225600719452
1782845473106620700,6.26162060546875,-0.29852357506752014,0.153526172041893,0.1783076822757721
1782845473116625700,6.271625732421875,-0.3284495174884796,0.13323529064655304,0.17495423555374146
1782845473126630700,6.281630615234375,-0.35614025592803955,0.11748161911964417,0.1646304875612259
1782845473136634600,6.291634521484375,-0.3673734962940216,0.10188109427690506,0.15832439064979553
1782845473146639600,6.3016396484375,-0.3637140393257141,0.09234324842691422,0.15152880549430847
1782845473156643600,6.3116435546875,-0.3497460186481476,0.0776899978518486,0.15926848351955414
1782845473166648600,6.321648681640625,-0.3307696580886841,0.06545357406139374,0.17137308418750763
1782845473176653600,6.331653564453125,-0.2990149259567261,0.05842602625489235,0.17907920479774475
1782845473186657800,6.34165771484375,-0.26488810777664185,0.056176986545324326,0.1777351051568985
1782845473196662800,6.351662841796875,-0.2230282872915268,0.04456959664821625,0.1712993085384369
1782845473206667800,6.361667724609375,-0.1861903816461563,0.03773060068488121,0.16596128046512604
1782845473216671700,6.371671630859375,-0.16519881784915924,0.024406805634498596,0.16314445436000824
1782845473226676700,6.3816767578125,-0.15672144293785095,0.02509470097720623,0.153785839676857
1782845473236680700,6.3916806640625,-0.15623168647289276,0.019181683659553528,0.14704138040542603
1782845473246685700,6.401685791015625,-0.16469360888004303,0.011573032476007938,0.13501320779323578
1782845473256690700,6.411690673828125,-0.17606370151042938,0.018515627831220627,0.11801692098379135
1782845473266694700,6.421694580078125,-0.17794044315814972,0.029081186279654503,0.09110168367624283
1782845473276699600,6.43169970703125,-0.17778277397155762,0.04002278298139572,0.055690426379442215
1782845473286704600,6.44170458984375,-0.17044363915920258,0.040710944682359695,0.038307707756757736
1782845473296708600,6.45170849609375,-0.16060912609100342,0.036859482526779175,0.029224198311567307
1782845473306713600,6.461713623046875,-0.14864885807037354,0.02196788229048252,0.023539148271083832
1782845473316717600,6.471717529296875,-0.1390252709388733,0.0021875204984098673,0.02781085856258869
1782845473326722600,6.48172265625,-0.13073430955410004,-0.024702683091163635,0.02984178438782692
1782845473336727600,6.4917275390625,-0.12114480137825012,-0.0482167974114418,0.03032488189637661
1782845473346731800,6.501731689453125,-0.11146500706672668,-0.06572894752025604,0.03254729136824608
1782845473356736800,6.51173681640625,-0.1090143695473671,-0.07928496599197388,0.03911624476313591
1782845473366741800,6.52174169921875,-0.12246493250131607,-0.08475296944379807,0.057678475975990295
1782845473376745700,6.531745849609375,-0.14148496091365814,-0.0929134264588356,0.08883479982614517
1782845473386750700,6.541750732421875,-0.1628997027873993,-0.10147682577371597,0.13680072128772736
1782845473396754700,6.551754638671875,-0.18438155949115753,-0.10141530632972717,0.18882158398628235
1782845473406759700,6.561759765625,-0.18932971358299255,-0.09976094961166382,0.22546854615211487
1782845473416764700,6.5717646484375,-0.17758090794086456,-0.08935145288705826,0.24184085428714752
1782845473426768600,6.5817685546875,-0.15318343043327332,-0.07418288290500641,0.2380887269973755
1782845473436773600,6.591773681640625,-0.1249411329627037,-0.06041247770190239,0.23001189529895782
1782845473446777600,6.601777587890625,-0.0936599150300026,-0.04355466738343239,0.197570338845253
1782845473456782600,6.611782470703125,-0.05756928771734238,-0.034204840660095215,0.153619647026062
1782845473466787600,6.62178759765625,-0.02845774032175541,-0.03756415471434593,0.09992899745702744
1782845473476791600,6.63179150390625,-0.003061569994315505,-0.0587376169860363,0.03840012103319168
1782845473486796500,6.641796630859375,0.03244555741548538,-0.09254831075668335,-0.020132431760430336
1782845473496801500,6.651801513671875,0.06959239393472672,-0.11235050857067108,-0.06483998149633408
1782845473506805800,6.6618056640625,0.1024765744805336,-0.1144924908876419,-0.085645392537117
1782845473516810800,6.671810791015625,0.1219344288110733,-0.10452108085155487,-0.0835404321551323
1782845473526814700,6.681814697265625,0.1289646327495575,-0.086568184196949,-0.06649646908044815
1782845473536819700,6.69181982421875,0.12230008095502853,-0.06588873267173767,-0.03949041664600372
1782845473546824700,6.70182470703125,0.11219710856676102,-0.05403447151184082,-0.012629508972167969
1782845473556828700,6.71182861328125,0.09911593049764633,-0.042867571115493774,-0.002430667169392109
1782845473566833700,6.721833740234375,0.08560384809970856,-0.02581455372273922,-0.025861958041787148
1782845473576837600,6.731837646484375,0.077481210231781,-0.012535765767097473,-0.0768793374300003
1782845473586842600,6.741842529296875,0.06209053471684456,-0.011471034027636051,-0.13545343279838562
1782845473596847600,6.75184765625,0.04095808416604996,-0.018306303769350052,-0.2107553780078888
1782845473606851600,6.7618515625,0.014453774318099022,-0.028141889721155167,-0.2993132174015045
1782845473616856600,6.771856689453125,-0.00794554129242897,-0.03166338801383972,-0.3951587677001953
1782845473626861600,6.781861572265625,-0.030668696388602257,-0.04272189736366272,-0.4717867076396942
1782845473636865500,6.791865478515625,-0.049916692078113556,-0.06281810998916626,-0.5032527446746826
1782845473646870500,6.80187060546875,-0.07100839912891388,-0.09550335258245468,-0.4970225691795349
1782845473656874800,6.811874755859375,-0.07995075732469559,-0.1283414661884308,-0.43036922812461853
1782845473666879700,6.821879638671875,-0.07018494606018066,-0.13989877700805664,-0.34279516339302063
1782845473676884700,6.831884765625,-0.048582181334495544,-0.13890835642814636,-0.2280784398317337
1782845473686888700,6.841888671875,0.0001395496365148574,-0.13421931862831116,-0.10679089277982712
1782845473696893700,6.851893798828125,0.05498229339718819,-0.12690015137195587,0.013372796587646008
1782845473706897700,6.861897705078125,0.11823689192533493,-0.12389051914215088,0.12586525082588196
1782845473716902700,6.871902587890625,0.1815495491027832,-0.12420157343149185,0.22384454309940338
1782845473726907600,6.88190771484375,0.21696586906909943,-0.11194757372140884,0.2916366457939148
1782845473736911600,6.89191162109375,0.22802864015102386,-0.08420675247907639,0.3342810571193695
1782845473746916600,6.90191650390625,0.2308150976896286,-0.047938231378793716,0.34092456102371216
1782845473756921600,6.911921630859375,0.21591950953006744,-0.00440939562395215,0.3285254240036011
1782845473766925600,6.921925537109375,0.18850359320640564,0.02671283669769764,0.3039686679840088
1782845473776930600,6.9319306640625,0.15433791279792786,0.05115159973502159,0.2521531581878662
1782845473786934500,6.9419345703125,0.09776011854410172,0.056961819529533386,0.18519648909568787
1782845473796940300,6.951940185546875,0.050761181861162186,0.05464460328221321,0.10912328958511353
1782845473806945300,6.9619453125,0.01444179005920887,0.04535869136452675,0.02659086510539055
1782845473816949200,6.97194921875,-0.00592659879475832,0.018012024462223053,-0.027823908254504204
1782845473826954200,6.981954345703125,-0.02040647156536579,-0.02172393724322319,-0.05277932435274124
1782845473836959500,6.99195947265625,-0.03144900128245354,-0.05904760584235191,-0.048708684742450714
1782845473846963500,7.00196337890625,-0.03837854787707329,-0.07125180959701538,-0.03371348977088928
1782845473856968400,7.011968505859375,-0.03971332311630249,-0.06684400886297226,-0.022243520244956017
1782845473866972400,7.021972412109375,-0.02646702714264393,-0.05552424490451813,-0.01636059768497944
1782845473876977400,7.031977294921875,-0.00965742114931345,-0.050395794212818146,-0.0028242822736501694
1782845473886982400,7.041982421875,0.008699215948581696,-0.04610970616340637,0.00800040178000927
1782845473896986400,7.051986328125,0.020248811691999435,-0.03880491852760315,0.021765483543276787
1782845473906991400,7.061991455078125,0.03194355219602585,-0.03795590251684189,0.023677099496126175
1782845473916996400,7.071996337890625,0.04465987905859947,-0.04030774161219597,0.011886486783623695
1782845473927000300,7.082000244140625,0.059541888535022736,-0.03003006987273693,-0.025345303118228912
1782845473937005300,7.09200537109375,0.0769224762916565,-0.01672971062362194,-0.08842280507087708
1782845473947009300,7.10200927734375,0.10073433071374893,-0.0038213697262108326,-0.19258809089660645
1782845473957014300,7.11201416015625,0.12175972759723663,0.003897269954904914,-0.30969366431236267
1782845473967019300,7.122019287109375,0.13617567718029022,-0.000990962260402739,-0.4152248799800873
1782845473977023500,7.1320234375,0.12785303592681885,-0.009090700186789036,-0.5020612478256226
1782845473987028500,7.142028564453125,0.11209564656019211,-0.022762304171919823,-0.5590997934341431
1782845473997032400,7.152032470703125,0.085056833922863,-0.04508651793003082,-0.5795693397521973
1782845474007037400,7.162037353515625,0.06880729645490646,-0.05602758377790451,-0.5775104761123657
1782845474017042400,7.17204248046875,0.05837089940905571,-0.07056284695863724,-0.5621312260627747
1782845474027046400,7.18204638671875,0.06299174576997757,-0.08424563705921173,-0.5279428958892822
1782845474037051400,7.192051513671875,0.07405371963977814,-0.09147052466869354,-0.4734541177749634
1782845474047056400,7.202056396484375,0.08828964829444885,-0.10342039912939072,-0.4026028513908386
1782845474057060600,7.212060546875,0.09632227569818497,-0.12161404639482498,-0.2906097173690796
1782845474067065600,7.222065673828125,0.10114898532629013,-0.1280386596918106,-0.17954419553279877
1782845474077069300,7.2320693359375,0.10572323203086853,-0.12580986320972443,-0.07312880456447601
1782845474087074300,7.24207421875,0.11768535524606705,-0.1179886907339096,0.02081127278506756
1782845474097079300,7.252079345703125,0.13873018324375153,-0.09455074369907379,0.09070966392755508
1782845474107083300,7.262083251953125,0.16640175879001617,-0.05843374878168106,0.12192723900079727
1782845474117088300,7.272088134765625,0.18851611018180847,-0.020318588241934776,0.11924117058515549
1782845474127092500,7.282092529296875,0.20665676891803741,0.019461048766970634,0.10872701555490494
1782845474137097500,7.292097412109375,0.21392853558063507,0.05029033496975899,0.09918037801980972
1782845474147102500,7.3021025390625,0.2087542712688446,0.05950407311320305,0.09318800270557404
1782845474157106400,7.3121064453125,0.19770322740077972,0.0541955940425396,0.08884891122579575
1782845474167111400,7.322111328125,0.1834835410118103,0.041545044630765915,0.07658718526363373
1782845474177116400,7.332116455078125,0.18044593930244446,0.024529045447707176,0.0694296732544899
1782845474187120400,7.342120361328125,0.18378899991512299,0.001930525409989059,0.047749944031238556
1782845474197125400,7.35212548828125,0.1821114867925644,-0.004403004422783852,0.01695980876684189
1782845474207129600,7.362129638671875,0.16825132071971893,-0.0015366439474746585,-0.018005898222327232
1782845474217134600,7.372134521484375,0.14131797850131989,0.008705074898898602,-0.04755393788218498
1782845474227139600,7.3821396484375,0.1164240837097168,0.003516437951475382,-0.06784136593341827
1782845474237143300,7.392143310546875,0.08943986892700195,0.025142105296254158,-0.09433528780937195
1782845474247148300,7.402148193359375,0.05712613835930824,0.04910975694656372,-0.1286112368106842
1782845474257153500,7.412153564453125,0.025015870109200478,0.06460562348365784,-0.15619972348213196
1782845474267157200,7.4221572265625,0.0021784657146781683,0.06650099903345108,-0.18574883043766022
1782845474277162200,7.432162353515625,-0.02106107585132122,0.05913975089788437,-0.19992323219776154
1782845474287166500,7.44216650390625,-0.03604242205619812,0.044677454978227615,-0.19306319952011108
1782845474297171500,7.45217138671875,-0.034501250833272934,0.025351162999868393,-0.18247421085834503
1782845474307176400,7.462176513671875,-0.025059813633561134,0.0003944141499232501,-0.1541064828634262
1782845474317180400,7.472180419921875,-0.005250155925750732,-0.020796624943614006,-0.11846166849136353
1782845474327185400,7.482185302734375,0.012065185233950615,-0.018228804692626,-0.09263566136360168
1782845474337190400,7.4921904296875,0.033432792872190475,0.0056922403164207935,-0.06405594944953918
1782845474347194400,7.5021943359375,0.05234070122241974,0.024403609335422516,-0.034446123987436295
1782845474357199400,7.512199462890625,0.07301056385040283,0.038117825984954834,-0.0024921861477196217
1782845474367203600,7.52220361328125,0.09957905113697052,0.058272361755371094,0.029382389038801193
1782845474377208600,7.53220849609375,0.1264977604150772,0.06836867332458496,0.05035638064146042
1782845474387213600,7.542213623046875,0.1526947319507599,0.07786870002746582,0.05366935208439827
1782845474397217300,7.55221728515625,0.17271238565444946,0.10240094363689423,0.04400128126144409
1782845474407222500,7.562222412109375,0.19187675416469574,0.120564766228199,0.03719370812177658
1782845474417226200,7.572226318359375,0.20918144285678864,0.13258494436740875,0.03465757891535759
1782845474427231200,7.582231201171875,0.2308736890554428,0.1334717720746994,0.031631164252758026
1782845474437236200,7.592236328125,0.2474670559167862,0.1432463675737381,0.021448034793138504
1782845474447240400,7.602240478515625,0.25713804364204407,0.15415175259113312,0.016771256923675537
1782845474457245400,7.612245361328125,0.2599650025367737,0.15759575366973877,0.03302985429763794
1782845474467250400,7.62225048828125,0.2606784701347351,0.15556855499744415,0.06053311750292778
1782845474477254400,7.63225439453125,0.25709784030914307,0.1473628282546997,0.08971603959798813
1782845474487259400,7.64225927734375,0.25264209508895874,0.1277984380722046,0.10733524709939957
1782845474497263400,7.652263427734375,0.25825339555740356,0.10837920755147934,0.10269122570753098
1782845474507268400,7.662268310546875,0.25765150785446167,0.09613531827926636,0.09088383615016937
1782845474517273300,7.6722734375,0.26127979159355164,0.09813455492258072,0.07274317741394043
1782845474527277600,7.682277587890625,0.25958043336868286,0.11396278440952301,0.0516916885972023
1782845474537282600,7.692282470703125,0.2561018168926239,0.13509230315685272,0.042514435946941376
1782845474547286500,7.70228662109375,0.25851571559906006,0.14711114764213562,0.04176981747150421
1782845474557291500,7.71229150390625,0.26866739988327026,0.15071867406368256,0.057261426001787186
1782845474567296500,7.722296630859375,0.28510311245918274,0.14187298715114594,0.08591943234205246
1782845474577300200,7.73230029296875,0.29934436082839966,0.13954538106918335,0.11688081175088882
1782845474587305200,7.74230517578125,0.31843656301498413,0.1407531201839447,0.1477321982383728
1782845474597310200,7.752310302734375,0.34193897247314453,0.14522430300712585,0.1745116114616394
1782845474607314400,7.762314453125,0.3712718188762665,0.14307565987110138,0.20563039183616638
1782845474617319400,7.7723193359375,0.40783196687698364,0.14214782416820526,0.23437069356441498
1782845474627323400,7.782323486328125,0.45733746886253357,0.14928029477596283,0.2663624584674835
1782845474637328400,7.792328369140625,0.4978705048561096,0.1568167805671692,0.2956883907318115
1782845474647333400,7.80233349609375,0.5426499843597412,0.1681400090456009,0.3282465934753418
1782845474657337300,7.81233740234375,0.5779166221618652,0.181915745139122,0.3545503616333008
1782845474667342300,7.82234228515625,0.6014296412467957,0.1974153369665146,0.3548465073108673
1782845474677347300,7.832347412109375,0.6069037914276123,0.21695014834403992,0.32948362827301025
1782845474687351600,7.8423515625,0.5946388840675354,0.2253207415342331,0.26666098833084106
1782845474697356500,7.8523564453125,0.5809968113899231,0.23085477948188782,0.1640949249267578
1782845474707360500,7.862360595703125,0.5698264837265015,0.23588256537914276,0.03242558240890503
1782845474717365500,7.872365478515625,0.5612921118736267,0.23081403970718384,-0.10020036995410919
1782845474727370500,7.88237060546875,0.5497869849205017,0.2002478688955307,-0.20455554127693176
1782845474737374200,7.892374267578125,0.5366482734680176,0.16088661551475525,-0.2687361240386963
1782845474747379200,7.902379150390625,0.5112220048904419,0.12172776460647583,-0.2911601960659027
1782845474757383400,7.912383544921875,0.48120203614234924,0.08388824015855789,-0.2671997547149658
1782845474767388400,7.922388427734375,0.45108383893966675,0.05200567841529846,-0.2086738497018814
1782845474777393400,7.932393310546875,0.43244674801826477,0.02436259761452675,-0.13219211995601654
1782845474787397400,7.9423974609375,0.42985203862190247,0.0008114652009680867,-0.06090595945715904
1782845474797401600,7.952401611328125,0.4356108605861664,-0.014522749930620193,-0.007555121555924416
1782845474807406600,7.962406494140625,0.4551997482776642,-0.02581189014017582,0.038952991366386414
1782845474817410600,7.97241064453125,0.4718618094921112,-0.015733689069747925,0.07618691027164459
1782845474827415600,7.98241552734375,0.48856061697006226,0.005009139887988567,0.10162356495857239
1782845474837419500,7.99241943359375,0.5082866549491882,0.020832045003771782,0.1287534534931183
1782845474847424500,8.002424560546874,0.521083414554596,0.03410524129867554,0.14770956337451935
1782845474857429500,8.012429443359375,0.5145291090011597,0.04794755205512047,0.15698908269405365
1782845474867433500,8.02243359375,0.4929042458534241,0.04903598502278328,0.15382738411426544
1782845474877438500,8.0324384765625,0.4580211043357849,0.04330353066325188,0.13675731420516968
1782845474887443500,8.042443359375,0.4153172969818115,0.034993670880794525,0.12904107570648193
1782845474897447700,8.05244775390625,0.3646847605705261,0.02365366369485855,0.12870657444000244
1782845474907452700,8.06245263671875,0.301408052444458,0.020730845630168915,0.12343964725732803
1782845474917456600,8.07245654296875,0.2414270043373108,0.020803814753890038,0.11934849619865417
1782845474927461600,8.082461669921875,0.1746455729007721,0.023387614637613297,0.11131320893764496
1782845474937466600,8.092466552734376,0.11486959457397461,0.029037510976195335,0.10811315476894379
1782845474947470600,8.102470703125,0.06692124158143997,0.04252615571022034,0.10977896302938461
1782845474957475600,8.1124755859375,0.01824132166802883,0.06297150999307632,0.11734500527381897
1782845474967480600,8.12248046875,-0.023514380678534508,0.08367252349853516,0.13672642409801483
1782845474977484500,8.132484619140625,-0.05765983462333679,0.10591232031583786,0.16119500994682312
1782845474987489500,8.142489501953126,-0.09100393950939178,0.1212766245007515,0.1881464719772339
1782845474997493500,8.152493408203124,-0.12157703191041946,0.12573155760765076,0.20989251136779785
1782845475007498500,8.16249853515625,-0.15559731423854828,0.12127795815467834,0.2257351279258728
1782845475017503500,8.17250341796875,-0.1857650727033615,0.10424438118934631,0.2477932870388031
1782845475027507500,8.182507568359375,-0.21577464044094086,0.07300443202257156,0.25468820333480835
1782845475037512400,8.192512451171876,-0.23849911987781525,0.057138919830322266,0.24420148134231567
1782845475047516700,8.2025166015625,-0.25058668851852417,0.03809625282883644,0.2117207795381546
1782845475057521700,8.212521728515625,-0.24128718674182892,0.007592672016471624,0.18061771988868713
1782845475067526700,8.222526611328124,-0.22023756802082062,-0.02141660824418068,0.1615542769432068
1782845475077530600,8.232530517578125,-0.1971101313829422,-0.04782451316714287,0.1548721343278885
1782845475087535600,8.24253564453125,-0.17107027769088745,-0.059722185134887695,0.1468283236026764
1782845475097540600,8.25254052734375,-0.14308765530586243,-0.062010638415813446,0.13151061534881592
1782845475107544600,8.262544677734375,-0.12723678350448608,-0.052556153386831284,0.1087198257446289
1782845475117549600,8.272549560546874,-0.11076805740594864,-0.03978576138615608,0.07051544636487961
1782845475127553500,8.282553466796875,-0.09524289518594742,-0.0320197194814682,0.03158801794052124
1782845475137558500,8.29255859375,-0.07805033028125763,-0.02985456772148609,-0.0016192019684240222
1782845475147563500,8.3025634765625,-0.06704454869031906,-0.018137991428375244,-0.027967985719442368
1782845475157567500,8.3125673828125,-0.054367367178201675,-0.006206230726093054,-0.04784608632326126
1782845475167572500,8.322572509765624,-0.033614419400691986,0.0049707903526723385,-0.0746244341135025
1782845475177577500,8.332577392578125,-0.022222748026251793,0.0075788237154483795,-0.08418118953704834
1782845475187581400,8.34258154296875,-0.027952006086707115,0.01230646762996912,-0.0758630707859993
1782845475197586400,8.35258642578125,-0.042369294911623,0.013125921599566936,-0.03572923690080643
1782845475207590700,8.362590576171876,-0.054485611617565155,0.01227504201233387,0.017916416749358177
1782845475217595600,8.372595703125,-0.0748974084854126,0.003887948812916875,0.08074038475751877
1782845475227600600,8.3826005859375,-0.10117881745100021,0.00586721021682024,0.14483600854873657
1782845475237604600,8.3926044921875,-0.13510268926620483,0.004093545023351908,0.18334293365478516
1782845475247609600,8.402609619140625,-0.16489015519618988,0.007137537933886051,0.1985655575990677
1782845475257613600,8.412613525390626,-0.19708457589149475,-0.0036613137926906347,0.2017000913619995
1782845475267618600,8.42261865234375,-0.21921464800834656,-0.02497006393969059,0.1825636923313141
1782845475277623600,8.43262353515625,-0.2392496019601822,-0.04608600214123726,0.1477457880973816
1782845475287627500,8.44262744140625,-0.26453259587287903,-0.06717584282159805,0.12541890144348145
1782845475297632500,8.452632568359375,-0.29344892501831055,-0.0869641900062561,0.10823619365692139
1782845475307637500,8.462637451171876,-0.32149574160575867,-0.10027946531772614,0.0971667617559433
1782845475317641500,8.472641357421875,-0.3481428027153015,-0.08758258074522018,0.0906611904501915
1782845475327646500,8.482646484375,-0.3640618324279785,-0.05949688330292702,0.09300024807453156
1782845475337650400,8.492650390625,-0.3641345500946045,-0.024175643920898438,0.08575724810361862
1782845475347655400,8.502655517578125,-0.3493231236934662,0.0049550775438547134,0.07139748334884644
1782845475357660400,8.512660400390626,-0.3190440237522125,0.02479829080402851,0.04910709336400032
1782845475367664600,8.52266455078125,-0.2785986065864563,0.03509380668401718,0.022672289982438087
1782845475377669600,8.532669677734376,-0.23812468349933624,0.04476986825466156,-0.017011741176247597
1782845475387673600,8.542673583984374,-0.1859903782606125,0.049184590578079224,-0.06626370549201965
1782845475397678600,8.5526787109375,-0.13539031147956848,0.0481419637799263,-0.10716613382101059
1782845475407683600,8.56268359375,-0.09416085481643677,0.036853887140750885,-0.13284966349601746
1782845475417687600,8.5726875,-0.06734947860240936,0.025319205597043037,-0.1399858593940735
1782845475427692500,8.582692626953126,-0.04966449365019798,0.006183859892189503,-0.13269945979118347
1782845475437697500,8.592697509765625,-0.03845178335905075,-0.00965395849198103,-0.10536370426416397
1782845475447701500,8.602701416015625,-0.031134217977523804,-0.032213594764471054,-0.08982016891241074
1782845475457706500,8.61270654296875,-0.023309050127863884,-0.06527753919363022,-0.07767029106616974
1782845475467710500,8.62271044921875,-0.010331733152270317,-0.10772593319416046,-0.06472493708133698
1782845475477715500,8.632715576171876,-0.002891926560550928,-0.14535319805145264,-0.05041177570819855
1782845475487720400,8.642720458984375,0.004241084214299917,-0.14163729548454285,-0.02557540126144886
1782845475497724400,8.652724365234375,0.017650099471211433,-0.11220510303974152,0.0019004317000508308
1782845475507729400,8.6627294921875,0.015065502375364304,-0.020012591034173965,0.07031890749931335
1782845475517734400,8.672734375,-0.043599940836429596,0.04313202574849129,0.15781493484973907
1782845475527738600,8.682738525390626,-0.06950078159570694,-0.053643520921468735,0.11786964535713196
1782845475537743600,8.69274365234375,-0.06794975697994232,-0.16799139976501465,0.0860573872923851
1782845475547747600,8.70274755859375,-0.05865079537034035,-0.26292750239372253,0.08513487130403519
1782845475557752600,8.712752685546874,-0.0726851224899292,-0.32684096693992615,0.094844751060009
1782845475567757600,8.722757568359375,-0.12275761365890503,-0.32156097888946533,0.10139932483434677
1782845475577761500,8.732761474609376,-0.17293661832809448,-0.2803642749786377,0.12248090654611588
1782845475587766500,8.7427666015625,-0.22363975644111633,-0.2165437638759613,0.1348121464252472
