time,seconds_elapsed,z,y,x
1782845466931271400,0.086271484375,-0.22019249200820923,-0.0378655306994915,-0.029626892879605293
1782845466941275400,0.096275390625,-0.22963286936283112,-0.02949255332350731,-0.013728620484471321
1782845466951280400,0.1062802734375,-0.23957669734954834,-0.018968403339385986,-0.007841089740395546
1782845466961285400,0.116285400390625,-0.24377863109111786,-0.012711837887763977,-0.010774028487503529
1782845466971289300,0.126289306640625,-0.24168318510055542,-0.012066055089235306,-0.021368250250816345
1782845466981294300,0.13629443359375,-0.23148088157176971,-0.017708495259284973,-0.03916935250163078
1782845466991298300,0.14629833984375,-0.215937077999115,-0.01913648098707199,-0.052840154618024826
1782845467001303300,0.15630322265625,-0.20833802223205566,-0.018020350486040115,-0.07594148069620132
1782845467011308300,0.166308349609375,-0.201824352145195,-0.009005369618535042,-0.08617293834686279
1782845467021312300,0.176312255859375,-0.20360307395458221,-0.0023730332031846046,-0.08706376701593399
1782845467031317200,0.186317138671875,-0.19582374393939972,-0.0010717606637626886,-0.08245653659105301
1782845467041322200,0.196322265625,-0.1859852373600006,-0.009562717750668526,-0.06498007476329803
1782845467051326200,0.206326171875,-0.1640763133764267,-0.017230885103344917,-0.047993287444114685
1782845467061331200,0.216331298828125,-0.1463298201560974,-0.013359447941184044,-0.03780243545770645
1782845467071335400,0.22633544921875,-0.12500232458114624,-0.01139072049409151,-0.023153960704803467
1782845467081340400,0.23634033203125,-0.10239288955926895,-0.0053599923849105835,-0.011212614364922047
1782845467091345400,0.246345458984375,-0.07874508202075958,-0.005464920774102211,0.005387668032199144
1782845467101349400,0.256349365234375,-0.050778958946466446,-0.01864277385175228,0.019814012572169304
1782845467111354400,0.266354248046875,-0.028074108064174652,-0.03941333293914795,0.03706473484635353
1782845467121358300,0.2763583984375,-0.008235421031713486,-0.05291716009378433,0.049796778708696365
1782845467131363300,0.28636328125,0.025535009801387787,-0.07468180358409882,0.07210187613964081
1782845467141368300,0.296368408203125,0.062156934291124344,-0.09189700335264206,0.10883166640996933
1782845467151372300,0.306372314453125,0.1025681272149086,-0.09947995841503143,0.14594539999961853
1782845467161377300,0.316377197265625,0.1275824010372162,-0.10534876585006714,0.18778684735298157
1782845467171382500,0.326382568359375,0.13325031101703644,-0.10101784765720367,0.22650188207626343
1782845467181386200,0.33638623046875,0.11065232753753662,-0.08460479229688644,0.23815160989761353
1782845467191391200,0.34639111328125,0.0527382530272007,-0.06372202187776566,0.22115828096866608
1782845467201395200,0.356395263671875,-0.013853556476533413,-0.04209848865866661,0.1864868551492691
1782845467211400200,0.366400146484375,-0.07790245860815048,-0.014991048723459244,0.12012889981269836
1782845467221405200,0.3764052734375,-0.10681160539388657,0.019416727125644684,0.03546833619475365
1782845467231409400,0.386409423828125,-0.10728763788938522,0.03865494951605797,-0.05132651701569557
1782845467241414400,0.396414306640625,-0.09310071170330048,0.03469455987215042,-0.12944021821022034
1782845467251418400,0.40641845703125,-0.059328507632017136,0.004260144662111998,-0.20179268717765808
1782845467261423400,0.41642333984375,-0.01446329802274704,-0.05382020026445389,-0.2462158054113388
1782845467271428400,0.426428466796875,0.025782128795981407,-0.11368267238140106,-0.2732047140598297
1782845467281432300,0.436432373046875,0.048448026180267334,-0.13377223908901215,-0.2724995017051697
1782845467291437300,0.446437255859375,0.06765800714492798,-0.15228402614593506,-0.2464696168899536
1782845467301442300,0.4564423828125,0.08151470124721527,-0.18169623613357544,-0.21197183430194855
1782845467311446300,0.4664462890625,0.09957175701856613,-0.18710005283355713,-0.15379199385643005
1782845467321451500,0.476451416015625,0.12038116157054901,-0.17900671064853668,-0.08451944589614868
1782845467331455200,0.486455322265625,0.14372961223125458,-0.17285287380218506,-0.013859431259334087
1782845467341460200,0.496460205078125,0.16628392040729523,-0.17517994344234467,0.03957156836986542
1782845467351465200,0.50646533203125,0.19694054126739502,-0.17087645828723907,0.09543389081954956
1782845467361469200,0.51646923828125,0.21947407722473145,-0.15274645388126373,0.16592857241630554
1782845467371474200,0.52647412109375,0.2409333437681198,-0.14869743585586548,0.2414802461862564
1782845467381478400,0.536478515625,0.2536936104297638,-0.15330655872821808,0.2914033532142639
1782845467391483400,0.5464833984375,0.24322080612182617,-0.14274084568023682,0.3346506655216217
1782845467401488400,0.55648828125,0.20462866127490997,-0.1688573956489563,0.35548803210258484
1782845467411492400,0.566492431640625,0.1367524415254593,-0.11086811870336533,0.3441774845123291
1782845467421497300,0.576497314453125,0.04666462540626526,-0.052664730697870255,0.2962624430656433
1782845467431502300,0.58650244140625,-0.04718359559774399,-0.00393842114135623,0.2187848836183548
1782845467441506300,0.59650634765625,-0.13430757820606232,0.013853891752660275,0.11436101049184799
1782845467451511300,0.60651123046875,-0.2116456776857376,-0.014626961201429367,-0.0004775110282935202
1782845467461515500,0.616515625,-0.2825598120689392,-0.09150656312704086,-0.09906533360481262
1782845467471520500,0.6265205078125,-0.3317233622074127,-0.15336741507053375,-0.17923785746097565
1782845467481525500,0.636525390625,-0.3585589826107025,-0.1987210512161255,-0.2387765496969223
1782845467491529200,0.646529296875,-0.361200213432312,-0.23567603528499603,-0.26189664006233215
1782845467501534200,0.6565341796875,-0.3679955303668976,-0.2396625131368637,-0.25579801201820374
1782845467511538200,0.6665380859375,-0.3830329477787018,-0.19264820218086243,-0.22494323551654816
1782845467521543200,0.676543212890625,-0.36507686972618103,-0.1915871948003769,-0.2043793797492981
1782845467531548200,0.686548095703125,-0.3322758972644806,-0.17670612037181854,-0.17962999641895294
1782845467541552400,0.696552490234375,-0.29990142583847046,-0.15725412964820862,-0.16166085004806519
1782845467551557400,0.706557373046875,-0.2671818435192108,-0.16630525887012482,-0.15566977858543396
1782845467561562400,0.716562255859375,-0.22115468978881836,-0.1678573489189148,-0.16686996817588806
1782845467571566300,0.72656640625,-0.16803032159805298,-0.1692761331796646,-0.18606685101985931
1782845467581571300,0.7365712890625,-0.10425347089767456,-0.16721591353416443,-0.2014828324317932
1782845467591575300,0.7465751953125,-0.03823348134756088,-0.16297520697116852,-0.1987602561712265
1782845467601580300,0.756580322265625,0.010471737943589687,-0.14827455580234528,-0.18700213730335236
1782845467611585300,0.766585205078125,0.0430094413459301,-0.13390600681304932,-0.17821024358272552
1782845467621589500,0.776589599609375,0.053794976323843,-0.11709266901016235,-0.17747440934181213
1782845467631594500,0.786594482421875,0.04990547522902489,-0.09922029078006744,-0.18468669056892395
1782845467641598200,0.79659814453125,0.03819901868700981,-0.08598092198371887,-0.20704792439937592
1782845467651603200,0.806603271484375,0.018488939851522446,-0.0761871486902237,-0.24342793226242065
1782845467661608200,0.816608154296875,-0.017016591504216194,-0.06255443394184113,-0.2943025529384613
1782845467671612200,0.826612060546875,-0.06343703716993332,-0.03940015286207199,-0.3537009656429291
1782845467681617200,0.8366171875,-0.11422272026538849,-0.018670909106731415,-0.41003960371017456
1782845467691622100,0.8466220703125,-0.15261434018611908,0.015506554394960403,-0.4669245183467865
1782845467701626400,0.85662646484375,-0.19488856196403503,0.04052428901195526,-0.5115175247192383
1782845467711631400,0.86663134765625,-0.23766782879829407,0.058390773832798004,-0.5320860743522644
1782845467721635300,0.87663525390625,-0.2698366940021515,0.06982852518558502,-0.5263400673866272
1782845467731640300,0.886640380859375,-0.28740331530570984,0.06452682614326477,-0.4805434048175812
1782845467741645300,0.896645263671875,-0.2864874601364136,0.04592278227210045,-0.402889609336853
1782845467751649300,0.906649169921875,-0.2795226573944092,0.028704501688480377,-0.31201639771461487
1782845467761654300,0.916654296875,-0.26235300302505493,0.01289251446723938,-0.2258325070142746
1782845467771658500,0.926658447265625,-0.23790805041790009,-0.0034835105761885643,-0.14199694991111755
1782845467781663500,0.93666357421875,-0.21425998210906982,-0.03683853894472122,-0.06351810693740845
1782845467791667700,0.946667724609375,-0.18389834463596344,-0.05714120715856552,-0.0006298063672147691
1782845467801671700,0.956671630859375,-0.1557420790195465,-0.055725470185279846,0.033203527331352234
1782845467811676700,0.9666767578125,-0.1266968697309494,-0.03349308297038078,0.032137952744960785
1782845467821681700,0.976681640625,-0.10365120321512222,-0.01163066178560257,0.016784293577075005
1782845467831685600,0.986685546875,-0.07804369926452637,-0.004782205447554588,-0.001088100136257708
1782845467841690600,0.996690673828125,-0.05755999684333801,-0.0084941191598773,0.009994111955165863
1782845467851694600,1.006694580078125,-0.04546019062399864,-0.017673565074801445,0.013486198149621487
1782845467861699600,1.016699462890625,-0.03299713134765625,-0.02497914806008339,0.020318537950515747
1782845467871704600,1.02670458984375,-0.02817729488015175,-0.02497333101928234,0.031463537365198135
1782845467881708500,1.03670849609375,-0.02589230239391327,-0.023023897781968117,0.057280223816633224
1782845467891713500,1.046713623046875,-0.03287488967180252,-0.031952306628227234,0.08414477109909058
1782845467901717800,1.0567177734375,-0.045542217791080475,-0.03235364705324173,0.10501117259263992
1782845467911722800,1.06672265625,-0.05116059258580208,-0.021755743771791458,0.11145205795764923
1782845467921727700,1.076727783203125,-0.05106045678257942,-0.009969391860067844,0.09765394777059555
1782845467931731700,1.086731689453125,-0.060465238988399506,0.0060338955372571945,0.06368917971849442
1782845467941736700,1.09673681640625,-0.05484330654144287,0.028040127828717232,0.027890169993042946
1782845467951741700,1.10674169921875,-0.04729641228914261,0.0314469151198864,-0.000581673695705831
1782845467961745700,1.11674560546875,-0.03057948686182499,0.030940648168325424,-0.01375926099717617
1782845467971750700,1.126750732421875,-0.008676611818373203,0.035107094794511795,-0.016812318935990334
1782845467981754600,1.136754638671875,0.014744558371603489,0.03572548180818558,0.00173926108982414
1782845467991759600,1.146759521484375,0.03302587568759918,0.031554657965898514,0.02734282985329628
1782845468001764600,1.1567646484375,0.0469542071223259,0.02924303524196148,0.042649347335100174
1782845468011768600,1.1667685546875,0.068599633872509,0.042436495423316956,0.05223282054066658
1782845468021773600,1.176773681640625,0.08145923912525177,0.04643363505601883,0.06988079100847244
1782845468031777500,1.186777587890625,0.09293847531080246,0.04472878575325012,0.08243803679943085
1782845468041782500,1.196782470703125,0.10385876893997192,0.04815653711557388,0.09055748581886292
1782845468051787500,1.20678759765625,0.11233282834291458,0.04766378551721573,0.10233284533023834
1782845468061791700,1.216791748046875,0.12148584425449371,0.050617765635252,0.10503089427947998
1782845468071796700,1.226796630859375,0.13605618476867676,0.0644185021519661,0.1008623018860817
1782845468081800700,1.23680078125,0.154550239443779,0.07695240527391434,0.10565918684005737
1782845468091805700,1.2468056640625,0.17943401634693146,0.09775383025407791,0.11224811524152756
1782845468101810700,1.256810791015625,0.20845715701580048,0.12186209112405777,0.1232437714934349
1782845468111814700,1.266814697265625,0.24155455827713013,0.12468139827251434,0.1367703527212143
1782845468121819600,1.276819580078125,0.267530232667923,0.12845829129219055,0.15574723482131958
1782845468131824600,1.28682470703125,0.28779837489128113,0.12908966839313507,0.17911773920059204
1782845468141828600,1.29682861328125,0.29066261649131775,0.12603767216205597,0.20318126678466797
1782845468151833600,1.30683349609375,0.28280675411224365,0.12346857041120529,0.21911048889160156
1782845468161837600,1.316837646484375,0.26768985390663147,0.11566124111413956,0.20945413410663605
1782845468171842600,1.326842529296875,0.24281640350818634,0.11290884763002396,0.18134282529354095
1782845468181847600,1.33684765625,0.2259088009595871,0.10929574072360992,0.1365673542022705
1782845468191851500,1.3468515625,0.2118324488401413,0.10616500675678253,0.09024398028850555
1782845468201856500,1.3568564453125,0.20044556260108948,0.10613198578357697,0.05369502305984497
1782845468211860700,1.36686083984375,0.19936995208263397,0.10580968856811523,0.034207649528980255
1782845468221865700,1.37686572265625,0.2016458809375763,0.09679808467626572,0.032343171536922455
1782845468231870700,1.38687060546875,0.21576924622058868,0.08682573586702347,0.023561159148812294
1782845468241874700,1.396874755859375,0.23370909690856934,0.0861828476190567,0.02786775678396225
1782845468251879700,1.406879638671875,0.2520658075809479,0.09729932248592377,0.03488223999738693
1782845468261884700,1.416884765625,0.2599961757659912,0.09631980955600739,0.04913414642214775
1782845468271888600,1.426888671875,0.26989632844924927,0.07030171900987625,0.07845478504896164
1782845468281893600,1.4368935546875,0.2635694742202759,0.028548939153552055,0.10628907382488251
1782845468291897600,1.446897705078125,0.2544792592525482,-0.020753372460603714,0.12640270590782166
1782845468301902600,1.456902587890625,0.24457044899463654,-0.05694493278861046,0.12769567966461182
1782845468311907600,1.466907470703125,0.22421251237392426,-0.08664459735155106,0.11994532495737076
1782845468321911600,1.47691162109375,0.1969878226518631,-0.09612758457660675,0.12089820951223373
1782845468331916500,1.48691650390625,0.17892615497112274,-0.08815739303827286,0.11790372431278229
1782845468341920500,1.49692041015625,0.1677110493183136,-0.06770458817481995,0.11462084203958511
1782845468351925500,1.506925537109375,0.1714020073413849,-0.05069980025291443,0.1190367266535759
1782845468361930500,1.516930419921875,0.19420824944972992,-0.05096558481454849,0.11449923366308212
1782845468371934700,1.526934814453125,0.2057768702507019,-0.0489865243434906,0.10837136954069138
1782845468381939700,1.536939697265625,0.1934075504541397,-0.06143733486533165,0.11017592996358871
1782845468391944700,1.54694482421875,0.14850886166095734,-0.06379751861095428,0.10219547897577286
1782845468401948700,1.55694873046875,0.08289603888988495,-0.037753403186798096,0.06217828765511513
1782845468411953700,1.56695361328125,0.028586652129888535,-0.01595054194331169,-0.0136674540117383
1782845468421957600,1.57695751953125,-0.0024602129124104977,0.0287127997726202,-0.11054286360740662
1782845468431962600,1.586962646484375,0.002138461684808135,0.06474040448665619,-0.19831398129463196
1782845468441967600,1.596967529296875,0.03030618280172348,0.09126895666122437,-0.2567956745624542
1782845468451971600,1.6069716796875,0.07745304703712463,0.08540299534797668,-0.29002389311790466
1782845468461976600,1.6169765625,0.12098453938961029,0.04282917082309723,-0.2828719913959503
1782845468471981600,1.626981689453125,0.13936899602413177,-0.03008991666138172,-0.249180406332016
1782845468481985500,1.636985595703125,0.13847070932388306,-0.10208261758089066,-0.1936447024345398
1782845468491990500,1.646990478515625,0.13151004910469055,-0.14878204464912415,-0.11911872029304504
1782845468501994500,1.656994384765625,0.1293496936559677,-0.1628914773464203,-0.03922015428543091
1782845468511999500,1.66699951171875,0.11426045000553131,-0.15934382379055023,0.030751265585422516
1782845468522004500,1.67700439453125,0.10837060213088989,-0.13402383029460907,0.09363596141338348
1782845468532008700,1.6870087890625,0.11031335592269897,-0.1249919980764389,0.12440621852874756
1782845468542013700,1.697013671875,0.11550837755203247,-0.11714765429496765,0.10576063394546509
1782845468552017700,1.707017578125,0.1166195422410965,-0.10657679289579391,0.050744250416755676
1782845468562022700,1.717022705078125,0.11296115815639496,-0.0994831994175911,-0.005997593514621258
1782845468572027600,1.727027587890625,0.09456126391887665,-0.07804541289806366,-0.05097084492444992
1782845468582031600,1.737031494140625,0.07397076487541199,-0.05785306170582771,-0.06716632843017578
1782845468592036600,1.74703662109375,0.03581224009394646,-0.0446854904294014,-0.05292457342147827
1782845468602040600,1.75704052734375,-0.023179439827799797,-0.02454107627272606,-0.033701345324516296
1782845468612045600,1.767045654296875,-0.09795458614826202,-0.0010586443822830915,-0.004914009012281895
1782845468622050600,1.777050537109375,-0.17992134392261505,0.01862344704568386,0.00916798785328865
1782845468632054500,1.787054443359375,-0.2646971046924591,0.05189424380660057,0.016276534646749496
1782845468642059500,1.7970595703125,-0.34564337134361267,0.08624795824289322,0.00749955466017127
1782845468652064500,1.807064453125,-0.42100828886032104,0.14202560484409332,-0.013492199592292309
1782845468662068500,1.817068359375,-0.4793000817298889,0.2144625186920166,-0.020892059430480003
1782845468672073700,1.82707373046875,-0.5283898115158081,0.2772880792617798,-0.00020089512690901756
1782845468682077700,1.83707763671875,-0.5623453855514526,0.3276476562023163,0.022912679240107536
1782845468692082700,1.847082763671875,-0.571183979511261,0.3741856515407562,0.02917543053627014
1782845468702087700,1.857087646484375,-0.5483761429786682,0.39913442730903625,0.02291220799088478
1782845468712091600,1.867091552734375,-0.5065672397613525,0.38631030917167664,0.04666123539209366
1782845468722096600,1.8770966796875,-0.43913254141807556,0.34681829810142517,0.08218434453010559
1782845468732101600,1.8871015625,-0.3544207215309143,0.29481014609336853,0.12183697521686554
1782845468742105600,1.897105712890625,-0.2662229537963867,0.24741095304489136,0.15143507719039917
1782845468752110600,1.907110595703125,-0.17049363255500793,0.19754599034786224,0.16761144995689392
1782845468762114600,1.917114501953125,-0.08114645630121231,0.14424069225788116,0.17915599048137665
1782845468772119800,1.927119873046875,-0.017937852069735527,0.10708097368478775,0.1893090158700943
1782845468782124800,1.937124755859375,0.02980889566242695,0.11595462262630463,0.20211030542850494
1782845468792128300,1.947128173828125,0.06621097028255463,0.14660699665546417,0.23397080600261688
1782845468802133200,1.95713330078125,0.09409186244010925,0.1673431694507599,0.28236016631126404
1782845468812137500,1.967137451171875,0.09077640622854233,0.18237674236297607,0.3329663574695587
1782845468822142500,1.977142578125,0.055714286863803864,0.20509883761405945,0.35747382044792175
1782845468832147500,1.9871474609375,0.009864412248134613,0.2245887815952301,0.3585984408855438
1782845468842151400,1.9971513671875,-0.040069855749607086,0.2308187186717987,0.33373865485191345
1782845468852156400,2.007156494140625,-0.10470255464315414,0.24293148517608643,0.280008465051651
1782845468862161400,2.017161376953125,-0.17258785665035248,0.2437370866537094,0.20769937336444855
1782845468872165400,2.027165283203125,-0.23648031055927277,0.24345558881759644,0.13666124641895294
1782845468882170400,2.03717041015625,-0.3106544017791748,0.25075557827949524,0.0691237524151802
1782845468892174600,2.047174560546875,-0.3870711028575897,0.2536136507987976,0.007695749402046204
1782845468902179600,2.0571796875,-0.45712822675704956,0.2543822228908539,-0.04153677821159363
1782845468912184600,2.0671845703125,-0.5105080604553223,0.23488731682300568,-0.07229459285736084
1782845468922188500,2.0771884765625,-0.5553524494171143,0.21016652882099152,-0.08663918077945709
1782845468932193500,2.087193603515625,-0.5876795649528503,0.18187053501605988,-0.09848612546920776
1782845468942197200,2.097197265625,-0.6168915033340454,0.15809889137744904,-0.10843702405691147
1782845468952202200,2.1072021484375,-0.6394049525260925,0.13395747542381287,-0.11481665074825287
1782845468962207200,2.117207275390625,-0.6508461236953735,0.1201857477426529,-0.11423981189727783
1782845468972211500,2.12721142578125,-0.6552290916442871,0.11724705994129181,-0.10945504903793335
1782845468982216400,2.137216552734375,-0.641482412815094,0.11543264240026474,-0.1089429184794426
1782845468992221400,2.147221435546875,-0.6203097701072693,0.10202907025814056,-0.11259430646896362
1782845469002225400,2.157225341796875,-0.5862676501274109,0.08595556020736694,-0.11972571909427643
1782845469012230400,2.16723046875,-0.5450132489204407,0.06019163876771927,-0.13078245520591736
1782845469022234400,2.177234375,-0.4949537515640259,0.03367214649915695,-0.13895756006240845
1782845469032239400,2.1872392578125,-0.4404466450214386,0.016285263001918793,-0.15243686735630035
1782845469042244400,2.197244384765625,-0.39083409309387207,-0.0034948335960507393,-0.15479829907417297
1782845469052248600,2.20724853515625,-0.3483295142650604,-0.02008020132780075,-0.1536904275417328
1782845469062253600,2.217253662109375,-0.32161855697631836,-0.026250213384628296,-0.13348208367824554
1782845469072257500,2.227257568359375,-0.3078855872154236,-0.02845359407365322,-0.1074877455830574
1782845469082262500,2.237262451171875,-0.3067407011985779,-0.029440028592944145,-0.08914069831371307
1782845469092267500,2.247267578125,-0.29571282863616943,-0.03330214321613312,-0.07578068226575851
1782845469102271200,2.257271240234375,-0.2783106565475464,-0.04786883667111397,-0.07094705104827881
1782845469112276200,2.267276123046875,-0.2620968818664551,-0.06652051955461502,-0.0667199119925499
1782845469122281500,2.277281494140625,-0.2367531657218933,-0.08246539533138275,-0.059015121310949326
1782845469132285400,2.287285400390625,-0.21576733887195587,-0.09926336258649826,-0.039844851940870285
1782845469142290400,2.29729052734375,-0.21204769611358643,-0.12412875890731812,-0.02731148526072502
1782845469152294400,2.30729443359375,-0.21780070662498474,-0.1307501345872879,-0.02250627987086773
1782845469162299400,2.31729931640625,-0.22467964887619019,-0.14197322726249695,-0.02034991979598999
1782845469172304400,2.327304443359375,-0.22672010958194733,-0.15398328006267548,-0.0314192958176136
1782845469182308400,2.337308349609375,-0.23058515787124634,-0.1652527004480362,-0.035891544073820114
1782845469192313300,2.347313232421875,-0.2243768274784088,-0.17556454241275787,-0.03382574021816254
1782845469202317600,2.357317626953125,-0.20854008197784424,-0.18907208740711212,-0.007749129086732864
1782845469212322600,2.367322509765625,-0.19329501688480377,-0.2015509009361267,0.0046363715082407
1782845469222327600,2.37732763671875,-0.15541821718215942,-0.2168092280626297,-0.003583475248888135
1782845469232331500,2.38733154296875,-0.09674689173698425,-0.24065834283828735,-0.013048188760876656
1782845469242336500,2.39733642578125,-0.02596246264874935,-0.2615564167499542,0.006905013229697943
1782845469252341500,2.407341552734375,0.03511178493499756,-0.27952373027801514,0.0772450640797615
1782845469262345500,2.417345458984375,0.07980281859636307,-0.2760520279407501,0.18207933008670807
1782845469272350500,2.4273505859375,0.12441335618495941,-0.2644997537136078,0.2905023694038391
1782845469282354400,2.4373544921875,0.14999249577522278,-0.24008306860923767,0.36930158734321594
1782845469292359400,2.447359375,0.15594524145126343,-0.2152857780456543,0.3961546719074249
1782845469302364400,2.457364501953125,0.18505331873893738,-0.18301784992218018,0.3851337134838104
1782845469312368400,2.467368408203125,0.1782945692539215,-0.15889935195446014,0.3142704963684082
1782845469322373400,2.477373291015625,0.12006589770317078,-0.1101302057504654,0.1412971168756485
1782845469332378400,2.48737841796875,0.021894007921218872,-0.0859350860118866,-0.10221641510725021
1782845469342382300,2.49738232421875,-0.08339007198810577,-0.10417027771472931,-0.36449968814849854
1782845469352387300,2.50738720703125,-0.16008912026882172,-0.16602426767349243,-0.5658144354820251
1782845469362391600,2.5173916015625,-0.1845417320728302,-0.24556836485862732,-0.6630150675773621
1782845469372396500,2.527396484375,-0.15505854785442352,-0.3048875331878662,-0.6210082769393921
1782845469382401500,2.537401611328125,-0.09457682073116302,-0.33537620306015015,-0.4696909189224243
1782845469392405500,2.547405517578125,-0.03942190855741501,-0.346802294254303,-0.2866058349609375
1782845469402410500,2.557410400390625,-0.015419638715684414,-0.34876877069473267,-0.14440423250198364
1782845469412414500,2.56741455078125,0.0038618394173681736,-0.3488568663597107,-0.022793203592300415
1782845469422419500,2.57741943359375,0.046086788177490234,-0.34464001655578613,0.0823792889714241
1782845469432424400,2.587424560546875,0.07222329825162888,-0.31761443614959717,0.17057766020298004
1782845469442428400,2.597428466796875,0.06389026343822479,-0.2551252245903015,0.22204938530921936
1782845469452433400,2.607433349609375,0.04144066572189331,-0.1541331708431244,0.2374499887228012
1782845469462438400,2.6174384765625,0.021138858050107956,-0.056056149303913116,0.2465798407793045
1782845469472442400,2.6274423828125,0.007374425418674946,0.005909550003707409,0.26833605766296387
1782845469482447400,2.637447265625,0.004373575560748577,0.03976631537079811,0.28899872303009033
1782845469492451300,2.647451416015625,0.0054498594254255295,0.05469970405101776,0.3005041182041168
1782845469502456300,2.657456298828125,0.006666391156613827,0.05944279208779335,0.3097338378429413
1782845469512461300,2.66746142578125,0.00692854356020689,0.0656374841928482,0.295073002576828
1782845469522465500,2.677465576171875,0.007972503080964088,0.07877060025930405,0.24285294115543365
1782845469532470500,2.687470458984375,0.02397885173559189,0.08964645862579346,0.14596746861934662
1782845469542474500,2.697474609375,0.03458994999527931,0.09853209555149078,0.02361200749874115
1782845469552479500,2.7074794921875,0.046465855091810226,0.10403355956077576,-0.07800465077161789
1782845469562484500,2.717484375,0.06016302481293678,0.10351850837469101,-0.14653417468070984
1782845469572488400,2.727488525390625,0.06995341181755066,0.09535674005746841,-0.18670189380645752
1782845469582493400,2.737493408203125,0.07933599501848221,0.08764875680208206,-0.2060212641954422
1782845469592498400,2.74749853515625,0.08292175084352493,0.061253003776073456,-0.2083350270986557
1782845469602502400,2.75750244140625,0.09007233381271362,0.025368239730596542,-0.20074288547039032
1782845469612507400,2.76750732421875,0.08625638484954834,-0.01581050269305706,-0.19720113277435303
1782845469622511400,2.777511474609375,0.07461810857057571,-0.0456717275083065,-0.2002488523721695
1782845469632516400,2.787516357421875,0.06269901245832443,-0.06909115612506866,-0.21442663669586182
1782845469642521300,2.797521240234375,0.048378925770521164,-0.07717464864253998,-0.2289043813943863
1782845469652525300,2.807525390625,0.043337974697351456,-0.06728700548410416,-0.25167137384414673
1782845469662530300,2.8175302734375,0.042130231857299805,-0.04080053046345711,-0.2613929808139801
1782845469672534500,2.827534423828125,0.03192371502518654,-0.016569331288337708,-0.2524535059928894
1782845469682539500,2.83753955078125,0.01970965787768364,0.0034861350432038307,-0.23160918056964874
1782845469692544500,2.84754443359375,0.0028149785939604044,0.022404631599783897,-0.20645037293434143
1782845469702548500,2.857548583984375,-0.013035090640187263,0.025456879287958145,-0.1814747154712677
1782845469712553500,2.867553466796875,-0.023028969764709473,0.019724184647202492,-0.15904982388019562
1782845469722558500,2.877558349609375,-0.03829660266637802,-0.0030042973812669516,-0.1239917054772377
1782845469732562400,2.8875625,-0.05125404894351959,-0.02394784428179264,-0.08344895392656326
1782845469742567400,2.8975673828125,-0.056331098079681396,-0.04044586047530174,-0.034053705632686615
1782845469752571400,2.9075712890625,-0.0558621846139431,-0.03205254673957825,0.012937525287270546
1782845469762576400,2.917576416015625,-0.04133810102939606,-0.014716167002916336,0.053305454552173615
1782845469772581400,2.927581298828125,-0.017676424235105515,0.0004825030919164419,0.09621366858482361
1782845469782585300,2.93758544921875,0.011363215744495392,0.0039534009993076324,0.13512910902500153
1782845469792591000,2.947591064453125,0.04077840596437454,0.005326954647898674,0.16615235805511475
1782845469802596000,2.95759619140625,0.0735507383942604,0.004604439251124859,0.17806601524353027
1782845469812600000,2.96760009765625,0.10563831031322479,0.00913499016314745,0.15834951400756836
1782845469822605000,2.97760498046875,0.13479779660701752,0.01313905231654644,0.11145417392253876
1782845469832609300,2.987609375,0.16441825032234192,0.018448710441589355,0.04773465543985367
1782845469842614300,2.9976142578125,0.18674832582473755,0.0209366362541914,-0.01284826546907425
1782845469852619300,3.007619384765625,0.20586974918842316,0.021376684308052063,-0.07797744870185852
1782845469862623200,3.017623291015625,0.21498094499111176,0.030470581725239754,-0.13577710092067719
1782845469872628200,3.027628173828125,0.21496403217315674,0.04852880910038948,-0.18488241732120514
1782845469882632200,3.037632080078125,0.20551593601703644,0.05877265706658363,-0.22092989087104797
1782845469892637200,3.04763720703125,0.20201188325881958,0.05576901137828827,-0.24914014339447021
1782845469902642200,3.05764208984375,0.20809347927570343,0.02768198400735855,-0.2855902910232544
1782845469912646100,3.067646240234375,0.21319423615932465,-0.005067644640803337,-0.31467002630233765
1782845469922651100,3.077651123046875,0.20713049173355103,-0.029542094096541405,-0.3368144929409027
1782845469932656000,3.08765625,0.19999966025352478,-0.04864585027098656,-0.33793532848358154
1782845469942660000,3.09766015625,0.19793517887592316,-0.05785239860415459,-0.33325907588005066
1782845469952665000,3.1076650390625,0.19067829847335815,-0.04596112668514252,-0.31804221868515015
1782845469962669000,3.1176689453125,0.17961446940898895,-0.03243812918663025,-0.2973635494709015
1782845469972674000,3.127674072265625,0.17297868430614471,-0.022105177864432335,-0.277048259973526
1782845469982679000,3.137678955078125,0.16636686027050018,-0.003794614225625992,-0.2577113211154938
1782845469992683300,3.147683349609375,0.15619535744190216,0.015238940715789795,-0.2331472635269165
1782845470002688300,3.157688232421875,0.13804511725902557,0.029071930795907974,-0.20122689008712769
1782845470012692200,3.167692138671875,0.12497017532587051,0.03256027027964592,-0.1602369248867035
1782845470022697200,3.177697265625,0.11149778217077255,0.04151541367173195,-0.1212458461523056
1782845470032702200,3.1877021484375,0.08865664154291153,0.039809536188840866,-0.08950253576040268
1782845470042706200,3.1977060546875,0.07768628001213074,0.032148685306310654,-0.07891620695590973
1782845470052711200,3.207711181640625,0.07265405356884003,0.0200140830129385,-0.06642217934131622
1782845470062716200,3.217716064453125,0.08203663676977158,0.01598978042602539,-0.06254754215478897
1782845470072720100,3.22772021484375,0.10223426669836044,0.019996875897049904,-0.06454101204872131
1782845470082725000,3.23772509765625,0.11992618441581726,0.03724217414855957,-0.0553741417825222
1782845470092729000,3.24772900390625,0.1468847244977951,0.04584634304046631,-0.046474918723106384
1782845470102734000,3.257734130859375,0.1791744828224182,0.051236312836408615,-0.047858696430921555
1782845470112739000,3.267739013671875,0.20587456226348877,0.0687580555677414,-0.056003279983997345
1782845470122743000,3.277742919921875,0.2199733406305313,0.08436951041221619,-0.061663828790187836
1782845470132748000,3.287748046875,0.22197097539901733,0.10531094670295715,-0.04897531494498253
1782845470142752300,3.297752197265625,0.21591228246688843,0.11585013568401337,-0.0408654548227787
1782845470152757200,3.30775732421875,0.2090497612953186,0.11944283545017242,-0.0476076565682888
1782845470162762200,3.31776220703125,0.19561731815338135,0.11492185294628143,-0.057853102684020996
1782845470172766200,3.32776611328125,0.1866983324289322,0.09929505735635757,-0.05996587872505188
1782845470182771200,3.337771240234375,0.17232072353363037,0.0872810035943985,-0.06124259531497955
1782845470192776200,3.347776123046875,0.15393614768981934,0.07571617513895035,-0.048759251832962036
1782845470202780200,3.3577802734375,0.1270747035741806,0.06471998244524002,-0.029846282675862312
1782845470212785200,3.36778515625,0.10260161012411118,0.06409861892461777,-0.019635943695902824
1782845470222789000,3.3777890625,0.07912851125001907,0.07322181016206741,-0.012379097752273083
1782845470232794000,3.387794189453125,0.0564255490899086,0.07707124203443527,0.0025789926294237375
1782845470242799000,3.397799072265625,0.03276868909597397,0.07713355869054794,0.019993934780359268
1782845470252803000,3.407802978515625,0.015952929854393005,0.07291510701179504,0.04325462132692337
1782845470262808000,3.41780810546875,0.00687048677355051,0.0743153989315033,0.05257967859506607
1782845470272812000,3.42781201171875,0.008729130029678345,0.07974686473608017,0.06730753928422928
1782845470282817000,3.437817138671875,0.017352178692817688,0.09360435605049133,0.07408181577920914
1782845470292822000,3.447822021484375,0.03132493421435356,0.1015629842877388,0.09049574285745621
1782845470302826200,3.457826171875,0.053557537496089935,0.10725469142198563,0.10147862136363983
1782845470312831200,3.467831298828125,0.08127342164516449,0.11037350445985794,0.11238931119441986
1782845470322836200,3.477836181640625,0.11262495070695877,0.10302051156759262,0.11493422836065292
1782845470332840200,3.487840087890625,0.15283949673175812,0.09743207693099976,0.10852671414613724
1782845470342845200,3.49784521484375,0.1889093518257141,0.09190095961093903,0.11020210385322571
1782845470352849200,3.50784912109375,0.21791549026966095,0.08707980066537857,0.104451484978199
1782845470362854100,3.517854248046875,0.2436104714870453,0.0938974916934967,0.10063464194536209
1782845470372859100,3.527859130859375,0.2725200057029724,0.09748782962560654,0.11072953790426254
1782845470382863000,3.537863037109375,0.3030667304992676,0.0999310091137886,0.12115075439214706
1782845470392868000,3.5478681640625,0.3299906551837921,0.08717668056488037,0.13867048919200897
1782845470402873000,3.557873046875,0.34456026554107666,0.0663616806268692,0.14870794117450714
1782845470412877000,3.567876953125,0.3442263603210449,0.041741035878658295,0.13570228219032288
1782845470422882000,3.577882080078125,0.31366658210754395,0.03707544505596161,0.08421964943408966
1782845470432886000,3.587885986328125,0.2758497893810272,0.04226181283593178,-0.00046016304986551404
1782845470442891000,3.59789111328125,0.24255309998989105,0.05268409475684166,-0.10314686596393585
1782845470452896000,3.60789599609375,0.22674702107906342,0.06257162988185883,-0.20535600185394287
1782845470462900200,3.617900146484375,0.22807593643665314,0.06717810034751892,-0.28371793031692505
1782845470472905200,3.6279052734375,0.23329764604568481,0.053036343306303024,-0.3204185664653778
1782845470482909200,3.6379091796875,0.25502529740333557,0.01836252026259899,-0.32896414399147034
1782845470492914200,3.6479140625,0.2803933918476105,-0.04425491765141487,-0.3167755603790283
1782845470502919200,3.657919189453125,0.295669823884964,-0.114595927298069,-0.2970266044139862
1782845470512923100,3.667923095703125,0.30388927459716797,-0.15860271453857422,-0.2811947166919708
1782845470522928000,3.67792822265625,0.30243760347366333,-0.1687363088130951,-0.26428765058517456
1782845470532933000,3.68793310546875,0.2884078621864319,-0.14549681544303894,-0.2255786508321762
1782845470542937000,3.69793701171875,0.2558120787143707,-0.11682788282632828,-0.17639991641044617
1782845470552942000,3.707942138671875,0.22218699753284454,-0.08244088292121887,-0.087688148021698
1782845470562946000,3.717946044921875,0.20417284965515137,-0.07230249047279358,0.006555526051670313
1782845470572951000,3.727950927734375,0.19860024750232697,-0.0745270773768425,0.10586367547512054
1782845470582956000,3.7379560546875,0.20953385531902313,-0.0820249393582344,0.19370856881141663
1782845470592960000,3.7479599609375,0.22900180518627167,-0.09741183370351791,0.2570033669471741
1782845470602965000,3.757965087890625,0.25936397910118103,-0.10895290970802307,0.28926968574523926
1782845470612969200,3.76796923828125,0.2760498821735382,-0.10927586257457733,0.290336936712265
1782845470622974200,3.77797412109375,0.2853395342826843,-0.08846645802259445,0.2729022800922394
1782845470632979200,3.787979248046875,0.28662368655204773,-0.052397094666957855,0.23881147801876068
1782845470642983200,3.797983154296875,0.2806813716888428,0.0006056695710867643,0.19049428403377533
1782845470652988200,3.80798828125,0.2651413679122925,0.062442053109407425,0.14348937571048737
1782845470662993200,3.8179931640625,0.24191728234291077,0.11896471679210663,0.11982052028179169
1782845470672997000,3.8279970703125,0.20728927850723267,0.1445765495300293,0.12138570845127106
1782845470683002000,3.838002197265625,0.1677093803882599,0.15677383542060852,0.14091812074184418
1782845470693006000,3.848006103515625,0.12364880740642548,0.17798550426959991,0.1568225473165512
1782845470703011000,3.858010986328125,0.06493809819221497,0.2652793824672699,0.16293184459209442
1782845470713016000,3.86801611328125,0.005145339760929346,0.26182985305786133,0.17675882577896118
1782845470723020000,3.87802001953125,-0.05063829571008682,0.23250392079353333,0.20401547849178314
1782845470733025000,3.88802490234375,-0.09553941339254379,0.18102529644966125,0.2550792396068573
1782845470743029000,3.898029052734375,-0.11791342496871948,0.13729727268218994,0.30579063296318054
1782845470753034200,3.9080341796875,-0.13739800453186035,0.10119595378637314,0.3489118814468384
1782845470763039200,3.918039306640625,-0.1453574001789093,0.0915507823228836,0.3455861508846283
1782845470773043200,3.928043212890625,-0.13979151844978333,0.09578407555818558,0.30567169189453125
1782845470783048200,3.938048095703125,-0.12434384226799011,0.08730723708868027,0.25627270340919495
1782845470793052700,3.948052734375,-0.10530807822942734,0.06479181349277496,0.21351420879364014
1782845470803056600,3.958056640625,-0.08270955830812454,0.02096470259130001,0.17402540147304535
1782845470813061600,3.9680615234375,-0.04518673196434975,-0.01627403125166893,0.13796214759349823
1782845470823065900,3.97806591796875,0.0052735088393092155,-0.05093666911125183,0.09422504901885986
1782845470833070800,3.98807080078125,0.05856539309024811,-0.0704098790884018,0.059637099504470825
1782845470843075800,3.998075927734375,0.10648312419652939,-0.08558590710163116,0.042248789221048355
1782845470853079800,4.008079833984375,0.15417800843715668,-0.09793262183666229,0.04120732471346855
1782845470863084800,4.018084716796875,0.18630504608154297,-0.09701463580131531,0.044008705765008926
1782845470873089800,4.02808984375,0.20470836758613586,-0.0740361139178276,0.0551631897687912
1782845470883093500,4.038093505859375,0.21478018164634705,-0.057533565908670425,0.06507094949483871
1782845470893098500,4.048098388671875,0.2193555235862732,-0.05424568057060242,0.08972520381212234
1782845470903102700,4.058102783203125,0.21191224455833435,-0.05909129977226257,0.12001093477010727
1782845470913107700,4.068107666015625,0.18200086057186127,-0.06378524005413055,0.1669967919588089
1782845470923112700,4.07811279296875,0.13289563357830048,-0.06694641709327698,0.2089913785457611
1782845470933116700,4.08811669921875,0.072010338306427,-0.05613848194479942,0.24650414288043976
1782845470943121700,4.09812158203125,0.0072973910719156265,-0.04378487914800644,0.2789001762866974
1782845470953125600,4.108125732421875,-0.05051106959581375,-0.03005516529083252,0.30650991201400757
1782845470963130600,4.118130615234375,-0.09568041563034058,0.007204055320471525,0.32486602663993835
1782845470973135600,4.128135498046875,-0.11931705474853516,0.033799972385168076,0.335697740316391
1782845470983139800,4.138139892578125,-0.13754640519618988,0.04813043773174286,0.3379957675933838
1782845470993144800,4.148144775390625,-0.15131902694702148,0.06285914033651352,0.3241503834724426
1782845471003149800,4.15814990234375,-0.16119162738323212,0.06712552160024643,0.29331231117248535
1782845471013153800,4.16815380859375,-0.1735297590494156,0.07055908441543579,0.26272010803222656
1782845471023158800,4.17815869140625,-0.18636566400527954,0.07158440351486206,0.22645370662212372
1782845471033162500,4.18816259765625,-0.20007121562957764,0.06288830935955048,0.19749228656291962
1782845471043167500,4.19816748046875,-0.19233420491218567,0.035482257604599,0.17157359421253204
1782845471053172500,4.20817236328125,-0.18771879374980927,0.004821952432394028,0.13298262655735016
1782845471063176700,4.2181767578125,-0.17739292979240417,-0.01234345231205225,0.09692022204399109
1782845471073181700,4.228181640625,-0.1534138023853302,-0.012632519006729126,0.04632115364074707
1782845471083185700,4.238185546875,-0.11312070488929749,0.011015285737812519,0.0006524681812152267
1782845471093190700,4.248190673828125,-0.06558959931135178,0.035435907542705536,-0.024276217445731163
1782845471103195600,4.258195556640625,-0.014318954199552536,0.048551712185144424,-0.033626578748226166
1782845471113199600,4.26819970703125,0.0366106852889061,0.062454670667648315,-0.023144444450736046
1782845471123204600,4.27820458984375,0.07039555162191391,0.07468684017658234,-0.026270996779203415
1782845471133209600,4.288209716796875,0.09489309042692184,0.07756249606609344,-0.018863094970583916
1782845471143213800,4.2982138671875,0.09725797921419144,0.0663876011967659,-0.015149316750466824
1782845471153218800,4.30821875,0.08895710110664368,0.04857328161597252,-0.0006987202796153724
1782845471163222800,4.318222900390625,0.07776010036468506,0.04468772932887077,0.0022462031338363886
1782845471173227800,4.328227783203125,0.06312143802642822,0.04635336622595787,0.004542399197816849
1782845471183232800,4.338232666015625,0.04726444184780121,0.05272844061255455,0.009444479830563068
1782845471193236500,4.348236572265625,0.026979748159646988,0.05317149683833122,0.01954689621925354
1782845471203241500,4.358241455078125,0.0004706443287432194,0.05049741640686989,0.03567233681678772
1782845471213245700,4.36824560546875,-0.022654380649328232,0.04569893330335617,0.054780248552560806
1782845471223250700,4.378250732421875,-0.0436512753367424,0.0318041555583477,0.06466883420944214
1782845471233255700,4.388255615234375,-0.06072993576526642,0.004633881151676178,0.07617609947919846
1782845471243259600,4.398259765625,-0.07444840669631958,-0.02520763874053955,0.0888061448931694
1782845471253264600,4.4082646484375,-0.0867936909198761,-0.057061001658439636,0.09867633879184723
1782845471263269600,4.41826953125,-0.11181355267763138,-0.07783099263906479,0.10096053034067154
1782845471273273600,4.428273681640625,-0.1378517597913742,-0.08544208854436874,0.09731113165616989
1782845471283278600,4.438278564453125,-0.14771237969398499,-0.0843358114361763,0.08264697343111038
1782845471293282800,4.44828271484375,-0.16668184101581573,-0.08138316869735718,0.06640339642763138
1782845471303287800,4.458287841796875,-0.18246054649353027,-0.07663661986589432,0.05484580621123314
1782845471313292800,4.468292724609375,-0.20213420689105988,-0.06877834349870682,0.03705761581659317
1782845471323296800,4.478296875,-0.22157607972621918,-0.07085853815078735,0.0044823600910604
1782845471333301800,4.4883017578125,-0.23857121169567108,-0.06432530283927917,-0.04881415516138077
1782845471343305500,4.498305419921875,-0.2539999783039093,-0.0669889971613884,-0.11999671906232834
1782845471353310500,4.508310546875,-0.2522188425064087,-0.07886536419391632,-0.17873647809028625
1782845471363315500,4.5183154296875,-0.23887614905834198,-0.09007859975099564,-0.21511605381965637
1782845471373319700,4.528319580078125,-0.22409284114837646,-0.14991649985313416,-0.21831661462783813
1782845471383324700,4.53832470703125,-0.19996778666973114,-0.19102878868579865,-0.19426000118255615
1782845471393329700,4.54832958984375,-0.18061931431293488,-0.20876015722751617,-0.1544395238161087
1782845471403333600,4.558333740234375,-0.19426162540912628,-0.1987392157316208,-0.1164948120713234
1782845471413338600,4.568338623046875,-0.23412646353244781,-0.17846594750881195,-0.10931728035211563
1782845471423342600,4.578342529296875,-0.2756006717681885,-0.13343961536884308,-0.1519145518541336
1782845471433347600,4.58834765625,-0.3109259009361267,-0.0861986055970192,-0.25772061944007874
1782845471443352600,4.5983525390625,-0.34329450130462646,-0.058687884360551834,-0.4045129716396332
1782845471453356800,4.608356689453125,-0.3837617039680481,-0.0680081844329834,-0.5598217844963074
1782845471463361800,4.61836181640625,-0.42142945528030396,-0.12638333439826965,-0.6863352060317993
1782845471473366800,4.62836669921875,-0.44902756810188293,-0.21071836352348328,-0.7386753559112549
1782845471483370800,4.638370849609375,-0.4339972138404846,-0.3132636547088623,-0.6721994280815125
1782845471493375700,4.648375732421875,-0.3973764181137085,-0.3705997169017792,-0.485762357711792
1782845471503379500,4.65837939453125,-0.3531927168369293,-0.35391077399253845,-0.25289952754974365
1782845471513384700,4.668384765625,-0.3078248202800751,-0.29325953125953674,-0.04340242221951485
1782845471523389700,4.6783896484375,-0.2565525770187378,-0.2393060028553009,0.14000070095062256
1782845471533393700,4.6883935546875,-0.20768018066883087,-0.19634833931922913,0.2648206949234009
1782845471543398700,4.698398681640625,-0.15407900512218475,-0.15348182618618011,0.33765360713005066
1782845471553402600,4.708402587890625,-0.11471489816904068,-0.12303321063518524,0.3719874620437622
1782845471563407600,4.71840771484375,-0.10483909398317337,-0.09119405597448349,0.403721421957016
1782845471573412600,4.72841259765625,-0.12539128959178925,-0.03475210815668106,0.4334001839160919
1782845471583416600,4.73841650390625,-0.1406482756137848,0.009744786657392979,0.45248836278915405
1782845471593421800,4.748421875,-0.15953737497329712,0.01502624899148941,0.47518569231033325
1782845471603426800,4.7584267578125,-0.19189372658729553,0.009383277036249638,0.4929673671722412
1782845471613430800,4.7684306640625,-0.21569348871707916,-0.007083461619913578,0.4955069422721863
1782845471623435800,4.778435791015625,-0.22661910951137543,-0.041883520781993866,0.47018933296203613
1782845471633439700,4.788439697265625,-0.21941088140010834,-0.04024868085980415,0.41114097833633423
1782845471643444700,4.79844482421875,-0.1896018534898758,-0.0566478967666626,0.3501442074775696
1782845471653449700,4.80844970703125,-0.1380791962146759,-0.018105391412973404,0.2820732593536377
1782845471663453700,4.81845361328125,-0.0825301855802536,0.03578553721308708,0.2148153930902481
1782845471673458700,4.828458740234375,-0.039601895958185196,0.06912106275558472,0.17370326817035675
1782845471683462700,4.838462646484375,-0.003689433680847287,0.08041100203990936,0.1489126980304718
1782845471693467600,4.848467529296875,0.018825706094503403,0.08318713307380676,0.11690012365579605
1782845471703472600,4.85847265625,0.02163773775100708,0.08525028824806213,0.0686473697423935
1782845471713476600,4.8684765625,0.018591374158859253,0.07188468426465988,0.01993006281554699
1782845471723481600,4.878481689453125,0.012461043894290924,0.04425918310880661,-0.02844439446926117
1782845471733486600,4.888486572265625,0.00438992353156209,0.01211688295006752,-0.05765151232481003
1782845471743490800,4.89849072265625,-0.01716357097029686,-0.024600118398666382,-0.054973699152469635
1782845471753495800,4.908495849609375,-0.043076131492853165,-0.05121580883860588,-0.028784826397895813
1782845471763499800,4.918499755859375,-0.058237504214048386,-0.06685256212949753,-0.011413559317588806
1782845471773504800,4.9285048828125,-0.06726714968681335,-0.07001776248216629,0.011396248824894428
1782845471783509800,4.938509765625,-0.07290692627429962,-0.07250728458166122,0.0432463213801384
1782845471793513700,4.948513671875,-0.08573447912931442,-0.07203318178653717,0.07818344235420227
1782845471803519000,4.95851904296875,-0.09652374684810638,-0.06357977539300919,0.09789935499429703
1782845471813524000,4.96852392578125,-0.09064778685569763,-0.05476987361907959,0.08888033032417297
1782845471823528000,4.97852783203125,-0.07763105630874634,-0.041797082871198654,0.06118744611740112
1782845471833533000,4.988532958984375,-0.05762417986989021,-0.030373381450772285,0.01464920025318861
1782845471843537000,4.998536865234375,-0.03359847143292427,-0.012214349582791328,-0.044078558683395386
1782845471853542000,5.0085419921875,0.006613685749471188,0.0031046939548105,-0.1048075333237648
1782845471863547000,5.018546875,0.045850303024053574,0.011014814488589764,-0.165233314037323
1782845471873550800,5.02855078125,0.08911081403493881,0.02067369595170021,-0.20665355026721954
1782845471883555800,5.038555908203125,0.13486312329769135,0.03191090375185013,-0.23266863822937012
1782845471893559800,5.048559814453125,0.170554056763649,0.0389205701649189,-0.23370519280433655
1782845471903565000,5.05856494140625,0.1942732334136963,0.037455830723047256,-0.20931276679039001
1782845471913570000,5.068570068359375,0.19325698912143707,0.020947374403476715,-0.15758295357227325
1782845471923574000,5.078573974609375,0.17930230498313904,0.008698430843651295,-0.10334288328886032
1782845471933579000,5.0885791015625,0.14355923235416412,0.006035812199115753,-0.0913502424955368
1782845471943584000,5.098583984375,0.1024903655052185,0.00019922805950045586,-0.11147814989089966
1782845471953588000,5.108587890625,0.05475794896483421,-0.0041155824437737465,-0.15468601882457733
1782845471963593000,5.118593017578125,0.017902730032801628,-0.014308566227555275,-0.21052877604961395
1782845471973597000,5.128596923828125,-0.009048172272741795,-0.025277379900217056,-0.266518771648407
1782845471983602000,5.138601806640625,-0.0271717831492424,-0.02349945344030857,-0.32659780979156494
1782845471993607000,5.14860693359375,-0.03130919486284256,-0.024386318400502205,-0.3651251196861267
1782845472003611000,5.15861083984375,-0.018292462453246117,-0.03091958723962307,-0.38572973012924194
1782845472013615900,5.168615966796875,-0.003003666875883937,-0.04815730080008507,-0.3786138594150543
1782845472023619800,5.178619873046875,0.011002164334058762,-0.06760210543870926,-0.3563818037509918
1782845472033624800,5.188624755859375,0.025528617203235626,-0.08398853987455368,-0.3290187418460846
1782845472043629800,5.1986298828125,0.0386233776807785,-0.08036104589700699,-0.3020675778388977
1782845472053634000,5.208634033203125,0.05340968444943428,-0.07144896686077118,-0.2724466919898987
1782845472063639000,5.21863916015625,0.069582000374794,-0.051256876438856125,-0.24382172524929047
1782845472073644000,5.22864404296875,0.07883863896131516,-0.03087489679455757,-0.2235221564769745
1782845472083648000,5.23864794921875,0.08920153230428696,-0.010628480464220047,-0.21449057757854462
1782845472093653000,5.248653076171875,0.09963753819465637,0.006065149791538715,-0.21584416925907135
1782845472103657000,5.258656982421875,0.11304096132516861,0.023646805435419083,-0.21735446155071259
1782845472113662000,5.268661865234375,0.12090323865413666,0.037781450897455215,-0.20886334776878357
1782845472123667000,5.2786669921875,0.11758121848106384,0.04105181246995926,-0.18918338418006897
1782845472133671000,5.2886708984375,0.1130215972661972,0.06427356600761414,-0.16758227348327637
1782845472143676000,5.298676025390625,0.1070593073964119,0.04823280870914459,-0.13988566398620605
1782845472153680000,5.308679931640625,0.07920293509960175,0.08888298273086548,-0.09824389964342117
1782845472163684900,5.318684814453125,0.058012161403894424,0.08464882522821426,-0.06135086342692375
1782845472173689900,5.32868994140625,0.0425821952521801,0.09117262810468674,-0.046348556876182556
1782845472183693800,5.33869384765625,0.03187548741698265,0.09769231081008911,-0.03543093055486679
1782845472193698800,5.34869873046875,0.027751628309488297,0.10000357031822205,-0.03606440871953964
1782845472203703800,5.358703857421875,0.04189993813633919,0.09994684904813766,-0.03653685376048088
1782845472213708000,5.3687080078125,0.05868816375732422,0.09357766062021255,-0.037291161715984344
1782845472223713000,5.378713134765625,0.0720985159277916,0.08240596950054169,-0.033320654183626175
1782845472233717000,5.388717041015625,0.08692607283592224,0.07762712240219116,-0.023851320147514343
1782845472243722000,5.398721923828125,0.10390505939722061,0.06690416485071182,-0.014455688185989857
1782845472253727000,5.40872705078125,0.12858271598815918,0.0677386000752449,-0.005749164614826441
1782845472263731000,5.41873095703125,0.1572047621011734,0.06981586664915085,0.005358614027500153
1782845472273736000,5.42873583984375,0.18704470992088318,0.07038566470146179,0.01433845330029726
1782845472283741000,5.438740966796875,0.2140853852033615,0.06863916665315628,0.011884350329637527
1782845472293745000,5.448744873046875,0.23248864710330963,0.07399160414934158,0.0015415926463901997
1782845472303750000,5.45875,0.24591444432735443,0.08147268742322922,-0.005421241745352745
1782845472313753900,5.46875390625,0.24102747440338135,0.0843643769621849,-0.007525238208472729
1782845472323758800,5.4787587890625,0.234758660197258,0.08879827708005905,-0.006424021441489458
1782845472333763800,5.488763916015625,0.2284218668937683,0.0990733802318573,0.000814469123724848
1782845472343767800,5.498767822265625,0.2231685072183609,0.10822639614343643,0.016358274966478348
1782845472353772800,5.508772705078125,0.22228041291236877,0.11043758690357208,0.03761013224720955
1782845472363777000,5.518777099609375,0.22782936692237854,0.10451764613389969,0.05431800335645676
1782845472373782000,5.528781982421875,0.23321285843849182,0.08936940133571625,0.07739947736263275
1782845472383787000,5.538787109375,0.23631411790847778,0.07231158763170242,0.10894381999969482
1782845472393791000,5.548791015625,0.23434090614318848,0.057245589792728424,0.14458906650543213
1782845472403796000,5.5587958984375,0.22676020860671997,0.04146955534815788,0.1711287945508957
1782845472413801000,5.568801025390625,0.21030111610889435,0.035365812480449677,0.19529134035110474
1782845472423805000,5.578804931640625,0.18649032711982727,0.023812754079699516,0.21684029698371887
1782845472433810000,5.588809814453125,0.14539843797683716,0.022273318842053413,0.22093047201633453
1782845472443814000,5.59881396484375,0.10487045347690582,0.023924212902784348,0.2262442708015442
1782845472453819000,5.60881884765625,0.06822916120290756,0.018872162327170372,0.21809111535549164
1782845472463824000,5.618823974609375,0.042974140495061874,0.01338125765323639,0.20250415802001953
1782845472473827800,5.628827880859375,0.031475625932216644,0.013800747692584991,0.1918550431728363
1782845472483832800,5.638832763671875,0.023821702226996422,0.021092481911182404,0.17799648642539978
1782845472493836800,5.6488369140625,0.0291102547198534,0.02219945378601551,0.1653476059436798
1782845472503841800,5.658841796875,0.04481198266148567,0.01823480613529682,0.14617551863193512
1782845472513846800,5.6688466796875,0.08074574917554855,-0.0008552027866244316,0.11540494114160538
1782845472523851000,5.67885107421875,0.1170254647731781,-0.0299433134496212,0.07330915331840515
1782845472533856000,5.68885595703125,0.14810457825660706,-0.06328161060810089,0.0022560569923371077
1782845472543861000,5.698861083984375,0.16300442814826965,-0.0787561759352684,-0.08162526041269302
1782845472553865000,5.708864990234375,0.15647542476654053,-0.06412184238433838,-0.17168378829956055
1782845472563870000,5.718869873046875,0.13829375803470612,-0.053023118525743484,-0.2668885886669159
1782845472573874000,5.7288740234375,0.11014050990343094,-0.03003932349383831,-0.35073408484458923
1782845472583879000,5.73887890625,0.07838071882724762,-0.012044345960021019,-0.408809095621109
1782845472593884000,5.7488837890625,0.05714709311723709,0.004432845860719681,-0.45477283000946045
1782845472603887900,5.758887939453125,0.034677471965551376,-0.0009350215550512075,-0.47715669870376587
1782845472613892900,5.768892822265625,0.01617140881717205,-0.041206758469343185,-0.474785178899765
1782845472623896800,5.778896728515625,0.017160506919026375,-0.09986874461174011,-0.45891115069389343
1782845472633901800,5.78890185546875,0.035865798592567444,-0.14880649745464325,-0.42878207564353943
1782845472643906800,5.79890673828125,0.06925304979085922,-0.18241426348686218,-0.3682617247104645
1782845472653910800,5.808910888671875,0.10781576484441757,-0.22574275732040405,-0.2779238820075989
1782845472663915800,5.818915771484375,0.14930088818073273,-0.26251086592674255,-0.1636335402727127
1782845472673920800,5.828920654296875,0.19465869665145874,-0.26908957958221436,-0.0335044339299202
1782845472683925000,5.838925048828125,0.22562219202518463,-0.24480317533016205,0.1032843068242073
1782845472693930000,5.848929931640625,0.24261923134326935,-0.20130352675914764,0.2261723279953003
1782845472703934000,5.858933837890625,0.23760131001472473,-0.15410512685775757,0.3357425034046173
1782845472713939000,5.86893896484375,0.2323286533355713,-0.06963858008384705,0.41371363401412964
1782845472723944000,5.87894384765625,0.2197825014591217,-0.07486796379089355,0.4954873323440552
1782845472733948000,5.888947998046875,0.1987244337797165,-0.05386609211564064,0.5819472670555115
1782845472743953000,5.898952880859375,0.1704491227865219,-0.035911593586206436,0.6447739005088806
1782845472753956900,5.908956787109375,0.11804363876581192,-0.006768590770661831,0.6630947589874268
1782845472763961900,5.9189619140625,0.04372492805123329,-0.0039051591884344816,0.6609655618667603
1782845472773966800,5.928966796875,-0.03252093493938446,0.01249467208981514,0.6282867789268494
1782845472783970800,5.938970703125,-0.11888352036476135,0.02832583338022232,0.5774960517883301
1782845472793975800,5.948975830078125,-0.19902297854423523,0.04711722955107689,0.4907451272010803
1782845472803980500,5.95898046875,-0.2794240713119507,0.0786551758646965,0.35525575280189514
1782845472813984500,5.968984619140625,-0.3453355133533478,0.09711997956037521,0.20901097357273102
1782845472823989500,5.978989501953125,-0.3980621099472046,0.09508266299962997,0.07169227302074432
1782845472833993700,5.98899365234375,-0.4166472256183624,0.0792422965168953,-0.04722738265991211
1782845472843998700,5.998998779296875,-0.39978277683258057,0.044888049364089966,-0.1780138909816742
1782845472854003700,6.009003662109375,-0.3537391722202301,-0.0019319376442581415,-0.30323150753974915
1782845472864007700,6.019007568359375,-0.29274505376815796,-0.06444831192493439,-0.420172780752182
1782845472874012700,6.0290126953125,-0.19475403428077698,-0.11030793190002441,-0.5182682871818542
1782845472884017700,6.039017578125,-0.08590743690729141,-0.1395113617181778,-0.5837125778198242
1782845472894021600,6.049021728515625,0.018364593386650085,-0.14998947083950043,-0.6111088395118713
1782845472904026600,6.059026611328125,0.11056748777627945,-0.16031773388385773,-0.5855028033256531
1782845472914030600,6.069030517578125,0.19113996624946594,-0.15588168799877167,-0.5233778357505798
1782845472924035600,6.07903564453125,0.2409605234861374,-0.14883176982402802,-0.4180993139743805
1782845472934040600,6.08904052734375,0.2556934654712677,-0.14353691041469574,-0.3078787326812744
1782845472944044500,6.09904443359375,0.25589266419410706,-0.14028438925743103,-0.1872449815273285
1782845472954049500,6.109049560546875,0.24321267008781433,-0.1269771307706833,-0.07739625126123428
1782845472964054500,6.119054443359375,0.24091382324695587,-0.10670488327741623,0.014498787000775337
1782845472974058800,6.129058837890625,0.22890962660312653,-0.09075819700956345,0.09111621975898743
1782845472984063700,6.139063720703125,0.20292462408542633,-0.06665845960378647,0.14296714961528778
1782845472994067700,6.149067626953125,0.17679208517074585,-0.03763474524021149,0.1694091111421585
1782845473004072700,6.15907275390625,0.1331588476896286,0.0037060356698930264,0.1671598106622696
1782845473014077700,6.16907763671875,0.06936533749103546,0.048226434737443924,0.16773459315299988
1782845473024081700,6.17908154296875,-0.008847709745168686,0.10075808316469193,0.16710954904556274
1782845473034086700,6.189086669921875,-0.0783606469631195,0.1432439386844635,0.1617538034915924
1782845473044090600,6.199090576171875,-0.1391960233449936,0.1770181506872177,0.15059702098369598
1782845473054096000,6.209095947265625,-0.1889420747756958,0.20140133798122406,0.13928073644638062
1782845473064100900,6.219100830078125,-0.22638745605945587,0.20818094909191132,0.13919179141521454
1782845473074104600,6.2291044921875,-0.24836409091949463,0.2058863341808319,0.15261059999465942
1782845473084109600,6.239109619140625,-0.26070094108581543,0.19798846542835236,0.161628857254982
1782845473094114600,6.249114501953125,-0.2683790624141693,0.1785915493965149,0.16929641366004944
1782845473104118500,6.259118408203125,-0.2920319139957428,0.1596500724554062,0.17752264440059662
1782845473114123500,6.26912353515625,-0.3221449553966522,0.1416768580675125,0.17848700284957886
1782845473124127700,6.279127685546875,-0.35321900248527527,0.1268949806690216,0.16827352344989777
1782845473134132700,6.2891328125,-0.37161892652511597,0.11101953685283661,0.15916608273983002
1782845473144137700,6.2991376953125,-0.36869582533836365,0.09761771559715271,0.1536642611026764
1782845473154141700,6.3091416015625,-0.355986088514328,0.0845227912068367,0.15977473556995392
1782845473164146700,6.319146728515625,-0.338015079498291,0.0702463835477829,0.17010487616062164
1782845473174150700,6.329150634765625,-0.3112811744213104,0.06351785361766815,0.17732368409633636
1782845473184155600,6.33915576171875,-0.27390584349632263,0.05918223038315773,0.1774882674217224
1782845473194160600,6.34916064453125,-0.23625802993774414,0.05208598077297211,0.17434749007225037
1782845473204164900,6.359164794921875,-0.19591380655765533,0.04270952567458153,0.1689804345369339
1782845473214169900,6.369169921875,-0.1708734780550003,0.027586540207266808,0.16826170682907104
1782845473224174800,6.3791748046875,-0.15955850481987,0.029960481449961662,0.15573552250862122
1782845473234178600,6.389178466796875,-0.15866856276988983,0.024417145177721977,0.1491193324327469
1782845473244183600,6.39918359375,-0.16633979976177216,0.015479310415685177,0.13860543072223663
1782845473254187500,6.4091875,-0.17480020225048065,0.01654813252389431,0.12376447021961212
1782845473264192500,6.419192626953125,-0.17932596802711487,0.03247782960534096,0.10106421262025833
1782845473274197500,6.429197509765625,-0.1785176396369934,0.039177119731903076,0.06699585169553757
1782845473284201700,6.43920166015625,-0.17599162459373474,0.04527202993631363,0.0448031947016716
1782845473294206700,6.449206787109375,-0.16544948518276215,0.037759654223918915,0.03081534430384636
1782845473304210700,6.459210693359375,-0.15431533753871918,0.02628835290670395,0.026816874742507935
1782845473314215700,6.469215576171875,-0.14459119737148285,0.009902318008244038,0.026032226160168648
1782845473324220700,6.479220703125,-0.13689279556274414,-0.015173740684986115,0.027621334418654442
1782845473334224600,6.489224609375,-0.12657871842384338,-0.041393328458070755,0.03247431665658951
1782845473344229600,6.499229736328125,-0.11266423761844635,-0.05837444216012955,0.029374126344919205
1782845473354234600,6.509234619140625,-0.1090589240193367,-0.0749455988407135,0.03769625723361969
1782845473364238800,6.51923876953125,-0.11977282166481018,-0.08128685504198074,0.05506805703043938
1782845473374243800,6.529243896484375,-0.13666650652885437,-0.0855136513710022,0.07901172339916229
1782845473384247600,6.53924755859375,-0.1599758267402649,-0.09311937540769577,0.12440530210733414
1782845473394252500,6.54925244140625,-0.18288137018680573,-0.09711895138025284,0.17477919161319733
1782845473404257500,6.559257568359375,-0.19247646629810333,-0.09642919152975082,0.21362805366516113
1782845473414261500,6.569261474609375,-0.18194644153118134,-0.09093096107244492,0.23774519562721252
1782845473424266500,6.5792666015625,-0.16668812930583954,-0.07592404633760452,0.24074232578277588
1782845473434271500,6.589271484375,-0.13602779805660248,-0.06279589980840683,0.23492956161499023
1782845473444275700,6.599275634765625,-0.1054280698299408,-0.047624941915273666,0.20782336592674255
1782845473454280700,6.60928076171875,-0.0705714300274849,-0.03273528441786766,0.1685124933719635
1782845473464284700,6.61928466796875,-0.03858713060617447,-0.03275446221232414,0.11595527082681656
1782845473474289700,6.62928955078125,-0.011915886774659157,-0.04936987906694412,0.0545755960047245
1782845473484294700,6.639294677734375,0.019312340766191483,-0.08264421671628952,-0.005449390970170498
1782845473494298600,6.649298583984375,0.059763092547655106,-0.10643183439970016,-0.0542941614985466
1782845473504303600,6.6593037109375,0.09460309892892838,-0.1109650656580925,-0.08383101224899292
1782845473514307800,6.669307861328125,0.11549293249845505,-0.10559187829494476,-0.08531919121742249
1782845473524312800,6.679312744140625,0.12752455472946167,-0.09127259254455566,-0.07293549180030823
1782845473534317800,6.68931787109375,0.12090406566858292,-0.06613008677959442,-0.047901857644319534
1782845473544321500,6.699321533203125,0.11053638160228729,-0.05265582725405693,-0.02026277221739292
1782845473554326500,6.709326416015625,0.09869584441184998,-0.04204864427447319,0.0003742914122994989
1782845473564331500,6.71933154296875,0.08875905722379684,-0.0273759588599205,-0.01625075750052929
1782845473574335500,6.72933544921875,0.07690417021512985,-0.01214419025927782,-0.06041703000664711
1782845473584340500,6.739340576171875,0.0660211592912674,-0.009211783297359943,-0.12210676074028015
1782845473594344700,6.7493447265625,0.05028640478849411,-0.010144894011318684,-0.19183459877967834
1782845473604349700,6.759349609375,0.018961504101753235,-0.02513316459953785,-0.2776520252227783
1782845473614354700,6.769354736328125,-0.002276916056871414,-0.0294635146856308,-0.37268075346946716
1782845473624358700,6.779358642578125,-0.028990019112825394,-0.03702130168676376,-0.45552849769592285
1782845473634363600,6.78936376953125,-0.05085517466068268,-0.056347765028476715,-0.4969395697116852
1782845473644368600,6.79936865234375,-0.07196924835443497,-0.086326964199543,-0.4990301728248596
1782845473654372600,6.80937255859375,-0.08094374090433121,-0.11738836765289307,-0.4505411684513092
1782845473664377600,6.819377685546875,-0.07479716837406158,-0.1349780112504959,-0.36630138754844666
1782845473674381800,6.8293818359375,-0.05514375865459442,-0.1381911337375641,-0.2588754892349243
1782845473684386800,6.83938671875,-0.016356151551008224,-0.12915503978729248,-0.14166630804538727
1782845473694391800,6.849391845703125,0.03649435192346573,-0.12644797563552856,-0.011538034304976463
1782845473704395500,6.8593955078125,0.09605355560779572,-0.12148597091436386,0.09786035865545273
1782845473714400500,6.869400390625,0.16408272087574005,-0.1199270635843277,0.20183850824832916
1782845473724404500,6.879404541015625,0.2077186107635498,-0.11193811148405075,0.27938923239707947
1782845473734409500,6.889409423828125,0.22663918137550354,-0.08793090283870697,0.3271978199481964
1782845473744414500,6.89941455078125,0.22816304862499237,-0.05381794273853302,0.34088754653930664
1782845473754418700,6.909418701171875,0.2184498906135559,-0.01019979640841484,0.33377426862716675
1782845473764423700,6.919423583984375,0.19546549022197723,0.02217491902410984,0.3124455511569977
1782845473774428700,6.9294287109375,0.16342169046401978,0.0476745069026947,0.2694784998893738
1782845473784432600,6.9394326171875,0.1119646355509758,0.0586635060608387,0.20470455288887024
1782845473794437600,6.949437744140625,0.05935710668563843,0.061187129467725754,0.12723630666732788
1782845473804442400,6.9594423828125,0.018825659528374672,0.0521978959441185,0.04692947492003441
1782845473814447400,6.969447265625,-0.0016402002656832337,0.030923765152692795,-0.014918978326022625
1782845473824452400,6.979452392578125,-0.01808255724608898,-0.00791817158460617,-0.050279367715120316
1782845473834456300,6.989456298828125,-0.029641766101121902,-0.0503239631652832,-0.0499223954975605
1782845473844461600,6.999461669921875,-0.03697691112756729,-0.06679081916809082,-0.03560258075594902
1782845473854466600,7.009466552734375,-0.04272820055484772,-0.06670723110437393,-0.023221446201205254
1782845473864470500,7.019470458984375,-0.03397492319345474,-0.05403963476419449,-0.016535846516489983
1782845473874475500,7.0294755859375,-0.015436559915542603,-0.04787503555417061,-0.0039472077041864395
1782845473884479200,7.039479248046875,0.0007064568344503641,-0.04438523203134537,0.008316116407513618
1782845473894484200,7.049484130859375,0.01653403416275978,-0.037628449499607086,0.017945006489753723
1782845473904489200,7.0594892578125,0.029729463160037994,-0.03396100923418999,0.023303285241127014
1782845473914493400,7.069493408203125,0.03949568793177605,-0.039207831025123596,0.01559830829501152
1782845473924498400,7.07949853515625,0.0544527992606163,-0.02718978561460972,-0.013821632601320744
1782845473934502400,7.08950244140625,0.07124167680740356,-0.01792735420167446,-0.06548701971769333
1782845473944507400,7.09950732421875,0.09189316630363464,-0.005770023912191391,-0.1652008295059204
1782845473954512400,7.109512451171875,0.11254805326461792,0.005545728839933872,-0.2788219749927521
1782845473964516400,7.119516357421875,0.1294756531715393,0.0030594016425311565,-0.38963770866394043
1782845473974521300,7.129521240234375,0.1276521533727646,-0.003706306917592883,-0.4816787540912628
1782845473984526300,7.1395263671875,0.11217572540044785,-0.01573527231812477,-0.5487366318702698
1782845473994530600,7.149530517578125,0.08679545670747757,-0.038772378116846085,-0.5739129185676575
1782845474004535600,7.15953564453125,0.06865719705820084,-0.04956883564591408,-0.5801900029182434
1782845474014539500,7.16953955078125,0.05818383768200874,-0.06309954077005386,-0.567845344543457
1782845474024544500,7.17954443359375,0.05991728976368904,-0.08141649514436722,-0.5333678126335144
1782845474034549500,7.189549560546875,0.06753256916999817,-0.08725601434707642,-0.4836909770965576
1782845474044553200,7.19955322265625,0.08265293389558792,-0.10098274797201157,-0.42172667384147644
1782845474054558200,7.20955810546875,0.09167003631591797,-0.11355438083410263,-0.3194217383861542
1782845474064562400,7.2195625,0.0988302081823349,-0.12350715696811676,-0.20807844400405884
1782845474074567400,7.2295673828125,0.10424201935529709,-0.12124905735254288,-0.10025050491094589
1782845474084572400,7.239572509765625,0.11096596717834473,-0.11864528059959412,-0.001679191249422729
1782845474094576400,7.249576416015625,0.13050664961338043,-0.10029743611812592,0.07878369837999344
1782845474104581400,7.259581298828125,0.15855532884597778,-0.06628593802452087,0.1219005435705185
1782845474114586400,7.26958642578125,0.18395432829856873,-0.029256131500005722,0.1236262395977974
1782845474124590300,7.27959033203125,0.1967734545469284,0.013101444579660892,0.1140092983841896
1782845474134595300,7.28959521484375,0.21064522862434387,0.046069275587797165,0.09993264079093933
1782845474144599600,7.299599609375,0.20773252844810486,0.0626213476061821,0.09418127685785294
1782845474154604500,7.3096044921875,0.19764941930770874,0.061598632484674454,0.08909749239683151
1782845474164609500,7.319609619140625,0.1864899843931198,0.05056861788034439,0.07990825921297073
1782845474174613500,7.329613525390625,0.17693950235843658,0.03231512010097504,0.0664142519235611
1782845474184618500,7.339618408203125,0.18027271330356598,0.009762672707438469,0.05694165453314781
1782845474194623500,7.34962353515625,0.18143810331821442,-0.0015035637188702822,0.026859385892748833
1782845474204627200,7.359627197265625,0.17160172760486603,-0.0009445662144571543,-0.008686091750860214
1782845474214632400,7.369632568359375,0.14608582854270935,0.01114551443606615,-0.04134371504187584
1782845474224636400,7.379636474609375,0.12044784426689148,0.00696222111582756,-0.06326019763946533
1782845474234641400,7.389641357421875,0.09274031221866608,0.019800521433353424,-0.08843133598566055
1782845474244646400,7.399646484375,0.06109317019581795,0.04177692532539368,-0.12109127640724182
1782845474254650400,7.409650390625,0.03084547072649002,0.06394459307193756,-0.1503942310810089
1782845474264655400,7.4196552734375,0.004560604225844145,0.06995560973882675,-0.17651398479938507
1782845474274659300,7.429659423828125,-0.01789182797074318,0.06544329226016998,-0.19675740599632263
1782845474284664300,7.439664306640625,-0.03581676632165909,0.050948236137628555,-0.1968812346458435
1782845474294669300,7.44966943359375,-0.03901510313153267,0.03265271335840225,-0.18407602608203888
1782845474304673500,7.459673583984375,-0.029407750815153122,0.010982572101056576,-0.1627987027168274
1782845474314678500,7.469678466796875,-0.013003888539969921,-0.013749543577432632,-0.12641708552837372
1782845474324683500,7.47968359375,0.005920001305639744,-0.018448159098625183,-0.09854497760534286
1782845474334687500,7.4896875,0.028359267860651016,0.0007301245350390673,-0.07118833065032959
1782845474344692500,7.4996923828125,0.04384049028158188,0.02215658687055111,-0.044275492429733276
1782845474354696200,7.5096962890625,0.06287102401256561,0.03676462173461914,-0.010140358470380306
1782845474364701400,7.519701416015625,0.08898917585611343,0.05901320278644562,0.016802042722702026
1782845474374706400,7.52970654296875,0.11956537514925003,0.06953742355108261,0.04552353173494339
1782845474384710400,7.53971044921875,0.14431439340114594,0.07944917678833008,0.055310383439064026
1782845474394715400,7.54971533203125,0.16451771557331085,0.09994343668222427,0.04344848170876503
1782845474404719400,7.55971923828125,0.18478383123874664,0.11908836662769318,0.038553327322006226
1782845474414724400,7.569724365234375,0.2024204432964325,0.1327313929796219,0.03444208204746246
1782845474424729300,7.579729248046875,0.2239806056022644,0.13390184938907623,0.033556316047906876
1782845474434733300,7.5897333984375,0.24055640399456024,0.14102761447429657,0.024988166987895966
1782845474444738300,7.59973828125,0.2541084289550781,0.15465180575847626,0.01905784010887146
1782845474454743300,7.609743408203125,0.2564883232116699,0.16203060746192932,0.028823645785450935
1782845474464747500,7.61974755859375,0.2570270895957947,0.15766489505767822,0.05534793436527252
1782845474474752500,7.62975244140625,0.255206435918808,0.15072576701641083,0.08541753143072128
1782845474484756500,7.639756591796875,0.2535664439201355,0.13583150506019592,0.1058218702673912
1782845474494761500,7.649761474609375,0.2529695928096771,0.11585263162851334,0.10435593873262405
1782845474504766500,7.659766357421875,0.25878405570983887,0.10069791227579117,0.0938553586602211
1782845474514770400,7.6697705078125,0.2572994828224182,0.09996742010116577,0.07478883117437363
1782845474524775400,7.679775390625,0.25486668944358826,0.1123010516166687,0.06145145371556282
1782845474534780400,7.689780517578125,0.2521623969078064,0.1332632154226303,0.045784588903188705
1782845474544784400,7.699784423828125,0.25466445088386536,0.1492709368467331,0.04189450666308403
1782845474554789400,7.709789306640625,0.26312577724456787,0.15055382251739502,0.05120668187737465
1782845474564793300,7.71979345703125,0.2775811553001404,0.1471835821866989,0.08085379004478455
1782845474574798300,7.72979833984375,0.2960282564163208,0.14265130460262299,0.10920701175928116
1782845474584803300,7.73980322265625,0.3107973337173462,0.1438918113708496,0.14048422873020172
1782845474594807300,7.749807373046875,0.3336365520954132,0.14783737063407898,0.1686011105775833
1782845474604812300,7.759812255859375,0.36280375719070435,0.1479494869709015,0.19712889194488525
1782845474614817300,7.7698173828125,0.39760950207710266,0.14427019655704498,0.2301822006702423
1782845474624821500,7.779821533203125,0.4433508813381195,0.15185993909835815,0.2589837610721588
1782845474634826500,7.789826416015625,0.4875135123729706,0.15922603011131287,0.2904313802719116
1782845474644830500,7.79983056640625,0.5310522317886353,0.16851966083049774,0.3209996819496155
1782845474654835500,7.80983544921875,0.5676068663597107,0.17945316433906555,0.3486459255218506
1782845474664840400,7.81984033203125,0.5949918627738953,0.19734348356723785,0.3623734712600708
1782845474674844400,7.829844482421875,0.6032747030258179,0.21395589411258698,0.3377528786659241
1782845474684849400,7.839849365234375,0.5963635444641113,0.22642561793327332,0.28405317664146423
1782845474694853400,7.849853271484375,0.5812026262283325,0.23127979040145874,0.19376473128795624
1782845474704858400,7.8598583984375,0.5712000727653503,0.23771558701992035,0.06458809971809387
1782845474714863400,7.86986328125,0.5623083114624023,0.23665596544742584,-0.06682482361793518
1782845474724867300,7.879867431640625,0.5509616136550903,0.2124483734369278,-0.1818195879459381
1782845474734872300,7.889872314453125,0.5376396775245667,0.17281924188137054,-0.25859615206718445
1782845474744877300,7.899877197265625,0.5155391693115234,0.13238899409770966,-0.2865598797798157
1782845474754881300,7.90988134765625,0.4885251522064209,0.0979754775762558,-0.2795114517211914
1782845474764886300,7.91988623046875,0.45696431398391724,0.06475067138671875,-0.22430863976478577
1782845474774890500,7.929890380859375,0.4319145083427429,0.0308965053409338,-0.1470232456922531
1782845474784895500,7.9398955078125,0.4285639822483063,0.008678819052875042,-0.07745029032230377
1782845474794900500,7.949900390625,0.43238887190818787,-0.006052019074559212,-0.01652596704661846
1782845474804903400,7.9599033203125,0.4477806091308594,-0.02065652795135975,0.027484899386763573
1782845474814908400,7.969908447265625,0.4647630453109741,-0.01711132749915123,0.06848293542861938
1782845474824912600,7.97991259765625,0.48050472140312195,0.0051175449043512344,0.09716624766588211
1782845474834917600,7.989917724609375,0.5008627772331238,0.020094310864806175,0.12358617782592773
1782845474844922600,7.999922607421875,0.5129583477973938,0.037010177969932556,0.1441095620393753
1782845474854926600,8.009926513671875,0.5165755152702332,0.047227781265974045,0.16010800004005432
1782845474864931600,8.019931640625,0.49869295954704285,0.05580715462565422,0.15712258219718933
1782845474874936600,8.0299365234375,0.46503737568855286,0.048440467566251755,0.14413858950138092
1782845474884940500,8.0399404296875,0.42589983344078064,0.04240068420767784,0.12905551493167877
1782845474894945500,8.049945556640624,0.37359267473220825,0.031318195164203644,0.12995122373104095
1782845474904950500,8.059950439453125,0.31579381227493286,0.02256038971245289,0.12686648964881897
1782845474914954800,8.069954833984376,0.25404298305511475,0.025069551542401314,0.12098457664251328
1782845474924959700,8.079959716796875,0.18942539393901825,0.024584325030446053,0.1146145612001419
1782845474934963500,8.08996337890625,0.1295914351940155,0.03157157450914383,0.10881699621677399
1782845474944968400,8.099968505859374,0.07594658434391022,0.04042312502861023,0.10964018106460571
1782845474954973400,8.109973388671875,0.029568945989012718,0.061184320598840714,0.11396685987710953
1782845474964977400,8.119977294921876,-0.015143663622438908,0.0820469930768013,0.13026034832000732
1782845474974982400,8.129982421875,-0.05392909795045853,0.10403048247098923,0.15514899790287018
1782845474984986600,8.139986572265625,-0.08672326058149338,0.12189123779535294,0.17956246435642242
1782845474994991600,8.14999169921875,-0.11521174758672714,0.1280110627412796,0.20257732272148132
1782845475004996600,8.15999658203125,-0.15184378623962402,0.12842890620231628,0.22403094172477722
1782845475015000600,8.17000048828125,-0.18111564218997955,0.11686866730451584,0.24209105968475342
1782845475025005600,8.180005615234375,-0.2127169817686081,0.07892581075429916,0.25999629497528076
1782845475035010600,8.190010498046876,-0.2343260645866394,0.06134771928191185,0.24681776762008667
1782845475045014500,8.2000146484375,-0.24890314042568207,0.044832661747932434,0.22283387184143066
1782845475055019500,8.21001953125,-0.246795654296875,0.019511844962835312,0.1890832483768463
1782845475065023700,8.220023681640624,-0.2276105135679245,-0.010760307312011719,0.16609857976436615
1782845475075028700,8.23002880859375,-0.20553578436374664,-0.03923066705465317,0.15655656158924103
1782845475085033700,8.24003369140625,-0.17944079637527466,-0.05404237285256386,0.1511780470609665
1782845475095037400,8.250037353515625,-0.15411926805973053,-0.06068020313978195,0.13862018287181854
1782845475105042400,8.26004248046875,-0.1320408582687378,-0.05168910697102547,0.11707202345132828
1782845475115046400,8.27004638671875,-0.11773238331079483,-0.04071808606386185,0.08204418420791626
1782845475125051400,8.280051513671875,-0.10049640387296677,-0.02966703288257122,0.03932734206318855
1782845475135056400,8.290056396484376,-0.08456801623106003,-0.027144212275743484,0.006330408621579409
1782845475145060600,8.300060546875,-0.07372069358825684,-0.01911877654492855,-0.0227997787296772
1782845475155065600,8.310065673828126,-0.060833800584077835,-0.006110170856118202,-0.036930859088897705
1782845475165070600,8.320070556640625,-0.03951093554496765,0.006264473311603069,-0.0718262568116188
1782845475175074600,8.330074462890625,-0.026937179267406464,0.0094968993216753,-0.08423448354005814
1782845475185079600,8.34007958984375,-0.0273321270942688,0.014219217002391815,-0.07788204401731491
1782845475195083500,8.35008349609375,-0.0438215471804142,0.015265477821230888,-0.04952019453048706
1782845475205088500,8.360088623046876,-0.053787365555763245,0.01365000382065773,0.002521964255720377
1782845475215093500,8.370093505859375,-0.07186439633369446,0.007563872262835503,0.0661495104432106
1782845475225097700,8.38009765625,-0.0981290265917778,0.005403782241046429,0.13463003933429718
1782845475235102700,8.390102783203124,-0.12810343503952026,0.010664385743439198,0.17516081035137177
1782845475245107700,8.400107666015625,-0.16010531783103943,0.011707812547683716,0.19666476547718048
1782845475255111400,8.410111328125,-0.19032022356987,0.002570497337728739,0.2030133157968521
1782845475265116400,8.420116455078125,-0.21740323305130005,-0.017088957130908966,0.19023627042770386
1782845475275120400,8.430120361328125,-0.2387184202671051,-0.03825065866112709,0.15678782761096954
1782845475285125400,8.44012548828125,-0.261471688747406,-0.05925074592232704,0.13113972544670105
1782845475295130400,8.45013037109375,-0.2859537899494171,-0.0834624394774437,0.11156759411096573
1782845475305134600,8.460134521484376,-0.3169087767601013,-0.09478167444467545,0.099761001765728
1782845475315139600,8.4701396484375,-0.34473368525505066,-0.08671027421951294,0.09253806620836258
1782845475325143600,8.4801435546875,-0.36452099680900574,-0.06706812977790833,0.09190502762794495
1782845475335148500,8.4901484375,-0.36828237771987915,-0.03085416741669178,0.0905345231294632
1782845475345153500,8.500153564453125,-0.3560102581977844,0.005408499389886856,0.0739946961402893
1782845475355157500,8.510157470703126,-0.3293088972568512,0.0247377660125494,0.05693028122186661
1782845475365162500,8.52016259765625,-0.28990688920021057,0.03516537323594093,0.030845152214169502
1782845475375167500,8.53016748046875,-0.24894818663597107,0.04663839191198349,-0.0048627532087266445
1782845475385171700,8.540171630859374,-0.20019876956939697,0.051728490740060806,-0.054041486233472824
1782845475395176700,8.5501767578125,-0.15024098753929138,0.051517266780138016,-0.09430624544620514
1782845475405180400,8.560180419921876,-0.10976998507976532,0.04217436537146568,-0.12966397404670715
1782845475415185400,8.570185302734375,-0.07704279571771622,0.032116152346134186,-0.13906297087669373
1782845475425190400,8.5801904296875,-0.055682647973299026,0.014002664014697075,-0.13584427535533905
1782845475435194400,8.5901943359375,-0.0421251617372036,-0.0034471198450773954,-0.11098337918519974
1782845475445199600,8.60019970703125,-0.03505260497331619,-0.023173419758677483,-0.09434740990400314
1782845475455204600,8.61020458984375,-0.029309790581464767,-0.05406636372208595,-0.07700426876544952
1782845475465208600,8.62020849609375,-0.019355161115527153,-0.0929328054189682,-0.06827975064516068
1782845475475213600,8.630213623046876,-0.005937456618994474,-0.13743925094604492,-0.05231329798698425
1782845475485217500,8.640217529296875,0.0022448396775871515,-0.14199645817279816,-0.03087485209107399
1782845475495222500,8.650222412109375,0.013438784517347813,-0.11930219829082489,-0.005251698195934296
1782845475505227500,8.6602275390625,0.017577070742845535,-0.06523948907852173,0.030513223260641098
1782845475515231500,8.6702314453125,-0.0344085618853569,0.0637948289513588,0.1638970971107483
1782845475525236500,8.680236572265626,-0.06819502264261246,-0.026611236855387688,0.1267116367816925
1782845475535240700,8.69024072265625,-0.07136383652687073,-0.13394731283187866,0.09725505113601685
1782845475545245700,8.70024560546875,-0.06247367709875107,-0.23731206357479095,0.08257570117712021
1782845475555250700,8.710250732421875,-0.07276834547519684,-0.3134859502315521,0.09304506331682205
1782845475565254400,8.72025439453125,-0.11371497809886932,-0.3256547451019287,0.10169900208711624
1782845475575259400,8.73025927734375,-0.16472236812114716,-0.2901884913444519,0.1164545938372612
1782845475585264400,8.740264404296875,-0.21081608533859253,-0.22915150225162506,0.13589806854724884
1782845475595268600,8.7502685546875,-0.26063215732574463,-0.15997211635112762,0.13347706198692322
