time,seconds_elapsed,z,y,x
1782845892889805800,0.080805908203125,0.18448329169154165,0.012061170802265405,0.008454963003844022
1782845892899810800,0.090810791015625,0.16728022795617578,0.025050123973935842,-0.019021584399417042
1782845892909815800,0.10081591796875,0.12960253146886824,0.04615341001823544,-0.0231109726049006
1782845892919820800,0.11082080078125,0.11121639542877673,0.05023220376446843,-0.013740648321807384
1782845892929825800,0.12082568359375,0.08579963009953498,0.056606561101973055,0.008843012473359703
1782845892939830800,0.130830810546875,0.07258183660805224,0.05099763517901301,0.008493468383327126
1782845892949835800,0.140835693359375,0.039974867513775825,0.051749184198677536,0.0291894888009876
1782845892959840800,0.1508408203125,0.0388736282736063,0.046800037358701224,0.037119551147893066
1782845892969845800,0.160845703125,0.05153787953555584,0.056162178335338826,0.048901905008777974
1782845892979849700,0.170849609375,0.07053951712548732,0.024298721084743735,0.06240268016010522
1782845892989854700,0.180854736328125,0.09395371046066284,0.02684869782850146,0.0648928895406425
1782845892999859700,0.190859619140625,0.11435293988883495,0.043686143121868366,0.015824468858540056
1782845893009864700,0.20086474609375,0.10884674368798732,0.040093963848799465,-0.0076546794716268775
1782845893019869700,0.21086962890625,0.12565876227915287,0.0167125037394464,-0.01075045352987945
1782845893029874700,0.220874755859375,0.15724866328537462,0.017785393667966127,-0.014098302653059362
1782845893039879700,0.230879638671875,0.12769465202093125,0.044050738650560375,-0.022174933863803745
1782845893049884700,0.240884765625,0.08659808700084685,0.049457566130161286,-0.044353886315599084
1782845893059890000,0.250889892578125,0.03871872997283935,0.04107157670930028,-0.021673194886744022
1782845893069894000,0.260893798828125,0.023266309297084807,0.029898148526996373,0.007841434215381742
1782845893079899000,0.27089892578125,0.02963175267577171,0.026839199347794055,0.011162687592580914
1782845893089903900,0.28090380859375,0.06246785435080528,0.0053555356837809084,0.006532032117247581
1782845893099908900,0.290908935546875,0.08414484862983226,0.009890694895386696,0.009552622047439218
1782845893109913900,0.300913818359375,0.07253741294443607,0.006603928309679031,-0.022064020835235714
1782845893119918800,0.3109189453125,0.043216041392087935,0.022055033811181783,-0.023968904608488082
1782845893129923800,0.320923828125,0.011560089412331581,0.013977671948075294,0.0013351941265165805
1782845893139928800,0.3309287109375,0.02689209857881069,0.013165332651883363,0.009099763713404535
1782845893149933800,0.340933837890625,0.036166707402467725,0.031214930213987826,0.04148110735826194
1782845893159938800,0.350938720703125,0.06838964561522007,0.03461977022141218,0.04447020617164671
1782845893169942800,0.36094287109375,0.16433306858837604,0.020165859063714743,0.08274754905253648
1782845893179947800,0.37094775390625,0.25514438937008377,0.015530162087082862,0.07171236029714345
1782845893189952800,0.380952880859375,0.3034586306840181,0.016549276001751424,0.05161196768507361
1782845893199958500,0.39095849609375,0.3273620688408613,0.023706600410491226,0.03843874398767948
1782845893209963500,0.400963623046875,0.2934451861917972,0.023471038088947533,0.018415800525993106
1782845893219968500,0.410968505859375,0.2546341017603874,0.031024960599839686,0.005504077308997511
1782845893229973500,0.420973388671875,0.1992091516584158,0.05238251366615295,-0.029159605119377374
1782845893239978500,0.430978515625,0.09109481389820576,0.043495004463940855,-0.04652881920188665
1782845893249983500,0.4409833984375,0.026182489004731177,0.005097761530429124,-0.03754201434366405
1782845893259988500,0.450988525390625,-0.006901449951529502,-0.018542349515110253,0.014709931745380163
1782845893269992700,0.46099267578125,-0.002657236510515213,-0.013897884710133075,0.0051837593134492635
1782845893279997700,0.470997802734375,-0.015945757150650025,-0.023522476015239952,-0.02539353058412671
1782845893290002700,0.481002685546875,-0.041809681725502014,-0.003824526724219322,-0.04609539622068405
1782845893300007700,0.491007568359375,-0.054389177313446994,-0.009865998845547437,-0.0729318190895021
1782845893310012700,0.5010126953125,-0.0951490577250719,-0.005742196913808584,-0.0862567992825061
1782845893320017700,0.511017578125,-0.10660451771914958,0.00939765068143606,-0.07912029846608638
1782845893330022700,0.521022705078125,-0.06537526623010635,0.03263020383939147,-0.06549187834709883
1782845893340027600,0.531027587890625,0.00104220252931118,0.02559504450559616,-0.05673471752628684
1782845893350032600,0.54103271484375,0.08045125480890274,0.024999855091422794,-0.042186333018168806
1782845893360036600,0.55103662109375,0.17347323737740517,0.03294467661604285,-0.012108809336274862
1782845893370041600,0.56104150390625,0.2426005496174097,0.0259821441270411,0.001257818041369319
1782845893380046600,0.571046630859375,0.29749533836543557,0.005667524242401123,0.02603190155290067
1782845893390051600,0.581051513671875,0.30628011784553527,0.010439268688857554,0.04972220841571688
1782845893400056600,0.591056640625,0.29797172370553016,0.03573343055173755,0.038227293194085354
1782845893410061600,0.6010615234375,0.2693120309323072,0.03600026479437947,0.037275618492439384
1782845893420066600,0.611066650390625,0.17753917164206504,0.058493982283771034,0.03649630468301475
1782845893430071600,0.621071533203125,0.0614648147881031,0.050198886016756296,0.02510674953199923
1782845893440076500,0.63107666015625,-0.05537468121945858,0.0664895110823214,0.03817074070125818
1782845893450081500,0.64108154296875,-0.09913841962218284,0.027969226291030644,0.04579473277367651
1782845893460085500,0.65108544921875,-0.07061082879602909,-0.00790609694942832,0.048512467299774285
1782845893470090800,0.6610908203125,-0.027553777357935905,-0.01314998895227909,0.018569383652508258
1782845893480095700,0.671095703125,0.0056850598990917205,-0.013452332899719475,-0.00673434975631535
1782845893490100700,0.681100830078125,0.04068213900029659,0.003053103960305452,-0.04109561517201364
1782845893500105700,0.691105712890625,0.04433364724516868,-0.005337269374728203,-0.06434526559524238
1782845893510110700,0.70111083984375,0.04957563955187797,0.020689736807346343,-0.05932699904181063
1782845893520115700,0.71111572265625,0.05582943924963474,0.023982494742423293,-0.029585137055069207
1782845893530120700,0.72112060546875,0.04435352098941803,0.004451572581380605,-0.012714154818281531
1782845893540125700,0.731125732421875,0.04482464563250541,0.0015188801303505897,-0.00810673408806324
1782845893550130700,0.741130615234375,0.035486908444762225,0.005989303542673587,0.018600071051716804
1782845893560134700,0.751134765625,0.01127776533961296,0.014359364742040633,0.025799407971277832
1782845893570139600,0.7611396484375,0.04399053289592266,0.017658552417904136,0.018736629978194832
1782845893580144600,0.77114453125,0.09335106839239597,0.03339782721102238,0.004440831991657615
1782845893590149600,0.781149658203125,0.14831249263584612,0.028288813634216783,-0.01966865013130009
1782845893600154600,0.791154541015625,0.2469049688130617,0.025728461626917123,-0.034305589705705644
1782845893610159600,0.80115966796875,0.32974691815078255,0.006356383289396763,-0.02833192212358117
1782845893620164600,0.81116455078125,0.34656945813596246,0.00945697965323925,-0.03404891153089702
1782845893630169600,0.821169677734375,0.32693712142705916,0.019986849234998227,-0.024783874253183603
1782845893640174600,0.831174560546875,0.26777356931865215,0.028240882839262484,-0.0036558190938085315
1782845893650179600,0.8411796875,0.1465273627847433,0.010627630867809056,0.007308569447696208
1782845893660183600,0.85118359375,0.04095101906955242,0.04703501515835523,0.03737148008234799
1782845893670188500,0.8611884765625,-0.021823709273338317,0.06191431212127208,0.029881343522667882
1782845893680193500,0.871193603515625,-0.08104220643937587,0.05489069709479809,0.03345576794333756
1782845893690198800,0.88119873046875,-0.041831309035420414,0.04463613732308149,0.04388071584589779
1782845893700203800,0.891203857421875,0.04226093262434005,0.021005817019194364,0.04538607890754938
1782845893710208800,0.901208740234375,0.09718260937929153,0.012199702490121126,0.02219875313080847
1782845893720213800,0.9112138671875,0.10718903960883616,0.019292583360522985,0.015153949185833335
1782845893730218800,0.92121875,0.07524491833746433,0.02574950441494584,0.02118548443503678
1782845893740223700,0.9312236328125,0.042618660020828245,0.007398001296818256,0.07058065285347402
1782845893750227700,0.941227783203125,0.0032902737170457837,0.018529343903064727,0.06874664235934615
1782845893760232700,0.951232666015625,-0.009217910200357437,0.046598523437231774,0.06722754303328693
1782845893770237700,0.96123779296875,-0.006855857244133949,0.04772752746716141,0.07609298653416335
1782845893780242700,0.97124267578125,0.06356850906908512,0.02936374938935041,0.0845711112178862
1782845893790247700,0.98124755859375,0.13048165239095688,-0.007141980709135532,0.08078077902421354
1782845893800252700,0.991252685546875,0.17403204030394553,-0.011028612884134054,0.07248290627822279
1782845893810257700,1.001257568359375,0.16755553776621818,0.0038500995568931102,0.058964303209260105
1782845893820262700,1.0112626953125,0.13110183011591434,0.0281444367274642,0.010012056252732873
1782845893830267600,1.021267578125,0.09458499410152435,0.03994607981070876,0.00974631798863411
1782845893840272600,1.031272705078125,0.0647457361549139,0.03483969658240676,-0.006353022288531064
1782845893850276600,1.041276611328125,0.050561143457889555,0.04485036459565162,-0.043740868983790274
1782845893860281600,1.051281494140625,0.058979427713155744,0.06406564493626356,-0.016274112322181462
1782845893870286600,1.06128662109375,0.04190495879352092,0.04570639690309763,0.025508608331158755
1782845893880291600,1.07129150390625,0.025793781948089598,0.025127573124319312,0.026375162032619116
1782845893890296600,1.081296630859375,0.029535891085863113,0.01623670292124152,0.02536262398920953
1782845893900301600,1.091301513671875,0.04514963980317115,0.0023911329202353955,0.058092781071737404
1782845893910306800,1.101306884765625,0.0436620315939188,0.0035609073519706725,0.0647694092914462
1782845893920311800,1.111311767578125,0.03820961140692234,0.0076566522330045695,0.0678348612766713
1782845893930316800,1.12131689453125,0.010799626433849335,0.0337692908719182,0.0595030131958425
1782845893940321800,1.13132177734375,0.026572949627041816,0.0768440240971744,0.04977620362527668
1782845893950325800,1.14132568359375,0.06883212868571281,0.07509951851740479,0.03726042092330754
1782845893960330800,1.151330810546875,0.12416823146045207,0.06673208766654133,0.019961860924214123
1782845893970335700,1.161335693359375,0.17082418417334555,0.07644216529801487,-0.002756312970817089
1782845893980340700,1.1713408203125,0.21347148576676844,0.06531988278105855,0.004971650932729244
1782845893990345700,1.181345703125,0.22324118463099002,0.05420344548299908,0.017292860910668967
1782845894000350700,1.191350830078125,0.23981880994439123,0.05219882766231894,0.04169928015358746
1782845894010355700,1.201355712890625,0.20355507190823555,0.02868336590975523,0.004677709487453103
1782845894020360700,1.211360595703125,0.13274842827916145,0.03186024238020181,0.006252046132087707
1782845894030365700,1.22136572265625,0.0623188012689352,0.035289193915575744,-0.006246273978427052
1782845894040370700,1.23137060546875,0.000713116705417633,0.03452493154481053,-0.013347484285756946
1782845894050375700,1.241375732421875,-0.017526888862252236,0.0441616516791284,-0.011202142820134759
1782845894060379400,1.25137939453125,-0.04742985969483852,0.04586582524850964,-0.024730609695985912
1782845894070384400,1.26138427734375,-0.05175415263473987,0.02273556342124939,-0.006864186681061982
1782845894080389600,1.2713896484375,-0.06385901644825935,0.04051423508748412,0.005164323960617184
1782845894090394600,1.28139453125,-0.05579144532680511,0.03207242382615805,-0.0007893968120217322
1782845894100399600,1.291399658203125,-0.020063129341602325,0.027692455176264046,0.001203311375156045
1782845894110404600,1.301404541015625,0.04716682484447956,0.02279153139218688,0.023472937785089014
1782845894120409600,1.31140966796875,0.13189502632021904,0.042986470419913526,0.0026251608718186616
1782845894130414800,1.321414794921875,0.19519874697327613,0.05489917266219854,-0.019713512186333534
1782845894140419800,1.331419921875,0.21700492058992385,0.06430033047497272,-0.03412855263836682
1782845894150424800,1.3414248046875,0.23712474855482576,0.04510127061679959,-0.024869506710022686
1782845894160428500,1.351428466796875,0.189022104164958,0.0347454424276948,0.009335910556837915
1782845894170433500,1.36143359375,0.08352993160188198,0.03641585985794663,0.01768558655530214
1782845894180438500,1.3714384765625,0.02188157694041729,0.03802212601080537,0.044116643493622536
1782845894190443500,1.381443603515625,-0.007229366731643676,0.028480682944506404,0.04801861936822533
1782845894200448500,1.391448486328125,-0.0032189620465040204,0.019486060106009243,0.066586760911718
1782845894210453500,1.40145361328125,0.04422667973935604,0.025758856765180825,0.04419233907833695
1782845894220458500,1.41145849609375,0.11044307296872138,0.015131956549733877,0.05103409473188221
1782845894230463500,1.42146337890625,0.15656886432766914,0.01220467092618346,-0.0010912293028086423
1782845894240468500,1.431468505859375,0.17283786208331584,-0.0016848843470215796,-0.054342780888453124
1782845894250472400,1.441472412109375,0.15099427906572818,0.029404665921628475,-0.07023330072052776
1782845894260477400,1.4514775390625,0.11104162338376045,0.057787587580084794,-0.043623453149199486
1782845894270482400,1.461482421875,0.059660395714640616,0.06368292922899127,-0.06006583471037447
1782845894280487400,1.4714873046875,0.005105214184522628,0.07013926576152443,-0.025847850222885608
1782845894290492400,1.481492431640625,-0.06096504857242107,0.0354326940394938,-0.006858999049291014
1782845894300497400,1.491497314453125,-0.055198740130662914,0.002372135958820581,0.001361059220135212
1782845894310502700,1.501502685546875,-0.03606909224689007,0.0066501055389642716,0.018885098538175223
1782845894320507600,1.511507568359375,-0.0038280338555574415,-0.0010879413671791554,0.03833608733080327
1782845894330512600,1.5215126953125,0.04114449581503868,0.0018320377327501773,0.04458901024572551
1782845894340517600,1.531517578125,0.10716215160191059,-0.000755640672892332,0.05595518452115356
1782845894350522600,1.541522705078125,0.19029343927502632,0.02036006646156311,0.05247413747236132
1782845894360526600,1.551526611328125,0.2400245616495609,0.04134089516997337,0.014800313442572951
1782845894370531600,1.561531494140625,0.2557452778726816,0.05542831110283732,0.0036319998268038033
1782845894380536600,1.57153662109375,0.246307587441802,0.04289426209181547,-0.02082096197158098
1782845894390541600,1.58154150390625,0.23083646206557748,0.03345306452959776,-0.002820245052501559
1782845894400546600,1.591546630859375,0.1631885747283697,0.03443988360986113,0.029432576841861006
1782845894410551600,1.601551513671875,0.0953799438714981,0.0287858033709228,0.06422456182502209
1782845894420556500,1.611556640625,0.020071312648057938,0.03539543076902628,0.08051774417385459
1782845894430561500,1.6215615234375,-0.007637947532534599,0.04144216358736157,0.06034435939081013
1782845894440566500,1.63156640625,0.009054244071245193,0.03457257007881999,0.050774128621444106
1782845894450571500,1.641571533203125,0.01955751790702343,0.014374416180700064,0.041867549392580986
1782845894460575500,1.651575439453125,0.008092705562710762,-0.01567468512430787,0.07733056550510227
1782845894470580500,1.66158056640625,0.016693945169448852,0.025140140344947576,-0.015012056497111915
1782845894480585500,1.67158544921875,0.014015081349015236,-0.016732085222750902,-0.1258542117860168
1782845894490590500,1.681590576171875,-0.07556932798624039,0.06883505129516124,0.012086962830647826
1782845894500595500,1.691595458984375,-0.019556348863244057,0.05832943937182426,-0.07523293563872575
1782845894510600400,1.701600341796875,-0.07294833183288574,0.04890285485684871,-0.03858991596139967
1782845894520605400,1.71160546875,-0.021378303593397138,0.04745703996270895,-0.01622866574525833
1782845894530610700,1.721610595703125,0.007411153039336204,0.014056290142238139,0.028912279294803736
1782845894540615700,1.73161572265625,0.08473696930408477,0.030661095723509786,0.019660247629135846
1782845894550620700,1.74162060546875,0.1364659874975681,0.03073869100436568,0.011159399656951426
1782845894560624600,1.751624755859375,0.18217326118350027,0.027482173426449298,-0.027791750832274555
1782845894570629600,1.761629638671875,0.1681464893966913,0.038186230531334873,-0.047353068131580946
1782845894580634600,1.771634521484375,0.15852818170189856,0.05345116581097245,-0.044888358518481254
1782845894590639600,1.7816396484375,0.11583061122596264,0.04931245857104659,-0.024620792645961044
1782845894600644600,1.79164453125,0.06962006419301033,0.03103329003676772,0.007860577307268976
1782845894610649600,1.801649658203125,0.06524842498004436,0.03540200664028525,0.02105513605363667
1782845894620654600,1.811654541015625,0.03949146791100502,0.0403797950528562,0.031723537323251366
1782845894630659600,1.82165966796875,0.02748246568739414,0.026176789916306734,0.04198065437823534
1782845894640664600,1.83166455078125,0.05367313799858093,0.024483430001884698,0.032286724163964386
1782845894650669600,1.841669677734375,0.10831541329026222,0.0377037077113986,0.04886383802071213
1782845894660674600,1.851674560546875,0.16345570123195646,0.04874108842387795,0.029629341522976756
1782845894670678500,1.861678466796875,0.22023381950855253,0.061393356987088914,0.0024077187288552523
1782845894680683500,1.87168359375,0.19693185437619684,0.07643997334092854,-0.004315744307264686
1782845894690688500,1.8816884765625,0.17744214100837707,0.08681947466656566,-0.013156784019246697
1782845894700693500,1.891693603515625,0.17249650129973887,0.07422755798846482,0.026689488678798078
1782845894710698500,1.901698486328125,0.1331944184809923,0.05006809924393892,0.02120360461361706
1782845894720703500,1.911703369140625,0.104699560880661,0.05441095075383782,0.027521847849711775
1782845894730708500,1.92170849609375,0.09117723148465157,0.02713087577074766,0.05714475963190198
1782845894740713500,1.93171337890625,0.08383329846262931,0.012083236503601073,0.06127908295765519
1782845894750718700,1.94171875,0.09952069693803786,0.00030818916633725164,0.05793605614006519
1782845894760723700,1.9517236328125,0.07480418883264064,0.02478562781885266,0.03584003273136913
1782845894770727700,1.961727783203125,0.0422328755736351,0.01765679885223508,-0.008852072562649846
1782845894780732700,1.971732666015625,0.009725275200605392,0.02116714506074786,-0.02252447795383632
1782845894790737700,1.981737548828125,0.019462825360894203,0.02637187409698963,-0.004677636422216892
1782845894800742700,1.99174267578125,0.047860652327537535,0.015243600230664013,-0.02290858190059662
1782845894810747600,2.00174755859375,0.032419337567687036,0.012467705776542425,-0.053136693034321066
1782845894820752600,2.011752685546875,0.005423778614401817,0.017656360460817814,-0.07219137598574162
1782845894830757600,2.021757568359375,-0.03965221143066883,0.014368424831330776,-0.055442120432481166
1782845894840762600,2.0317626953125,-0.018120178580284117,0.007928601042181254,-0.033439328265190124
1782845894850767600,2.041767578125,0.04457797739505768,-0.008237228599935769,-0.020467107032611963
1782845894860772600,2.051772705078125,0.09598200141787529,0.0036417175032198426,-0.03166530432999134
1782845894870777600,2.061777587890625,0.14594693254828453,0.027475013033300636,-0.0349088162958622
1782845894880781600,2.071781494140625,0.16108838757872582,0.008383066811412572,-0.0345699397303164
1782845894890786600,2.08178662109375,0.14632336464524268,0.01831847763136029,-0.025996757174283264
1782845894900791600,2.09179150390625,0.11385784984827041,0.010270341862738131,-0.025265374159812927
1782845894910796500,2.101796630859375,0.07149696398079394,0.02643032628595829,0.005553834734857082
1782845894920801500,2.111801513671875,0.03310381270051002,0.040272681416571136,0.0349540436770767
1782845894930806500,2.121806640625,0.041643092986941334,0.023212241022288797,0.05163936714865267
1782845894940811500,2.1318115234375,0.08143383610546588,0.009877543152868748,0.064939505161345
1782845894950816500,2.14181640625,0.11856909627914428,-0.007382949858158827,0.06144077632538974
1782845894960821500,2.151821533203125,0.1995475898325443,-0.009398527464270591,0.03478738187327981
1782845894970826800,2.16182666015625,0.22574235379695892,-0.02119476372003555,0.004983341370522976
1782845894980830500,2.17183056640625,0.16321254012584685,-0.034209289724379775,0.000757321173325181
1782845894990835500,2.18183544921875,0.12275719561874866,0.0016750936053693294,0.01377571963518858
1782845895000840400,2.19184033203125,0.06984218251109123,0.006034603989124298,0.011782353860884904
1782845895010845400,2.201845458984375,0.029377485653758046,0.023025778539478778,-0.014579729494452475
1782845895020850400,2.211850341796875,0.006713818424940109,0.03349325040951371,-0.01549538303464651
1782845895030855700,2.221855712890625,-0.021927754169702527,0.028041268613934515,-0.0011481471218168734
1782845895040860700,2.231860595703125,-0.024786650732159615,0.03706891693919897,0.019525953724980352
1782845895050865700,2.24186572265625,-0.0038110827207565303,0.027748130886256692,0.025906959998980163
1782845895060870700,2.25187060546875,0.04424947609305382,0.005092646963894367,0.03416968836635351
1782845895070875600,2.261875732421875,0.08567278884947299,0.003437573233246803,0.032568902106210586
1782845895080879400,2.27187939453125,0.11457681177258491,0.014178893608599901,0.016738807224482295
1782845895090884400,2.28188427734375,0.11267886919677257,0.019094868831336497,0.010675780858471989
1782845895100889300,2.291889404296875,0.10763035363554954,0.04947685535252094,0.015763970842957494
1782845895110894300,2.301894287109375,0.1156447332650423,0.057841655854880804,0.02039024240411818
1782845895120899300,2.3118994140625,0.10526537806987762,0.052499418044090265,0.021987521532922983
1782845895130904300,2.321904296875,0.10878946054279803,0.04030936016514897,0.045071606130897994
1782845895140909300,2.331909423828125,0.10988543908596038,0.03581351005062461,0.036360184147953986
1782845895150914300,2.341914306640625,0.11623977654874323,0.023203180932998654,0.029047961438447234
1782845895160919600,2.35191943359375,0.1424316179037094,0.01134177048653364,0.029570889334008095
1782845895170924500,2.361924560546875,0.1727040065705776,0.008451017481088638,0.025180983811989424
1782845895180929500,2.371929443359375,0.16632453466653824,0.003651946636289358,-0.00024549919366836546
1782845895190933500,2.38193359375,0.16189210517704486,0.02401405892446637,-0.0064468380518257614
1782845895200938500,2.3919384765625,0.10992051039934157,0.050772448121011254,-0.0013046528577804564
1782845895210943500,2.401943603515625,0.09893675957024096,0.042766690189391374,-0.01402004978507757
1782845895220948500,2.411948486328125,0.0705278266876936,0.0405357162669301,-0.039391076276451345
1782845895230953500,2.421953369140625,0.028655016598105428,0.03859028128758073,-0.04182634059935808
1782845895240958500,2.43195849609375,-0.013844400957226752,0.046398763081431385,-0.03123728817626834
1782845895250963500,2.44196337890625,-0.03091244013607502,0.0326243586204946,-0.005765796985104679
1782845895260968400,2.451968505859375,-0.023225977286696432,0.032456600838154555,0.010294526455923915
1782845895270973400,2.461973388671875,0.008383212941884995,0.047438189131766555,0.018411781938001512
1782845895280978400,2.471978515625,0.048214872592687606,0.0403844712279737,0.009935191624239087
1782845895290982400,2.481982421875,0.10623685345053673,0.016739537876844405,0.029860154604166744
1782845895300987400,2.4919873046875,0.15241116012632847,0.025121581774950025,0.07539652870260179
1782845895310992400,2.501992431640625,0.14670038126409052,0.022594985906779764,0.05434796852022409
1782845895320997400,2.511997314453125,0.1274210957765579,0.058702510467916726,0.048416021187976
1782845895331002400,2.52200244140625,0.11771218718886375,0.06066285075545311,0.02660992063656449
1782845895341007400,2.53200732421875,0.13500526729524134,0.07451148949638009,0.02181340707503259
1782845895351012400,2.542012451171875,0.15804185948967933,0.06743205262944102,0.04343582162261009
1782845895361017300,2.552017333984375,0.18998656528294086,0.0422328755736351,0.0321592253267765
1782845895371022300,2.562022216796875,0.19341186355650425,0.017854513381421563,0.03933510830551386
1782845895381027600,2.572027587890625,0.16263561702072618,0.01316767073944211,0.05950118656493723
1782845895391032600,2.582032470703125,0.1295388185828924,-0.002910042227804661,0.07135682485774159
1782845895401036500,2.59203662109375,0.07045534597337245,-0.0008313362576067448,0.05041778946444392
1782845895411041500,2.60204150390625,-0.03359656465351581,0.042023324476182455,0.03551248127743602
1782845895421046500,2.612046630859375,-0.08859072212278843,0.04231193215921521,0.027734102360904216
1782845895431051500,2.622051513671875,-0.0684925214678049,0.03486658458933234,0.01711984243132174
1782845895441056500,2.632056396484375,-0.01969429602921009,0.03362564461752772,-0.0017298194672912357
1782845895451061500,2.6420615234375,0.032256255960464476,0.04161693563237786,-0.0068630907025188205
1782845895461066500,2.65206640625,0.08339198443591594,0.031097149053215978,-0.001389481597021222
1782845895471071500,2.662071533203125,0.13870938251018525,0.025320319217443463,-0.012175517896935342
1782845895481076500,2.672076416015625,0.13689736465215682,-0.011685030966252088,-0.002078925165906548
1782845895491081500,2.68208154296875,0.1303548111408949,-0.005467179364711046,-0.005134440279006958
1782845895501085400,2.69208544921875,0.134006319385767,0.019227847561240196,0.020760171695053575
1782845895511090400,2.70209033203125,0.13673603661060332,0.0067272624284029,0.03608326690271497
1782845895521095400,2.712095458984375,0.11550444801151752,0.006743482910841703,0.007360738026350736
1782845895531100400,2.722100341796875,0.15116203684806823,0.007931669782102108,-0.016753785597905517
1782845895541105400,2.73210546875,0.16187573856413365,0.02985167903676629,-0.012269260594993829
1782845895551110400,2.7421103515625,0.1607394280105829,0.011514350574463605,-0.05784655122570693
1782845895561115400,2.752115478515625,0.1319312666773796,0.006870470291376113,-0.04831614101007581
1782845895571120400,2.762120361328125,0.08017477595508098,0.034024580807238816,-0.02904737691655755
1782845895581125400,2.77212548828125,0.031876316732168196,0.01926730278879404,-0.04575425463281572
1782845895591130400,2.78213037109375,0.028453356546163558,0.030545068128407,-0.06002038813345134
1782845895601134600,2.792134521484375,0.03430968135893345,0.03127557436004281,-0.024065569915995
1782845895611139600,2.8021396484375,0.06729308255016804,0.011508213094621897,-0.0017621873669326305
1782845895621144600,2.81214453125,0.06069675302505493,-0.006630231794714927,-0.005468786799907684
1782845895631149600,2.822149658203125,0.09224573749899864,-0.011626724907755851,0.011812822064384818
1782845895641154600,2.832154541015625,0.09659399583637714,-0.0045800212666392325,-0.009940160060301422
1782845895651159600,2.84215966796875,0.06792436619102954,0.02036722685471177,-0.00887559956870973
1782845895661164500,2.85216455078125,0.03159107005000114,0.044860009206831454,0.0001651274338364601
1782845895671169500,2.86216943359375,-0.011881576451659203,0.04679594570547342,-0.009446092933043836
1782845895681174500,2.872174560546875,-0.036136312264204024,0.06594707476869226,-0.017070085005462168
1782845895691179500,2.882179443359375,-0.0054430678367614746,0.04391819831207394,0.01625336179509759
1782845895701184500,2.8921845703125,0.06950900503396988,0.037237989895790816,0.04163432515859604
1782845895711188500,2.9021884765625,0.12481237458288669,0.03307283304035664,0.03070690762661397
1782845895721193500,2.912193359375,0.18779986889362335,0.020838936019688843,0.0178736564733088
1782845895731198500,2.922198486328125,0.23441724316179752,0.03503463463261723,0.006342281698808074
1782845895741203500,2.932203369140625,0.2671346868932247,0.04284983842819929,0.01453932441882789
1782845895751208400,2.94220849609375,0.23690029214918612,0.04937485628277063,0.01893609807305038
1782845895761213400,2.95221337890625,0.17463351332843302,0.049895811416953796,0.021528817979991434
1782845895771218400,2.962218505859375,0.09614508302509785,0.028423984321206807,0.02675013282485306
1782845895781223400,2.972223388671875,0.00912497121989727,0.037957244081050154,-0.006292743468657136
1782845895791228400,2.982228515625,-0.08867489327490329,0.052924511588364836,-0.0022485095791518685
1782845895801233400,2.9922333984375,-0.12140285840034484,0.05032002817839384,0.005081321852281689
1782845895811238400,3.00223828125,-0.10533902782797813,0.038704701447486875,-0.027889804379269478
1782845895821242600,3.01224267578125,-0.05159224007129669,0.033119887052476406,-0.03534413897320628
1782845895831247600,3.02224755859375,0.03342997591495514,0.016674802077561616,-0.03289557677730918
1782845895841252600,3.032252685546875,0.0919470468133688,0.027584757018089292,-0.04394859345033764
1782845895851257600,3.042257568359375,0.1361269648015499,0.02464782678335905,-0.017053718392550946
1782845895861262600,3.0522626953125,0.12639818246960638,0.005447305620461702,-0.008465265202149748
1782845895871267600,3.062267578125,0.10793430501818656,0.018434797487407922,0.0021139964792877435
1782845895881272600,3.0722724609375,0.08959083907604216,0.03546396596059203,0.0208413471724838
1782845895891277600,3.082277587890625,0.06631283934116364,0.0407625107601285,0.027138474555313586
1782845895901282600,3.092282470703125,0.10086743537187576,0.06192892516851425,0.03941986397951841
1782845895911287600,3.10228759765625,0.09394026645720005,0.05785290790125727,0.04602401148490608
1782845895921291500,3.11229150390625,0.12631751844882963,0.05238105236142873,0.01867993135489523
1782845895931296500,3.122296630859375,0.13608663279116154,0.05381415390446782,0.012832374370470643
1782845895941301500,3.132301513671875,0.15195406400859354,0.03722074650004506,0.0017135259196162222
1782845895951306500,3.142306396484375,0.14648936886191366,0.01708089866042137,-0.008697612653300166
1782845895961311500,3.1523115234375,0.16485037046074866,0.017708090648055074,-0.021880992418527603
1782845895971316500,3.16231640625,0.15453472815155983,0.005409896219521761,-0.0011680208660662173
1782845895981321500,3.172321533203125,0.14735270769298076,0.025333324829488992,-0.009233911487087607
1782845895991326500,3.182326416015625,0.14028583804666994,0.04636617598608136,-0.012081702133640647
1782845896001331500,3.19233154296875,0.07046177571415901,0.0542920005492866,0.00949964975118637
1782845896011336400,3.20233642578125,-0.0005003507375717163,0.026533348269015548,0.03757569741755724
1782845896021341400,3.212341552734375,-0.01814180589020252,0.011714110930263996,0.07083338550552726
1782845896031345700,3.222345703125,-0.023431144469976423,-0.02414879122003913,0.07854308310002088
1782845896041350700,3.2323505859375,0.013617606464028358,0.008744447469711304,0.07485204656235873
1782845896051355600,3.242355712890625,0.0657867696404457,0.026445085463672875,0.05075403568148613
1782845896061360600,3.252360595703125,0.11215221497416496,0.030097178230434653,0.0027539748832583425
1782845896071365600,3.26236572265625,0.10096329696178435,0.0481898842819035,-0.04761025776304304
1782845896081370600,3.27237060546875,0.056532034561038016,0.05506444622650742,-0.06921133726164698
1782845896091375600,3.282375732421875,0.019971943926811217,0.050588031464815136,-0.045168125307932495
1782845896101380600,3.292380615234375,0.003832710030674934,0.03130070880129933,-0.0008950491435825824
1782845896111385600,3.302385498046875,0.03126139970421791,0.0064582362286746495,0.014544804311543702
1782845896121390600,3.312390625,0.12057342183887958,0.01399243112578988,0.02873085831329226
1782845896131395600,3.3223955078125,0.1966431005626917,-0.0016029051519930362,0.02859554149582982
1782845896141399600,3.332399658203125,0.24075872114300725,-0.009569061725586652,0.0136010206554085
1782845896151404500,3.342404541015625,0.25366554898917676,0.006465396621823311,-0.019213672905415296
1782845896161409500,3.352409423828125,0.1667225940734148,0.04364756467714905,-0.027143808317556976
1782845896171414500,3.36241455078125,0.07796352964639663,0.05300707530528306,-0.02951382538452744
1782845896181419500,3.37241943359375,0.01754793165028095,0.04706131864339113,-0.04487637581974268
1782845896191424500,3.382424560546875,-0.03150456081032753,0.07136661559939383,-0.03814144154153764
1782845896201429800,3.3924296875,-0.05348901360332965,0.05827317913994193,-0.018987389868870375
1782845896211434800,3.402434814453125,-0.048995209315419196,0.05100201909318566,0.007288330377265811
1782845896221439700,3.412439697265625,-0.003620528584718704,0.021725363465398547,0.038770606290549035
1782845896231444700,3.42244482421875,0.06824234609901905,-0.00013385551273822782,0.02982435263842344
1782845896241449000,3.432448974609375,0.13123919275999069,-0.010668401269614696,0.06667999215312302
1782845896251454000,3.442453857421875,0.1827250498473644,-0.009804770177602767,0.07107165124081075
1782845896261459000,3.452458984375,0.1810270137578249,-0.001434124456346035,0.034906843534484505
1782845896271464000,3.4624638671875,0.11539806502759456,0.008020955500751733,0.03740976626612246
1782845896281469000,3.472468994140625,0.04806406594514846,0.06583133943453431,0.04242642538435757
1782845896291474000,3.482473876953125,-0.007306523621082306,0.06137304485142231,0.055252735340222715
1782845896301479000,3.49247900390625,-0.042510523471236225,0.06013137422725558,0.03862593712285161
1782845896311484000,3.50248388671875,-0.02169336089193821,0.05891454578340053,0.07071195108294487
1782845896321489000,3.512489013671875,0.04830547348558902,0.024312018957734105,0.043240591311454774
1782845896331494000,3.522493896484375,0.12311901466846466,-0.006302461145073175,0.02681822962500155
1782845896341497900,3.532497802734375,0.18085165719091892,0.0005323533110320568,0.026516397134214637
1782845896351502800,3.5425029296875,0.19355156428813933,-0.005221826301515102,0.012595277678966522
1782845896361507800,3.5525078125,0.197748431456089,0.018421645744889973,-0.007324570734426379
1782845896371512800,3.562512939453125,0.19493512760102746,0.021779139479249716,0.006703443161398172
1782845896381517800,3.572517822265625,0.181871647888422,0.022116847001016137,-0.02940247396454215
1782845896391522800,3.582522705078125,0.12118775434494018,0.016266367407143115,-0.010319368636235594
1782845896401527800,3.59252783203125,0.05146364525556564,0.004410656049102545,0.002448196869716048
1782845896411532800,3.60253271484375,-0.00047229368686676023,0.0038626667775213718,0.047976241531223054
1782845896421537800,3.612537841796875,-0.04588263025283813,-0.0009364040672779082,0.01526186653971672
1782845896431542800,3.622542724609375,-0.06124094290435314,-0.019966244838386774,0.034678222410380835
1782845896441547800,3.6325478515625,-0.07184066285192967,-0.011302461389452218,0.012419994177296757
1782845896451551700,3.6425517578125,-0.07358955234587192,0.0038924773938953873,0.0012529957357794047
1782845896461556700,3.652556640625,-0.05596504832804203,0.00647065731883049,-0.004730097261816263
1782845896471561700,3.662561767578125,-0.002513444125652313,0.017687778512388466,-0.024669381028041244
1782845896481567000,3.67256689453125,0.0551560700327158,0.049816024179011584,0.002748714186251163
1782845896491572000,3.682572021484375,0.1313257019996643,0.06224851251170039,-0.02382496609315276
1782845896501577000,3.692576904296875,0.18840134191811084,0.06007160686403513,-0.0287749897159636
1782845896511582000,3.70258203125,0.26364684477746486,0.06093816056549549,-0.002301628005877137
1782845896521587000,3.7125869140625,0.3112532300829887,0.06825096779689192,-0.005270780009776353
1782845896531592000,3.722592041015625,0.3255406986325979,0.05632482155114412,0.009257438493147491
1782845896541597000,3.732596923828125,0.31369068636298175,0.02765285381823778,0.007981427207961678
1782845896551600600,3.7426005859375,0.2112123086631298,0.014791034157574176,0.003091170948371291
1782845896561605600,3.752605712890625,0.0771504596978426,0.030528409254550932,0.01340666712708771
1782845896571610600,3.762610595703125,-0.027891046488285064,0.022424743906408546,0.055063131052255625
1782845896581615600,3.77261572265625,-0.059094578525424,0.02107011442705989,0.07005027230381965
1782845896591620600,3.78262060546875,-0.010598550903797148,0.022037352024018762,0.03348177916742861
1782845896601625600,3.79262548828125,0.026066753670573234,0.025396745454519986,-0.0046212300598621366
1782845896611630600,3.802630615234375,0.05362462268173694,0.02958192218467593,-0.04500058672130108
1782845896621635600,3.812635498046875,0.06769640265405177,0.031415128961205484,-0.019692177137359976
1782845896631640600,3.822640625,0.10345686734318732,0.03003448825776577,-0.0069121174760162826
1782845896641645600,3.8326455078125,0.13930033414065837,0.03781608204469084,-0.004043795498088002
1782845896651650800,3.84265087890625,0.16643734739124774,0.02876885223612189,-0.00932560835853219
1782845896661654800,3.85265478515625,0.19386077636778354,0.008406301556527614,-0.022958266261219978
1782845896671659800,3.86265966796875,0.1369762751072645,-0.006498860500007867,0.009327873380854725
1782845896681664800,3.872664794921875,0.10254910484850406,0.0015231179140508175,0.051361792316287756
1782845896691669800,3.882669677734375,0.04130523933470249,-0.011855565227568149,0.060020826524868606
1782845896701674800,3.8926748046875,0.009609539866447449,-0.015667524731159208,0.0911187062304467
1782845896711679700,3.9026796875,0.03276888165771961,-0.005667524242401123,0.06557283462882041
1782845896721684700,3.912684814453125,0.07574410003125667,0.023862375494092702,0.026401611648127436
1782845896731689700,3.922689697265625,0.09723463182747363,0.037655192394554615,-0.023826281267404555
1782845896741694700,3.93269482421875,0.12094810037016868,0.039878567532449956,-0.038676936657726764
1782845896751699700,3.94269970703125,0.1036585273951292,0.031054478955268857,-0.02687500131353736
1782845896761703700,3.95270361328125,0.10651157873868941,0.016199585781246424,-0.02328274897523224
1782845896771708700,3.962708740234375,0.12432020715177058,-0.003119593325257301,-0.007289280225336551
1782845896781713700,3.972713623046875,0.1399579212665558,-0.001262275020778179,0.01708637855313718
1782845896791718700,3.98271875,0.11839724684357643,0.022686901973932982,-0.013878303226828575
1782845896801723600,3.9927236328125,0.07227087096273899,0.028602409628033638,-0.0038163434177637097
1782845896811728600,4.002728759765625,0.024124387431144714,0.022478666050732135,0.04490538271851837
1782845896821733600,4.012733642578125,-0.022161562925577163,0.02919993712976575,0.020182591002807018
1782845896831738600,4.022738525390625,-0.05634849468767643,0.026564766320586203,-0.007251578563451767
1782845896841743600,4.03274365234375,-0.061001873451471324,0.04358882022723555,0.005087532397359609
1782845896851748600,4.04274853515625,-0.07125380287468433,0.03539689207375049,-0.012154694304615259
1782845896861752800,4.0527529296875,-0.080038582354784,0.037800884475558995,0.002017258106544614
1782845896871757800,4.0627578125,-0.03683247783482074,0.034885289289802314,0.009153758922964333
1782845896881762800,4.0727626953125,0.0201338564902544,0.013481851255148648,0.04946640702374279
1782845896891767800,4.082767822265625,0.08462766371071338,0.001542261005938053,0.0562787904523313
1782845896901772800,4.092772705078125,0.16076280888617037,0.025468495516479013,0.033058731449767946
1782845896911777800,4.10277783203125,0.21688567812442777,0.02626359141692519,0.037335824247077105
1782845896921782800,4.11278271484375,0.24758652133643624,0.009498919098824263,0.013326076171547173
1782845896931787800,4.122787841796875,0.2369219194591045,0.039002807611227035,0.01912088005542755
1782845896941792800,4.132792724609375,0.1649398023098707,0.08655410172864794,0.00006071721129119396
1782845896951797800,4.1427978515625,0.1213917524844408,0.0791008631132543,0.011063318871334195
1782845896961802800,4.152802734375,0.08229366780519486,0.07545563847869634,0.017556845609098672
1782845896971806700,4.162806640625,0.06965747359395026,0.07893807376697659,0.03658515201024711
1782845896981811700,4.172811767578125,0.06919570130109787,0.0598648322455585,0.03215462221689522
1782845896991816700,4.182816650390625,0.10062368974387645,0.06350596522688866,0.03403196039609611
1782845897001821700,4.19282177734375,0.14442249945998192,0.031029490644484757,0.023382483022660015
1782845897011826700,4.20282666015625,0.13904372903108597,0.026239187628030774,0.03236585381478071
1782845897021831700,4.212831787109375,0.09565876081287861,0.029381869567930697,0.03778364107981324
1782845897031836700,4.222836669921875,0.06245499486923217,0.04141089166626334,0.010724515371024607
1782845897041841700,4.232841552734375,0.055550622308254236,0.032724604124575854,0.025901772367209194
1782845897051846700,4.2428466796875,0.06772387518286704,0.025978783126175402,0.0518367163516581
1782845897061851600,4.2528515625,0.09293781141638756,0.03816971778795123,0.042567295159772034
1782845897071856600,4.262856689453125,0.08763502883315086,0.04223755174875259,0.033172494022548196
1782845897081860900,4.27286083984375,0.07950842100083827,0.05661050662472844,0.023680881447345016
1782845897091865900,4.282865966796875,0.08863806839585303,0.052665714521706104,0.022984131354838608
1782845897101870800,4.292870849609375,0.10921440795660019,0.04778115735054016,0.04334419781640172
1782845897111875800,4.302875732421875,0.12241349674761294,0.031390871302783487,0.03491860703751445
1782845897121880800,4.312880859375,0.11035130303204059,0.037985885653644795,-0.014728709511086345
1782845897131885800,4.3228857421875,0.0988221932798624,0.04996157012954354,-0.017930574292317033
1782845897141890800,4.332890869140625,0.09954407781362533,0.03446954809576273,-0.013935586372017859
1782845897151895800,4.342895751953125,0.07420388485193252,0.031669542113691565,-0.029341026100888845
1782845897161900800,4.35290087890625,0.08837795615494251,0.05325242836847901,-0.03643156888373196
1782845897171905800,4.36290576171875,0.06720774235427379,0.04139744766280055,-0.03125635820291936
1782845897181909800,4.37290966796875,0.07173720247745513,0.03213803640827537,-0.04841624038368463
1782845897191914800,4.382914794921875,0.08927402821183204,0.02685921922251582,-0.046683498306944966
1782845897201919500,4.39291943359375,0.0742611679971218,0.009711977327615022,-0.051795945949852464
1782845897211924500,4.402924560546875,0.1457961259007454,0.019347820679098366,-0.024375001191347837
1782845897221929500,4.412929443359375,0.15725567754805087,0.02454290510416031,-0.020720862597972154
1782845897231934500,4.4229345703125,0.14484861591756343,0.011992927871644497,-0.018043825408443806
1782845897241939500,4.432939453125,0.1101373680204153,0.028951223065704107,-0.012337357395142317
1782845897251944400,4.4429443359375,0.06001929215490818,0.03650719140321016,-0.01725033694319427
1782845897261949400,4.452949462890625,0.0068646250724792475,0.01986146928966045,0.01966222039051354
1782845897271954400,4.462954345703125,-0.02011398274600506,0.02592076932862401,0.05036832429952919
1782845897281958700,4.472958740234375,-0.05640460878908634,0.014029402135312556,0.076293185281381
1782845897291963600,4.482963623046875,-0.053035424616932864,0.02063026170507073,0.06814451174773276
1782845897301968600,4.49296875,-0.022121230915188788,0.01245411564260721,0.07958879276067019
1782845897311973600,4.5029736328125,0.04047288016378879,0.013740209930390119,0.03494819845817983
1782845897321978600,4.512978515625,0.0847223562568426,0.017663520853966472,0.018605404813960193
1782845897331983600,4.522983642578125,0.1293868428915739,0.018800854320824144,0.013288301444426179
1782845897341988600,4.532988525390625,0.1527846696138382,0.02102262202352285,-0.012617124184593558
1782845897351993600,4.54299365234375,0.18273674028515816,0.007038666465133428,-0.026128932186588644
1782845897361998600,4.55299853515625,0.21415596089959144,0.033345366371423005,-0.033932445544376966
1782845897372003600,4.563003662109375,0.18342530707120894,0.048944794302433724,-0.04376161951087415
1782845897382007600,4.573007568359375,0.13320610891878604,0.03454480528905988,-0.06372019249945879
1782845897392012500,4.583012451171875,0.08063771729171276,0.019596242482215163,-0.021634178050607442
1782845897402017500,4.593017578125,-0.004791325929760932,0.033959552747011186,-0.013655673452094197
1782845897412022500,4.6030224609375,-0.042152796074748033,0.03314312179759145,0.011985182956606149
1782845897422027500,4.613027587890625,-0.07868482965826988,0.007975070532411336,0.039042408969253296
1782845897432032500,4.623032470703125,-0.04368541246950626,0.013020517353713512,0.02368373099155724
1782845897442037500,4.63303759765625,-0.009502572360634804,0.026737638669461012,0.0184521870136261
1782845897452042500,4.64304248046875,0.020581015735864638,0.028639672898501157,0.02392009703069925
1782845897462047500,4.653047607421875,0.07504325828552245,0.025292846688628197,0.03973338690809905
1782845897472052500,4.663052490234375,0.1121586447149515,0.037680911357700825,0.035398864835128184
1782845897482057500,4.673057373046875,0.1237310090869665,0.05775485435426235,0.04038103716187179
1782845897492061700,4.683061767578125,0.1551496451795101,0.06916209129244089,0.031561405564099546
1782845897502066700,4.693066650390625,0.18443243828713893,0.06036474459171295,0.026766572503000498
1782845897512071700,4.70307177734375,0.15778233177065848,0.062115679912269114,0.03294847600832582
1782845897522076700,4.71307666015625,0.11166764632761478,0.04994198864623904,0.03301598828658461
1782845897532081700,4.72308154296875,0.051699207577109337,0.05295505285710096,0.05451930649913847
1782845897542086700,4.733086669921875,0.0067740241795778275,0.033989801754802464,0.06841609523072838
1782845897552091600,4.743091552734375,-0.010402151548862457,0.03415200657919049,0.03687770521603524
1782845897562096600,4.7530966796875,0.019501988327503203,0.03714987322092056,0.0019883242730051277
1782845897572101600,4.7631015625,0.05809387705028057,0.03950768839344382,-0.04450001678802073
1782845897582106600,4.773106689453125,0.10041326186358929,0.02998860328942537,-0.04895334293507039
1782845897592110300,4.7831103515625,0.10143559064865111,0.0663524406991899,-0.046381885011866686
1782845897602115300,4.793115234375,0.11820318557620048,0.08288900334984063,-0.07242986091673374
1782845897612120300,4.803120361328125,0.12796119400262831,0.08853826128318905,-0.03888393047191203
1782845897622125300,4.813125244140625,0.13505904330909252,0.08193257940784096,-0.010708075692877173
1782845897632130300,4.82313037109375,0.11440963851213455,0.07105141217038034,-0.0007379588857293128
1782845897642135300,4.83313525390625,0.09006196371912956,0.06550123069733381,0.014488763275370001
1782845897652140300,4.843140380859375,0.06005027181506157,0.06083440793007612,0.01917575204782188
1782845897662145500,4.8531455078125,0.06692308019399643,0.06626154754534364,0.03536445110887289
1782845897672150500,4.863150634765625,0.0761433284819126,0.043462709629535676,0.028748247839510438
1782845897682155500,4.873155517578125,0.08699614640772342,0.020624416486173868,-0.006144713300094008
1782845897692159500,4.883159423828125,0.08072481105327606,0.007306523621082306,0.009661562314629554
1782845897702164500,4.89316455078125,0.10135901828110218,-0.003537088084965944,0.015590806233137845
1782845897712169500,4.90316943359375,0.1266542030572891,-0.03664689213484525,0.02497990828193724
1782845897722174500,4.913174560546875,0.13897358640432356,-0.04721314820423722,0.04648432247303426
1782845897732179500,4.923179443359375,0.14102175110578535,-0.02278977782651782,0.02628923731483519
1782845897742184400,4.933184326171875,0.16378303349018095,0.012688070528954267,-0.011103870077431202
1782845897752189400,4.943189453125,0.08327391101419926,0.03821794084385037,-0.005287219687923788
1782845897762194400,4.9531943359375,0.02204875020086765,0.04097337703183293,-0.005927125026658177
1782845897772199400,4.963199462890625,-0.006410451564192772,0.029717239002138376,-0.0106731505099684
1782845897782204400,4.973204345703125,0.02782324194908142,0.012851444397121667,-0.01097768641449511
1782845897792208400,4.98320849609375,0.10366495713591575,-0.0086944708481431,-0.028109584609791634
1782845897802213400,4.99321337890625,0.17464929541945456,-0.026383856795728206,-0.054500309537723654
1782845897812218400,5.00321826171875,0.211717335575819,-0.0274362884581089,-0.04153305674120784
1782845897822223400,5.013223388671875,0.16606500694751739,-0.01975567082762718,-0.03897577347382903
1782845897832228400,5.023228271484375,0.1193786590963602,-0.03071487173736095,-0.01786021246984601
1782845897842233300,5.0332333984375,0.04302314916849136,-0.015926321797817944,0.0400537049036473
1782845897852238300,5.04323828125,-0.01967909846007824,-0.0034660686753690243,0.05651544875241816
1782845897862243300,5.053243408203125,-0.06261398482322693,-0.01139496197849512,0.05124181919842958
1782845897872248300,5.063248291015625,-0.03039864539504051,0.001387801096588373,0.061564621900767086
1782845897882253300,5.07325341796875,-0.0014437690675258635,-0.015035510437935589,0.03794058520719409
1782845897892258300,5.08325830078125,0.027904490491747855,-0.03443082352057099,-0.0009096621908247471
1782845897902262500,5.093262451171875,0.0855979700475931,-0.037503070572763676,-0.038529856337234374
1782845897912267500,5.103267578125,0.11561550717055796,-0.00313990546092391,-0.08609130652248859
1782845897922272500,5.1132724609375,0.15243629456758498,0.02570259653329849,-0.09326572819650172
1782845897932277500,5.123277587890625,0.1637596526145935,0.009147475312650203,-0.1098126661106944
1782845897942282500,5.133282470703125,0.1952484313338995,0.005036678992956877,-0.09859028422012925
1782845897952287500,5.14328759765625,0.14886486582159994,0.030297084716707466,-0.08216872625127435
1782845897962292500,5.15329248046875,0.097196637904644,0.03434066101908684,-0.0794984110634774
1782845897972297500,5.16329736328125,0.064406128937006,0.030489538548886773,-0.021984233597293495
1782845897982302500,5.173302490234375,-0.005534837773442268,0.050307314827293156,0.011724632324278355
1782845897992307500,5.183307373046875,-0.016488193464279172,0.02929170706644654,0.01752571981847286
1782845898002311400,5.1933115234375,-0.0450385806441307,0.04607011564895511,0.017581030202284454
1782845898012316400,5.20331640625,-0.03431611109972,0.053721653315424917,0.03519567041322589
1782845898022321400,5.2133212890625,-0.011890928801894187,0.04701645658835769,0.05235884052962064
1782845898032326400,5.223326416015625,0.030339608684182166,0.03984612656757235,0.05472235479056835
1782845898042331400,5.233331298828125,0.05647475141584873,0.045418373741954565,0.06621529725082219
1782845898052336400,5.24333642578125,0.12880875074267387,0.03251519915759563,0.06875007642544806
1782845898062341400,5.25334130859375,0.20340660334825514,0.04363602036982774,0.059923065238818525
1782845898072346400,5.263346435546875,0.26727731023430823,0.03715717974454164,0.050447673146054146
1782845898082351400,5.273351318359375,0.28647710074484345,0.033306057274341584,0.015573051380738615
1782845898092356400,5.2833564453125,0.23423370328843593,0.060276774047315115,-0.0008642886791378259
1782845898102360600,5.293360595703125,0.16154431465268135,0.06346212608516216,0.027937150652334094
1782845898112365600,5.303365478515625,0.07610942621231079,0.08224398344457148,0.00833659732118249
1782845898122370600,5.31337060546875,0.050230888590216634,0.07417524327933787,0.007979089120402932
1782845898132375600,5.32337548828125,0.0248830968439579,0.07373714412301778,0.02280402554757893
1782845898142380500,5.333380615234375,0.025371757143735883,0.055613166150450706,-0.007911796037852763
1782845898152385500,5.343385498046875,0.06402560518682003,0.04165156855434179,0.0025550182450562713
1782845898162390500,5.353390625,0.08275953175127505,0.006688830114156007,0.017252967291697858
1782845898172395500,5.3633955078125,0.07954816848933696,0.012357377269864082,0.030531331863999363
1782845898182400500,5.373400390625,0.08163491163551807,0.012875409794598816,0.03402867246046662
1782845898192405500,5.383405517578125,0.10992167944312095,0.03310205913484096,-0.0008170154713094234
1782845898202409700,5.39340966796875,0.11055354760587215,0.07017024542167782,-0.03059467942379415
1782845898212414700,5.403414794921875,0.13244681498408317,0.06823357827067375,-0.014856865935400127
1782845898222419700,5.413419677734375,0.09679799397587775,0.05029474760666489,-0.009369520565494895
1782845898232424700,5.4234248046875,0.07183540215492248,0.036368221323937175,0.005381693038344383
1782845898242429700,5.4334296875,0.05986731646358966,0.03200564220026135,0.056128495261445636
1782845898252434700,5.4434345703125,0.0343769013762474,0.01844195788055658,0.07157938156723975
1782845898262439700,5.453439697265625,0.04419920721054077,0.016237141312658784,0.07998670603707432
1782845898272444700,5.463444580078125,0.07503975115418433,-0.0025784721858799456,0.04517959655001759
1782845898282449700,5.47344970703125,0.10521569370925427,0.026690146265923975,0.027202187441289424
1782845898292454700,5.48345458984375,0.15601999827325344,0.028609277760237455,0.01155124851875007
1782845898302459000,5.493458984375,0.1553337695747614,0.04750613980144262,-0.0038368016839027404
1782845898312464000,5.5034638671875,0.11932839021384715,0.04272781948372721,-0.04185644347667694
1782845898322468900,5.51346875,0.06329729091227054,0.042733226311206816,-0.015907690162584184
1782845898332473900,5.523473876953125,0.022594693645834923,0.04989186589419842,-0.012666808545216917
1782845898342478800,5.533478759765625,0.009946224474906921,0.04573167747482657,0.005833893785253167
1782845898352483800,5.54348388671875,0.055448330977559086,0.02978445901945233,0.03388838720694184
1782845898362488800,5.55348876953125,0.12011281858980655,-0.000933189196884632,0.04470350347086787
1782845898372493800,5.563493896484375,0.15353636476397514,-0.018657061935961245,0.039829248498007654
1782845898382498800,5.573498779296875,0.1627922688871622,-0.02570157361999154,0.010607537927851081
1782845898392503800,5.58350390625,0.12975918333530426,-0.018619944795966147,-0.002800444373488426
1782845898402507800,5.5935078125,0.09811842892467976,-0.009218348591774702,-0.008415507776290177
1782845898412512800,5.6035126953125,0.06945289093255996,0.010806786826997995,-0.01775192978978157
1782845898422517800,5.613517822265625,0.0073369187593460075,-0.0020107553005218504,-0.04978190271370113
1782845898432522800,5.623522705078125,0.0019885434687137602,0.011589169376343487,-0.05769662136100232
1782845898442527700,5.63352783203125,0.005808978539705276,0.00982362100854516,-0.029559198896214365
1782845898452532700,5.64353271484375,0.0028606501281261444,0.002515928343683481,-0.03717676122784614
1782845898462537700,5.653537841796875,0.013409516671299934,0.004399404002726078,-0.046713089727610346
1782845898472542700,5.663542724609375,0.019544073903560638,0.019478315190970895,-0.026035116423293946
1782845898482547700,5.673547607421875,0.01711538545191288,0.004608078317344188,-0.005979512801021337
1782845898492552700,5.683552734375,0.06053191785216331,0.0014075287103652954,-0.004761149987205862
1782845898502557700,5.6935576171875,0.1194920563429594,0.011619126123189926,0.020703473071753978
1782845898512562000,5.70356201171875,0.16195640258491037,0.024784020383656024,0.016288286978006362
1782845898522567000,5.71356689453125,0.17141279771625995,0.009921528425067662,-0.017355331687629223
1782845898532572000,5.723572021484375,0.17845804005265234,0.010306728350371122,0.006818959299847483
1782845898542577000,5.733576904296875,0.16058043805658817,0.0065747022151947014,0.01507467340454459
1782845898552582000,5.743581787109375,0.07591127329170703,0.0278339094735682,0.0002607698280364275
1782845898562587000,5.7535869140625,0.002687047126889229,0.01649871485829353,0.016076324727758766
1782845898572591900,5.763591796875,0.0029687866777181626,0.03867679052725434,0.029731852049380537
1782845898582596900,5.773596923828125,-0.0302682970136404,0.057806146150082345,0.02698985986486077
1782845898592601900,5.783601806640625,-0.022481296399235726,0.05709916692450642,0.0112651981189847
1782845898602606800,5.79360693359375,-0.012787585380673408,0.03552271041050553,0.02116904475688934
1782845898612610800,5.80361083984375,0.07263327453434466,0.009632920742034912,0.06100106973387301
1782845898622615800,5.81361572265625,0.15687223118841648,0.010770984861254692,0.05697663652338087
1782845898632620800,5.823620849609375,0.2096656637430191,0.025775807899981736,0.029758886186778542
1782845898642625800,5.833625732421875,0.2529711369842291,0.0341919001981616,-0.0012855097658932208
1782845898652630800,5.843630859375,0.20233283663690088,0.022791239131242036,-0.0333352103035897
1782845898662635800,5.8536357421875,0.15803776783645151,0.05827990114167332,-0.053936172848939895
1782845898672640800,5.863640869140625,0.09742927761673927,0.04382467480972409,-0.028628713113069533
1782845898682645800,5.873645751953125,0.06959259166419506,0.05513531950563192,-0.053547392727062104
1782845898692650800,5.883650634765625,0.040544191834330556,0.05764701006561517,-0.02340067626647651
1782845898702655700,5.89365576171875,0.03479366548359394,0.03904898484051227,-0.011484320762380956
1782845898712659700,5.90365966796875,0.03366962988972664,0.0470854301713407,-0.0025820523824542758
1782845898722665000,5.9136650390625,0.03663607847988605,0.043892333218455315,0.0028027093958109617
1782845898732670000,5.923669921875,0.06206570329070091,0.031688685205578805,0.003485430962964892
1782845898742675000,5.933675048828125,0.06908756475150585,0.031742168958485126,0.006434051635488868
1782845898752680000,5.943679931640625,0.06655366235971451,0.02855594013780355,0.010702961126342414
1782845898762685000,5.953684814453125,0.07491641703546047,0.04028890189900994,0.03922346462458372
1782845898772690000,5.96368994140625,0.07096446453928947,0.05384191869422793,0.03647051265463233
1782845898782695000,5.97369482421875,0.08042553584575653,0.04519304055348038,0.03758212715834379
1782845898792700000,5.983699951171875,0.07880641021132469,0.05029270178005099,0.0719010147370398
1782845898802705000,5.993704833984375,0.08818272584378718,0.04741583116948604,0.07213197394870222
1782845898812708900,6.003708984375,0.0638701223641634,0.029019465996325013,0.05682480696253478
1782845898822713900,6.0137138671875,0.06680792938172816,0.022167115883529185,0.04913147598095238
1782845898832718800,6.02371875,0.0593166968435049,0.04010083198100328,0.04642871982827782
1782845898842723800,6.033723876953125,0.09664543376266956,0.03125160896256566,0.034260143128782505
1782845898852728800,6.043728759765625,0.15183657510876655,0.05182064199969172,-0.019998978064209222
1782845898862733800,6.05373388671875,0.2039841109752655,0.05853548333793878,-0.034018370262160896
1782845898872738800,6.06373876953125,0.2176174995303154,0.06360270359963179,-0.059284036682918664
1782845898882743800,6.073743896484375,0.17413608520030974,0.05530132372230291,-0.03073774115629494
1782845898892748800,6.083748779296875,0.11071312208175658,0.035004970146715636,-0.01673018552660942
1782845898902753800,6.09375390625,0.05373626636266708,0.011503390789031983,-0.01393726687245071
1782845898912757800,6.1037578125,-0.011011223357915878,0.008189882326871156,-0.02036094324439764
1782845898922762800,6.1137626953125,-0.05454115300476551,-0.003138590286672115,-0.0007368629071861505
1782845898932767700,6.123767822265625,-0.03603635902106762,-0.00421586412936449,0.006475918015837669
1782845898942772700,6.133772705078125,0.00025075989067554474,0.014577829798310994,0.013974018686264753
1782845898952778000,6.143778076171875,0.05735913303494453,0.01637947239279747,0.032016748116165394
1782845898962783000,6.153782958984375,0.11181611488759517,0.009527852932363749,0.03348316740691662
1782845898972788000,6.1637880859375,0.13911737878918648,0.012636194211244582,-0.01625869555734098
1782845898982793000,6.17379296875,0.14520985044538973,0.02134001740962267,-0.043731662764027714
1782845898992798000,6.1837978515625,0.12424188121855258,0.04748378183916211,-0.03338299496807158
1782845899002803000,6.193802978515625,0.08154547978639602,0.047285482788085934,-0.002292933242768049
1782845899012806700,6.203806640625,0.05929331596791744,0.04226224779859185,0.02832644223086536
1782845899022811600,6.213811767578125,0.02082183875441551,0.037149434829503294,0.0462712642442435
1782845899032816600,6.223816650390625,0.01850654754936695,0.01961348587796092,0.08379493921361864
1782845899042821600,6.233821533203125,0.06868190656006336,-0.019424100785702465,0.06431815839260817
1782845899052826600,6.24382666015625,0.11984335399866103,-0.03561550326049328,0.07045994908325373
1782845899062831600,6.25383154296875,0.15766133573949337,-0.02800005982071161,0.05431691579483449
1782845899072836600,6.263836669921875,0.1857505351483822,-0.008517506846040487,0.029307123831287026
1782845899082841600,6.273841552734375,0.17454583504498003,0.021492431492358445,-0.009976911874115467
1782845899092846600,6.2838466796875,0.14064824161827563,0.047094490260630846,-0.06806392079219221
1782845899102851600,6.2938515625,0.10704641626775264,0.06378726638630032,-0.08282565579004585
1782845899112855600,6.30385546875,0.08087211056947707,0.058349166985601185,-0.07694872658066451
1782845899122860500,6.313860595703125,0.07049976963698863,0.03163169432133436,-0.06446487338691949
1782845899132865800,6.32386572265625,0.03985620957016945,0.03481076274886727,-0.016760653730109334
1782845899142870800,6.333870849609375,0.041780455631017684,0.026531302442401646,-0.013867124245688318
1782845899152875800,6.343875732421875,0.04410977536141872,-0.001470364813506603,0.007394494165480136
1782845899162880800,6.353880859375,0.03960077350437641,0.0045336979068815704,0.04386719877719879
1782845899172885800,6.3638857421875,0.04215045798718929,0.0028353695563971995,0.009695099258050321
1782845899182890800,6.373890869140625,0.05424713849425315,0.04371317725926637,0.006879749576374888
1782845899192895700,6.383895751953125,0.04474164352416992,0.05889277234300971,0.0231555423989892
1782845899202899700,6.393899658203125,0.050860418665409086,0.06848316911756992,0.022176249038055536
1782845899212903700,6.403903564453125,0.05586334151923656,0.04400777629166841,0.022612667693942785
1782845899222908700,6.41390869140625,0.08207856374979018,0.0335458573795855,0.03657755322568118
1782845899232913700,6.42391357421875,0.10949965463876724,0.03566036531552672,0.03612184534743428
1782845899242918700,6.433918701171875,0.15739946993291376,0.020854279719293118,0.013510346697270869
1782845899252923600,6.443923583984375,0.2039484551399946,0.01586465473845601,-0.011955883796885608
1782845899262928600,6.4539287109375,0.21169687730967998,0.013193243572115897,-0.002146072117984295
1782845899272933600,6.46393359375,0.17604338012635706,0.01727948997244239,-0.0172235220015049
1782845899282938600,6.473938720703125,0.14485153852701185,0.04697437101230025,-0.036866964626312254
1782845899292943600,6.483943603515625,0.0972539210498333,0.06643573506847024,-0.052479544299840926
1782845899302948600,6.493948486328125,0.03896832081973552,0.059949149528145784,-0.04003711909502745
1782845899312952800,6.503952880859375,0.012547346884012222,0.03212970697134733,-0.0184454650118947
1782845899322957800,6.513957763671875,-0.010754618248343468,0.007365852592885494,0.0069395900048315525
1782845899332962800,6.523962890625,-0.05575403592586517,0.007672580454498529,0.06204349145889282
1782845899342967800,6.5339677734375,-0.04658639460802078,0.0040767479196190835,0.06101568278111517
1782845899352972800,6.543972900390625,-0.01987023711800575,0.016249562402814624,0.05193674266003072
1782845899362977800,6.553977783203125,0.004068272352218628,0.05670461464896798,0.02911839632615447
1782845899372982800,6.563982666015625,0.06904781726300716,0.069798781760782,0.007226078796014189
1782845899382987800,6.57398779296875,0.146753572756052,0.07032762794047594,-0.002097556801140308
1782845899392992800,6.58399267578125,0.24113047706484794,0.046776656483113764,0.0012360446009784937
1782845899402997800,6.593997802734375,0.26598610137999057,0.027020401133596897,-0.005047200386971235
1782845899413001700,6.604001708984375,0.27589959262907504,0.00795315096154809,0.01355491649135947
1782845899423006700,6.6140068359375,0.2450882747799158,-0.006607873832434415,0.03611987258605659
1782845899433011700,6.62401171875,0.12554068885743616,-0.0006530570812523364,0.03964651234224439
1782845899443016700,6.6340166015625,0.03044306905865669,-0.006911094562709331,0.05050422563888132
1782845899453021700,6.644021728515625,-0.01902034229040146,0.025051293017715213,0.042829307096824046
1782845899463026700,6.654026611328125,-0.0406382998585701,0.017020692905783653,0.006803469469770789
1782845899473031700,6.66403173828125,-0.025420856982469556,0.029548604436963794,-0.010053191980719566
1782845899483036700,6.67403662109375,0.00710895522236824,0.03837386205792427,-0.04903393389061093
1782845899493041700,6.684041748046875,0.06253156723678112,0.048688773714751,-0.05156286784633994
1782845899503046700,6.694046630859375,0.10577917281091212,0.04025163862854242,-0.05642682062089443
1782845899513051000,6.70405078125,0.10222294163405894,0.0218614109352231,-0.048117184371873734
1782845899523055900,6.714055908203125,0.08757774568796158,0.011709434755146502,-0.01785049479342997
1782845899533060900,6.724060791015625,0.06377309173047542,0.022007395277172326,0.017450462625175713
1782845899543065900,6.73406591796875,0.05370002600550651,0.04248246642053127,0.02800795086622238
1782845899553070800,6.74407080078125,0.053824529168009755,0.0225837338604033,0.026697233593836425
1782845899563075800,6.754075927734375,0.038437574943900106,0.009051905983686447,0.017219284217804668
1782845899573080800,6.764080810546875,0.059328387281298633,0.015652327162027357,0.010254413641244173
1782845899583085800,6.7740859375,0.06251227801442145,0.011775485728681086,0.009339344622939824
1782845899593090800,6.7840908203125,0.08636018659174442,-0.003178776166588068,0.009865487388893961
1782845899603095800,6.794095703125,0.09860708922445774,0.012105448335409164,0.020776611373201012
1782845899613099800,6.804099853515625,0.11920388705134391,0.009584697686135768,0.04646890570819378
1782845899623104800,6.814104736328125,0.1620119321644306,0.026278058333694933,0.031548692212998865
1782845899633109800,6.82410986328125,0.15839783332049845,0.014790011244267225,0.0335181656550616
1782845899643114800,6.83411474609375,0.18632102851271629,0.008331775015592575,0.02772380016259849
1782845899653119700,6.84411962890625,0.20957389380633829,0.01659253062158823,0.0038178047224879264
1782845899663124700,6.854124755859375,0.18268121070563792,0.008003565974533557,-0.009710662153363227
1782845899673129700,6.864129638671875,0.17140286084413528,0.016530132909864187,-0.0229334240809083
1782845899683134700,6.874134765625,0.11297171466350554,0.04392228996530175,-0.042816301484778524
1782845899693139700,6.8841396484375,0.0630769261598587,0.05176496628969907,-0.05431413931585848
1782845899703144700,6.894144775390625,0.02749474064707756,0.05962094048708677,-0.05409297084584832
1782845899713149000,6.90414892578125,-0.00047229368686676023,0.04708762212842703,-0.051449982056394214
1782845899723154000,6.91415380859375,0.0205652336448431,0.019001929850876332,-0.011775485728681086
1782845899733159000,6.924158935546875,0.004583236137032509,-0.009417232164740563,0.04416676624566317
1782845899743164000,6.934163818359375,-0.027276129460334777,0.005132248321920633,0.06720525813624262
1782845899753169000,6.9441689453125,-0.024697803404927252,0.01601297716796398,0.08295498125813901
1782845899763174000,6.954173828125,-0.006656535279750824,0.016159692162275315,0.0756538644645363
1782845899773179000,6.964178955078125,0.055090603581070895,0.036841537924110886,0.029705475499108434
1782845899783184000,6.974183837890625,0.1006347956597805,0.049669163054227826,0.004044745346158743
1782845899793188900,6.98418896484375,0.12884089944660662,0.07041808270290494,0.013028627594932913
1782845899803193900,6.99419384765625,0.16400748989582062,0.07050342289879917,0.04529116716571152
1782845899813197800,7.00419775390625,0.19527473481893537,0.036404607811570164,0.039207828664034605
1782845899823202800,7.014202880859375,0.21278350350260733,0.020825199755281208,0.05093304551020264
1782845899833207800,7.024207763671875,0.2240092463940382,0.023109803561121224,0.047722047574445606
1782845899843212800,7.034212890625,0.20920096884071826,0.02742109088897705,0.013525836527347564
1782845899853217800,7.0442177734375,0.16221534578204155,0.005297814147174358,-0.00873619109801948
1782845899863222800,7.054222900390625,0.12768588419258595,0.01820990269035101,-0.03602919862791896
1782845899873227800,7.064227783203125,0.07577507969141006,0.021145517750829457,-0.050590369552373886
1782845899883232800,7.074232666015625,0.0358539881914854,0.04575637352466583,-0.0926458427324891
1782845899893237800,7.08423779296875,-0.023244681987166404,0.05477276980355382,-0.11486176619380711
1782845899903242800,7.09424267578125,-0.06876081701517105,0.02024564630165696,-0.05949037290997803
1782845899913246700,7.104246826171875,-0.08875555729568003,0.004414455441385507,-0.014361118307709694
1782845899923251700,7.114251708984375,-0.09382336207926273,-0.009892156200110911,0.013288520640134811
1782845899933257000,7.124257080078125,-0.0664841042548418,-0.013757014934718608,0.02104972922615707
1782845899943262000,7.134261962890625,-0.01466799229979515,-0.01806888678446412,0.03754727504067123
1782845899953267000,7.144266845703125,0.0565980855345726,0.0020871815375983712,0.04059131891168654
1782845899963272000,7.15427197265625,0.12734101627767086,0.0038562370367348194,0.027408596733585
1782845899973277000,7.16427685546875,0.1598205595999956,0.01863791884407401,0.03950549643635749
1782845899983282000,7.174281982421875,0.171423903632164,0.04117167608290911,0.014315379469841717
1782845899993287000,7.184286865234375,0.181157362139225,0.047871612112969156,0.0005433130964636803
1782845900003292000,7.1942919921875,0.14974047961235046,0.0496973662354052,0.015913170055299998
1782845900013295600,7.204295654296875,0.1297439857661724,0.046639293839037414,-0.009667261403053998
1782845900023300600,7.214300537109375,0.08491817108988761,0.048791065045446155,0.006155673085525631
1782845900033305600,7.2243056640625,0.11658522898554802,0.03136924399286509,0.025440438465774057
1782845900043310600,7.234310546875,0.13714111028015613,0.02137581937536597,0.023125658717378973
1782845900053315600,7.244315673828125,0.1681903285384178,0.019149521628022192,0.029933731297031044
1782845900063320600,7.254320556640625,0.1788742196381092,0.024582652592658995,-0.0004901216045022011
1782845900073325600,7.26432568359375,0.161916070574522,0.014582505973428486,-0.01736841036491096
1782845900083330600,7.27433056640625,0.12143617614805698,-0.003977963720262051,-0.03956285264678299
1782845900093335600,7.28433544921875,0.08916180000901222,0.018038345515727996,-0.04075491197556257
1782845900103340800,7.2943408203125,0.044396775609254834,0.018207710733264684,-0.03666150518208742
1782845900113344800,7.3043447265625,-0.015331424644589423,0.016587708315998314,-0.05770502386316657
1782845900123349800,7.314349853515625,-0.06435936718583106,0.03399550084322691,-0.08126395943127572
1782845900133354800,7.324354736328125,-0.07799334026277065,0.02675736628323793,-0.03669248484224081
1782845900143359700,7.33435986328125,-0.07802081279158592,-0.00208703540712595,0.006908464214205741
1782845900153364700,7.34436474609375,-0.06362403864860534,0.015123627112805842,0.02312266304269433
1782845900163369700,7.35436962890625,0.0018219547301530836,0.024922552071511745,0.06866035231538116
1782845900173374700,7.364374755859375,0.09099486065506934,0.01329728846848011,0.044711394516378636
1782845900183379700,7.374379638671875,0.1905377694249153,0.027250556627660988,0.010936258425563573
1782845900193384700,7.384384765625,0.2534714877218008,0.036380642414093015,-0.032978067428991197
1782845900203390000,7.394389892578125,0.24726269620954988,0.04485065685659647,-0.03602181903906166
1782845900213395000,7.40439501953125,0.21750176419615744,0.04960939569100737,-0.0184765177372843
1782845900223400000,7.41439990234375,0.16280863550007343,0.02518134913817048,0.03303556976988911
1782845900233405000,7.424405029296875,0.09996259548664092,0.03891439867541194,0.05766257296092808
1782845900243410000,7.434409912109375,0.06007540625631809,0.03542904077768325,0.06596672931723296
1782845900253415000,7.444414794921875,0.05345101968050003,0.005157528893649578,0.09347739818580449
1782845900263420000,7.454419921875,0.0629763883948326,-0.00135024556517601,0.10261939360573888
1782845900273425000,7.4644248046875,0.06954056921601295,-0.01192044715732336,0.0653438481785357
1782845900283430000,7.474429931640625,0.10208382542431355,0.0004243628919124603,0.013496537367627024
1782845900293435000,7.484434814453125,0.10583470239043236,0.04001373821943998,-0.026256942480430007
1782845900303438800,7.49443896484375,0.08698620953559875,0.05596344089284539,-0.07547105524353682
1782845900313443800,7.50444384765625,0.09669044194817543,0.06098536070808768,-0.09996668713986873
1782845900323448800,7.51444873046875,0.10106734185814857,0.06130100252851844,-0.09753003457747399
1782845900333453800,7.524453857421875,0.06186638132631778,0.0640254590563476,-0.08766147844865918
1782845900343458800,7.534458740234375,0.020040917509794233,0.04161781241521239,-0.06335851958021521
1782845900353463800,7.5444638671875,0.017848375901579856,0.029492928726971148,0.0161825615812093
1782845900363468800,7.55446875,0.025484569868445394,0.02351765370965004,0.03602174597382545
1782845900373473800,7.564473876953125,0.04852116206288337,0.003845569512248039,0.020001023890823123
1782845900383478800,7.574478759765625,0.04762041383087635,0.012224252409487962,0.05357172345072031
1782845900393483800,7.58448388671875,0.07365852592885494,0.031969986364990474,0.03330386531725526
1782845900403488000,7.594488037109375,0.08922668193876743,0.04332081694081425,0.01670008264929056
1782845900413493000,7.604492919921875,0.09312135128974915,0.06580620499327779,0.03833959446214139
1782845900423498000,7.614498046875,0.11111936479508876,0.06542801933065057,0.018848419789597393
1782845900433503000,7.6245029296875,0.1283937402009964,0.07388269007354974,0.035271731324121355
1782845900443508000,7.634508056640625,0.16309154409468174,0.06550108456686139,0.05215031234547496
1782845900453513000,7.644512939453125,0.18032149583697318,0.0528540767006576,0.05203742655552923
1782845900463518000,7.65451806640625,0.19139760112464427,0.054835021384805435,0.033381168337166305
1782845900473523000,7.66452294921875,0.204410227432847,0.056523851254582404,0.0015983751073479651
1782845900483528000,7.67452783203125,0.19360300221443175,0.038564270063489677,-0.004126432280242443
1782845900493533000,7.684532958984375,0.14111352104246616,0.031400077522546053,-0.005607829944416881
1782845900503537000,7.694536865234375,0.10408522837460041,0.02454392801746726,0.01904277331791818
1782845900513542000,7.7045419921875,0.0808235952526331,0.022900398594141006,-0.009460925175994634
1782845900523547000,7.714546875,0.043400165787339205,0.007472527837753295,-0.030590441640093922
1782845900533551900,7.7245517578125,-0.034893034204840655,0.00982362100854516,-0.04758198151662946
1782845900543556900,7.734556884765625,-0.1051572415202856,0.037761575378477574,-0.055041576807573434
1782845900553561900,7.744561767578125,-0.13420739491581915,0.025858079355955122,-0.038892917495965955
1782845900563566800,7.75456689453125,-0.10643617541491984,0.008378244505822658,-0.04394647455848753
1782845900573571800,7.76457177734375,-0.046506899631023405,0.007329319974780082,-0.04696443414017558
1782845900583576800,7.774576904296875,0.05174246219694614,-0.0035826807923614976,-0.02942490499205887
1782845900593581800,7.784581787109375,0.13360592189133166,0.007485825710743665,-0.02952252014763653
1782845900603586000,7.7945859375,0.18039163846373557,0.0019153321020305156,-0.01664776794016361
1782845900613591000,7.804591064453125,0.19545944373607635,0.012580518501251935,0.006899331059679389
1782845900623596000,7.814595947265625,0.19223931264579294,0.016639438503235578,0.016098609624803067
1782845900633601000,7.82460107421875,0.14624386966824532,0.028235622142255303,0.04535166518129408
1782845900643606000,7.83460595703125,0.06669570117890834,0.03491349247097969,0.04622508701495826
1782845900653611000,7.844611083984375,0.026877485531568525,0.02478650460168719,0.027492402559518812
1782845900663616000,7.854615966796875,0.0043014965862035745,0.022226737116277217,0.019344825004413722
1782845900673621000,7.86462109375,0.020117489877343176,0.02331365557014942,0.03510090480186045
1782845900683626000,7.8746259765625,0.06202770936787128,0.007970102096349,0.001671951800212264
1782845900693631000,7.884630859375,0.10172083733081817,0.007597615522146224,0.0012021423313766718
1782845900703635000,7.894635009765625,0.14253916993141175,0.0016125497631728648,-0.004522299730032682
1782845900713640000,7.904639892578125,0.19698095421493053,0.01603577352166176,-0.025837767220288514
1782845900723645000,7.91464501953125,0.20535949098169803,0.03915390651971101,-0.035949192194268106
1782845900733650000,7.92464990234375,0.20864333495795725,0.037118455169349904,-0.06310023397020995
1782845900743655000,7.934655029296875,0.1992874775916338,0.03653495619297027,-0.0629614830866456
1782845900753660000,7.944659912109375,0.1296089612096548,0.017460399497300386,-0.0423827323731035
1782845900763665000,7.954664794921875,-0.0152671272367239,0.023427637338638303,-0.058050768560916184
1782845900773670000,7.964669921875,-0.1480225697785616,0.025900895584374663,-0.012139058344066143
1782845900783675000,7.9746748046875,-0.22108196077048778,0.008603285433351994,0.02284947212450206
1782845900793678800,7.984678955078125,-0.19095920970737934,-0.0032671851024031638,0.04925481009967625
1782845900803683800,7.994683837890625,-0.10763502981066703,0.01543503114953637,0.0670443684861064
1782845900813688800,8.004688720703125,-0.006678162589669227,0.021565496728569267,0.05824446450211107
1782845900823693800,8.01469384765625,0.13868717067837713,0.030438685144484043,0.06370163392946124
1782845900833699000,8.024698974609375,0.24854163010418415,0.00507248095870018,0.032248072654008864
1782845900843704000,8.0347041015625,0.3442015599608421,0.022873948978632687,0.04295278734602034
1782845900853709000,8.044708984375,0.3572369826227426,0.04545008405447006,0.03282916047759354
1782845900863714000,8.054714111328124,0.3163561061799526,0.04763137361630797,0.02646064835898578
1782845900873719000,8.064718994140625,0.2558592596411705,0.04802183423861861,0.040213863901421426
1782845900883724000,8.07472412109375,0.17145254520475864,0.054366673220694064,0.07717464429102838
1782845900893727700,8.084727783203125,0.08761807769834995,0.04563099357932806,0.07796769436486065
1782845900903732700,8.094732666015625,0.07676642881631851,0.06229834300279617,0.06419453201293945
1782845900913737700,8.10473779296875,0.04955167415440082,0.04386033064499497,0.04960705760344863
1782845900923742700,8.11474267578125,0.03478606669902801,0.020788228745758534,0.023333383183926342
1782845900933747700,8.124747802734374,0.05191781876385212,0.025273411335796116,0.011399638153612612
1782845900943752700,8.134752685546875,0.08904138849973678,0.031898528563976285,-0.015655907358601687
1782845900953757700,8.1447578125,0.146587568539381,0.02173164707571268,-0.04147124355137348
1782845900963762700,8.1547626953125,0.1870341452181339,0.03453384550362825,-0.04664177805706858
1782845900973767700,8.164767578125,0.16901742701232433,0.024277386035770177,-0.04160086128041148
1782845900983772700,8.174772705078125,0.09247603912353515,0.019209873513132334,-0.051323140806332226
1782845900993777000,8.18477685546875,0.01715454841852188,0.012206424491852521,0.06151822547577321
1782845901003782000,8.194781982421874,0.018920389047265052,0.03099412707015872,0.058328197262808676
1782845901013787000,8.204786865234375,-0.09327800315618515,0.05450549716949463,-0.09979081911630928
1782845901023791900,8.2147919921875,-0.06929682358801365,0.0327910934895277,-0.06043379123993218
1782845901033796900,8.224796875,-0.09119359809756278,-0.00553147677257657,0.05195208635963499
1782845901043801900,8.2348017578125,-0.055198740130662914,-0.030882337258756158,0.03812449040673673
1782845901053806800,8.244806884765625,0.04739186577200889,0.0023329729922115803,0.006657046736404299
1782845901063811800,8.254811767578126,0.14923486817777157,0.013168109130859374,-0.030610461514815685
1782845901073816800,8.26481689453125,0.2081798090994358,0.01775456013828516,-0.06958082816116512
1782845901083821800,8.27482177734375,0.2125847660601139,0.009490005140006542,-0.05977635024450719
1782845901093825800,8.28482568359375,0.19775895285010336,0.026278350594639777,-0.06257518718279897
1782845901103830800,8.294830810546875,0.10722937161922454,0.0253340554818511,-0.05316431169360876
1782845901113835800,8.304835693359376,0.062028878411650654,0.04190145166218281,-0.06419314377345145
1782845901123840800,8.3148408203125,0.02302782436609268,0.02601940739750862,-0.05876322767920792
1782845901133845800,8.324845703125,0.010436638340353965,0.03057999331131577,-0.03580138122141361
1782845901143850800,8.334850830078125,0.0091454294860363,0.018841916983574628,-0.018372618971392512
1782845901153855700,8.344855712890626,-0.0003758475750684738,0.004887041389197111,0.0094755382232368
1782845901163860700,8.35486083984375,0.02692249371707439,0.0042814767114818094,0.03435768521912396
1782845901173865700,8.36486572265625,0.07799334026277065,-0.002351677692681551,0.029458222739771008
1782845901183870000,8.374869873046874,0.09013035278022288,0.017532149559259413,0.019961276402324438
1782845901193875000,8.384875,0.10327508103549479,0.025218174017220735,0.001582739146798849
1782845901203879000,8.39487890625,0.12012100189626217,0.02917699464559555,-0.01595890889316797
1782845901213884000,8.4048837890625,0.12622457946836949,0.0296039878860116,0.018185133575275538
1782845901223889000,8.414888916015625,0.153973002615571,0.04669000111296773,0.0335917423479259
1782845901233894000,8.424893798828125,0.17109014163315295,0.03709083651006222,0.03916764278411865
1782845901243899000,8.43489892578125,0.16305705730319023,0.01993760326579213,0.030789032952114936
1782845901253904000,8.44490380859375,0.1374123284369707,0.032725773168355225,0.04721409805230796
1782845901263908900,8.454908935546875,0.10161854600012302,0.043962621975690126,0.08514496558308601
1782845901273913900,8.464913818359374,0.05343757567703723,0.04084200573712587,0.08219977897666395
1782845901283917800,8.474917724609375,0.039758594414591786,0.02699833543226123,0.05662935745567083
1782845901293922800,8.4849228515625,0.061783963739871973,0.02734817178323865,0.018079115917533636
1782845901303927800,8.494927734375,0.08283902672827244,0.010902063895016908,0.01059592055529356
1782845901313932800,8.504932861328125,0.08931143761277198,0.016126958936452863,-0.002511106038093567
1782845901323937800,8.514937744140624,0.09035831631720065,0.0009049860157072544,0.004601721641793847
1782845901333942800,8.52494287109375,0.09065934509038924,0.0063441083297133445,-0.004050663630291819
1782845901343947800,8.53494775390625,0.05348316838443279,-0.009041822981089354,-0.001976706900447607
1782845901353952800,8.544952880859375,0.005466448712348937,0.03524564703479409,-0.004983487500995397
1782845901363957800,8.554957763671876,-0.006974515187740326,0.02796104298457503,0.009535159455984831
1782845901373962800,8.564962646484375,0.006101824006438255,0.04260053984224796,-0.020290508356690405
1782845901383966700,8.574966796875,0.012991583520174026,0.05943637770041823,-0.0424030445087701
1782845901393971700,8.5849716796875,0.043289106628298754,0.03261398335695267,-0.038879546557739376
1782845901403976700,8.594976806640625,0.06756605427265167,0.04995294843167066,-0.04911766665130853
1782845901413981700,8.604981689453124,0.06491407845914364,0.037396395327895876,-0.021128274355083704
1782845901423986700,8.614986572265625,0.017691139513254163,0.1102494500927627,-0.052716494860872626
1782845901433991700,8.62499169921875,0.36968846791684623,0.11913315990269184,-0.02164564929269254
1782845901443997000,8.634996826171875,0.34703239947259423,-0.040539807920157905,0.06139671798795461
1782845901454002000,8.645001953125,0.3152227182358503,-0.08383271394073963,0.23316665857881305
1782845901464007000,8.6550068359375,0.14504092361927032,0.030637860978394747,0.2427661154426634
1782845901474010600,8.6650107421875,0.0861474206238985,0.013339227914065123,0.09320493791997432
1782845901484015600,8.675015625,0.13711071514189244,-0.022626988480240105,0.05821399629861116
1782845901494020600,8.6850205078125,0.06043254913091659,-0.0064076750852167606,0.12020758420117199
1782845901504025600,8.695025634765624,-0.07151449963748455,0.10609656819701194,0.054211263463273644
