time,seconds_elapsed,z,y,x
1782845892872298800,0.063298828125,-0.96221923828125,-0.175384521484375,0.1019287109375
1782845892882303700,0.0733037109375,-0.9588775634765625,-0.1755218505859375,0.1036834716796875
1782845892892308700,0.083308837890625,-0.9608154296875,-0.174835205078125,0.10308837890625
1782845892902313700,0.093313720703125,-0.9631805419921875,-0.1734619140625,0.1002655029296875
1782845892912318700,0.103318603515625,-0.9665985107421875,-0.1720733642578125,0.1009979248046875
1782845892922323700,0.11332373046875,-0.9683837890625,-0.172027587890625,0.10272216796875
1782845892932327700,0.12332763671875,-0.9705352783203125,-0.1719512939453125,0.104339599609375
1782845892942332700,0.133332763671875,-0.9724273681640625,-0.1717376708984375,0.1054534912109375
1782845892952337700,0.143337646484375,-0.975799560546875,-0.1723785400390625,0.107269287109375
1782845892962342700,0.1533427734375,-0.9741668701171875,-0.17181396484375,0.1064910888671875
1782845892972347600,0.16334765625,-0.9719085693359375,-0.1739349365234375,0.110076904296875
1782845892982352600,0.1733525390625,-0.9703216552734375,-0.1754913330078125,0.11065673828125
1782845892992357600,0.183357666015625,-0.9677734375,-0.175048828125,0.1085662841796875
1782845893002362600,0.193362548828125,-0.96697998046875,-0.1725006103515625,0.103363037109375
1782845893012367600,0.20336767578125,-0.9667816162109375,-0.1753082275390625,0.10284423828125
1782845893022371800,0.213371826171875,-0.9636688232421875,-0.1769866943359375,0.1022796630859375
1782845893032376800,0.223376953125,-0.96368408203125,-0.1751861572265625,0.1027069091796875
1782845893042381800,0.2333818359375,-0.9680328369140625,-0.1730804443359375,0.1000518798828125
1782845893052386800,0.24338671875,-0.9725341796875,-0.1735076904296875,0.100616455078125
1782845893062391800,0.253391845703125,-0.9761505126953125,-0.17431640625,0.103363037109375
1782845893072396800,0.263396728515625,-0.9756622314453125,-0.17437744140625,0.1058197021484375
1782845893082401800,0.27340185546875,-0.9744110107421875,-0.1766357421875,0.105316162109375
1782845893092406800,0.28340673828125,-0.9699554443359375,-0.17840576171875,0.1051025390625
1782845893102411800,0.293411865234375,-0.970184326171875,-0.1787567138671875,0.103851318359375
1782845893112416800,0.303416748046875,-0.97198486328125,-0.1778411865234375,0.101776123046875
1782845893122420700,0.313420654296875,-0.9763031005859375,-0.17706298828125,0.1035614013671875
1782845893132425700,0.32342578125,-0.97552490234375,-0.1781158447265625,0.1062774658203125
1782845893142430700,0.3334306640625,-0.9750823974609375,-0.177398681640625,0.107940673828125
1782845893152435700,0.343435791015625,-0.9733428955078125,-0.17645263671875,0.1100616455078125
1782845893162440700,0.353440673828125,-0.9659881591796875,-0.1771240234375,0.110992431640625
1782845893172445700,0.36344580078125,-0.9566802978515625,-0.17822265625,0.1137847900390625
1782845893182450700,0.37345068359375,-0.9492950439453125,-0.178924560546875,0.111602783203125
1782845893192456700,0.383456787109375,-0.944915771484375,-0.177703857421875,0.1096649169921875
1782845893202461700,0.393461669921875,-0.9462738037109375,-0.1774444580078125,0.1086273193359375
1782845893212465400,0.40346533203125,-0.9504547119140625,-0.1772918701171875,0.1060333251953125
1782845893222470400,0.413470458984375,-0.95416259765625,-0.1749725341796875,0.103973388671875
1782845893232475400,0.423475341796875,-0.9637451171875,-0.1724090576171875,0.1010284423828125
1782845893242480600,0.433480712890625,-0.972412109375,-0.174896240234375,0.100616455078125
1782845893252485600,0.443485595703125,-0.9786224365234375,-0.1782684326171875,0.102996826171875
1782845893262490600,0.45349072265625,-0.979278564453125,-0.1790313720703125,0.1061859130859375
1782845893272495600,0.46349560546875,-0.97918701171875,-0.1793212890625,0.10296630859375
1782845893282500600,0.47350048828125,-0.9819183349609375,-0.1782684326171875,0.1003570556640625
1782845893292505600,0.483505615234375,-0.9834442138671875,-0.1775360107421875,0.09832763671875
1782845893302510800,0.4935107421875,-0.9857025146484375,-0.177978515625,0.095794677734375
1782845893312514600,0.5035146484375,-0.9901123046875,-0.1769866943359375,0.095428466796875
1782845893322519600,0.51351953125,-0.98822021484375,-0.1745758056640625,0.09698486328125
1782845893332524500,0.523524658203125,-0.9820098876953125,-0.17376708984375,0.0970306396484375
1782845893342529500,0.533529541015625,-0.97442626953125,-0.1753082275390625,0.099945068359375
1782845893352534500,0.543534423828125,-0.96588134765625,-0.1751251220703125,0.1013641357421875
1782845893362539500,0.55353955078125,-0.9570159912109375,-0.1738128662109375,0.103973388671875
1782845893372544500,0.56354443359375,-0.9506378173828125,-0.176116943359375,0.105377197265625
1782845893382549500,0.573549560546875,-0.9471435546875,-0.1775970458984375,0.107818603515625
1782845893392554500,0.583554443359375,-0.947235107421875,-0.1750946044921875,0.1086273193359375
1782845893402559500,0.5935595703125,-0.9493408203125,-0.17333984375,0.108184814453125
1782845893412563500,0.6035634765625,-0.9550018310546875,-0.172882080078125,0.1082611083984375
1782845893422568400,0.613568359375,-0.9661865234375,-0.1707000732421875,0.107574462890625
1782845893432573400,0.623573486328125,-0.97979736328125,-0.1695404052734375,0.1071319580078125
1782845893442578400,0.633578369140625,-0.9875335693359375,-0.169647216796875,0.108154296875
1782845893452583400,0.64358349609375,-0.9884796142578125,-0.17572021484375,0.1093292236328125
1782845893462588700,0.653588623046875,-0.983673095703125,-0.1766815185546875,0.1069183349609375
1782845893472593700,0.66359375,-0.980010986328125,-0.1773834228515625,0.1043548583984375
1782845893482598700,0.6735986328125,-0.9760589599609375,-0.17620849609375,0.101837158203125
1782845893492603600,0.683603759765625,-0.9742584228515625,-0.175628662109375,0.0980377197265625
1782845893502608600,0.693608642578125,-0.9748382568359375,-0.1747894287109375,0.0969085693359375
1782845893512612600,0.703612548828125,-0.973968505859375,-0.1737213134765625,0.0989227294921875
1782845893522617600,0.71361767578125,-0.973052978515625,-0.1736907958984375,0.1022491455078125
1782845893532622600,0.72362255859375,-0.974761962890625,-0.1772308349609375,0.10272216796875
1782845893542627600,0.733627685546875,-0.97418212890625,-0.1759185791015625,0.1044464111328125
1782845893552632600,0.743632568359375,-0.976776123046875,-0.175750732421875,0.1052703857421875
1782845893562637600,0.753637451171875,-0.9764404296875,-0.1748046875,0.1056671142578125
1782845893572642600,0.763642578125,-0.97137451171875,-0.1750030517578125,0.1055145263671875
1782845893582647600,0.7736474609375,-0.967926025390625,-0.173187255859375,0.10321044921875
1782845893592652500,0.783652587890625,-0.958038330078125,-0.1751861572265625,0.100433349609375
1782845893602656500,0.793656494140625,-0.94921875,-0.1754150390625,0.1001434326171875
1782845893612661500,0.80366162109375,-0.9425506591796875,-0.175872802734375,0.1009674072265625
1782845893622666500,0.81366650390625,-0.9447174072265625,-0.1758880615234375,0.100067138671875
1782845893632671500,0.82367138671875,-0.947509765625,-0.1726837158203125,0.1022186279296875
1782845893642676500,0.833676513671875,-0.9571533203125,-0.1739959716796875,0.1041412353515625
1782845893652681500,0.843681396484375,-0.97039794921875,-0.1726531982421875,0.1056060791015625
1782845893662686500,0.8536865234375,-0.9786376953125,-0.16815185546875,0.107147216796875
1782845893672691500,0.86369140625,-0.98583984375,-0.1693878173828125,0.106231689453125
1782845893682696700,0.87369677734375,-0.98614501953125,-0.1682281494140625,0.1068572998046875
1782845893692701700,0.88370166015625,-0.9792938232421875,-0.1714019775390625,0.1079559326171875
1782845893702705700,0.89370556640625,-0.9716339111328125,-0.171905517578125,0.10723876953125
1782845893712710700,0.903710693359375,-0.968475341796875,-0.1721954345703125,0.1050262451171875
1782845893722715600,0.913715576171875,-0.970458984375,-0.1706695556640625,0.1052398681640625
1782845893732720600,0.923720703125,-0.9729461669921875,-0.1719970703125,0.108795166015625
1782845893742725600,0.9337255859375,-0.9776458740234375,-0.1722564697265625,0.111236572265625
1782845893752730600,0.943730712890625,-0.979766845703125,-0.1694488525390625,0.1108245849609375
1782845893762735600,0.953735595703125,-0.9808502197265625,-0.1671600341796875,0.111236572265625
1782845893772740600,0.96374072265625,-0.9769744873046875,-0.1681060791015625,0.1129150390625
1782845893782745600,0.97374560546875,-0.969268798828125,-0.171600341796875,0.1118316650390625
1782845893792750600,0.98375048828125,-0.963134765625,-0.174041748046875,0.111907958984375
1782845893802754600,0.993754638671875,-0.9613037109375,-0.173187255859375,0.111053466796875
1782845893812759600,1.003759521484375,-0.9643402099609375,-0.17022705078125,0.1084442138671875
1782845893822764500,1.0137646484375,-0.968902587890625,-0.1679229736328125,0.1034698486328125
1782845893832769500,1.02376953125,-0.97039794921875,-0.1676025390625,0.1055755615234375
1782845893842774500,1.0337744140625,-0.974365234375,-0.1684112548828125,0.10107421875
1782845893852779500,1.043779541015625,-0.974517822265625,-0.1649322509765625,0.0999298095703125
1782845893862784500,1.053784423828125,-0.9742431640625,-0.1653900146484375,0.10491943359375
1782845893872789500,1.06378955078125,-0.97662353515625,-0.167449951171875,0.1074981689453125
1782845893882794500,1.07379443359375,-0.9773101806640625,-0.16888427734375,0.1060791015625
1782845893892799500,1.083799560546875,-0.9767913818359375,-0.1707000732421875,0.108306884765625
1782845893902803700,1.0938037109375,-0.973968505859375,-0.1706390380859375,0.1095123291015625
1782845893912808700,1.10380859375,-0.975250244140625,-0.1707916259765625,0.1110687255859375
1782845893922813700,1.113813720703125,-0.977020263671875,-0.1693267822265625,0.1116943359375
1782845893932818700,1.123818603515625,-0.979156494140625,-0.1661224365234375,0.109771728515625
1782845893942823700,1.13382373046875,-0.9743499755859375,-0.1632843017578125,0.109161376953125
1782845893952828700,1.14382861328125,-0.96929931640625,-0.16436767578125,0.106719970703125
1782845893962833700,1.153833740234375,-0.9640350341796875,-0.16424560546875,0.104736328125
1782845893972838700,1.163838623046875,-0.9597320556640625,-0.1646270751953125,0.104217529296875
1782845893982843600,1.17384375,-0.9581298828125,-0.1655426025390625,0.105224609375
1782845893992848600,1.1838486328125,-0.9550933837890625,-0.1657257080078125,0.1067962646484375
1782845894002852600,1.1938525390625,-0.956451416015625,-0.1668243408203125,0.1071624755859375
1782845894012857600,1.203857666015625,-0.9630126953125,-0.167694091796875,0.103790283203125
1782845894022862600,1.213862548828125,-0.9707183837890625,-0.166778564453125,0.10455322265625
1782845894032867600,1.22386767578125,-0.9771728515625,-0.166290283203125,0.10382080078125
1782845894042872600,1.23387255859375,-0.98162841796875,-0.1654205322265625,0.102081298828125
1782845894052877600,1.243877685546875,-0.9824371337890625,-0.164398193359375,0.1021575927734375
1782845894062882600,1.253882568359375,-0.985260009765625,-0.165771484375,0.1022186279296875
1782845894072887600,1.263887451171875,-0.98614501953125,-0.1660308837890625,0.1037139892578125
1782845894082892500,1.273892578125,-0.98663330078125,-0.164642333984375,0.1048583984375
1782845894092897500,1.2838974609375,-0.984375,-0.1666107177734375,0.1032867431640625
1782845894102901800,1.29390185546875,-0.9789886474609375,-0.167449951171875,0.10491943359375
1782845894112906800,1.30390673828125,-0.9702606201171875,-0.1669769287109375,0.1061248779296875
1782845894122911700,1.313911865234375,-0.9632415771484375,-0.1638641357421875,0.1027069091796875
1782845894132916700,1.323916748046875,-0.95867919921875,-0.1636962890625,0.1010589599609375
1782845894142921700,1.333921630859375,-0.95697021484375,-0.1637420654296875,0.1007232666015625
1782845894152926700,1.3439267578125,-0.9570770263671875,-0.16552734375,0.10321044921875
1782845894162931700,1.353931640625,-0.96624755859375,-0.16571044921875,0.1042327880859375
1782845894172936700,1.363936767578125,-0.97515869140625,-0.1658935546875,0.1072998046875
1782845894182941700,1.373941650390625,-0.9798583984375,-0.1658935546875,0.1089630126953125
1782845894192946400,1.383946533203125,-0.9808807373046875,-0.1669921875,0.11041259765625
1782845894202950400,1.393950439453125,-0.9787445068359375,-0.167572021484375,0.109283447265625
1782845894212955400,1.403955322265625,-0.971588134765625,-0.16680908203125,0.10821533203125
1782845894222960400,1.41396044921875,-0.9672698974609375,-0.16802978515625,0.10662841796875
1782845894232965400,1.42396533203125,-0.9631500244140625,-0.1690216064453125,0.1002197265625
1782845894242970400,1.433970458984375,-0.9637908935546875,-0.1683502197265625,0.0959014892578125
1782845894252975400,1.443975341796875,-0.966400146484375,-0.16436767578125,0.0976104736328125
1782845894262980400,1.45398046875,-0.9717254638671875,-0.16253662109375,0.0986785888671875
1782845894272985300,1.4639853515625,-0.97686767578125,-0.16217041015625,0.0982208251953125
1782845894282990300,1.473990234375,-0.9837493896484375,-0.1623382568359375,0.10272216796875
1782845894292995300,1.483995361328125,-0.986785888671875,-0.16729736328125,0.1027374267578125
1782845894302999600,1.49399951171875,-0.9844512939453125,-0.1693878173828125,0.1044769287109375
1782845894313004500,1.504004638671875,-0.9824676513671875,-0.16900634765625,0.1066741943359375
1782845894323009500,1.514009521484375,-0.9781341552734375,-0.1691741943359375,0.1075439453125
1782845894333014500,1.5240146484375,-0.97314453125,-0.169586181640625,0.108154296875
1782845894343019500,1.53401953125,-0.9649810791015625,-0.1689605712890625,0.1092987060546875
1782845894353024500,1.5440244140625,-0.956939697265625,-0.166534423828125,0.1054229736328125
1782845894363029500,1.554029541015625,-0.953277587890625,-0.16473388671875,0.10406494140625
1782845894373034500,1.564034423828125,-0.9543914794921875,-0.1649017333984375,0.101593017578125
1782845894383039500,1.57403955078125,-0.955291748046875,-0.165771484375,0.1016387939453125
1782845894393044500,1.58404443359375,-0.95916748046875,-0.16632080078125,0.1039276123046875
1782845894403048400,1.59404833984375,-0.9675445556640625,-0.1656341552734375,0.1068878173828125
1782845894413053400,1.604053466796875,-0.974212646484375,-0.1661224365234375,0.110595703125
1782845894423058400,1.614058349609375,-0.980133056640625,-0.1651458740234375,0.11041259765625
1782845894433063400,1.6240634765625,-0.98052978515625,-0.1642303466796875,0.1082000732421875
1782845894443068400,1.634068359375,-0.978790283203125,-0.165496826171875,0.1064453125
1782845894453073400,1.644073486328125,-0.978546142578125,-0.17041015625,0.10693359375
1782845894463078400,1.654078369140625,-0.981658935546875,-0.167510986328125,0.1111297607421875
1782845894473083400,1.66408349609375,-0.9752197265625,-0.1688995361328125,0.0879669189453125
1782845894483088400,1.67408837890625,-0.9868621826171875,-0.1658172607421875,0.0994873046875
1782845894493093400,1.68409326171875,-0.98333740234375,-0.1617584228515625,0.0976104736328125
1782845894503097600,1.69409765625,-0.9849700927734375,-0.16436767578125,0.0960235595703125
1782845894513102600,1.7041025390625,-0.9866943359375,-0.1637420654296875,0.0985107421875
1782845894523107600,1.714107666015625,-0.98004150390625,-0.16656494140625,0.1036224365234375
1782845894533112600,1.724112548828125,-0.9756622314453125,-0.1684112548828125,0.1053314208984375
1782845894543117600,1.73411767578125,-0.968292236328125,-0.167236328125,0.1041259765625
1782845894553122600,1.74412255859375,-0.963409423828125,-0.167633056640625,0.1015625
1782845894563127600,1.75412744140625,-0.9619598388671875,-0.167572021484375,0.09832763671875
1782845894573132500,1.764132568359375,-0.9632110595703125,-0.1668701171875,0.0976104736328125
1782845894583137500,1.774137451171875,-0.965789794921875,-0.1654052734375,0.0977020263671875
1782845894593142500,1.784142578125,-0.9706573486328125,-0.167572021484375,0.1016845703125
1782845894603147500,1.7941474609375,-0.9728851318359375,-0.1684722900390625,0.1048126220703125
1782845894613151500,1.8041513671875,-0.9741973876953125,-0.1673583984375,0.1057586669921875
1782845894623156500,1.814156494140625,-0.976165771484375,-0.168121337890625,0.106231689453125
1782845894633161500,1.824161376953125,-0.9762420654296875,-0.169189453125,0.1073455810546875
1782845894643166500,1.83416650390625,-0.97088623046875,-0.1686248779296875,0.107330322265625
1782845894653171500,1.84417138671875,-0.9658355712890625,-0.16729736328125,0.1077728271484375
1782845894663176400,1.854176513671875,-0.95867919921875,-0.1667633056640625,0.1045684814453125
1782845894673181400,1.864181396484375,-0.9580078125,-0.1643218994140625,0.1022186279296875
1782845894683186400,1.8741865234375,-0.9605255126953125,-0.1629638671875,0.1017913818359375
1782845894693191400,1.88419140625,-0.9616546630859375,-0.1634521484375,0.1034393310546875
1782845894703196400,1.894196533203125,-0.9632415771484375,-0.165740966796875,0.10675048828125
1782845894713200600,1.90420068359375,-0.968170166015625,-0.165924072265625,0.104217529296875
1782845894723205600,1.91420556640625,-0.970062255859375,-0.1671142578125,0.107818603515625
1782845894733210600,1.924210693359375,-0.97137451171875,-0.1691436767578125,0.1103363037109375
1782845894743215600,1.934215576171875,-0.9709320068359375,-0.1700439453125,0.10894775390625
1782845894753220600,1.944220703125,-0.970001220703125,-0.1698455810546875,0.1078948974609375
1782845894763225600,1.9542255859375,-0.9746246337890625,-0.1677398681640625,0.104095458984375
1782845894773230600,1.964230712890625,-0.977630615234375,-0.1685333251953125,0.100250244140625
1782845894783235600,1.974235595703125,-0.9796295166015625,-0.1671905517578125,0.102294921875
1782845894793240600,1.984240478515625,-0.976287841796875,-0.1685791015625,0.101898193359375
1782845894803245600,1.99424560546875,-0.9754180908203125,-0.1691741943359375,0.0994720458984375
1782845894813250600,2.00425048828125,-0.9778289794921875,-0.16827392578125,0.0962982177734375
1782845894823254500,2.014254638671875,-0.981964111328125,-0.167510986328125,0.0966949462890625
1782845894833259500,2.024259521484375,-0.9837188720703125,-0.168212890625,0.098052978515625
1782845894843264500,2.034264404296875,-0.9782867431640625,-0.1702728271484375,0.1008453369140625
1782845894853269500,2.04426953125,-0.9724884033203125,-0.171630859375,0.1003875732421875
1782845894863274500,2.0542744140625,-0.9671173095703125,-0.1688385009765625,0.0996856689453125
1782845894873279500,2.064279541015625,-0.963348388671875,-0.16912841796875,0.0998687744140625
1782845894883284500,2.074284423828125,-0.9633941650390625,-0.170135498046875,0.100311279296875
1782845894893289500,2.08428955078125,-0.96624755859375,-0.16937255859375,0.0999603271484375
1782845894903294500,2.09429443359375,-0.9708404541015625,-0.168792724609375,0.101806640625
1782845894913299500,2.104299560546875,-0.9752349853515625,-0.1663665771484375,0.1064453125
1782845894923303700,2.1143037109375,-0.9766693115234375,-0.1677093505859375,0.10736083984375
1782845894933308700,2.12430859375,-0.97296142578125,-0.168487548828125,0.110321044921875
1782845894943313700,2.134313720703125,-0.971282958984375,-0.171600341796875,0.1092071533203125
1782845894953318700,2.144318603515625,-0.96270751953125,-0.1730194091796875,0.1091461181640625
1782845894963323600,2.15432373046875,-0.9572906494140625,-0.172027587890625,0.1044158935546875
1782845894973328600,2.16432861328125,-0.9593505859375,-0.175262451171875,0.10418701171875
1782845894983333600,2.174333740234375,-0.9649505615234375,-0.173370361328125,0.103515625
1782845894993338600,2.184338623046875,-0.969879150390625,-0.1701812744140625,0.1045989990234375
1782845895003343600,2.194343505859375,-0.9741668701171875,-0.1697235107421875,0.10272216796875
1782845895013348600,2.2043486328125,-0.977996826171875,-0.16802978515625,0.10174560546875
1782845895023352600,2.2143525390625,-0.981536865234375,-0.1678924560546875,0.1027679443359375
1782845895033357600,2.224357666015625,-0.982177734375,-0.16845703125,0.103515625
1782845895043362600,2.234362548828125,-0.98211669921875,-0.1682586669921875,0.10504150390625
1782845895053367600,2.244367431640625,-0.977935791015625,-0.17071533203125,0.1061553955078125
1782845895063372500,2.25437255859375,-0.9733123779296875,-0.1714630126953125,0.10675048828125
1782845895073377500,2.26437744140625,-0.9693450927734375,-0.1719970703125,0.1050872802734375
1782845895083382500,2.274382568359375,-0.967193603515625,-0.1714935302734375,0.1036529541015625
1782845895093387500,2.284387451171875,-0.96875,-0.1695709228515625,0.1032562255859375
1782845895103392500,2.294392578125,-0.9682159423828125,-0.1668701171875,0.104827880859375
1782845895113397500,2.3043974609375,-0.968719482421875,-0.167266845703125,0.1046142578125
1782845895123402500,2.314402587890625,-0.968658447265625,-0.1694488525390625,0.106719970703125
1782845895133406700,2.32440673828125,-0.9677886962890625,-0.169219970703125,0.1070556640625
1782845895143411700,2.33441162109375,-0.967742919921875,-0.17108154296875,0.1060791015625
1782845895153416700,2.344416748046875,-0.9657745361328125,-0.171875,0.1049041748046875
1782845895163421700,2.354421630859375,-0.962249755859375,-0.1726226806640625,0.1060333251953125
1782845895173426700,2.3644267578125,-0.9615936279296875,-0.1729736328125,0.1031951904296875
1782845895183431700,2.374431640625,-0.962249755859375,-0.1719512939453125,0.101776123046875
1782845895193436700,2.384436767578125,-0.965545654296875,-0.1690673828125,0.101776123046875
1782845895203441700,2.394441650390625,-0.9695892333984375,-0.1683807373046875,0.1014862060546875
1782845895213446700,2.40444677734375,-0.9707183837890625,-0.16839599609375,0.0996551513671875
1782845895223451600,2.41445166015625,-0.97430419921875,-0.168701171875,0.0988311767578125
1782845895233455400,2.424455322265625,-0.9785308837890625,-0.167205810546875,0.0986785888671875
1782845895243460600,2.434460693359375,-0.982513427734375,-0.1685028076171875,0.101226806640625
1782845895253465600,2.444465576171875,-0.9829559326171875,-0.1696624755859375,0.1030731201171875
1782845895263470600,2.454470703125,-0.9798583984375,-0.169189453125,0.1038055419921875
1782845895273475600,2.4644755859375,-0.97589111328125,-0.16802978515625,0.1034698486328125
1782845895283480600,2.47448046875,-0.9715423583984375,-0.1699066162109375,0.1039276123046875
1782845895293485600,2.484485595703125,-0.966156005859375,-0.1714630126953125,0.108795166015625
1782845895303490600,2.494490478515625,-0.963958740234375,-0.170623779296875,0.1092071533203125
1782845895313495600,2.50449560546875,-0.96551513671875,-0.1695709228515625,0.1080169677734375
1782845895323500500,2.51450048828125,-0.9661407470703125,-0.1668853759765625,0.107177734375
1782845895333505500,2.524505615234375,-0.9672393798828125,-0.16607666015625,0.1038665771484375
1782845895343509500,2.534509521484375,-0.9644622802734375,-0.1652679443359375,0.106353759765625
1782845895353514500,2.544514404296875,-0.960723876953125,-0.1680450439453125,0.1065673828125
1782845895363519500,2.55451953125,-0.9599609375,-0.168609619140625,0.1064300537109375
1782845895373524500,2.5645244140625,-0.96063232421875,-0.171630859375,0.1082000732421875
1782845895383529500,2.574529541015625,-0.9639129638671875,-0.1719970703125,0.109527587890625
1782845895393534500,2.584534423828125,-0.96905517578125,-0.1724853515625,0.10931396484375
1782845895403539500,2.59453955078125,-0.9781341552734375,-0.169647216796875,0.10711669921875
1782845895413544700,2.604544677734375,-0.9869537353515625,-0.1669158935546875,0.106201171875
1782845895423549700,2.6145498046875,-0.9881744384765625,-0.168487548828125,0.1049346923828125
1782845895433554700,2.6245546875,-0.983367919921875,-0.1679229736328125,0.1036224365234375
1782845895443558400,2.634558349609375,-0.9785308837890625,-0.1675567626953125,0.1024017333984375
1782845895453563400,2.6445634765625,-0.9752197265625,-0.1681671142578125,0.1025390625
1782845895463568400,2.654568359375,-0.966522216796875,-0.1695556640625,0.1017913818359375
1782845895473573400,2.664573486328125,-0.9654388427734375,-0.171844482421875,0.1018829345703125
1782845895483578400,2.674578369140625,-0.9665069580078125,-0.173187255859375,0.102691650390625
1782845895493583400,2.684583251953125,-0.9663238525390625,-0.171173095703125,0.1033935546875
1782845895503588400,2.69458837890625,-0.9658966064453125,-0.17144775390625,0.1063690185546875
1782845895513593300,2.70459326171875,-0.9674835205078125,-0.1709747314453125,0.1063385009765625
1782845895523598300,2.714598388671875,-0.9669036865234375,-0.172454833984375,0.10205078125
1782845895533603300,2.724603271484375,-0.9635467529296875,-0.1703948974609375,0.10186767578125
1782845895543608300,2.7346083984375,-0.9633331298828125,-0.1697235107421875,0.0997772216796875
1782845895553612500,2.744612548828125,-0.965087890625,-0.171722412109375,0.097381591796875
1782845895563617500,2.754617431640625,-0.9687652587890625,-0.169708251953125,0.0994415283203125
1782845895573622500,2.76462255859375,-0.9751129150390625,-0.1686859130859375,0.1000823974609375
1782845895583627500,2.77462744140625,-0.9762115478515625,-0.1697998046875,0.097900390625
1782845895593632500,2.784632568359375,-0.97637939453125,-0.16827392578125,0.098388671875
1782845895603637500,2.794637451171875,-0.974029541015625,-0.1697845458984375,0.1025543212890625
1782845895613642500,2.804642578125,-0.97296142578125,-0.170806884765625,0.10162353515625
1782845895623647500,2.8146474609375,-0.9719085693359375,-0.172027587890625,0.1039886474609375
1782845895633652500,2.824652587890625,-0.9702606201171875,-0.1721649169921875,0.1035003662109375
1782845895643657500,2.834657470703125,-0.971466064453125,-0.1698150634765625,0.1020965576171875
1782845895653661400,2.844661376953125,-0.9745635986328125,-0.16680908203125,0.103424072265625
1782845895663666400,2.85466650390625,-0.9792938232421875,-0.1663360595703125,0.1027679443359375
1782845895673671400,2.86467138671875,-0.982818603515625,-0.1652984619140625,0.10211181640625
1782845895683676400,2.874676513671875,-0.9822845458984375,-0.1641998291015625,0.10345458984375
1782845895693681400,2.884681396484375,-0.97662353515625,-0.168060302734375,0.1075439453125
1782845895703686400,2.894686279296875,-0.969940185546875,-0.1678009033203125,0.1077117919921875
1782845895713691400,2.90469140625,-0.9642181396484375,-0.1696319580078125,0.1051177978515625
1782845895723696400,2.9146962890625,-0.957672119140625,-0.1688385009765625,0.1038970947265625
1782845895733701400,2.924701416015625,-0.954254150390625,-0.16790771484375,0.105072021484375
1782845895743706400,2.934706298828125,-0.9532012939453125,-0.1657257080078125,0.1043243408203125
1782845895753711400,2.94471142578125,-0.95758056640625,-0.165557861328125,0.103790283203125
1782845895763715600,2.954715576171875,-0.9662017822265625,-0.1656341552734375,0.1050262451171875
1782845895773720600,2.964720458984375,-0.9744415283203125,-0.166717529296875,0.10406494140625
1782845895783725600,2.9747255859375,-0.98431396484375,-0.16461181640625,0.102325439453125
1782845895793730600,2.98473046875,-0.992218017578125,-0.163848876953125,0.104034423828125
1782845895803735600,2.994735595703125,-0.9921722412109375,-0.1655120849609375,0.1015472412109375
1782845895813740500,3.004740478515625,-0.988739013671875,-0.1662139892578125,0.098236083984375
1782845895823745500,3.01474560546875,-0.9805755615234375,-0.167449951171875,0.10028076171875
1782845895833750500,3.02475048828125,-0.97271728515625,-0.167816162109375,0.0975799560546875
1782845895843755500,3.034755615234375,-0.96820068359375,-0.1663818359375,0.09881591796875
1782845895853760500,3.044760498046875,-0.966064453125,-0.168670654296875,0.1008758544921875
1782845895863764500,3.054764404296875,-0.9681854248046875,-0.1695709228515625,0.10162353515625
1782845895873769500,3.06476953125,-0.97027587890625,-0.167755126953125,0.1048431396484375
1782845895883774500,3.0747744140625,-0.9722747802734375,-0.166259765625,0.10491943359375
1782845895893779500,3.084779541015625,-0.97186279296875,-0.1661529541015625,0.105682373046875
1782845895903784400,3.094784423828125,-0.9697113037109375,-0.1644287109375,0.1070709228515625
1782845895913789400,3.10478955078125,-0.96832275390625,-0.16583251953125,0.10601806640625
1782845895923794400,3.11479443359375,-0.966888427734375,-0.1649932861328125,0.1043548583984375
1782845895933799400,3.12479931640625,-0.9651641845703125,-0.1663665771484375,0.102691650390625
1782845895943804400,3.134804443359375,-0.96502685546875,-0.168212890625,0.1027374267578125
1782845895953809400,3.144809326171875,-0.9634857177734375,-0.1685028076171875,0.100616455078125
1782845895963814400,3.154814453125,-0.9639739990234375,-0.16986083984375,0.101104736328125
1782845895973818600,3.164818603515625,-0.964630126953125,-0.1692962646484375,0.101654052734375
1782845895983823600,3.17482373046875,-0.9656829833984375,-0.16619873046875,0.1007843017578125
1782845895993828600,3.18482861328125,-0.9684295654296875,-0.1639556884765625,0.1017303466796875
1782845896003833600,3.19483349609375,-0.9777984619140625,-0.1650848388671875,0.104400634765625
1782845896013838600,3.204838623046875,-0.981842041015625,-0.166412353515625,0.1072845458984375
1782845896023843600,3.214843505859375,-0.9825439453125,-0.170989990234375,0.1103973388671875
1782845896033848600,3.2248486328125,-0.9811248779296875,-0.1702728271484375,0.1097412109375
1782845896043853600,3.234853515625,-0.9756317138671875,-0.1667022705078125,0.1094970703125
1782845896053858600,3.244858642578125,-0.9715576171875,-0.1663360595703125,0.10528564453125
1782845896063863600,3.254863525390625,-0.968994140625,-0.1642913818359375,0.0997772216796875
1782845896073868500,3.26486865234375,-0.972015380859375,-0.1637725830078125,0.096221923828125
1782845896083872500,3.27487255859375,-0.9763641357421875,-0.1625213623046875,0.0959320068359375
1782845896093877500,3.28487744140625,-0.97882080078125,-0.1651153564453125,0.0993499755859375
1782845896103882500,3.294882568359375,-0.97882080078125,-0.1664886474609375,0.1028900146484375
1782845896113887500,3.304887451171875,-0.9730072021484375,-0.168365478515625,0.1038970947265625
1782845896123892500,3.314892578125,-0.964080810546875,-0.1693572998046875,0.1041412353515625
1782845896133897500,3.3248974609375,-0.9573974609375,-0.169586181640625,0.1042022705078125
1782845896143902500,3.33490234375,-0.9541168212890625,-0.1696624755859375,0.1013336181640625
1782845896153907500,3.344907470703125,-0.9578094482421875,-0.167083740234375,0.0990753173828125
1782845896163912400,3.354912353515625,-0.968841552734375,-0.1628265380859375,0.098785400390625
1782845896173917400,3.36491748046875,-0.975921630859375,-0.1631011962890625,0.0980072021484375
1782845896183921700,3.374921630859375,-0.982147216796875,-0.1618194580078125,0.0975341796875
1782845896193927000,3.384927001953125,-0.9852447509765625,-0.161285400390625,0.09765625
1782845896203932000,3.394931884765625,-0.9863433837890625,-0.1619110107421875,0.1004180908203125
1782845896213937000,3.40493701171875,-0.98388671875,-0.1652679443359375,0.103240966796875
1782845896223942000,3.41494189453125,-0.97772216796875,-0.166900634765625,0.1047821044921875
1782845896233947000,3.42494677734375,-0.970611572265625,-0.168670654296875,0.10577392578125
1782845896243951900,3.434951904296875,-0.9640655517578125,-0.1692352294921875,0.10906982421875
1782845896253956900,3.444956787109375,-0.9606170654296875,-0.1692047119140625,0.1059417724609375
1782845896263961900,3.4549619140625,-0.9643096923828125,-0.167449951171875,0.1051177978515625
1782845896273966800,3.464966796875,-0.9720458984375,-0.1640777587890625,0.1050262451171875
1782845896283970800,3.474970703125,-0.9791717529296875,-0.160797119140625,0.1063232421875
1782845896293975800,3.484975830078125,-0.984161376953125,-0.161834716796875,0.1048583984375
1782845896303980800,3.494980712890625,-0.9851837158203125,-0.16119384765625,0.1071929931640625
1782845896313985800,3.50498583984375,-0.9793243408203125,-0.1637420654296875,0.1067657470703125
1782845896323990800,3.51499072265625,-0.9715118408203125,-0.1673583984375,0.104095458984375
1782845896333995800,3.524995849609375,-0.9653472900390625,-0.169281005859375,0.1035003662109375
1782845896344000800,3.535000732421875,-0.9610595703125,-0.168792724609375,0.103057861328125
1782845896354005800,3.545005859375,-0.9608306884765625,-0.168426513671875,0.1011810302734375
1782845896364010800,3.5550107421875,-0.9600677490234375,-0.1651153564453125,0.100830078125
1782845896374015700,3.565015625,-0.9611053466796875,-0.165435791015625,0.0998687744140625
1782845896384020700,3.575020751953125,-0.9655303955078125,-0.165679931640625,0.098968505859375
1782845896394025000,3.58502490234375,-0.971832275390625,-0.166595458984375,0.100494384765625
1782845896404030000,3.595030029296875,-0.9785003662109375,-0.166748046875,0.1038360595703125
1782845896414035000,3.605034912109375,-0.983673095703125,-0.16644287109375,0.1051788330078125
1782845896424040000,3.6150400390625,-0.9875946044921875,-0.168609619140625,0.103302001953125
1782845896434045000,3.625044921875,-0.987091064453125,-0.16973876953125,0.1046905517578125
1782845896444050000,3.6350498046875,-0.988555908203125,-0.167999267578125,0.102081298828125
1782845896454055000,3.645054931640625,-0.9867401123046875,-0.1668243408203125,0.1021575927734375
1782845896464060000,3.655059814453125,-0.9842681884765625,-0.1670379638671875,0.0999908447265625
1782845896474065000,3.66506494140625,-0.9772491455078125,-0.1646881103515625,0.1004180908203125
1782845896484070000,3.67506982421875,-0.9706268310546875,-0.1627655029296875,0.1020355224609375
1782845896494075000,3.685074951171875,-0.9637908935546875,-0.163177490234375,0.097412109375
1782845896504078800,3.695078857421875,-0.9576873779296875,-0.16351318359375,0.1010589599609375
1782845896514083800,3.705083740234375,-0.9505462646484375,-0.1630096435546875,0.101348876953125
1782845896524088800,3.7150888671875,-0.947113037109375,-0.1629486083984375,0.1025238037109375
1782845896534093800,3.72509375,-0.946197509765625,-0.1652069091796875,0.10333251953125
1782845896544098800,3.735098876953125,-0.9530792236328125,-0.16656494140625,0.1022796630859375
1782845896554103800,3.745103759765625,-0.965576171875,-0.1667938232421875,0.1033782958984375
1782845896564108800,3.75510888671875,-0.978179931640625,-0.1650238037109375,0.1056365966796875
1782845896574113800,3.76511376953125,-0.985748291015625,-0.1654815673828125,0.1091461181640625
1782845896584118800,3.775118896484375,-0.98455810546875,-0.1654815673828125,0.1076812744140625
1782845896594123800,3.785123779296875,-0.9792938232421875,-0.1663665771484375,0.1034088134765625
1782845896604128000,3.7951279296875,-0.976287841796875,-0.1651611328125,0.0979156494140625
1782845896614133000,3.805133056640625,-0.97454833984375,-0.1644439697265625,0.0971527099609375
1782845896624138000,3.815137939453125,-0.9717864990234375,-0.1652374267578125,0.1003875732421875
1782845896634143000,3.82514306640625,-0.9678802490234375,-0.1645965576171875,0.100494384765625
1782845896644148000,3.83514794921875,-0.96563720703125,-0.164581298828125,0.100982666015625
1782845896654153000,3.845153076171875,-0.9617156982421875,-0.16583251953125,0.099273681640625
1782845896664158000,3.855157958984375,-0.9636688232421875,-0.1681671142578125,0.1002349853515625
1782845896674163000,3.865162841796875,-0.968475341796875,-0.1679534912109375,0.1039581298828125
1782845896684168000,3.87516796875,-0.973602294921875,-0.1674652099609375,0.107696533203125
1782845896694173000,3.8851728515625,-0.9789276123046875,-0.1696624755859375,0.1082305908203125
1782845896704177000,3.895177001953125,-0.979400634765625,-0.168121337890625,0.1103515625
1782845896714182000,3.905181884765625,-0.9754638671875,-0.166259765625,0.1048431396484375
1782845896724187000,3.915186767578125,-0.9718017578125,-0.1637115478515625,0.1011199951171875
1782845896734191900,3.92519189453125,-0.9691162109375,-0.1634368896484375,0.0960693359375
1782845896744196900,3.93519677734375,-0.968505859375,-0.1628265380859375,0.09716796875
1782845896754201900,3.945201904296875,-0.9709625244140625,-0.163909912109375,0.097412109375
1782845896764206800,3.955206787109375,-0.9691314697265625,-0.16668701171875,0.0988311767578125
1782845896774211800,3.9652119140625,-0.9671173095703125,-0.1675262451171875,0.1019134521484375
1782845896784216800,3.975216796875,-0.96685791015625,-0.16571044921875,0.101348876953125
1782845896794221800,3.985221923828125,-0.9703521728515625,-0.1632537841796875,0.09771728515625
1782845896804226800,3.995226806640625,-0.9763946533203125,-0.1634521484375,0.1027984619140625
1782845896814230800,4.005230712890625,-0.9800262451171875,-0.1634979248046875,0.104339599609375
1782845896824235800,4.01523583984375,-0.9860992431640625,-0.162353515625,0.1006317138671875
1782845896834240800,4.02524072265625,-0.987518310546875,-0.1621551513671875,0.1007080078125
1782845896844245800,4.035245849609375,-0.98809814453125,-0.1605072021484375,0.10113525390625
1782845896854250800,4.045250732421875,-0.98907470703125,-0.162841796875,0.0999755859375
1782845896864256000,4.055256103515625,-0.9873504638671875,-0.162506103515625,0.1014862060546875
1782845896874261000,4.065260986328125,-0.982940673828125,-0.163330078125,0.1041412353515625
1782845896884266000,4.075265869140625,-0.9749298095703125,-0.166595458984375,0.107574462890625
1782845896894271000,4.08527099609375,-0.9683074951171875,-0.1665191650390625,0.1058349609375
1782845896904276000,4.09527587890625,-0.9601287841796875,-0.1632843017578125,0.1046142578125
1782845896914279700,4.10527978515625,-0.9563751220703125,-0.1654815673828125,0.1043701171875
1782845896924284700,4.11528466796875,-0.955841064453125,-0.1645050048828125,0.1026458740234375
1782845896934289700,4.12528955078125,-0.96002197265625,-0.1602783203125,0.103118896484375
1782845896944294700,4.135294677734375,-0.9669647216796875,-0.1580810546875,0.1018218994140625
1782845896954299600,4.145299560546875,-0.97064208984375,-0.160064697265625,0.103179931640625
1782845896964304600,4.1553046875,-0.974273681640625,-0.1588287353515625,0.104339599609375
1782845896974309600,4.1653095703125,-0.9736480712890625,-0.160186767578125,0.1053009033203125
1782845896984314600,4.175314697265625,-0.9716796875,-0.160400390625,0.1053314208984375
1782845896994319600,4.185319580078125,-0.968292236328125,-0.1623687744140625,0.10479736328125
1782845897004324600,4.19532470703125,-0.96490478515625,-0.1649169921875,0.10467529296875
1782845897014329600,4.20532958984375,-0.9688262939453125,-0.1631927490234375,0.105682373046875
1782845897024333800,4.215333740234375,-0.9727325439453125,-0.163116455078125,0.104705810546875
1782845897034338800,4.2253388671875,-0.974945068359375,-0.162506103515625,0.104156494140625
1782845897044343800,4.23534375,-0.9754180908203125,-0.163726806640625,0.10614013671875
1782845897054348800,4.245348876953125,-0.97247314453125,-0.1630706787109375,0.1073760986328125
1782845897064353800,4.255353759765625,-0.971893310546875,-0.1624908447265625,0.1058502197265625
1782845897074358800,4.26535888671875,-0.972381591796875,-0.161163330078125,0.1055450439453125
1782845897084363800,4.27536376953125,-0.9720001220703125,-0.160308837890625,0.10455322265625
1782845897094368800,4.28536865234375,-0.9705352783203125,-0.161102294921875,0.1050262451171875
1782845897104373800,4.295373779296875,-0.9695281982421875,-0.16217041015625,0.1077117919921875
1782845897114378800,4.305378662109375,-0.96868896484375,-0.1624298095703125,0.103057861328125
1782845897124382700,4.3153828125,-0.971038818359375,-0.16131591796875,0.1006622314453125
1782845897134387700,4.3253876953125,-0.970855712890625,-0.1610870361328125,0.0999298095703125
1782845897144392700,4.335392822265625,-0.97247314453125,-0.1628265380859375,0.0998992919921875
1782845897154397700,4.345397705078125,-0.9724273681640625,-0.1609649658203125,0.097991943359375
1782845897164402700,4.355402587890625,-0.9723663330078125,-0.159881591796875,0.098602294921875
1782845897174407700,4.36540771484375,-0.974517822265625,-0.162139892578125,0.0970458984375
1782845897184412700,4.37541259765625,-0.9719390869140625,-0.161956787109375,0.0965423583984375
1782845897194417400,4.38541748046875,-0.9725494384765625,-0.1634063720703125,0.0970458984375
1782845897204422400,4.39542236328125,-0.970489501953125,-0.163055419921875,0.0969390869140625
1782845897214427400,4.405427490234375,-0.9647674560546875,-0.1621856689453125,0.0996246337890625
1782845897224431600,4.415431640625,-0.9655914306640625,-0.16192626953125,0.0998992919921875
1782845897234436600,4.4254365234375,-0.9682769775390625,-0.162139892578125,0.0995635986328125
1782845897244441600,4.435441650390625,-0.97235107421875,-0.1601104736328125,0.0998382568359375
1782845897254446600,4.445446533203125,-0.978851318359375,-0.160980224609375,0.1009063720703125
1782845897264451600,4.45545166015625,-0.9819183349609375,-0.160980224609375,0.106201171875
1782845897274456600,4.46545654296875,-0.985748291015625,-0.1619415283203125,0.1076812744140625
1782845897284461600,4.475461669921875,-0.9871978759765625,-0.16143798828125,0.10888671875
1782845897294466600,4.485466552734375,-0.985687255859375,-0.16241455078125,0.108734130859375
1782845897304471600,4.495471435546875,-0.980010986328125,-0.1621246337890625,0.10833740234375
1782845897314476500,4.5054765625,-0.9754791259765625,-0.16217041015625,0.10345458984375
1782845897324481500,4.5154814453125,-0.9700927734375,-0.161224365234375,0.104278564453125
1782845897334485500,4.525485595703125,-0.966766357421875,-0.161712646484375,0.0998077392578125
1782845897344490500,4.535490478515625,-0.9643707275390625,-0.16253662109375,0.0996246337890625
1782845897354495500,4.54549560546875,-0.9605865478515625,-0.1625213623046875,0.0969696044921875
1782845897364500500,4.55550048828125,-0.9600677490234375,-0.159027099609375,0.0974884033203125
1782845897374505500,4.56550537109375,-0.9655914306640625,-0.1576995849609375,0.0945892333984375
1782845897384510500,4.575510498046875,-0.970611572265625,-0.160797119140625,0.0963592529296875
1782845897394515500,4.585515380859375,-0.9785308837890625,-0.1601715087890625,0.0998687744140625
1782845897404520400,4.5955205078125,-0.9840850830078125,-0.1592559814453125,0.10052490234375
1782845897414525400,4.605525390625,-0.988372802734375,-0.1610107421875,0.1045684814453125
1782845897424530400,4.615530517578125,-0.9878692626953125,-0.161651611328125,0.104095458984375
1782845897434534700,4.62553466796875,-0.9836883544921875,-0.1622314453125,0.1021881103515625
1782845897444539600,4.63553955078125,-0.9817657470703125,-0.1602935791015625,0.1033782958984375
1782845897454544600,4.645544677734375,-0.97576904296875,-0.160186767578125,0.10382080078125
1782845897464549600,4.655549560546875,-0.9717254638671875,-0.1611175537109375,0.1041412353515625
1782845897474554600,4.6655546875,-0.9690399169921875,-0.159759521484375,0.1053009033203125
1782845897484559600,4.6755595703125,-0.96759033203125,-0.157073974609375,0.1045684814453125
1782845897494564600,4.685564697265625,-0.9635467529296875,-0.1576690673828125,0.1033782958984375
1782845897504569600,4.695569580078125,-0.963653564453125,-0.1569671630859375,0.1042327880859375
1782845897514574600,4.70557470703125,-0.9668121337890625,-0.1573486328125,0.1044158935546875
1782845897524579600,4.71557958984375,-0.9732208251953125,-0.1596221923828125,0.1050262451171875
1782845897534583600,4.72558349609375,-0.9781494140625,-0.1600341796875,0.1082916259765625
1782845897544588500,4.735588623046875,-0.982574462890625,-0.16033935546875,0.1064453125
1782845897554593500,4.745593505859375,-0.981201171875,-0.16070556640625,0.1031341552734375
1782845897564598500,4.7555986328125,-0.977294921875,-0.1597442626953125,0.0988311767578125
1782845897574603500,4.765603515625,-0.972381591796875,-0.16107177734375,0.09600830078125
1782845897584608500,4.7756083984375,-0.969940185546875,-0.15936279296875,0.09613037109375
1782845897594613500,4.785613525390625,-0.96942138671875,-0.1571502685546875,0.0953369140625
1782845897604618500,4.795618408203125,-0.9690704345703125,-0.155731201171875,0.094818115234375
1782845897614623500,4.80562353515625,-0.966522216796875,-0.1557159423828125,0.099456787109375
1782845897624628500,4.81562841796875,-0.9678192138671875,-0.1563873291015625,0.1005859375
1782845897634633500,4.825633544921875,-0.970458984375,-0.157745361328125,0.102508544921875
1782845897644637700,4.8356376953125,-0.9740447998046875,-0.1584320068359375,0.1040191650390625
1782845897654642700,4.845642578125,-0.97467041015625,-0.157440185546875,0.1046142578125
1782845897664647700,4.855647705078125,-0.9738922119140625,-0.158660888671875,0.1049346923828125
1782845897674652700,4.865652587890625,-0.971923828125,-0.16119384765625,0.10162353515625
1782845897684657700,4.87565771484375,-0.972930908203125,-0.1635589599609375,0.10174560546875
1782845897694662700,4.88566259765625,-0.9718170166015625,-0.1640625,0.1025848388671875
1782845897704667600,4.895667724609375,-0.969329833984375,-0.1657867431640625,0.1027069091796875
1782845897714672600,4.905672607421875,-0.967987060546875,-0.168548583984375,0.1050567626953125
1782845897724677600,4.915677734375,-0.9664764404296875,-0.168121337890625,0.10546875
1782845897734682600,4.9256826171875,-0.9640045166015625,-0.1647796630859375,0.1018524169921875
1782845897744686600,4.9356865234375,-0.96832275390625,-0.1613922119140625,0.100189208984375
1782845897754691600,4.945691650390625,-0.9767608642578125,-0.15887451171875,0.101409912109375
1782845897764696600,4.955696533203125,-0.9810638427734375,-0.159881591796875,0.1002044677734375
1782845897774701600,4.96570166015625,-0.980682373046875,-0.1616668701171875,0.1010894775390625
1782845897784706600,4.97570654296875,-0.9751129150390625,-0.16357421875,0.098785400390625
1782845897794711600,4.985711669921875,-0.9670562744140625,-0.1650848388671875,0.0972442626953125
1782845897804716500,4.995716552734375,-0.9602813720703125,-0.167266845703125,0.0958099365234375
1782845897814721500,5.005721435546875,-0.9611968994140625,-0.164825439453125,0.09796142578125
1782845897824726500,5.0157265625,-0.966766357421875,-0.165985107421875,0.09814453125
1782845897834731500,5.0257314453125,-0.9733428955078125,-0.1650238037109375,0.103485107421875
1782845897844735500,5.035735595703125,-0.9806365966796875,-0.1626739501953125,0.1067352294921875
1782845897854740500,5.045740478515625,-0.9863128662109375,-0.1634063720703125,0.1075439453125
1782845897864745500,5.055745361328125,-0.986572265625,-0.1633148193359375,0.1072540283203125
1782845897874750700,5.065750732421875,-0.9830169677734375,-0.162933349609375,0.1082763671875
1782845897884755700,5.075755615234375,-0.9810028076171875,-0.1656341552734375,0.10308837890625
1782845897894760700,5.0857607421875,-0.974151611328125,-0.16741943359375,0.09979248046875
1782845897904765700,5.095765625,-0.97100830078125,-0.165771484375,0.09527587890625
1782845897914770700,5.105770751953125,-0.9663238525390625,-0.1621856689453125,0.0929107666015625
1782845897924775700,5.115775634765625,-0.965789794921875,-0.161773681640625,0.0915374755859375
1782845897934780700,5.12578076171875,-0.9628448486328125,-0.1644439697265625,0.090911865234375
1782845897944785700,5.13578564453125,-0.96246337890625,-0.16162109375,0.0928802490234375
1782845897954789400,5.145789306640625,-0.9693145751953125,-0.160491943359375,0.09344482421875
1782845897964794400,5.15579443359375,-0.9724273681640625,-0.1612091064453125,0.0962066650390625
1782845897974799400,5.16579931640625,-0.978515625,-0.1587677001953125,0.1025238037109375
1782845897984804400,5.175804443359375,-0.9820098876953125,-0.159423828125,0.103515625
1782845897994809300,5.185809326171875,-0.9847869873046875,-0.1599578857421875,0.10369873046875
1782845898004814300,5.195814453125,-0.98602294921875,-0.158966064453125,0.10443115234375
1782845898014819300,5.2058193359375,-0.984039306640625,-0.158721923828125,0.1059722900390625
1782845898024824300,5.21582421875,-0.9801025390625,-0.1599273681640625,0.10748291015625
1782845898034829300,5.225829345703125,-0.976593017578125,-0.16021728515625,0.10784912109375
1782845898044833500,5.23583349609375,-0.972686767578125,-0.1609039306640625,0.1089019775390625
1782845898054838500,5.245838623046875,-0.9635467529296875,-0.1623382568359375,0.1089630126953125
1782845898064843500,5.255843505859375,-0.9566192626953125,-0.1614227294921875,0.1082763671875
1782845898074848500,5.2658486328125,-0.952178955078125,-0.1622161865234375,0.1066741943359375
1782845898084853500,5.275853515625,-0.953277587890625,-0.161224365234375,0.1023101806640625
1782845898094858500,5.2858583984375,-0.9601898193359375,-0.1585845947265625,0.103668212890625
1782845898104863500,5.295863525390625,-0.96856689453125,-0.1582794189453125,0.1048126220703125
1782845898114868500,5.305868408203125,-0.9753570556640625,-0.156768798828125,0.10296630859375
1782845898124873500,5.31587353515625,-0.977325439453125,-0.1568145751953125,0.1052093505859375
1782845898134878500,5.32587841796875,-0.97857666015625,-0.1585845947265625,0.1017608642578125
1782845898144883500,5.335883544921875,-0.9766845703125,-0.1589813232421875,0.1018524169921875
1782845898154887400,5.345887451171875,-0.972747802734375,-0.1627655029296875,0.1038970947265625
1782845898164892400,5.355892333984375,-0.9728240966796875,-0.1645355224609375,0.104888916015625
1782845898174897400,5.3658974609375,-0.972869873046875,-0.1628875732421875,0.1057281494140625
1782845898184902400,5.37590234375,-0.9703369140625,-0.163177490234375,0.104644775390625
1782845898194907600,5.38590771484375,-0.9694061279296875,-0.1596221923828125,0.1004638671875
1782845898204912600,5.39591259765625,-0.9678497314453125,-0.1566009521484375,0.0999298095703125
1782845898214917600,5.405917724609375,-0.96795654296875,-0.1583251953125,0.101348876953125
1782845898224922600,5.415922607421875,-0.972686767578125,-0.1600189208984375,0.1017913818359375
1782845898234927600,5.425927734375,-0.9740142822265625,-0.1608123779296875,0.1055755615234375
1782845898244932600,5.4359326171875,-0.976470947265625,-0.162109375,0.109710693359375
1782845898254936600,5.4459365234375,-0.97857666015625,-0.162628173828125,0.1104278564453125
1782845898264941600,5.455941650390625,-0.9745635986328125,-0.163604736328125,0.109527587890625
1782845898274946800,5.46594677734375,-0.9727783203125,-0.163360595703125,0.10528564453125
1782845898284951800,5.475951904296875,-0.9665985107421875,-0.1611328125,0.1045074462890625
1782845898294956800,5.485956787109375,-0.9642333984375,-0.160247802734375,0.102752685546875
1782845898304961800,5.4959619140625,-0.967559814453125,-0.1592864990234375,0.0999603271484375
1782845898314966800,5.505966796875,-0.971435546875,-0.1601409912109375,0.0994110107421875
1782845898324971800,5.5159716796875,-0.9766845703125,-0.1586456298828125,0.1015472412109375
1782845898334976800,5.525976806640625,-0.9795074462890625,-0.158782958984375,0.1010894775390625
1782845898344981800,5.535981689453125,-0.9785919189453125,-0.15997314453125,0.1051025390625
1782845898354985700,5.54598583984375,-0.9716796875,-0.162353515625,0.107147216796875
1782845898364990700,5.55599072265625,-0.9665985107421875,-0.164215087890625,0.1060028076171875
1782845898374995700,5.56599560546875,-0.964874267578125,-0.165618896484375,0.1058502197265625
1782845898385000700,5.576000732421875,-0.966766357421875,-0.1655426025390625,0.1029815673828125
1782845898395005700,5.586005615234375,-0.969970703125,-0.164306640625,0.1024627685546875
1782845898405010700,5.5960107421875,-0.971893310546875,-0.1624908447265625,0.1020965576171875
1782845898415015700,5.606015625,-0.977569580078125,-0.1630096435546875,0.0989227294921875
1782845898425020700,5.616020751953125,-0.9810333251953125,-0.1623687744140625,0.09674072265625
1782845898435025700,5.626025634765625,-0.981048583984375,-0.1614532470703125,0.0987701416015625
1782845898445030700,5.63603076171875,-0.9803009033203125,-0.1621856689453125,0.09906005859375
1782845898455034600,5.64603466796875,-0.980987548828125,-0.1623992919921875,0.099090576171875
1782845898465039600,5.65603955078125,-0.979034423828125,-0.161041259765625,0.0993804931640625
1782845898475044600,5.666044677734375,-0.97943115234375,-0.161651611328125,0.1021881103515625
1782845898485049600,5.676049560546875,-0.9775238037109375,-0.163604736328125,0.102264404296875
1782845898495054800,5.686054931640625,-0.9717559814453125,-0.163055419921875,0.10394287109375
1782845898505059800,5.696059814453125,-0.9663543701171875,-0.16168212890625,0.105712890625
1782845898515064800,5.70606494140625,-0.9644927978515625,-0.16180419921875,0.10302734375
1782845898525069800,5.71606982421875,-0.9625701904296875,-0.1626129150390625,0.10247802734375
1782845898535074800,5.72607470703125,-0.963287353515625,-0.162933349609375,0.10577392578125
1782845898545079800,5.736079833984375,-0.9689483642578125,-0.1621551513671875,0.1041259765625
1782845898555083800,5.746083740234375,-0.9779052734375,-0.1616668701171875,0.1035308837890625
1782845898565088800,5.7560888671875,-0.9807281494140625,-0.161285400390625,0.106536865234375
1782845898575093800,5.76609375,-0.9827117919921875,-0.1594390869140625,0.105743408203125
1782845898585098800,5.7760986328125,-0.98443603515625,-0.157745361328125,0.106292724609375
1782845898595103700,5.786103759765625,-0.98309326171875,-0.1600494384765625,0.1037750244140625
1782845898605108700,5.796108642578125,-0.9792633056640625,-0.161895751953125,0.107879638671875
1782845898615113700,5.80611376953125,-0.9692230224609375,-0.164886474609375,0.109710693359375
1782845898625118700,5.81611865234375,-0.962738037109375,-0.163604736328125,0.1071929931640625
1782845898635123700,5.826123779296875,-0.9556121826171875,-0.162353515625,0.1039581298828125
1782845898645128700,5.836128662109375,-0.95684814453125,-0.16265869140625,0.1011810302734375
1782845898655132700,5.846132568359375,-0.9622039794921875,-0.1614532470703125,0.0976715087890625
1782845898665137700,5.8561376953125,-0.9682464599609375,-0.1592864990234375,0.0998687744140625
1782845898675142700,5.866142578125,-0.9728851318359375,-0.1602325439453125,0.0993194580078125
1782845898685147600,5.876147705078125,-0.9747772216796875,-0.1588134765625,0.098876953125
1782845898695152600,5.886152587890625,-0.976837158203125,-0.161102294921875,0.1019744873046875
1782845898705157600,5.89615771484375,-0.9769744873046875,-0.1604156494140625,0.1022491455078125
1782845898715163000,5.906162841796875,-0.977874755859375,-0.16094970703125,0.104034423828125
1782845898725167900,5.91616796875,-0.9754791259765625,-0.1616363525390625,0.104248046875
1782845898735172900,5.9261728515625,-0.9735260009765625,-0.1623077392578125,0.1038665771484375
1782845898745177900,5.936177734375,-0.9734954833984375,-0.162841796875,0.103790283203125
1782845898755181800,5.946181884765625,-0.9737091064453125,-0.161407470703125,0.1063690185546875
1782845898765186800,5.956186767578125,-0.97265625,-0.1597747802734375,0.108367919921875
1782845898775191800,5.96619189453125,-0.9733428955078125,-0.1601715087890625,0.10723876953125
1782845898785196800,5.97619677734375,-0.973602294921875,-0.160888671875,0.1092376708984375
1782845898795201800,5.986201904296875,-0.9720306396484375,-0.1600341796875,0.111602783203125
1782845898805206800,5.996206787109375,-0.972503662109375,-0.161285400390625,0.11004638671875
1782845898815211800,6.006211669921875,-0.973968505859375,-0.1634521484375,0.1096038818359375
1782845898825216800,6.016216796875,-0.9744110107421875,-0.16265869140625,0.1082000732421875
1782845898835221800,6.0262216796875,-0.9726409912109375,-0.162567138671875,0.108673095703125
1782845898845226800,6.036226806640625,-0.967437744140625,-0.1617431640625,0.1042327880859375
1782845898855230700,6.046230712890625,-0.962158203125,-0.1598968505859375,0.1008453369140625
1782845898865235700,6.056235595703125,-0.9589385986328125,-0.15899658203125,0.0982818603515625
1782845898875240700,6.06624072265625,-0.960205078125,-0.160064697265625,0.0986328125
1782845898885245700,6.07624560546875,-0.966461181640625,-0.16046142578125,0.1011962890625
1782845898895250700,6.086250732421875,-0.97265625,-0.163055419921875,0.102264404296875
1782845898905255700,6.096255615234375,-0.9779052734375,-0.1641387939453125,0.1010284423828125
1782845898915260700,6.1062607421875,-0.9849090576171875,-0.164306640625,0.10186767578125
1782845898925265700,6.116265625,-0.9850921630859375,-0.16558837890625,0.1044921875
1782845898935271000,6.12627099609375,-0.983306884765625,-0.165435791015625,0.1048736572265625
1782845898945276000,6.13627587890625,-0.978271484375,-0.16400146484375,0.105682373046875
1782845898955281000,6.146281005859375,-0.971954345703125,-0.164764404296875,0.107574462890625
1782845898965284900,6.156284912109375,-0.9672088623046875,-0.164093017578125,0.1053924560546875
1782845898975289900,6.166289794921875,-0.965576171875,-0.1640472412109375,0.1007537841796875
1782845898985294800,6.176294921875,-0.96624755859375,-0.1611328125,0.099700927734375
1782845898995299800,6.1862998046875,-0.9699859619140625,-0.16082763671875,0.1017608642578125
1782845899005304800,6.196304931640625,-0.9742584228515625,-0.1610107421875,0.1065216064453125
1782845899015309800,6.206309814453125,-0.976348876953125,-0.1610260009765625,0.10760498046875
1782845899025314800,6.216314697265625,-0.9798583984375,-0.1624298095703125,0.111297607421875
1782845899035319800,6.22631982421875,-0.9760589599609375,-0.1660919189453125,0.11224365234375
1782845899045324800,6.23632470703125,-0.9711761474609375,-0.169921875,0.110260009765625
1782845899055329800,6.246329833984375,-0.9661407470703125,-0.16998291015625,0.110626220703125
1782845899065333800,6.256333740234375,-0.9634552001953125,-0.1685028076171875,0.1088409423828125
1782845899075338800,6.2663388671875,-0.9609527587890625,-0.1654205322265625,0.1049346923828125
1782845899085343700,6.27634375,-0.9651947021484375,-0.162200927734375,0.0998382568359375
1782845899095348700,6.2863486328125,-0.9686737060546875,-0.159912109375,0.0958251953125
1782845899105353700,6.296353759765625,-0.97161865234375,-0.1591949462890625,0.0952911376953125
1782845899115358700,6.306358642578125,-0.9730682373046875,-0.1615142822265625,0.0960235595703125
1782845899125363700,6.31636376953125,-0.9751129150390625,-0.1630706787109375,0.0991058349609375
1782845899135368700,6.32636865234375,-0.977203369140625,-0.162445068359375,0.1025543212890625
1782845899145373700,6.336373779296875,-0.9759063720703125,-0.16510009765625,0.1031951904296875
1782845899155379000,6.34637890625,-0.97698974609375,-0.1653289794921875,0.107452392578125
1782845899165383000,6.3563828125,-0.9766845703125,-0.1662445068359375,0.1071929931640625
1782845899175388000,6.366387939453125,-0.9755706787109375,-0.1634521484375,0.1039581298828125
1782845899185393000,6.376392822265625,-0.975830078125,-0.1600341796875,0.105926513671875
1782845899195398000,6.38639794921875,-0.9765167236328125,-0.1594390869140625,0.1053466796875
1782845899205401600,6.396401611328125,-0.974761962890625,-0.159881591796875,0.105682373046875
1782845899215406600,6.406406494140625,-0.97418212890625,-0.163360595703125,0.106231689453125
1782845899225411600,6.41641162109375,-0.9705047607421875,-0.163116455078125,0.1075897216796875
1782845899235416600,6.42641650390625,-0.966339111328125,-0.163909912109375,0.1052398681640625
1782845899245421600,6.436421630859375,-0.9627532958984375,-0.1650238037109375,0.1031951904296875
1782845899255426600,6.446426513671875,-0.9588165283203125,-0.1650848388671875,0.1027374267578125
1782845899265430800,6.4564306640625,-0.9602203369140625,-0.165069580078125,0.10260009765625
1782845899275435800,6.466435791015625,-0.9644775390625,-0.1627655029296875,0.1008758544921875
1782845899285440800,6.476440673828125,-0.96868896484375,-0.1605072021484375,0.0990142822265625
1782845899295445800,6.48644580078125,-0.9735870361328125,-0.1595458984375,0.0973052978515625
1782845899305450800,6.49645068359375,-0.978973388671875,-0.16046142578125,0.1002197265625
1782845899315455700,6.506455810546875,-0.9806060791015625,-0.16436767578125,0.1026611328125
1782845899325460700,6.516460693359375,-0.98480224609375,-0.1655731201171875,0.105712890625
1782845899335465700,6.5264658203125,-0.9869537353515625,-0.1654052734375,0.1100921630859375
1782845899345470700,6.536470703125,-0.98284912109375,-0.1647796630859375,0.1085968017578125
1782845899355475700,6.546475830078125,-0.982025146484375,-0.163299560546875,0.1080474853515625
1782845899365479700,6.556479736328125,-0.977264404296875,-0.16021728515625,0.1051177978515625
1782845899375484700,6.566484619140625,-0.96966552734375,-0.160369873046875,0.10382080078125
1782845899385489700,6.57648974609375,-0.9600830078125,-0.1612701416015625,0.1022491455078125
1782845899395494700,6.58649462890625,-0.9544677734375,-0.1637115478515625,0.10296630859375
1782845899405499600,6.596499755859375,-0.952728271484375,-0.165557861328125,0.102630615234375
1782845899415504600,6.606504638671875,-0.953094482421875,-0.1667022705078125,0.1057891845703125
1782845899425509600,6.616509521484375,-0.96124267578125,-0.1666412353515625,0.1065826416015625
1782845899435514600,6.6265146484375,-0.9729461669921875,-0.1668548583984375,0.1068267822265625
1782845899445519600,6.63651953125,-0.9799957275390625,-0.165771484375,0.1078643798828125
1782845899455524600,6.646524658203125,-0.98480224609375,-0.1639251708984375,0.10504150390625
1782845899465528800,6.65652880859375,-0.9845733642578125,-0.1645965576171875,0.1016998291015625
1782845899475533800,6.666533935546875,-0.9817657470703125,-0.1624603271484375,0.0994110107421875
1782845899485538800,6.676538818359375,-0.9780731201171875,-0.161376953125,0.0953369140625
1782845899495543800,6.686543701171875,-0.9719696044921875,-0.16217041015625,0.0971832275390625
1782845899505548800,6.696548828125,-0.96929931640625,-0.1630859375,0.096466064453125
1782845899515553800,6.7065537109375,-0.97088623046875,-0.1650543212890625,0.10009765625
1782845899525558800,6.716558837890625,-0.972869873046875,-0.1646270751953125,0.1016082763671875
1782845899535563800,6.726563720703125,-0.9749755859375,-0.1622772216796875,0.1050567626953125
1782845899545568800,6.73656884765625,-0.97540283203125,-0.1627197265625,0.10430908203125
1782845899555572700,6.74657275390625,-0.9761199951171875,-0.1649017333984375,0.1050872802734375
1782845899565577700,6.75657763671875,-0.9761505126953125,-0.165130615234375,0.1037445068359375
1782845899575582700,6.766582763671875,-0.9747467041015625,-0.165435791015625,0.103790283203125
1782845899585587700,6.776587646484375,-0.9727020263671875,-0.166839599609375,0.10357666015625
1782845899595592700,6.7865927734375,-0.9706268310546875,-0.16741943359375,0.10382080078125
1782845899605597700,6.79659765625,-0.9700164794921875,-0.16558837890625,0.10565185546875
1782845899615602700,6.806602783203125,-0.965667724609375,-0.1656494140625,0.106781005859375
1782845899625607700,6.816607666015625,-0.9646453857421875,-0.16455078125,0.1060028076171875
1782845899635612700,6.82661279296875,-0.963531494140625,-0.165802001953125,0.1066436767578125
1782845899645617700,6.83661767578125,-0.9604949951171875,-0.166290283203125,0.1038970947265625
1782845899655622700,6.84662255859375,-0.9596405029296875,-0.166046142578125,0.101287841796875
1782845899665627000,6.856626953125,-0.962554931640625,-0.166351318359375,0.100982666015625
1782845899675631900,6.8666318359375,-0.9646453857421875,-0.1638946533203125,0.0980987548828125
1782845899685636900,6.876636962890625,-0.972015380859375,-0.16156005859375,0.097015380859375
1782845899695641900,6.886641845703125,-0.9764862060546875,-0.161285400390625,0.0973052978515625
1782845899705646800,6.896646728515625,-0.9801177978515625,-0.159881591796875,0.0962371826171875
1782845899715651800,6.90665185546875,-0.9796295166015625,-0.1630401611328125,0.09942626953125
1782845899725656800,6.91665673828125,-0.9794464111328125,-0.16583251953125,0.10382080078125
1782845899735661800,6.926661865234375,-0.9821624755859375,-0.1663360595703125,0.1087799072265625
1782845899745666800,6.936666748046875,-0.984588623046875,-0.1644287109375,0.10986328125
1782845899755670800,6.9466708984375,-0.982940673828125,-0.1644134521484375,0.109710693359375
1782845899765675800,6.95667578125,-0.9787139892578125,-0.16302490234375,0.1080780029296875
1782845899775680800,6.9666806640625,-0.9721832275390625,-0.162139892578125,0.1025543212890625
1782845899785685800,6.976685791015625,-0.968841552734375,-0.1597900390625,0.102142333984375
1782845899795690800,6.986690673828125,-0.9660797119140625,-0.1587982177734375,0.105255126953125
1782845899805695700,6.99669580078125,-0.9621124267578125,-0.1611785888671875,0.106658935546875
1782845899815700700,7.00670068359375,-0.961151123046875,-0.16436767578125,0.1060028076171875
1782845899825705700,7.016705810546875,-0.957794189453125,-0.164398193359375,0.1079559326171875
1782845899835710700,7.026710693359375,-0.9589691162109375,-0.1637115478515625,0.103424072265625
1782845899845715700,7.0367158203125,-0.9618072509765625,-0.164031982421875,0.1030731201171875
1782845899855719700,7.0467197265625,-0.966949462890625,-0.1649627685546875,0.0996856689453125
1782845899865725000,7.056724853515625,-0.9705047607421875,-0.163360595703125,0.0966796875
1782845899875730000,7.06672998046875,-0.97540283203125,-0.161285400390625,0.0945587158203125
1782845899885735000,7.07673486328125,-0.979522705078125,-0.1592559814453125,0.0904388427734375
1782845899895740000,7.086739990234375,-0.98638916015625,-0.1596527099609375,0.092987060546875
1782845899905745000,7.096744873046875,-0.989593505859375,-0.1634979248046875,0.0983428955078125
1782845899915750000,7.10675,-0.9908447265625,-0.1644744873046875,0.101837158203125
1782845899925755000,7.1167548828125,-0.989288330078125,-0.166229248046875,0.1027069091796875
1782845899935760000,7.126759765625,-0.985595703125,-0.16607666015625,0.1042022705078125
1782845899945764900,7.136764892578125,-0.97900390625,-0.1659698486328125,0.1053924560546875
1782845899955768800,7.146768798828125,-0.9708709716796875,-0.165252685546875,0.105377197265625
1782845899965773800,7.15677392578125,-0.9657745361328125,-0.1643218994140625,0.1047210693359375
1782845899975778800,7.16677880859375,-0.9640655517578125,-0.1624298095703125,0.1040496826171875
1782845899985783800,7.17678369140625,-0.962371826171875,-0.1614990234375,0.1021728515625
1782845899995788800,7.186788818359375,-0.963958740234375,-0.1605987548828125,0.1038360595703125
1782845900005793800,7.196793701171875,-0.9666290283203125,-0.161590576171875,0.1022491455078125
1782845900015798800,7.206798828125,-0.970367431640625,-0.1611175537109375,0.1014556884765625
1782845900025803800,7.2168037109375,-0.9710693359375,-0.162567138671875,0.10369873046875
1782845900035808800,7.226808837890625,-0.968475341796875,-0.1643524169921875,0.1034088134765625
1782845900045813800,7.236813720703125,-0.9651336669921875,-0.1643218994140625,0.104400634765625
1782845900055817700,7.246817626953125,-0.963409423828125,-0.163665771484375,0.1031646728515625
1782845900065822700,7.25682275390625,-0.9622802734375,-0.1639404296875,0.1015472412109375
1782845900075827700,7.26682763671875,-0.9666595458984375,-0.16522216796875,0.0982513427734375
1782845900085833000,7.2768330078125,-0.96966552734375,-0.1647186279296875,0.0970306396484375
1782845900095838000,7.286837890625,-0.9738006591796875,-0.1633453369140625,0.096893310546875
1782845900105843000,7.296843017578125,-0.9799346923828125,-0.1636810302734375,0.09808349609375
1782845900115848000,7.306847900390625,-0.9854736328125,-0.16217041015625,0.0921173095703125
1782845900125853000,7.31685302734375,-0.9890899658203125,-0.16162109375,0.09466552734375
1782845900135858000,7.32685791015625,-0.9883270263671875,-0.1647796630859375,0.099945068359375
1782845900145863000,7.33686279296875,-0.9880218505859375,-0.165435791015625,0.1031036376953125
1782845900155867000,7.346866943359375,-0.98480224609375,-0.1636199951171875,0.1063232421875
1782845900165871900,7.356871826171875,-0.975982666015625,-0.1642303466796875,0.108062744140625
1782845900175876900,7.366876953125,-0.966033935546875,-0.164764404296875,0.1038360595703125
1782845900185881900,7.3768818359375,-0.9573516845703125,-0.163909912109375,0.1002655029296875
1782845900195886800,7.386886962890625,-0.954559326171875,-0.1623687744140625,0.0967559814453125
1782845900205892900,7.396892822265625,-0.95654296875,-0.162506103515625,0.0984344482421875
1782845900215897900,7.40689794921875,-0.9618072509765625,-0.16290283203125,0.1007537841796875
1782845900225902800,7.41690283203125,-0.9675140380859375,-0.1639862060546875,0.107391357421875
1782845900235907800,7.426907958984375,-0.9725189208984375,-0.162078857421875,0.107177734375
1782845900245912800,7.436912841796875,-0.976318359375,-0.16448974609375,0.1095428466796875
1782845900255916800,7.446916748046875,-0.9747314453125,-0.165924072265625,0.11138916015625
1782845900265921800,7.456921875,-0.974212646484375,-0.1676177978515625,0.109832763671875
1782845900275926800,7.4669267578125,-0.9727630615234375,-0.16796875,0.104339599609375
1782845900285931800,7.476931884765625,-0.9698333740234375,-0.164947509765625,0.1000213623046875
1782845900295936800,7.486936767578125,-0.9708709716796875,-0.1617584228515625,0.0958251953125
1782845900305941800,7.496941650390625,-0.971466064453125,-0.1605377197265625,0.090667724609375
1782845900315946800,7.50694677734375,-0.97015380859375,-0.1603240966796875,0.0896453857421875
1782845900325951700,7.51695166015625,-0.9730224609375,-0.1608734130859375,0.0922088623046875
1782845900335956700,7.526956787109375,-0.9780120849609375,-0.1605224609375,0.0926361083984375
1782845900345961700,7.536961669921875,-0.978607177734375,-0.1627349853515625,0.0986175537109375
1782845900355966000,7.546966064453125,-0.9796905517578125,-0.163421630859375,0.1047821044921875
1782845900365971000,7.556970947265625,-0.9759521484375,-0.165557861328125,0.1026763916015625
1782845900375976000,7.566975830078125,-0.9765625,-0.167388916015625,0.1041412353515625
1782845900385981000,7.57698095703125,-0.9756011962890625,-0.16485595703125,0.1057586669921875
1782845900395986000,7.58698583984375,-0.9723358154296875,-0.1641845703125,0.101531982421875
1782845900405991000,7.596990966796875,-0.97186279296875,-0.161407470703125,0.1036224365234375
1782845900415996000,7.606995849609375,-0.97015380859375,-0.160614013671875,0.1035308837890625
1782845900426001000,7.6170009765625,-0.969207763671875,-0.160552978515625,0.102691650390625
1782845900436006000,7.627005859375,-0.965301513671875,-0.160675048828125,0.1051483154296875
1782845900446009900,7.637009765625,-0.964019775390625,-0.162322998046875,0.105926513671875
1782845900456014800,7.647014892578125,-0.9611968994140625,-0.1628570556640625,0.1046295166015625
1782845900466019800,7.657019775390625,-0.9601898193359375,-0.1613922119140625,0.1018218994140625
1782845900476024800,7.66702490234375,-0.9597625732421875,-0.1625823974609375,0.0997467041015625
1782845900486029800,7.67702978515625,-0.96484375,-0.1635284423828125,0.099578857421875
1782845900496034800,7.687034912109375,-0.9677734375,-0.1644744873046875,0.0997314453125
1782845900506039800,7.697039794921875,-0.971466064453125,-0.1641998291015625,0.1009674072265625
1782845900516044800,7.707044921875,-0.974700927734375,-0.1641845703125,0.0978546142578125
1782845900526049800,7.7170498046875,-0.9803314208984375,-0.1651611328125,0.0959625244140625
1782845900536054800,7.7270546875,-0.98773193359375,-0.1631011962890625,0.0949859619140625
1782845900546059000,7.73705908203125,-0.9939727783203125,-0.16253662109375,0.0951690673828125
1782845900556064000,7.74706396484375,-0.9934234619140625,-0.163848876953125,0.096038818359375
1782845900566069000,7.757069091796875,-0.9892120361328125,-0.1661224365234375,0.095245361328125
1782845900576074000,7.767073974609375,-0.9807891845703125,-0.166900634765625,0.0955963134765625
1782845900586079000,7.777078857421875,-0.9710540771484375,-0.1670379638671875,0.09747314453125
1782845900596084000,7.787083984375,-0.9646148681640625,-0.166351318359375,0.0967864990234375
1782845900606089000,7.7970888671875,-0.9613800048828125,-0.165924072265625,0.1005096435546875
1782845900616094000,7.807093994140625,-0.960357666015625,-0.165435791015625,0.1012420654296875
1782845900626099000,7.817098876953125,-0.9637451171875,-0.1641998291015625,0.102935791015625
1782845900636104000,7.82710400390625,-0.97021484375,-0.163818359375,0.106353759765625
1782845900646108000,7.83710791015625,-0.97686767578125,-0.1641998291015625,0.104461669921875
1782845900656113000,7.84711279296875,-0.9790191650390625,-0.165069580078125,0.1031951904296875
1782845900666118000,7.857117919921875,-0.9806060791015625,-0.16448974609375,0.1037750244140625
1782845900676123000,7.867122802734375,-0.97698974609375,-0.1658477783203125,0.103424072265625
1782845900686127900,7.8771279296875,-0.9727325439453125,-0.16650390625,0.10125732421875
1782845900696132900,7.8871328125,-0.9685821533203125,-0.1680908203125,0.102142333984375
1782845900706137900,7.897137939453125,-0.9633331298828125,-0.1669464111328125,0.100067138671875
1782845900716142800,7.907142822265625,-0.9596405029296875,-0.1645050048828125,0.0977783203125
1782845900726147800,7.91714794921875,-0.9594268798828125,-0.1641998291015625,0.0966949462890625
1782845900736152800,7.92715283203125,-0.959259033203125,-0.1642303466796875,0.0944061279296875
1782845900746157000,7.937156982421875,-0.9624481201171875,-0.1651763916015625,0.0969085693359375
1782845900756162000,7.947162109375,-0.9738006591796875,-0.1656036376953125,0.0969390869140625
1782845900766167000,7.9571669921875,-0.989715576171875,-0.16455078125,0.0977783203125
1782845900776172000,7.967172119140625,-1.0006561279296875,-0.16552734375,0.1037750244140625
1782845900786177000,7.977177001953125,-1.002044677734375,-0.16851806640625,0.1050872802734375
1782845900796182000,7.98718212890625,-0.99639892578125,-0.16717529296875,0.109039306640625
1782845900806187000,7.99718701171875,-0.9863739013671875,-0.167144775390625,0.1090850830078125
1782845900816192000,8.00719189453125,-0.9735260009765625,-0.166412353515625,0.1089630126953125
1782845900826197000,8.017197021484375,-0.959808349609375,-0.1682586669921875,0.1074066162109375
1782845900836202000,8.027201904296875,-0.948486328125,-0.1695556640625,0.10626220703125
1782845900846206000,8.0372060546875,-0.942840576171875,-0.1668701171875,0.106781005859375
1782845900856211000,8.0472109375,-0.944610595703125,-0.165191650390625,0.1062164306640625
1782845900866216000,8.0572158203125,-0.9509429931640625,-0.165191650390625,0.1062164306640625
1782845900876221000,8.067220947265625,-0.9584197998046875,-0.1641082763671875,0.1097564697265625
1782845900886226000,8.077225830078126,-0.9681396484375,-0.164947509765625,0.111236572265625
1782845900896231000,8.08723095703125,-0.972198486328125,-0.1632843017578125,0.1111907958984375
1782845900906236000,8.09723583984375,-0.9743194580078125,-0.163787841796875,0.109039306640625
1782845900916241000,8.107240966796875,-0.9764404296875,-0.16668701171875,0.1075592041015625
1782845900926246000,8.117245849609375,-0.9757843017578125,-0.1663665771484375,0.1052703857421875
1782845900936249900,8.127249755859374,-0.9731292724609375,-0.1661376953125,0.1036529541015625
1782845900946254800,8.1372548828125,-0.967559814453125,-0.166351318359375,0.1004486083984375
1782845900956259800,8.147259765625,-0.9628448486328125,-0.1661834716796875,0.09820556640625
1782845900966265000,8.15726513671875,-0.96087646484375,-0.1645355224609375,0.099395751953125
1782845900976270000,8.16727001953125,-0.9664154052734375,-0.166351318359375,0.0978240966796875
1782845900986275000,8.177275146484375,-0.9750518798828125,-0.165283203125,0.1017913818359375
1782845900996280000,8.187280029296875,-0.9779510498046875,-0.166168212890625,0.113555908203125
1782845901006285000,8.19728515625,-0.9840087890625,-0.1613922119140625,0.0981903076171875
1782845901016290000,8.2072900390625,-0.9897613525390625,-0.16326904296875,0.0934600830078125
1782845901026295000,8.217294921875,-0.9871368408203125,-0.16644287109375,0.10284423828125
1782845901036298800,8.227298828125,-0.9895782470703125,-0.170562744140625,0.1102447509765625
1782845901046304000,8.237303955078126,-0.980926513671875,-0.169830322265625,0.1037750244140625
1782845901056309000,8.24730908203125,-0.970184326171875,-0.167572021484375,0.1015777587890625
1782845901066314000,8.25731396484375,-0.96148681640625,-0.16705322265625,0.096771240234375
1782845901076319000,8.267319091796875,-0.9583587646484375,-0.16680908203125,0.0960693359375
1782845901086324000,8.277323974609375,-0.959228515625,-0.1672515869140625,0.0960540771484375
1782845901096329000,8.287328857421874,-0.9649200439453125,-0.1659393310546875,0.0961151123046875
1782845901106334000,8.297333984375,-0.9722747802734375,-0.1642913818359375,0.09698486328125
1782845901116339000,8.3073388671875,-0.9761810302734375,-0.1645355224609375,0.0959320068359375
1782845901126344000,8.317343994140625,-0.9788055419921875,-0.1649169921875,0.09783935546875
1782845901136347600,8.32734765625,-0.979583740234375,-0.165985107421875,0.0990753173828125
1782845901146352600,8.3373525390625,-0.980133056640625,-0.1675567626953125,0.102386474609375
1782845901156358000,8.34735791015625,-0.9788360595703125,-0.167694091796875,0.1048583984375
1782845901166363000,8.35736279296875,-0.975128173828125,-0.1688690185546875,0.1064300537109375
1782845901176367900,8.367367919921875,-0.97064208984375,-0.1686859130859375,0.1048431396484375
1782845901186372900,8.377372802734374,-0.9705810546875,-0.166748046875,0.103271484375
1782845901196377900,8.3873779296875,-0.968780517578125,-0.16656494140625,0.1006622314453125
1782845901206381800,8.3973818359375,-0.9674835205078125,-0.166961669921875,0.102325439453125
1782845901216386800,8.40738671875,-0.9662933349609375,-0.1662445068359375,0.1050872802734375
1782845901226391800,8.417391845703126,-0.9623260498046875,-0.1654052734375,0.106781005859375
1782845901236395800,8.427395751953124,-0.9634857177734375,-0.166748046875,0.1068267822265625
1782845901246400800,8.43740087890625,-0.9644012451171875,-0.1675872802734375,0.1067047119140625
1782845901256405800,8.44740576171875,-0.96783447265625,-0.1655120849609375,0.1085968017578125
1782845901266410800,8.45741064453125,-0.9720458984375,-0.165313720703125,0.11175537109375
1782845901276415700,8.467415771484376,-0.976043701171875,-0.16656494140625,0.1092376708984375
1782845901286420700,8.477420654296875,-0.9754180908203125,-0.16644287109375,0.1063232421875
1782845901296425700,8.48742578125,-0.97283935546875,-0.167388916015625,0.103607177734375
1782845901306430700,8.4974306640625,-0.9714508056640625,-0.16827392578125,0.102874755859375
1782845901316435700,8.507435791015626,-0.9708099365234375,-0.1681976318359375,0.102081298828125
1782845901326440700,8.517440673828125,-0.9701385498046875,-0.16961669921875,0.10357666015625
1782845901336445000,8.52744482421875,-0.971954345703125,-0.1702423095703125,0.1031494140625
1782845901346450000,8.537449951171874,-0.978363037109375,-0.16888427734375,0.1027069091796875
1782845901356455000,8.547454833984375,-0.9804534912109375,-0.166168212890625,0.1042327880859375
1782845901366460000,8.5574599609375,-0.9799957275390625,-0.16668701171875,0.103118896484375
1782845901376465000,8.56746484375,-0.9788970947265625,-0.163909912109375,0.100006103515625
1782845901386470000,8.577469970703126,-0.9772491455078125,-0.166656494140625,0.10015869140625
1782845901396475000,8.587474853515625,-0.9741668701171875,-0.1663055419921875,0.0988006591796875
1782845901406480000,8.59747998046875,-0.9732513427734375,-0.1656036376953125,0.099945068359375
1782845901416484900,8.60748486328125,-0.9758148193359375,-0.165740966796875,0.1014251708984375
1782845901426488800,8.61748876953125,-0.9591827392578125,-0.158538818359375,0.0985107421875
1782845901436493800,8.627493896484374,-0.9397125244140625,-0.1674957275390625,0.1078033447265625
1782845901446498800,8.637498779296875,-0.945159912109375,-0.182769775390625,0.120269775390625
1782845901456503800,8.64750390625,-0.95501708984375,-0.1732330322265625,0.132843017578125
1782845901466508800,8.6575087890625,-0.9707794189453125,-0.1686248779296875,0.1219024658203125
1782845901476513800,8.667513671875,-0.9673919677734375,-0.171539306640625,0.10980224609375
1782845901486518800,8.677518798828125,-0.9671173095703125,-0.175201416015625,0.1143798828125
1782845901496523800,8.687523681640625,-0.981475830078125,-0.16436767578125,0.115966796875
1782845901506528800,8.69752880859375,-0.987213134765625,-0.158782958984375,0.1021270751953125
