time,seconds_elapsed,z,y,x
1782845612901615900,0.062615966796875,-0.9130859375,-0.27838134765625,0.1214599609375
1782845612911620900,0.072620849609375,-0.9177093505859375,-0.272125244140625,0.118988037109375
1782845612921625900,0.0826259765625,-0.9309539794921875,-0.271759033203125,0.113494873046875
1782845612931631900,0.0926318359375,-0.9409027099609375,-0.2792816162109375,0.1024932861328125
1782845612941637600,0.1026376953125,-0.954437255859375,-0.280609130859375,0.1012725830078125
1782845612951642600,0.112642578125,-0.96527099609375,-0.27911376953125,0.1054229736328125
1782845612961647900,0.12264794921875,-0.9617156982421875,-0.28692626953125,0.104278564453125
1782845612971652900,0.13265283203125,-0.951080322265625,-0.2992401123046875,0.10040283203125
1782845612981657900,0.142657958984375,-0.9363555908203125,-0.313262939453125,0.0986175537109375
1782845612991662800,0.152662841796875,-0.922698974609375,-0.3263702392578125,0.1021728515625
1782845613001667800,0.162667724609375,-0.92431640625,-0.3366851806640625,0.1132049560546875
1782845613011672800,0.1726728515625,-0.9424591064453125,-0.3483734130859375,0.1228790283203125
1782845613021677800,0.182677734375,-0.96258544921875,-0.35650634765625,0.127777099609375
1782845613031682800,0.192682861328125,-0.9859619140625,-0.3561553955078125,0.139251708984375
1782845613041688600,0.2026884765625,-1.0046234130859375,-0.363037109375,0.153106689453125
1782845613051693600,0.212693603515625,-1.0052032470703125,-0.3696746826171875,0.1558074951171875
1782845613061698600,0.222698486328125,-0.9929046630859375,-0.37371826171875,0.1529541015625
1782845613071703600,0.23270361328125,-0.9723358154296875,-0.3714141845703125,0.153594970703125
1782845613081708500,0.24270849609375,-0.9546966552734375,-0.3600921630859375,0.1631011962890625
1782845613091713800,0.2527138671875,-0.9502716064453125,-0.3456573486328125,0.1715240478515625
1782845613101718800,0.26271875,-0.9530487060546875,-0.3225860595703125,0.185638427734375
1782845613111723800,0.272723876953125,-0.9586334228515625,-0.3063201904296875,0.198822021484375
1782845613121728800,0.282728759765625,-0.966796875,-0.2946319580078125,0.2223663330078125
1782845613131733800,0.292733642578125,-0.989501953125,-0.2708892822265625,0.2526092529296875
1782845613141738800,0.30273876953125,-1.033203125,-0.2480926513671875,0.280120849609375
1782845613151744500,0.31274462890625,-1.07098388671875,-0.22821044921875,0.2913055419921875
1782845613161749500,0.32274951171875,-1.097808837890625,-0.2137908935546875,0.2905426025390625
1782845613171754500,0.33275439453125,-1.101806640625,-0.2091827392578125,0.2728729248046875
1782845613181759500,0.342759521484375,-1.0848388671875,-0.2036285400390625,0.2467803955078125
1782845613191764700,0.3527646484375,-1.051544189453125,-0.2059478759765625,0.22650146484375
1782845613201769700,0.362769775390625,-1.0237884521484375,-0.2148590087890625,0.222900390625
1782845613211774700,0.372774658203125,-1.0056304931640625,-0.227386474609375,0.210418701171875
1782845613221779700,0.38277978515625,-0.978515625,-0.254058837890625,0.178009033203125
1782845613231784700,0.39278466796875,-0.9504241943359375,-0.27142333984375,0.16009521484375
1782845613241789700,0.402789794921875,-0.937744140625,-0.2807769775390625,0.1396636962890625
1782845613251794700,0.412794677734375,-0.9317779541015625,-0.288055419921875,0.1131439208984375
1782845613261800700,0.42280078125,-0.930877685546875,-0.2859954833984375,0.0972747802734375
1782845613271805700,0.4328056640625,-0.91827392578125,-0.28656005859375,0.0761871337890625
1782845613281810700,0.442810791015625,-0.892791748046875,-0.2714996337890625,0.063201904296875
1782845613291815700,0.452815673828125,-0.8691864013671875,-0.248748779296875,0.0563507080078125
1782845613301820700,0.462820556640625,-0.85699462890625,-0.2321624755859375,0.04705810546875
1782845613311825700,0.47282568359375,-0.852081298828125,-0.2122039794921875,0.0496063232421875
1782845613321830700,0.48283056640625,-0.844573974609375,-0.20721435546875,0.062713623046875
1782845613331835600,0.492835693359375,-0.828094482421875,-0.2068328857421875,0.087860107421875
1782845613341840600,0.502840576171875,-0.80657958984375,-0.191650390625,0.1063079833984375
1782845613351845600,0.512845703125,-0.7919921875,-0.1747894287109375,0.1145172119140625
1782845613361850600,0.5228505859375,-0.7917327880859375,-0.161834716796875,0.1197662353515625
1782845613371856600,0.532856689453125,-0.809722900390625,-0.1483612060546875,0.126800537109375
1782845613381861600,0.542861572265625,-0.8572235107421875,-0.1345977783203125,0.1405029296875
1782845613391866600,0.55286669921875,-0.9187774658203125,-0.1233367919921875,0.1435089111328125
1782845613401871600,0.56287158203125,-0.9747772216796875,-0.1296539306640625,0.1494140625
1782845613411876600,0.572876708984375,-1.0386962890625,-0.1308135986328125,0.1561126708984375
1782845613421881600,0.582881591796875,-1.096588134765625,-0.12744140625,0.1480712890625
1782845613431886600,0.592886474609375,-1.118316650390625,-0.1144256591796875,0.13836669921875
1782845613441891600,0.6028916015625,-1.1199798583984375,-0.099761962890625,0.119781494140625
1782845613451896600,0.612896484375,-1.1076812744140625,-0.0903167724609375,0.0992431640625
1782845613461901600,0.622901611328125,-1.0782470703125,-0.0927734375,0.0740509033203125
1782845613471906600,0.632906494140625,-1.039794921875,-0.0950164794921875,0.0532684326171875
1782845613481912600,0.64291259765625,-1.0085906982421875,-0.092437744140625,0.03759765625
1782845613491917600,0.65291748046875,-0.984527587890625,-0.0946807861328125,0.028045654296875
1782845613501922600,0.662922607421875,-0.963836669921875,-0.097564697265625,0.021148681640625
1782845613511927600,0.672927490234375,-0.9565887451171875,-0.1060028076171875,0.0177459716796875
1782845613521932500,0.6829326171875,-0.9524078369140625,-0.110321044921875,0.0184326171875
1782845613531937500,0.6929375,-0.9485931396484375,-0.1140899658203125,0.0225677490234375
1782845613541942500,0.702942626953125,-0.953948974609375,-0.1247711181640625,0.0342864990234375
1782845613551947800,0.71294775390625,-0.951629638671875,-0.1532745361328125,0.0351715087890625
1782845613561952800,0.722952880859375,-0.9537811279296875,-0.170379638671875,0.03680419921875
1782845613571957800,0.732957763671875,-0.942657470703125,-0.180389404296875,0.032958984375
1782845613581962800,0.742962646484375,-0.9216766357421875,-0.191436767578125,0.025115966796875
1782845613591967700,0.7529677734375,-0.9104461669921875,-0.197357177734375,0.024078369140625
1782845613601973800,0.762973876953125,-0.907470703125,-0.20037841796875,0.025604248046875
1782845613611978800,0.772978759765625,-0.9163818359375,-0.20709228515625,0.026611328125
1782845613621983700,0.782983642578125,-0.9417877197265625,-0.205902099609375,0.038482666015625
1782845613631988700,0.79298876953125,-0.966064453125,-0.2021484375,0.0476531982421875
1782845613641993700,0.80299365234375,-0.97784423828125,-0.2092742919921875,0.0492095947265625
1782845613651998700,0.812998779296875,-0.992156982421875,-0.2116241455078125,0.056549072265625
1782845613662003700,0.823003662109375,-0.9917144775390625,-0.2116851806640625,0.06549072265625
1782845613672008700,0.8330087890625,-1.000396728515625,-0.22259521484375,0.0691680908203125
1782845613682013700,0.843013671875,-1.0008087158203125,-0.2285919189453125,0.0675048828125
1782845613692018700,0.853018798828125,-0.988861083984375,-0.2397003173828125,0.0625152587890625
1782845613702023700,0.863023681640625,-0.971832275390625,-0.2509002685546875,0.0578155517578125
1782845613712029700,0.87302978515625,-0.947418212890625,-0.2551727294921875,0.0540771484375
1782845613722034700,0.88303466796875,-0.916900634765625,-0.2588958740234375,0.04876708984375
1782845613732039700,0.893039794921875,-0.8891448974609375,-0.25946044921875,0.0371856689453125
1782845613742044700,0.903044677734375,-0.886077880859375,-0.2515106201171875,0.0491180419921875
1782845613752049700,0.913049560546875,-0.9116058349609375,-0.2382965087890625,0.0743408203125
1782845613762054700,0.9230546875,-0.97564697265625,-0.26202392578125,0.0105133056640625
1782845613772059600,0.9330595703125,-0.97320556640625,-0.282379150390625,0.028900146484375
1782845613782064600,0.943064697265625,-0.94012451171875,-0.2996063232421875,0.0646209716796875
1782845613792069600,0.953069580078125,-0.940826416015625,-0.3063507080078125,0.049591064453125
1782845613802074600,0.96307470703125,-0.93408203125,-0.2955169677734375,0.0471954345703125
1782845613812079600,0.97307958984375,-0.9334716796875,-0.300537109375,0.0462493896484375
1782845613822084600,0.983084716796875,-0.929931640625,-0.312957763671875,0.05352783203125
1782845613832090600,0.993090576171875,-0.925201416015625,-0.3144683837890625,0.0603485107421875
1782845613842095600,1.003095703125,-0.935272216796875,-0.3110198974609375,0.0600433349609375
1782845613852100600,1.0131005859375,-0.9447174072265625,-0.3008880615234375,0.0750274658203125
1782845613862105600,1.023105712890625,-0.9557952880859375,-0.2977294921875,0.082275390625
1782845613872110600,1.033110595703125,-0.9810791015625,-0.29571533203125,0.06243896484375
1782845613882115600,1.043115478515625,-1.0188446044921875,-0.2708587646484375,0.0692138671875
1782845613892120600,1.05312060546875,-1.0369720458984375,-0.263031005859375,0.0755462646484375
1782845613902125600,1.06312548828125,-1.0199432373046875,-0.2835540771484375,0.0776214599609375
1782845613912130800,1.073130859375,-0.99029541015625,-0.2921142578125,0.0863494873046875
1782845613922135800,1.0831357421875,-0.96728515625,-0.29486083984375,0.091522216796875
1782845613932140000,1.09314013671875,-0.9490509033203125,-0.28851318359375,0.0879364013671875
1782845613942145000,1.10314501953125,-0.929962158203125,-0.2799072265625,0.0784454345703125
1782845613952151000,1.113151123046875,-0.912628173828125,-0.2796783447265625,0.0701751708984375
1782845613962156000,1.123156005859375,-0.90673828125,-0.276947021484375,0.067474365234375
1782845613972161000,1.1331611328125,-0.9083404541015625,-0.2823028564453125,0.069732666015625
1782845613982166000,1.143166015625,-0.91162109375,-0.2819061279296875,0.073974609375
1782845613992171000,1.1531708984375,-0.9157867431640625,-0.2755889892578125,0.0669708251953125
1782845614002176000,1.163176025390625,-0.9359588623046875,-0.2683563232421875,0.052032470703125
1782845614012181000,1.173180908203125,-0.9526214599609375,-0.260345458984375,0.0452880859375
1782845614022186000,1.18318603515625,-0.970733642578125,-0.2579498291015625,0.0431365966796875
1782845614032191000,1.19319091796875,-0.9787139892578125,-0.2678375244140625,0.042083740234375
1782845614042196000,1.203196044921875,-0.9833526611328125,-0.278656005859375,0.0521240234375
1782845614052201000,1.213200927734375,-0.9686126708984375,-0.282257080078125,0.0621185302734375
1782845614062206000,1.2232060546875,-0.949951171875,-0.28424072265625,0.0692901611328125
1782845614072212200,1.233212158203125,-0.9420013427734375,-0.28790283203125,0.07171630859375
1782845614082217200,1.24321728515625,-0.9437408447265625,-0.2878570556640625,0.0788421630859375
1782845614092222200,1.25322216796875,-0.9444122314453125,-0.2828826904296875,0.08154296875
1782845614102227200,1.263227294921875,-0.9430999755859375,-0.2865447998046875,0.086395263671875
1782845614112232200,1.273232177734375,-0.9500579833984375,-0.2939453125,0.0875091552734375
1782845614122237200,1.2832373046875,-0.959197998046875,-0.30059814453125,0.0852203369140625
1782845614132242200,1.2932421875,-0.9694976806640625,-0.3172149658203125,0.0875091552734375
1782845614142247200,1.3032470703125,-0.9823150634765625,-0.33282470703125,0.094635009765625
1782845614152252200,1.313252197265625,-0.9992523193359375,-0.3505096435546875,0.096099853515625
1782845614162257200,1.323257080078125,-1.003173828125,-0.353057861328125,0.1002960205078125
1782845614172262100,1.33326220703125,-0.996978759765625,-0.3423004150390625,0.08966064453125
1782845614182267100,1.34326708984375,-0.9864044189453125,-0.3144378662109375,0.0675506591796875
1782845614192273200,1.353273193359375,-0.979095458984375,-0.2748565673828125,0.0419769287109375
1782845614202278100,1.363278076171875,-0.9720611572265625,-0.2530517578125,0.0158538818359375
1782845614212283100,1.373283203125,-0.9751129150390625,-0.229827880859375,-0.015289306640625
1782845614222288100,1.3832880859375,-0.9849853515625,-0.1945953369140625,-0.0600128173828125
1782845614232293000,1.393293212890625,-1.00445556640625,-0.1708526611328125,-0.09197998046875
1782845614242298000,1.403298095703125,-1.0272064208984375,-0.2255096435546875,-0.078521728515625
1782845614252303000,1.41330322265625,-1.0349884033203125,-0.23663330078125,-0.01953125
1782845614262308000,1.42330810546875,-1.0684967041015625,-0.2509918212890625,0.0950469970703125
1782845614272313000,1.43331298828125,-1.0868682861328125,-0.2325592041015625,0.1272430419921875
1782845614282318000,1.443318115234375,-1.0988006591796875,-0.217254638671875,0.1373748779296875
1782845614292323000,1.453322998046875,-1.1591796875,-0.2266082763671875,0.1429901123046875
1782845614302328000,1.463328125,-1.183563232421875,-0.213043212890625,0.126708984375
1782845614312333000,1.4733330078125,-1.1700286865234375,-0.19696044921875,0.0980682373046875
1782845614322339000,1.483339111328125,-1.11090087890625,-0.19573974609375,0.0438079833984375
1782845614332344000,1.493343994140625,-1.0177764892578125,-0.185211181640625,-0.0004425048828125
1782845614342349000,1.50334912109375,-0.9338836669921875,-0.162322998046875,-0.0121917724609375
1782845614352354000,1.51335400390625,-0.8649139404296875,-0.149810791015625,-0.0146636962890625
1782845614362359000,1.523359130859375,-0.80316162109375,-0.153717041015625,-0.0185699462890625
1782845614372364000,1.533364013671875,-0.7697601318359375,-0.1566619873046875,-0.0224609375
1782845614382369000,1.543369140625,-0.7761077880859375,-0.1547393798828125,-0.025238037109375
1782845614392374000,1.5533740234375,-0.7972412109375,-0.1470947265625,-0.0225982666015625
1782845614402379000,1.56337890625,-0.8249359130859375,-0.140838623046875,-0.0119476318359375
1782845614412384000,1.573384033203125,-0.8583526611328125,-0.137786865234375,0.0008087158203125
1782845614422389000,1.583388916015625,-0.8863525390625,-0.133636474609375,0.0166778564453125
1782845614432394000,1.59339404296875,-0.906524658203125,-0.1285858154296875,0.0322418212890625
1782845614442399000,1.60339892578125,-0.9264984130859375,-0.127838134765625,0.0514373779296875
1782845614452405200,1.6134052734375,-0.9462432861328125,-0.1303253173828125,0.0709686279296875
1782845614462410200,1.62341015625,-0.96710205078125,-0.137115478515625,0.089141845703125
1782845614472415200,1.633415283203125,-0.9840240478515625,-0.141204833984375,0.1098480224609375
1782845614482420200,1.643420166015625,-1.0126953125,-0.1410369873046875,0.137115478515625
1782845614492425200,1.65342529296875,-1.0378875732421875,-0.14971923828125,0.165679931640625
1782845614502430200,1.66343017578125,-1.0444488525390625,-0.165008544921875,0.193145751953125
1782845614512435200,1.673435302734375,-1.0384674072265625,-0.1731719970703125,0.212249755859375
1782845614522440200,1.683440185546875,-1.0395965576171875,-0.1780853271484375,0.223907470703125
1782845614532445200,1.693445068359375,-1.034027099609375,-0.18707275390625,0.2192840576171875
1782845614542450200,1.7034501953125,-1.01837158203125,-0.1897735595703125,0.209503173828125
1782845614552455200,1.713455078125,-1.0007476806640625,-0.1922149658203125,0.1937103271484375
1782845614562460200,1.723460205078125,-0.9846038818359375,-0.2017974853515625,0.1693878173828125
1782845614572466200,1.733466064453125,-0.9697418212890625,-0.20806884765625,0.1459197998046875
1782845614582471200,1.74347119140625,-0.954345703125,-0.2161102294921875,0.1270294189453125
1782845614592476200,1.75347607421875,-0.9388275146484375,-0.223388671875,0.11114501953125
1782845614602481200,1.763481201171875,-0.933868408203125,-0.2244110107421875,0.10540771484375
1782845614612486100,1.773486083984375,-0.936737060546875,-0.2221832275390625,0.094482421875
1782845614622491100,1.7834912109375,-0.942901611328125,-0.2142486572265625,0.0760498046875
1782845614632496000,1.79349609375,-0.9550628662109375,-0.1962432861328125,0.0669097900390625
1782845614642501000,1.803501220703125,-0.9720458984375,-0.1824188232421875,0.064788818359375
1782845614652506000,1.813506103515625,-0.979827880859375,-0.18670654296875,0.05419921875
1782845614662511000,1.823510986328125,-0.97430419921875,-0.2003631591796875,0.0484161376953125
1782845614672516000,1.83351611328125,-0.9654693603515625,-0.2154998779296875,0.0536041259765625
1782845614682521000,1.84352099609375,-0.9588775634765625,-0.22686767578125,0.06158447265625
1782845614692526000,1.853526123046875,-0.9461212158203125,-0.2363739013671875,0.0709686279296875
1782845614702532000,1.863531982421875,-0.93524169921875,-0.2422332763671875,0.0805206298828125
1782845614712537000,1.873537109375,-0.923736572265625,-0.244659423828125,0.0850982666015625
1782845614722542000,1.8835419921875,-0.9168548583984375,-0.2416229248046875,0.086029052734375
1782845614732547000,1.893547119140625,-0.9237213134765625,-0.2322845458984375,0.09027099609375
1782845614742552000,1.903552001953125,-0.948760986328125,-0.2269134521484375,0.0910797119140625
1782845614752557000,1.91355712890625,-0.9752197265625,-0.224395751953125,0.0821075439453125
1782845614762562000,1.92356201171875,-0.97991943359375,-0.2162628173828125,0.0877227783203125
1782845614772567000,1.933567138671875,-0.9630584716796875,-0.2162933349609375,0.0964508056640625
1782845614782572000,1.943572021484375,-0.948944091796875,-0.2117156982421875,0.0999603271484375
1782845614792577000,1.953576904296875,-0.9435272216796875,-0.21160888671875,0.10577392578125
1782845614802582000,1.96358203125,-0.93731689453125,-0.2172393798828125,0.115631103515625
1782845614812587000,1.9735869140625,-0.9276275634765625,-0.219879150390625,0.1295318603515625
1782845614822592000,1.983592041015625,-0.91949462890625,-0.2201690673828125,0.136505126953125
1782845614832598300,1.993598388671875,-0.9141693115234375,-0.2171478271484375,0.1461181640625
1782845614842603300,2.003603271484375,-0.9148101806640625,-0.2175750732421875,0.15155029296875
1782845614852608300,2.013608154296875,-0.922210693359375,-0.2207794189453125,0.16094970703125
1782845614862613200,2.02361328125,-0.92242431640625,-0.2286529541015625,0.171783447265625
1782845614872618200,2.0336181640625,-0.92431640625,-0.236083984375,0.175811767578125
1782845614882623200,2.043623291015625,-0.931488037109375,-0.2347869873046875,0.170684814453125
1782845614892628200,2.053628173828125,-0.9350433349609375,-0.2355194091796875,0.160308837890625
1782845614902633200,2.06363330078125,-0.9262237548828125,-0.2442626953125,0.148284912109375
1782845614912638200,2.07363818359375,-0.921356201171875,-0.258636474609375,0.147064208984375
1782845614922643200,2.083643310546875,-0.92498779296875,-0.2669830322265625,0.1479949951171875
1782845614932648700,2.093648681640625,-0.9316253662109375,-0.2736968994140625,0.1444091796875
1782845614942653700,2.10365380859375,-0.94598388671875,-0.2816162109375,0.135589599609375
1782845614952658700,2.11365869140625,-0.9443359375,-0.2832183837890625,0.1315765380859375
1782845614962664700,2.123664794921875,-0.94061279296875,-0.281005859375,0.1268463134765625
1782845614972669700,2.133669677734375,-0.9416351318359375,-0.282562255859375,0.1252288818359375
1782845614982674700,2.1436748046875,-0.938507080078125,-0.2813568115234375,0.1279449462890625
1782845614992679700,2.1536796875,-0.9415435791015625,-0.2791748046875,0.1271514892578125
1782845615002684700,2.1636845703125,-0.944244384765625,-0.2707061767578125,0.1287994384765625
1782845615012689700,2.173689697265625,-0.9559783935546875,-0.2645111083984375,0.1300506591796875
1782845615022694700,2.183694580078125,-0.9630889892578125,-0.264923095703125,0.1396484375
1782845615032699600,2.19369970703125,-0.9631500244140625,-0.2669525146484375,0.1466522216796875
1782845615042704600,2.20370458984375,-0.9554443359375,-0.2696533203125,0.15216064453125
1782845615052709600,2.213709716796875,-0.9350433349609375,-0.274688720703125,0.15087890625
1782845615062714600,2.223714599609375,-0.92486572265625,-0.2695159912109375,0.1390838623046875
1782845615072719600,2.2337197265625,-0.9089508056640625,-0.275482177734375,0.1455841064453125
1782845615082724600,2.243724609375,-0.880035400390625,-0.2879638671875,0.139190673828125
1782845615092730600,2.253730712890625,-0.8759002685546875,-0.2890167236328125,0.1358795166015625
1782845615102735600,2.263735595703125,-0.876617431640625,-0.292449951171875,0.126953125
1782845615112740600,2.27374072265625,-0.8771514892578125,-0.293792724609375,0.1266937255859375
1782845615122745600,2.28374560546875,-0.87982177734375,-0.2958526611328125,0.1264495849609375
1782845615132750600,2.29375048828125,-0.8975830078125,-0.299224853515625,0.1232757568359375
1782845615142755600,2.303755615234375,-0.92132568359375,-0.3130645751953125,0.1201324462890625
1782845615152760600,2.313760498046875,-0.946807861328125,-0.3270111083984375,0.113128662109375
1782845615162765600,2.323765625,-0.969390869140625,-0.3372039794921875,0.1058349609375
1782845615172770600,2.3337705078125,-0.9894866943359375,-0.3470001220703125,0.1051025390625
1782845615182775600,2.343775634765625,-1.0092315673828125,-0.3611297607421875,0.10357666015625
1782845615192780500,2.353780517578125,-1.0211181640625,-0.3716888427734375,0.1027069091796875
1782845615202785500,2.36378564453125,-1.0299835205078125,-0.3721466064453125,0.105926513671875
1782845615212790500,2.37379052734375,-1.034423828125,-0.36932373046875,0.1114654541015625
1782845615222796800,2.383796875,-1.0365753173828125,-0.35675048828125,0.1189727783203125
1782845615232801800,2.3938017578125,-1.03521728515625,-0.327911376953125,0.121551513671875
1782845615242806800,2.403806884765625,-1.044464111328125,-0.3005218505859375,0.124725341796875
1782845615252811800,2.413811767578125,-1.050811767578125,-0.2716064453125,0.1337890625
1782845615262816800,2.423816650390625,-1.058746337890625,-0.2359619140625,0.1541290283203125
1782845615272821800,2.43382177734375,-1.08343505859375,-0.2067108154296875,0.1724395751953125
1782845615282826800,2.44382666015625,-1.0972137451171875,-0.1851348876953125,0.1796417236328125
1782845615292831700,2.453831787109375,-1.1114654541015625,-0.182403564453125,0.186248779296875
1782845615302836700,2.463836669921875,-1.108673095703125,-0.180389404296875,0.197113037109375
1782845615312841700,2.473841796875,-1.0888824462890625,-0.176544189453125,0.204498291015625
1782845615322846700,2.4838466796875,-1.06317138671875,-0.182342529296875,0.20166015625
1782845615332851700,2.493851806640625,-1.0297393798828125,-0.191314697265625,0.18829345703125
1782845615342856700,2.503856689453125,-0.9980316162109375,-0.1947021484375,0.1707763671875
1782845615352861700,2.51386181640625,-0.984039306640625,-0.192657470703125,0.154998779296875
1782845615362867700,2.52386767578125,-0.975006103515625,-0.1948394775390625,0.1299896240234375
1782845615372872700,2.533872802734375,-0.9604644775390625,-0.2006988525390625,0.1096649169921875
1782845615382877700,2.543877685546875,-0.9399261474609375,-0.197021484375,0.095428466796875
1782845615392882700,2.553882568359375,-0.906402587890625,-0.191741943359375,0.0825042724609375
1782845615402887700,2.5638876953125,-0.88336181640625,-0.1890411376953125,0.07373046875
1782845615412892700,2.573892578125,-0.8529052734375,-0.193206787109375,0.068634033203125
1782845615422897700,2.583897705078125,-0.8241119384765625,-0.1937255859375,0.0744171142578125
1782845615432902700,2.593902587890625,-0.8011322021484375,-0.191070556640625,0.081939697265625
1782845615442907600,2.60390771484375,-0.7882843017578125,-0.1839752197265625,0.091827392578125
1782845615452912600,2.61391259765625,-0.7976226806640625,-0.1756591796875,0.1015472412109375
1782845615462917600,2.623917724609375,-0.809722900390625,-0.164154052734375,0.1113433837890625
1782845615472922600,2.633922607421875,-0.8222503662109375,-0.1536865234375,0.12420654296875
1782845615482927600,2.643927734375,-0.842559814453125,-0.142333984375,0.1349334716796875
1782845615492932600,2.6539326171875,-0.87518310546875,-0.1223602294921875,0.1471710205078125
1782845615502938600,2.663938720703125,-0.925384521484375,-0.1122283935546875,0.1469573974609375
1782845615512943600,2.673943603515625,-0.9959259033203125,-0.09918212890625,0.1344146728515625
1782845615522948600,2.683948486328125,-1.0498046875,-0.0891876220703125,0.11883544921875
1782845615532953600,2.69395361328125,-1.097900390625,-0.0860137939453125,0.0966339111328125
1782845615542958600,2.70395849609375,-1.1237640380859375,-0.08074951171875,0.07379150390625
1782845615552963600,2.713963623046875,-1.0995941162109375,-0.075347900390625,0.0562744140625
1782845615562968600,2.723968505859375,-1.0599517822265625,-0.0730133056640625,0.0546112060546875
1782845615572973600,2.7339736328125,-1.0267791748046875,-0.07940673828125,0.054901123046875
1782845615582978600,2.743978515625,-1.0083770751953125,-0.09454345703125,0.0539398193359375
1782845615592983600,2.753983642578125,-0.9963226318359375,-0.1103057861328125,0.0477294921875
1782845615602988500,2.763988525390625,-0.9789276123046875,-0.1199188232421875,0.0337982177734375
1782845615612993500,2.77399365234375,-0.9630279541015625,-0.126922607421875,0.028778076171875
1782845615622998500,2.78399853515625,-0.93939208984375,-0.136566162109375,0.0305633544921875
1782845615633003500,2.79400341796875,-0.9267578125,-0.1535186767578125,0.037200927734375
1782845615643009500,2.804009521484375,-0.9180908203125,-0.16943359375,0.0439453125
1782845615653014800,2.814014892578125,-0.9176025390625,-0.1773529052734375,0.0501251220703125
1782845615663019800,2.824019775390625,-0.9237213134765625,-0.176849365234375,0.0450286865234375
1782845615673024800,2.834024658203125,-0.938201904296875,-0.178314208984375,0.050872802734375
1782845615683029800,2.84402978515625,-0.9555816650390625,-0.1763763427734375,0.0548858642578125
1782845615693034800,2.85403466796875,-0.9833831787109375,-0.1725006103515625,0.0630645751953125
1782845615703039700,2.864039794921875,-1.0183258056640625,-0.1624908447265625,0.0719146728515625
1782845615713044700,2.874044677734375,-1.0605316162109375,-0.15655517578125,0.078704833984375
1782845615723049700,2.8840498046875,-1.0986328125,-0.1537933349609375,0.084503173828125
1782845615733054700,2.8940546875,-1.1186370849609375,-0.15350341796875,0.0868682861328125
1782845615743059700,2.904059814453125,-1.10986328125,-0.1546783447265625,0.0799713134765625
1782845615753064700,2.914064697265625,-1.0699615478515625,-0.1546173095703125,0.0712738037109375
1782845615763069700,2.924069580078125,-1.01153564453125,-0.1496734619140625,0.0654449462890625
1782845615773074700,2.93407470703125,-0.9520263671875,-0.1504974365234375,0.0577392578125
1782845615783080700,2.944080810546875,-0.9027099609375,-0.155548095703125,0.050384521484375
1782845615793085700,2.954085693359375,-0.8797454833984375,-0.1617279052734375,0.046875
1782845615803090700,2.964090576171875,-0.876617431640625,-0.17108154296875,0.046875
1782845615813095700,2.974095703125,-0.878753662109375,-0.184173583984375,0.0511016845703125
1782845615823100700,2.9841005859375,-0.8796539306640625,-0.195037841796875,0.0629119873046875
1782845615833105700,2.994105712890625,-0.879302978515625,-0.205352783203125,0.0679473876953125
1782845615843110700,3.004110595703125,-0.88165283203125,-0.213043212890625,0.0680999755859375
1782845615853115600,3.01411572265625,-0.889190673828125,-0.2252960205078125,0.0666351318359375
1782845615863120600,3.02412060546875,-0.9034271240234375,-0.239227294921875,0.0653076171875
1782845615873125600,3.034125732421875,-0.9228515625,-0.2451629638671875,0.0603790283203125
1782845615883130600,3.044130615234375,-0.944244384765625,-0.2491455078125,0.05487060546875
1782845615893135600,3.054135498046875,-0.9618072509765625,-0.24932861328125,0.0504302978515625
1782845615903140600,3.064140625,-0.9742889404296875,-0.249237060546875,0.041107177734375
1782845615913145600,3.0741455078125,-0.9846954345703125,-0.2493133544921875,0.0364837646484375
1782845615923150600,3.084150634765625,-0.9913482666015625,-0.242401123046875,0.04693603515625
1782845615933156900,3.094156982421875,-1.0105438232421875,-0.23858642578125,0.0575103759765625
1782845615943161900,3.104161865234375,-1.0148468017578125,-0.2328033447265625,0.053497314453125
1782845615953166800,3.114166748046875,-1.010467529296875,-0.2281646728515625,0.04754638671875
1782845615963171800,3.124171875,-1.00128173828125,-0.225555419921875,0.0497589111328125
1782845615973176800,3.1341767578125,-0.9835205078125,-0.23162841796875,0.05548095703125
1782845615983182000,3.14418212890625,-0.9640655517578125,-0.2391510009765625,0.06591796875
1782845615993187000,3.15418701171875,-0.9492645263671875,-0.2414093017578125,0.07440185546875
1782845616003192000,3.164192138671875,-0.94140625,-0.2418975830078125,0.0756988525390625
1782845616013197000,3.174197021484375,-0.952117919921875,-0.2456207275390625,0.07904052734375
1782845616023202000,3.1842021484375,-0.9647369384765625,-0.245452880859375,0.08099365234375
1782845616033207000,3.19420703125,-0.9707489013671875,-0.246063232421875,0.080963134765625
1782845616043212000,3.2042119140625,-0.9613189697265625,-0.2501068115234375,0.0729217529296875
1782845616053217000,3.214217041015625,-0.9538116455078125,-0.2500457763671875,0.067474365234375
1782845616063222000,3.224221923828125,-0.9593963623046875,-0.251678466796875,0.0625762939453125
1782845616073227000,3.23422705078125,-0.97216796875,-0.2524871826171875,0.060516357421875
1782845616083233000,3.24423291015625,-0.9792633056640625,-0.2567901611328125,0.053558349609375
1782845616093238000,3.254238037109375,-0.9754638671875,-0.244659423828125,0.0420379638671875
1782845616103243000,3.264242919921875,-0.97052001953125,-0.239990234375,0.03448486328125
1782845616113248000,3.274248046875,-0.9682769775390625,-0.2479400634765625,0.0341339111328125
1782845616123253000,3.2842529296875,-0.9756011962890625,-0.25616455078125,0.0412139892578125
1782845616133258000,3.294258056640625,-0.9715118408203125,-0.2577362060546875,0.044891357421875
1782845616143263000,3.304262939453125,-0.962799072265625,-0.2588348388671875,0.03985595703125
1782845616153268200,3.314268310546875,-0.9594573974609375,-0.2576904296875,0.039031982421875
1782845616163273200,3.324273193359375,-0.9536590576171875,-0.250732421875,0.03558349609375
1782845616173278200,3.3342783203125,-0.9511566162109375,-0.2505645751953125,0.031341552734375
1782845616183283200,3.344283203125,-0.9494781494140625,-0.25604248046875,0.0320587158203125
1782845616193288200,3.3542880859375,-0.943511962890625,-0.2577362060546875,0.0386505126953125
1782845616203293200,3.364293212890625,-0.9412078857421875,-0.2640838623046875,0.0449066162109375
1782845616213298200,3.374298095703125,-0.9323272705078125,-0.2744140625,0.0518341064453125
1782845616223303200,3.38430322265625,-0.9213714599609375,-0.277313232421875,0.059478759765625
1782845616233309000,3.394308837890625,-0.9096527099609375,-0.274017333984375,0.057952880859375
1782845616243314000,3.40431396484375,-0.9141387939453125,-0.268829345703125,0.054107666015625
1782845616253319000,3.41431884765625,-0.92889404296875,-0.2714385986328125,0.0467681884765625
1782845616263324000,3.424323974609375,-0.9372711181640625,-0.2823638916015625,0.04638671875
1782845616273329000,3.434328857421875,-0.94744873046875,-0.3014678955078125,0.058502197265625
1782845616283334100,3.444334228515625,-0.95172119140625,-0.3126678466796875,0.067108154296875
1782845616293339100,3.454339111328125,-0.9456329345703125,-0.3192596435546875,0.0599365234375
1782845616303344000,3.46434423828125,-0.936920166015625,-0.31024169921875,0.051055908203125
1782845616313349000,3.47434912109375,-0.929473876953125,-0.2913665771484375,0.0447845458984375
1782845616323354000,3.48435400390625,-0.9389801025390625,-0.2882843017578125,0.0293731689453125
1782845616333359000,3.494359130859375,-0.9525299072265625,-0.2763519287109375,0.0237884521484375
1782845616343364000,3.504364013671875,-0.9606170654296875,-0.269805908203125,0.028594970703125
1782845616353369000,3.514369140625,-0.9834442138671875,-0.2601470947265625,0.0323638916015625
1782845616363374000,3.5243740234375,-1.0242767333984375,-0.2498321533203125,0.0438690185546875
1782845616373379000,3.534379150390625,-1.06158447265625,-0.242919921875,0.05792236328125
1782845616383384000,3.544384033203125,-1.105010986328125,-0.2382659912109375,0.0724639892578125
1782845616393389800,3.554389892578125,-1.1374359130859375,-0.237213134765625,0.0826873779296875
1782845616403394800,3.564394775390625,-1.154022216796875,-0.2318267822265625,0.098663330078125
1782845616413399800,3.57439990234375,-1.14990234375,-0.2263031005859375,0.1017608642578125
1782845616423405000,3.584405029296875,-1.124603271484375,-0.2266845703125,0.0902099609375
1782845616433410000,3.59441015625,-1.0839996337890625,-0.221099853515625,0.078887939453125
1782845616443415000,3.6044150390625,-1.02801513671875,-0.22637939453125,0.065582275390625
1782845616453420000,3.614419921875,-0.976165771484375,-0.2347259521484375,0.057830810546875
1782845616463425000,3.624425048828125,-0.9340972900390625,-0.230194091796875,0.049652099609375
1782845616473430000,3.634429931640625,-0.9029541015625,-0.2283935546875,0.0352325439453125
1782845616483435000,3.64443505859375,-0.8911285400390625,-0.2248382568359375,0.0204925537109375
1782845616493440000,3.65443994140625,-0.902099609375,-0.2175140380859375,0.00079345703125
1782845616503445000,3.664445068359375,-0.918304443359375,-0.2040863037109375,-0.0054168701171875
1782845616513450000,3.674449951171875,-0.9214935302734375,-0.1951751708984375,-0.0076446533203125
1782845616523455000,3.684455078125,-0.9078826904296875,-0.1881256103515625,-0.0038604736328125
1782845616533460000,3.6944599609375,-0.8838653564453125,-0.1858062744140625,0.0059967041015625
1782845616543466000,3.704466064453125,-0.8516387939453125,-0.181396484375,0.0232086181640625
1782845616553471000,3.714470947265625,-0.836761474609375,-0.17401123046875,0.0408935546875
1782845616563476000,3.72447607421875,-0.8444366455078125,-0.16448974609375,0.056427001953125
1782845616573481000,3.73448095703125,-0.86016845703125,-0.1487579345703125,0.061920166015625
1782845616583486200,3.744486328125,-0.880859375,-0.13299560546875,0.0714263916015625
1782845616593491200,3.7544912109375,-0.9094390869140625,-0.1212310791015625,0.0832366943359375
1782845616603496200,3.76449609375,-0.9445037841796875,-0.113037109375,0.0957489013671875
1782845616613501200,3.774501220703125,-0.9719390869140625,-0.1101837158203125,0.1126251220703125
1782845616623506200,3.784506103515625,-0.9867095947265625,-0.1139373779296875,0.12701416015625
1782845616633511200,3.79451123046875,-0.9937744140625,-0.118133544921875,0.1362152099609375
1782845616643516200,3.80451611328125,-0.9908599853515625,-0.126190185546875,0.1446380615234375
1782845616653521200,3.814521240234375,-0.9964599609375,-0.139862060546875,0.1595611572265625
1782845616663526100,3.824526123046875,-0.99090576171875,-0.1560516357421875,0.168365478515625
1782845616673531100,3.83453125,-0.9747467041015625,-0.1736602783203125,0.1697845458984375
1782845616683536100,3.8445361328125,-0.96466064453125,-0.18731689453125,0.1722564697265625
1782845616693541000,3.854541015625,-0.9649658203125,-0.19732666015625,0.1793670654296875
1782845616703546000,3.864546142578125,-0.9761505126953125,-0.21148681640625,0.178619384765625
1782845616713552000,3.8745517578125,-0.9896087646484375,-0.22113037109375,0.1762542724609375
1782845616723557000,3.88455712890625,-0.996185302734375,-0.238250732421875,0.1696014404296875
1782845616733562000,3.89456201171875,-0.996490478515625,-0.2572784423828125,0.170318603515625
1782845616743567000,3.904567138671875,-1.003448486328125,-0.2564697265625,0.1737060546875
1782845616753572000,3.914572021484375,-1.0115509033203125,-0.2485809326171875,0.169036865234375
1782845616763577000,3.9245771484375,-1.0169830322265625,-0.2320098876953125,0.1596221923828125
1782845616773582000,3.93458203125,-1.014190673828125,-0.2221221923828125,0.1439056396484375
1782845616783587000,3.944587158203125,-1.004852294921875,-0.220916748046875,0.13043212890625
1782845616793592000,3.954592041015625,-0.997039794921875,-0.211669921875,0.1276092529296875
1782845616803597000,3.96459716796875,-0.9886627197265625,-0.207061767578125,0.12359619140625
1782845616813602000,3.97460205078125,-0.983642578125,-0.208740234375,0.1204681396484375
1782845616823607000,3.98460693359375,-0.978179931640625,-0.206817626953125,0.1216888427734375
1782845616833612000,3.994612060546875,-0.9690093994140625,-0.2065582275390625,0.1223907470703125
1782845616843617000,4.004616943359375,-0.9644622802734375,-0.211090087890625,0.1270294189453125
1782845616853622000,4.0146220703125,-0.964324951171875,-0.215301513671875,0.132537841796875
1782845616863627000,4.024626953125,-0.9594573974609375,-0.2169189453125,0.137908935546875
1782845616873633000,4.034633056640625,-0.9556427001953125,-0.2235260009765625,0.140777587890625
1782845616883638000,4.044637939453125,-0.9513092041015625,-0.2226104736328125,0.1436004638671875
1782845616893643000,4.05464306640625,-0.9436187744140625,-0.2269287109375,0.12823486328125
1782845616903648000,4.06464794921875,-0.93719482421875,-0.2267608642578125,0.11834716796875
1782845616913653000,4.074653076171875,-0.9343109130859375,-0.2233734130859375,0.1126861572265625
1782845616923658000,4.084657958984375,-0.93792724609375,-0.22491455078125,0.10888671875
1782845616933663000,4.0946630859375,-0.9377288818359375,-0.2317047119140625,0.105712890625
1782845616943668000,4.10466796875,-0.9329071044921875,-0.2338104248046875,0.1044158935546875
1782845616953673000,4.1146728515625,-0.92279052734375,-0.23468017578125,0.1007232666015625
1782845616963678000,4.124677978515625,-0.9048004150390625,-0.23211669921875,0.0995635986328125
1782845616973683000,4.134682861328125,-0.894775390625,-0.2244873046875,0.103515625
1782845616983688000,4.14468798828125,-0.896881103515625,-0.2230377197265625,0.1124725341796875
1782845616993693000,4.15469287109375,-0.905853271484375,-0.2241668701171875,0.1209564208984375
1782845617003698000,4.164697998046875,-0.915496826171875,-0.227508544921875,0.12164306640625
1782845617013703000,4.174702880859375,-0.9218597412109375,-0.224395751953125,0.1236572265625
1782845617023708000,4.1847080078125,-0.9202423095703125,-0.2254486083984375,0.12384033203125
1782845617033713000,4.194712890625,-0.92120361328125,-0.2340087890625,0.1204376220703125
1782845617043719200,4.20471923828125,-0.9211578369140625,-0.239990234375,0.1287078857421875
1782845617053724200,4.21472412109375,-0.9199676513671875,-0.2469635009765625,0.135711669921875
1782845617063729200,4.224729248046875,-0.9287261962890625,-0.25079345703125,0.1480865478515625
1782845617073734100,4.234734130859375,-0.9389495849609375,-0.253387451171875,0.1584014892578125
1782845617083739100,4.2447392578125,-0.950164794921875,-0.2526397705078125,0.15985107421875
1782845617093744000,4.254744140625,-0.9667510986328125,-0.2521209716796875,0.1583099365234375
1782845617103749000,4.2647490234375,-0.983856201171875,-0.2562255859375,0.1584625244140625
1782845617113754000,4.274754150390625,-0.9872283935546875,-0.2525482177734375,0.1595611572265625
1782845617123759000,4.284759033203125,-0.9877471923828125,-0.2494049072265625,0.1531219482421875
1782845617133764000,4.29476416015625,-0.9904022216796875,-0.250091552734375,0.1456298828125
1782845617143769000,4.30476904296875,-0.99102783203125,-0.248382568359375,0.1468963623046875
1782845617153774000,4.314774169921875,-0.98333740234375,-0.24713134765625,0.1495361328125
1782845617163779000,4.324779052734375,-0.966827392578125,-0.2509765625,0.148468017578125
1782845617173784000,4.3347841796875,-0.945526123046875,-0.253936767578125,0.144805908203125
1782845617183789000,4.3447890625,-0.9259490966796875,-0.2523345947265625,0.14593505859375
1782845617193794000,4.3547939453125,-0.9157257080078125,-0.2551727294921875,0.14422607421875
1782845617203799000,4.364799072265625,-0.9095458984375,-0.2615966796875,0.14471435546875
1782845617213804000,4.374803955078125,-0.9097747802734375,-0.2621002197265625,0.1497802734375
1782845617223810000,4.38481005859375,-0.9081878662109375,-0.266265869140625,0.1467132568359375
1782845617233815000,4.39481494140625,-0.9047698974609375,-0.2713165283203125,0.147369384765625
1782845617243820000,4.404820068359375,-0.8987579345703125,-0.2730865478515625,0.147186279296875
1782845617253825000,4.414824951171875,-0.8969268798828125,-0.281463623046875,0.1461029052734375
1782845617263830000,4.424830078125,-0.900604248046875,-0.2851409912109375,0.1501617431640625
1782845617273835000,4.4348349609375,-0.9022064208984375,-0.2879486083984375,0.1416168212890625
1782845617283840000,4.444840087890625,-0.9024200439453125,-0.28753662109375,0.138336181640625
1782845617293845000,4.454844970703125,-0.905426025390625,-0.2843170166015625,0.1369781494140625
1782845617303850000,4.46485009765625,-0.907012939453125,-0.2847900390625,0.142486572265625
1782845617313855000,4.47485498046875,-0.9100341796875,-0.2882843017578125,0.148284912109375
1782845617323860000,4.48485986328125,-0.915496826171875,-0.293487548828125,0.1546630859375
1782845617333865000,4.494864990234375,-0.926727294921875,-0.2964019775390625,0.16400146484375
1782845617343870000,4.504869873046875,-0.9395904541015625,-0.2992095947265625,0.16204833984375
1782845617353875000,4.514875,-0.9506683349609375,-0.3022003173828125,0.1533050537109375
1782845617363880000,4.5248798828125,-0.95220947265625,-0.3043670654296875,0.14080810546875
1782845617373885000,4.534885009765625,-0.9639739990234375,-0.3112335205078125,0.13543701171875
1782845617383890000,4.544889892578125,-0.9761505126953125,-0.31561279296875,0.1283111572265625
1782845617393895000,4.55489501953125,-0.9791717529296875,-0.321441650390625,0.1242218017578125
1782845617403901000,4.56490087890625,-0.9800567626953125,-0.3318023681640625,0.121490478515625
1782845617413906000,4.574906005859375,-0.978057861328125,-0.34906005859375,0.1190185546875
1782845617423911000,4.584910888671875,-0.974273681640625,-0.3649749755859375,0.122802734375
1782845617433916000,4.594916015625,-0.9791412353515625,-0.3744659423828125,0.1294708251953125
1782845617443921000,4.6049208984375,-0.9937591552734375,-0.383819580078125,0.1239013671875
1782845617453926000,4.61492578125,-0.9920196533203125,-0.3851470947265625,0.116241455078125
1782845617463931000,4.624930908203125,-0.9835357666015625,-0.3792266845703125,0.1115264892578125
1782845617473936100,4.63493603515625,-0.9689483642578125,-0.3690032958984375,0.117889404296875
1782845617483941000,4.644941162109375,-0.9490509033203125,-0.350372314453125,0.1193084716796875
1782845617493946000,4.654946044921875,-0.935791015625,-0.3235321044921875,0.1254730224609375
1782845617503951000,4.664951171875,-0.9278106689453125,-0.3048553466796875,0.139251708984375
1782845617513956000,4.6749560546875,-0.9269561767578125,-0.283538818359375,0.163055419921875
1782845617523961000,4.684961181640625,-0.9370269775390625,-0.2571258544921875,0.1897125244140625
1782845617533966000,4.694966064453125,-0.968963623046875,-0.2352142333984375,0.214324951171875
1782845617543971000,4.70497119140625,-1.0177154541015625,-0.2133941650390625,0.2255859375
1782845617553976000,4.71497607421875,-1.07550048828125,-0.1965789794921875,0.2256622314453125
1782845617563981000,4.72498095703125,-1.1107025146484375,-0.1818695068359375,0.2268829345703125
1782845617573986000,4.734986083984375,-1.10980224609375,-0.177825927734375,0.22235107421875
1782845617583991000,4.744990966796875,-1.102081298828125,-0.1741180419921875,0.20330810546875
1782845617593997000,4.7549970703125,-1.0674591064453125,-0.1730194091796875,0.1795654296875
1782845617604002000,4.765001953125,-1.0294342041015625,-0.1817474365234375,0.1717376708984375
1782845617614007000,4.775007080078125,-0.998992919921875,-0.1900787353515625,0.16265869140625
1782845617624012000,4.785011962890625,-0.957977294921875,-0.1977081298828125,0.139678955078125
1782845617634017000,4.79501708984375,-0.9263153076171875,-0.20904541015625,0.1063385009765625
1782845617644022000,4.80502197265625,-0.9031524658203125,-0.21539306640625,0.0816802978515625
1782845617654027000,4.815027099609375,-0.9082183837890625,-0.2180938720703125,0.0736846923828125
1782845617664032000,4.825031982421875,-0.88580322265625,-0.2226409912109375,0.059600830078125
1782845617674037000,4.835037109375,-0.8846282958984375,-0.2161712646484375,0.050384521484375
1782845617684042000,4.8450419921875,-0.874755859375,-0.2022705078125,0.046600341796875
1782845617694047000,4.855046875,-0.87274169921875,-0.1905670166015625,0.0523834228515625
1782845617704052000,4.865052001953125,-0.885040283203125,-0.1844940185546875,0.0693817138671875
1782845617714057000,4.875056884765625,-0.9028778076171875,-0.1811065673828125,0.0898590087890625
1782845617724062000,4.88506201171875,-0.9199981689453125,-0.1701507568359375,0.1017608642578125
1782845617734067000,4.89506689453125,-0.91943359375,-0.149200439453125,0.11273193359375
1782845617744072000,4.905072021484375,-0.9149169921875,-0.136199951171875,0.1173248291015625
1782845617754077000,4.915076904296875,-0.9191131591796875,-0.1361846923828125,0.123291015625
1782845617764082000,4.92508203125,-0.9167327880859375,-0.13409423828125,0.130706787109375
1782845617774088000,4.935087890625,-0.9113922119140625,-0.13177490234375,0.1305084228515625
1782845617784093000,4.945093017578125,-0.9151153564453125,-0.1163482666015625,0.1351165771484375
1782845617794098000,4.955097900390625,-0.920074462890625,-0.102294921875,0.1215057373046875
1782845617804103000,4.96510302734375,-0.9404296875,-0.0947265625,0.111328125
1782845617814108000,4.97510791015625,-0.975494384765625,-0.082611083984375,0.0978546142578125
1782845617824113000,4.98511279296875,-1.0130767822265625,-0.0781402587890625,0.09136962890625
1782845617834118000,4.995117919921875,-1.0328521728515625,-0.0863037109375,0.0934600830078125
1782845617844123000,5.005122802734375,-1.0364837646484375,-0.093902587890625,0.1002655029296875
1782845617854127900,5.0151279296875,-1.0331878662109375,-0.09527587890625,0.1013946533203125
1782845617864132900,5.0251328125,-1.0223388671875,-0.1042938232421875,0.097747802734375
1782845617874137900,5.035137939453125,-1.005340576171875,-0.12457275390625,0.0923919677734375
1782845617884142800,5.045142822265625,-0.9883270263671875,-0.1521148681640625,0.0901641845703125
1782845617894147800,5.05514794921875,-0.977325439453125,-0.1738128662109375,0.0832672119140625
1782845617904152800,5.06515283203125,-0.979827880859375,-0.1942901611328125,0.0750579833984375
1782845617914157800,5.07515771484375,-0.9929046630859375,-0.2037506103515625,0.067413330078125
1782845617924162800,5.085162841796875,-1.0096282958984375,-0.1988372802734375,0.0517578125
1782845617934167300,5.095167236328125,-1.025299072265625,-0.1894073486328125,0.0316009521484375
1782845617944172300,5.10517236328125,-1.0327301025390625,-0.1851654052734375,0.0117950439453125
1782845617954177300,5.11517724609375,-1.0393524169921875,-0.173675537109375,0.0017547607421875
1782845617964183600,5.12518359375,-1.0450897216796875,-0.1649932861328125,-0.0048675537109375
1782845617974187300,5.135187255859375,-1.0485382080078125,-0.1533355712890625,-0.0170745849609375
1782845617984193500,5.145193603515625,-1.033172607421875,-0.1423187255859375,-0.0383758544921875
1782845617994198500,5.155198486328125,-1.0084228515625,-0.132171630859375,-0.05560302734375
1782845618004203500,5.16520361328125,-0.972900390625,-0.128265380859375,-0.067657470703125
1782845618014208500,5.17520849609375,-0.9401702880859375,-0.1240081787109375,-0.0679931640625
1782845618024213500,5.185213623046875,-0.9148406982421875,-0.1291656494140625,-0.059356689453125
1782845618034218500,5.195218505859375,-0.897796630859375,-0.1376953125,-0.05126953125
1782845618044223500,5.205223388671875,-0.8834686279296875,-0.1470184326171875,-0.0341033935546875
1782845618054228500,5.215228515625,-0.867095947265625,-0.1637420654296875,-0.02764892578125
1782845618064233500,5.2252333984375,-0.8509368896484375,-0.18310546875,-0.0219879150390625
1782845618074238500,5.235238525390625,-0.834014892578125,-0.200286865234375,-0.002685546875
1782845618084243500,5.245243408203125,-0.8243408203125,-0.21588134765625,0.0147247314453125
1782845618094248400,5.25524853515625,-0.8272705078125,-0.229583740234375,0.0279083251953125
1782845618104253400,5.26525341796875,-0.842010498046875,-0.2348785400390625,0.033660888671875
1782845618114258400,5.275258544921875,-0.872894287109375,-0.2364349365234375,0.03564453125
1782845618124263400,5.285263427734375,-0.906036376953125,-0.2374114990234375,0.031829833984375
1782845618134268400,5.295268310546875,-0.9377288818359375,-0.2418365478515625,0.0313720703125
1782845618144273400,5.3052734375,-0.97882080078125,-0.23577880859375,0.0311431884765625
1782845618154278400,5.3152783203125,-1.012176513671875,-0.2196197509765625,0.0162506103515625
1782845618164283400,5.325283447265625,-1.0311431884765625,-0.219512939453125,-0.0050048828125
1782845618174288400,5.335288330078125,-1.0336151123046875,-0.2361602783203125,-0.015777587890625
1782845618184294400,5.34529443359375,-1.0294342041015625,-0.2439727783203125,-0.0199127197265625
1782845618194299400,5.35529931640625,-1.010345458984375,-0.2459869384765625,-0.00933837890625
1782845618204304400,5.365304443359375,-0.988861083984375,-0.25921630859375,-0.0048675537109375
1782845618214309400,5.375309326171875,-0.96484375,-0.2635650634765625,-0.005462646484375
1782845618224314400,5.385314453125,-0.959991455078125,-0.2564239501953125,0.0001220703125
1782845618234319400,5.3953193359375,-0.9562835693359375,-0.2534637451171875,-0.0014190673828125
1782845618244324400,5.405324462890625,-0.944732666015625,-0.25396728515625,0.0009002685546875
1782845618254329300,5.415329345703125,-0.9366302490234375,-0.2606201171875,0.0052642822265625
1782845618264334300,5.425334228515625,-0.939208984375,-0.2754669189453125,0.0109100341796875
1782845618274339300,5.43533935546875,-0.945404052734375,-0.28277587890625,0.0146026611328125
1782845618284344300,5.44534423828125,-0.95147705078125,-0.2901153564453125,0.013916015625
1782845618294349300,5.455349365234375,-0.96331787109375,-0.288787841796875,0.01348876953125
1782845618304354300,5.465354248046875,-0.9791717529296875,-0.277069091796875,0.013031005859375
1782845618314359600,5.475359619140625,-0.9896240234375,-0.2667083740234375,0.0109100341796875
1782845618324364500,5.485364501953125,-0.990875244140625,-0.2534637451171875,0.008087158203125
1782845618334369500,5.49536962890625,-0.9925537109375,-0.2463836669921875,0.0025787353515625
1782845618344374500,5.50537451171875,-1.0041351318359375,-0.2420654296875,0.0035858154296875
1782845618354379500,5.515379638671875,-1.0165557861328125,-0.2377471923828125,0.009002685546875
1782845618364384500,5.525384521484375,-1.023406982421875,-0.235076904296875,0.00982666015625
1782845618374389500,5.535389404296875,-0.9979705810546875,-0.235260009765625,0.008026123046875
1782845618384394500,5.54539453125,-0.9600372314453125,-0.2451934814453125,0.00830078125
1782845618394400300,5.555400146484375,-0.93084716796875,-0.2654266357421875,0.01416015625
1782845618404405200,5.5654052734375,-0.91162109375,-0.28472900390625,0.0269012451171875
1782845618414410200,5.57541015625,-0.9087677001953125,-0.2934417724609375,0.0338592529296875
1782845618424415200,5.585415283203125,-0.9097900390625,-0.287139892578125,0.0374298095703125
1782845618434420200,5.595420166015625,-0.90618896484375,-0.280029296875,0.0277557373046875
1782845618444425500,5.605425537109375,-0.9061431884765625,-0.2762298583984375,0.016632080078125
1782845618454430500,5.615430419921875,-0.90557861328125,-0.2779388427734375,0.0110626220703125
1782845618464435500,5.625435546875,-0.910430908203125,-0.281341552734375,0.0137481689453125
1782845618474440400,5.6354404296875,-0.920440673828125,-0.2809906005859375,0.0167388916015625
1782845618484445700,5.64544580078125,-0.9218292236328125,-0.283477783203125,0.013580322265625
1782845618494450700,5.65545068359375,-0.91217041015625,-0.291168212890625,0.0014801025390625
1782845618504455700,5.66545556640625,-0.91461181640625,-0.2952117919921875,-0.0078125
1782845618514460700,5.675460693359375,-0.9264984130859375,-0.29754638671875,-0.00811767578125
1782845618524465700,5.685465576171875,-0.95452880859375,-0.30413818359375,-0.0166015625
1782845618534470700,5.695470703125,-0.9985809326171875,-0.30340576171875,-0.017547607421875
1782845618544475600,5.7054755859375,-1.0420989990234375,-0.3014984130859375,-0.023223876953125
1782845618554480600,5.715480712890625,-1.0666046142578125,-0.3016204833984375,-0.0214996337890625
1782845618564485600,5.725485595703125,-1.0740203857421875,-0.3065338134765625,-0.0225830078125
1782845618574490600,5.73549072265625,-1.0700531005859375,-0.30523681640625,-0.0118865966796875
1782845618584495600,5.74549560546875,-1.0616607666015625,-0.3074798583984375,-0.0050048828125
1782845618594500600,5.75550048828125,-1.0588226318359375,-0.2987060546875,0.0013885498046875
1782845618604505600,5.765505615234375,-1.0494537353515625,-0.27996826171875,0.0000762939453125
1782845618614511600,5.77551171875,-1.028656005859375,-0.2646026611328125,-0.0058746337890625
1782845618624516600,5.7855166015625,-1.0066375732421875,-0.2574462890625,-0.00048828125
1782845618634521600,5.795521484375,-0.993499755859375,-0.2473907470703125,0.025238037109375
1782845618644526600,5.805526611328125,-1.0038604736328125,-0.2443389892578125,0.051300048828125
1782845618654531600,5.815531494140625,-1.0388031005859375,-0.252349853515625,0.08453369140625
1782845618664536600,5.82553662109375,-1.0914764404296875,-0.2482452392578125,0.119903564453125
1782845618674541600,5.83554150390625,-1.1396942138671875,-0.2369537353515625,0.1418304443359375
1782845618684546600,5.845546630859375,-1.17889404296875,-0.231292724609375,0.16510009765625
1782845618694551600,5.855551513671875,-1.1910400390625,-0.2348785400390625,0.181060791015625
1782845618704556500,5.865556640625,-1.177520751953125,-0.238189697265625,0.1830902099609375
1782845618714561500,5.8755615234375,-1.1553802490234375,-0.2417755126953125,0.1659698486328125
1782845618724566500,5.88556640625,-1.126617431640625,-0.253326416015625,0.1282958984375
1782845618734571500,5.895571533203125,-1.097198486328125,-0.2635345458984375,0.0926361083984375
1782845618744576500,5.905576416015625,-1.0714874267578125,-0.267791748046875,0.0550994873046875
1782845618754581500,5.91558154296875,-1.037567138671875,-0.2684173583984375,0.010986328125
1782845618764586500,5.92558642578125,-1.0048065185546875,-0.2561492919921875,-0.0160064697265625
1782845618774591500,5.935591552734375,-0.9827728271484375,-0.2459716796875,-0.0349273681640625
1782845618784596500,5.945596435546875,-0.9506683349609375,-0.21502685546875,-0.0528106689453125
1782845618794601500,5.9556015625,-0.9069671630859375,-0.203125,-0.0587005615234375
1782845618804606500,5.9656064453125,-0.87890625,-0.18975830078125,-0.059814453125
1782845618814611500,5.975611572265625,-0.8468017578125,-0.166748046875,-0.034088134765625
1782845618824616400,5.985616455078125,-0.8151702880859375,-0.15435791015625,-0.01324462890625
1782845618834621400,5.995621337890625,-0.7910003662109375,-0.1454010009765625,0.007904052734375
1782845618844627500,6.00562744140625,-0.7865753173828125,-0.1357879638671875,0.024200439453125
1782845618854632400,6.015632568359375,-0.7998504638671875,-0.136810302734375,0.041778564453125
1782845618864637400,6.025637451171875,-0.81439208984375,-0.134002685546875,0.0623321533203125
1782845618874642400,6.035642333984375,-0.8312835693359375,-0.11273193359375,0.0982666015625
1782845618884647400,6.0456474609375,-0.8579864501953125,-0.095123291015625,0.1316986083984375
1782845618894652400,6.05565234375,-0.8813934326171875,-0.0901031494140625,0.1511688232421875
1782845618904657400,6.065657470703125,-0.911163330078125,-0.0901947021484375,0.1636199951171875
1782845618914662400,6.075662353515625,-0.941070556640625,-0.09210205078125,0.1728363037109375
1782845618924667400,6.08566748046875,-0.9602813720703125,-0.0940704345703125,0.1842041015625
1782845618934672100,6.095672119140625,-0.976776123046875,-0.10638427734375,0.19378662109375
1782845618944677000,6.105677001953125,-0.982025146484375,-0.123291015625,0.1918182373046875
1782845618954682000,6.11568212890625,-0.9802398681640625,-0.1430206298828125,0.1879119873046875
1782845618964687000,6.12568701171875,-0.9798126220703125,-0.162017822265625,0.1864013671875
1782845618974692000,6.135692138671875,-0.97991943359375,-0.1798248291015625,0.1881103515625
1782845618984697000,6.145697021484375,-0.97406005859375,-0.2006683349609375,0.1866302490234375
1782845618994702000,6.1557021484375,-0.9733734130859375,-0.2264862060546875,0.1787567138671875
1782845619004707000,6.16570703125,-0.9805755615234375,-0.2501068115234375,0.1716156005859375
1782845619014712000,6.175712158203125,-0.9915313720703125,-0.2686309814453125,0.168975830078125
1782845619024717300,6.18571728515625,-0.99456787109375,-0.2842864990234375,0.1707611083984375
1782845619034722300,6.195722412109375,-0.98785400390625,-0.282623291015625,0.1692047119140625
1782845619044727300,6.205727294921875,-0.9867706298828125,-0.26715087890625,0.16302490234375
1782845619054732300,6.215732177734375,-0.978668212890625,-0.2567138671875,0.1559600830078125
1782845619064738300,6.22573828125,-0.963714599609375,-0.250244140625,0.1414642333984375
1782845619074743300,6.235743408203125,-0.946563720703125,-0.25396728515625,0.12451171875
1782845619084748300,6.245748291015625,-0.9363861083984375,-0.2386016845703125,0.116851806640625
1782845619094753300,6.255753173828125,-0.9273834228515625,-0.2254486083984375,0.1113128662109375
1782845619104758300,6.26575830078125,-0.9187774658203125,-0.2343292236328125,0.106597900390625
1782845619114763300,6.27576318359375,-0.913848876953125,-0.240570068359375,0.1147613525390625
1782845619124768300,6.285768310546875,-0.9120941162109375,-0.2406158447265625,0.1262664794921875
1782845619134773200,6.295773193359375,-0.894744873046875,-0.247802734375,0.13446044921875
1782845619144778200,6.3057783203125,-0.8762054443359375,-0.2517852783203125,0.14111328125
1782845619154783200,6.315783203125,-0.8614959716796875,-0.2488250732421875,0.1501007080078125
1782845619164788200,6.325788330078125,-0.847686767578125,-0.2513427734375,0.1546173095703125
1782845619174793200,6.335793212890625,-0.8422393798828125,-0.2502593994140625,0.1594085693359375
1782845619184798200,6.345798095703125,-0.8419036865234375,-0.254058837890625,0.1586151123046875
1782845619194803200,6.35580322265625,-0.8503570556640625,-0.2573089599609375,0.1603546142578125
1782845619204808200,6.36580810546875,-0.8729095458984375,-0.257598876953125,0.1647186279296875
1782845619214813200,6.375813232421875,-0.9033050537109375,-0.260162353515625,0.1632537841796875
1782845619224818200,6.385818115234375,-0.9125518798828125,-0.256927490234375,0.1632232666015625
1782845619234823200,6.3958232421875,-0.9075469970703125,-0.25286865234375,0.168426513671875
1782845619244828200,6.405828125,-0.9034881591796875,-0.2529296875,0.1779327392578125
1782845619254833200,6.415833251953125,-0.8914642333984375,-0.2584381103515625,0.1833953857421875
1782845619264838100,6.425838134765625,-0.8756561279296875,-0.26910400390625,0.19146728515625
1782845619274843100,6.435843017578125,-0.8470611572265625,-0.2819366455078125,0.2007598876953125
1782845619284848000,6.44584814453125,-0.822418212890625,-0.2935791015625,0.207763671875
1782845619294853000,6.45585302734375,-0.8176727294921875,-0.3017120361328125,0.215179443359375
1782845619304858000,6.465858154296875,-0.8466339111328125,-0.305389404296875,0.22308349609375
1782845619314863000,6.475863037109375,-0.88970947265625,-0.312103271484375,0.235321044921875
1782845619324869000,6.485869140625,-0.9391326904296875,-0.324005126953125,0.2369384765625
1782845619334874000,6.4958740234375,-0.9887542724609375,-0.3251953125,0.2379913330078125
1782845619344879000,6.505879150390625,-1.0113677978515625,-0.3240814208984375,0.240875244140625
1782845619354884000,6.515884033203125,-1.02349853515625,-0.330078125,0.23980712890625
1782845619364889000,6.52588916015625,-1.0395965576171875,-0.3304595947265625,0.23681640625
1782845619374894000,6.53589404296875,-1.0447235107421875,-0.3251953125,0.2245635986328125
1782845619384899000,6.545899169921875,-1.0488433837890625,-0.320343017578125,0.2054595947265625
1782845619394904000,6.555904052734375,-1.04241943359375,-0.3202362060546875,0.1726531982421875
1782845619404909000,6.565908935546875,-1.0388031005859375,-0.322418212890625,0.1490020751953125
1782845619414914000,6.5759140625,-1.022705078125,-0.319671630859375,0.138275146484375
1782845619424919000,6.5859189453125,-0.9983062744140625,-0.320098876953125,0.128570556640625
1782845619434924000,6.595924072265625,-0.9662628173828125,-0.3162384033203125,0.132904052734375
1782845619444929000,6.605928955078125,-0.9263763427734375,-0.3150787353515625,0.138946533203125
1782845619454934000,6.61593408203125,-0.8910369873046875,-0.31842041015625,0.140380859375
1782845619464939000,6.62593896484375,-0.8617401123046875,-0.3195953369140625,0.1365509033203125
1782845619474944000,6.635944091796875,-0.84857177734375,-0.3199615478515625,0.134857177734375
1782845619484949000,6.645948974609375,-0.846649169921875,-0.316680908203125,0.1369171142578125
1782845619494954000,6.6559541015625,-0.849273681640625,-0.312286376953125,0.1373138427734375
1782845619504959200,6.665959228515625,-0.8548583984375,-0.308929443359375,0.133514404296875
1782845619514964200,6.675964111328125,-0.861083984375,-0.3064727783203125,0.1296539306640625
1782845619524969200,6.68596923828125,-0.8665313720703125,-0.309783935546875,0.123626708984375
1782845619534974200,6.69597412109375,-0.8724212646484375,-0.3213348388671875,0.1243743896484375
1782845619544979200,6.705979248046875,-0.883056640625,-0.327362060546875,0.1276092529296875
1782845619554984400,6.715984375,-0.8937225341796875,-0.334930419921875,0.1285858154296875
1782845619564989400,6.725989501953125,-0.9000091552734375,-0.34344482421875,0.1255950927734375
1782845619574995200,6.7359951171875,-0.9023284912109375,-0.345977783203125,0.122100830078125
1782845619585000200,6.746000244140625,-0.9123077392578125,-0.3477630615234375,0.1099853515625
1782845619595005200,6.756005126953125,-0.9235992431640625,-0.349090576171875,0.099639892578125
1782845619605010200,6.76601025390625,-0.9300537109375,-0.35565185546875,0.09356689453125
1782845619615015200,6.77601513671875,-0.9401092529296875,-0.360198974609375,0.0906982421875
1782845619625020200,6.786020263671875,-0.954071044921875,-0.3660736083984375,0.090087890625
1782845619635025200,6.796025146484375,-0.966705322265625,-0.3748779296875,0.082183837890625
1782845619645030100,6.806030029296875,-0.9674530029296875,-0.3855743408203125,0.07427978515625
1782845619655035100,6.81603515625,-0.9593353271484375,-0.3981170654296875,0.0703582763671875
1782845619665040100,6.8260400390625,-0.95794677734375,-0.4085693359375,0.0730743408203125
1782845619675045400,6.83604541015625,-0.9540863037109375,-0.4160614013671875,0.0797119140625
1782845619685050400,6.84605029296875,-0.9509124755859375,-0.423858642578125,0.08343505859375
1782845619695055400,6.856055419921875,-0.94879150390625,-0.4190826416015625,0.0904083251953125
1782845619705060400,6.866060302734375,-0.9527740478515625,-0.4019775390625,0.1079254150390625
1782845619715065300,6.8760654296875,-0.9573974609375,-0.3914794921875,0.1134033203125
1782845619725070300,6.8860703125,-0.974456787109375,-0.372039794921875,0.1257171630859375
1782845619735075300,6.896075439453125,-1.0006866455078125,-0.337921142578125,0.145416259765625
1782845619745080300,6.906080322265625,-1.0396270751953125,-0.3029937744140625,0.16314697265625
1782845619755085300,6.916085205078125,-1.0835418701171875,-0.278350830078125,0.18170166015625
1782845619765090300,6.92609033203125,-1.128509521484375,-0.2635345458984375,0.2028656005859375
1782845619775095300,6.93609521484375,-1.1634521484375,-0.249298095703125,0.2188262939453125
1782845619785100300,6.946100341796875,-1.174072265625,-0.2301177978515625,0.2216644287109375
1782845619795105300,6.956105224609375,-1.1558990478515625,-0.2190399169921875,0.2071533203125
1782845619805110300,6.9661103515625,-1.11102294921875,-0.2089080810546875,0.1874542236328125
1782845619815115300,6.976115234375,-1.04559326171875,-0.2070465087890625,0.172760009765625
1782845619825120300,6.986120361328125,-0.9698028564453125,-0.2119293212890625,0.1533050537109375
1782845619835126300,6.996126220703125,-0.913177490234375,-0.2133941650390625,0.130950927734375
1782845619845131300,7.00613134765625,-0.87274169921875,-0.2178955078125,0.1057281494140625
1782845619855136300,7.01613623046875,-0.82989501953125,-0.21136474609375,0.093963623046875
1782845619865141200,7.026141357421875,-0.793731689453125,-0.2185516357421875,0.087493896484375
1782845619875146200,7.036146240234375,-0.777679443359375,-0.2322845458984375,0.088165283203125
1782845619885151200,7.046151123046875,-0.7828216552734375,-0.2425079345703125,0.0874786376953125
1782845619895156200,7.05615625,-0.7981414794921875,-0.2396087646484375,0.0787506103515625
1782845619905161200,7.0661611328125,-0.8215179443359375,-0.2360992431640625,0.0770263671875
1782845619915166200,7.076166259765625,-0.8337860107421875,-0.22772216796875,0.0780487060546875
1782845619925171200,7.086171142578125,-0.8299407958984375,-0.21868896484375,0.0768585205078125
1782845619935176200,7.09617626953125,-0.8199462890625,-0.2135009765625,0.083404541015625
1782845619945181400,7.106181396484375,-0.8209991455078125,-0.2058868408203125,0.0828704833984375
1782845619955186400,7.1161865234375,-0.8290863037109375,-0.19512939453125,0.081939697265625
1782845619965191400,7.12619140625,-0.8328704833984375,-0.178253173828125,0.0850830078125
1782845619975196400,7.136196533203125,-0.85723876953125,-0.1610260009765625,0.0901031494140625
1782845619985201400,7.146201416015625,-0.9092864990234375,-0.15155029296875,0.096923828125
1782845619995206400,7.156206298828125,-0.958526611328125,-0.1413726806640625,0.100372314453125
1782845620005211400,7.16621142578125,-0.99481201171875,-0.128753662109375,0.102630615234375
1782845620015216400,7.17621630859375,-1.02142333984375,-0.1242218017578125,0.1026611328125
1782845620025221400,7.186221435546875,-1.0426177978515625,-0.120147705078125,0.0980072021484375
1782845620035226400,7.196226318359375,-1.05877685546875,-0.1127166748046875,0.0995941162109375
1782845620045231600,7.206231689453125,-1.0617523193359375,-0.1054840087890625,0.0963134765625
1782845620055236600,7.216236572265625,-1.0579071044921875,-0.1090545654296875,0.0885162353515625
1782845620065241600,7.22624169921875,-1.05584716796875,-0.10955810546875,0.0752410888671875
1782845620075246600,7.23624658203125,-1.050933837890625,-0.11187744140625,0.0648040771484375
1782845620085251600,7.24625146484375,-1.0342559814453125,-0.1263275146484375,0.0635986328125
1782845620095256600,7.256256591796875,-1.0144500732421875,-0.1377410888671875,0.0686798095703125
1782845620105262600,7.2662626953125,-0.991058349609375,-0.1448516845703125,0.07281494140625
1782845620115267600,7.276267578125,-0.975067138671875,-0.14801025390625,0.0761566162109375
1782845620125272600,7.2862724609375,-0.9686431884765625,-0.1492767333984375,0.0797119140625
1782845620135277600,7.296277587890625,-0.97015380859375,-0.149749755859375,0.07928466796875
1782845620145282600,7.306282470703125,-0.9770660400390625,-0.1490325927734375,0.072906494140625
1782845620155287600,7.31628759765625,-0.9898681640625,-0.1485595703125,0.073822021484375
1782845620165292500,7.32629248046875,-1.0068817138671875,-0.1497344970703125,0.07379150390625
1782845620175297500,7.336297607421875,-1.028533935546875,-0.153228759765625,0.0736083984375
1782845620185302500,7.346302490234375,-1.0406341552734375,-0.1591644287109375,0.0744171142578125
1782845620195307500,7.3563076171875,-1.02996826171875,-0.165283203125,0.0747222900390625
1782845620205312500,7.3663125,-1.0028839111328125,-0.169647216796875,0.0755615234375
1782845620215317500,7.3763173828125,-0.9740447998046875,-0.17626953125,0.07574462890625
1782845620225322500,7.386322509765625,-0.9494171142578125,-0.176361083984375,0.0699310302734375
1782845620235327500,7.396327392578125,-0.9266204833984375,-0.1714019775390625,0.058013916015625
1782845620245332500,7.40633251953125,-0.92071533203125,-0.1669921875,0.047637939453125
1782845620255337500,7.41633740234375,-0.9227447509765625,-0.1641845703125,0.0340118408203125
1782845620265342500,7.426342529296875,-0.9324188232421875,-0.1597442626953125,0.0244903564453125
1782845620275347500,7.436347412109375,-0.9509124755859375,-0.1555633544921875,0.020904541015625
1782845620285352400,7.4463525390625,-0.9539642333984375,-0.1532135009765625,0.017333984375
1782845620295357400,7.456357421875,-0.9517974853515625,-0.154541015625,0.01190185546875
1782845620305362400,7.466362548828125,-0.9550933837890625,-0.1566314697265625,0.0084991455078125
1782845620315367400,7.476367431640625,-0.95379638671875,-0.166412353515625,0.0085906982421875
1782845620325372400,7.486372314453125,-0.9567718505859375,-0.1721649169921875,0.01373291015625
1782845620335377400,7.49637744140625,-0.9579315185546875,-0.17730712890625,0.017974853515625
1782845620345382400,7.50638232421875,-0.9655609130859375,-0.183319091796875,0.0112762451171875
1782845620355387400,7.516387451171875,-0.9848785400390625,-0.1685791015625,0.0325927734375
1782845620365392400,7.526392333984375,-0.9927215576171875,-0.17803955078125,0.0391693115234375
1782845620375397400,7.5363974609375,-1.0024261474609375,-0.186370849609375,0.0348052978515625
1782845620385402400,7.54640234375,-0.997314453125,-0.178863525390625,0.0431671142578125
1782845620395407400,7.556407470703125,-1.000030517578125,-0.1839141845703125,0.0483551025390625
1782845620405412400,7.566412353515625,-1.00946044921875,-0.18780517578125,0.048248291015625
1782845620415418400,7.57641845703125,-1.010772705078125,-0.1868133544921875,0.050537109375
1782845620425423400,7.58642333984375,-1.0165557861328125,-0.1829681396484375,0.0472564697265625
1782845620435428400,7.596428466796875,-1.013641357421875,-0.179351806640625,0.040802001953125
1782845620445433300,7.606433349609375,-1.0071868896484375,-0.1778564453125,0.0390167236328125
1782845620455438300,7.616438232421875,-0.9970550537109375,-0.1779022216796875,0.041900634765625
1782845620465443300,7.626443359375,-0.984466552734375,-0.184478759765625,0.0486297607421875
1782845620475448300,7.6364482421875,-0.9725341796875,-0.1985321044921875,0.0496978759765625
1782845620485453300,7.646453369140625,-0.962371826171875,-0.2050018310546875,0.0603179931640625
1782845620495458300,7.656458251953125,-0.9481964111328125,-0.21734619140625,0.0668182373046875
1782845620505463300,7.66646337890625,-0.9402008056640625,-0.2247467041015625,0.0711517333984375
1782845620515468300,7.67646826171875,-0.932769775390625,-0.229583740234375,0.077545166015625
1782845620525473300,7.686473388671875,-0.9306488037109375,-0.2334747314453125,0.08038330078125
1782845620535478300,7.696478271484375,-0.9274749755859375,-0.230804443359375,0.075653076171875
1782845620545483300,7.706483154296875,-0.928680419921875,-0.2282867431640625,0.0668182373046875
1782845620555488300,7.71648828125,-0.9407806396484375,-0.2212677001953125,0.053802490234375
1782845620565493200,7.7264931640625,-0.9615325927734375,-0.2090301513671875,0.039764404296875
1782845620575498500,7.73649853515625,-0.979339599609375,-0.2013702392578125,0.0233612060546875
1782845620585503500,7.74650341796875,-0.987030029296875,-0.2005462646484375,0.0213165283203125
1782845620595508500,7.756508544921875,-0.98529052734375,-0.2005767822265625,0.0270538330078125
1782845620605513500,7.766513427734375,-0.973724365234375,-0.2056732177734375,0.0313873291015625
1782845620615518500,7.7765185546875,-0.957794189453125,-0.212860107421875,0.033050537109375
1782845620625523500,7.7865234375,-0.942138671875,-0.222381591796875,0.0343170166015625
1782845620635528400,7.796528564453125,-0.9284820556640625,-0.2246246337890625,0.0464935302734375
1782845620645533400,7.806533447265625,-0.9210968017578125,-0.2309722900390625,0.0550994873046875
1782845620655538400,7.816538330078125,-0.9249114990234375,-0.2342681884765625,0.0529632568359375
1782845620665543700,7.826543701171875,-0.9402008056640625,-0.2357330322265625,0.0535888671875
1782845620675548700,7.836548583984375,-0.962188720703125,-0.241729736328125,0.0601348876953125
1782845620685553700,7.8465537109375,-0.9820709228515625,-0.2509765625,0.062713623046875
1782845620695558700,7.85655859375,-1.0009002685546875,-0.25860595703125,0.0617523193359375
1782845620705563600,7.866563720703125,-1.00604248046875,-0.2725982666015625,0.062164306640625
1782845620715569400,7.8765693359375,-1.0019989013671875,-0.2841644287109375,0.0617218017578125
1782845620725574400,7.886574462890625,-0.9926605224609375,-0.2911834716796875,0.0592803955078125
1782845620735579400,7.896579345703125,-0.9871978759765625,-0.2952728271484375,0.0566864013671875
1782845620745584400,7.90658447265625,-0.9840545654296875,-0.293548583984375,0.0443267822265625
1782845620755589400,7.91658935546875,-0.9822235107421875,-0.2917633056640625,0.0299072265625
1782845620765594400,7.926594482421875,-0.9800567626953125,-0.2939605712890625,0.0108642578125
1782845620775599400,7.936599365234375,-0.9722900390625,-0.2932586669921875,0.0014190673828125
1782845620785604400,7.946604248046875,-0.9657440185546875,-0.2880401611328125,-0.0068359375
1782845620795609600,7.956609619140625,-0.97113037109375,-0.2834625244140625,-0.0173492431640625
1782845620805614600,7.966614501953125,-0.9773406982421875,-0.2805328369140625,-0.0247344970703125
1782845620815619600,7.97661962890625,-0.9780426025390625,-0.27923583984375,-0.03411865234375
1782845620825624600,7.98662451171875,-0.972564697265625,-0.27838134765625,-0.0460205078125
1782845620835629600,7.996629638671875,-0.9671478271484375,-0.2778778076171875,-0.051544189453125
1782845620845634600,8.006634521484376,-0.9692840576171875,-0.2795867919921875,-0.0544891357421875
1782845620855639600,8.0166396484375,-0.9775848388671875,-0.277587890625,-0.059661865234375
1782845620865644500,8.02664453125,-0.9898681640625,-0.265380859375,-0.0611724853515625
1782845620875649500,8.0366494140625,-0.9970550537109375,-0.255615234375,-0.0565643310546875
1782845620885654500,8.046654541015625,-1.0000762939453125,-0.2488250732421875,-0.053558349609375
1782845620895659500,8.056659423828124,-1.0193023681640625,-0.2383880615234375,-0.0435791015625
1782845620905664500,8.06666455078125,-1.049468994140625,-0.2313690185546875,-0.0263824462890625
1782845620915669500,8.07666943359375,-1.08148193359375,-0.2296600341796875,-0.0012359619140625
1782845620925674500,8.086674560546875,-1.1140899658203125,-0.2219390869140625,0.0277557373046875
1782845620935679500,8.096679443359376,-1.1335296630859375,-0.2115020751953125,0.048614501953125
1782845620945684700,8.106684814453125,-1.136749267578125,-0.19549560546875,0.064361572265625
1782845620955689700,8.116689697265626,-1.131011962890625,-0.186065673828125,0.071136474609375
1782845620965694700,8.12669482421875,-1.1092681884765625,-0.181915283203125,0.068603515625
1782845620975699700,8.13669970703125,-1.0756072998046875,-0.1843719482421875,0.0657806396484375
1782845620985704700,8.14670458984375,-1.03167724609375,-0.1872711181640625,0.060516357421875
1782845620995709700,8.156709716796875,-0.99188232421875,-0.1914520263671875,0.0432586669921875
1782845621005714700,8.166714599609374,-0.9561920166015625,-0.19696044921875,0.0455780029296875
1782845621015719700,8.1767197265625,-0.9311676025390625,-0.201416015625,0.0481109619140625
1782845621025724700,8.186724609375,-0.921875,-0.2017059326171875,0.0473785400390625
1782845621035729700,8.196729736328125,-0.936187744140625,-0.20343017578125,0.053985595703125
1782845621045734700,8.206734619140626,-0.939300537109375,-0.20709228515625,0.054779052734375
1782845621055739600,8.21673974609375,-0.92755126953125,-0.203521728515625,0.050628662109375
1782845621065746000,8.226745849609374,-0.912841796875,-0.193634033203125,0.0455474853515625
1782845621075751000,8.2367509765625,-0.9015350341796875,-0.18426513671875,0.0473480224609375
1782845621085756000,8.246755859375,-0.8892669677734375,-0.17425537109375,0.0495758056640625
1782845621095761000,8.256760986328125,-0.8869476318359375,-0.166656494140625,0.0599212646484375
1782845621105766000,8.266765869140626,-0.8888702392578125,-0.155426025390625,0.0825958251953125
1782845621115771000,8.27677099609375,-0.8945159912109375,-0.14642333984375,0.10150146484375
1782845621125776000,8.28677587890625,-0.9074554443359375,-0.1341094970703125,0.1176300048828125
1782845621135780900,8.29678076171875,-0.9244232177734375,-0.114654541015625,0.1382904052734375
1782845621145785900,8.306785888671875,-0.94146728515625,-0.0971221923828125,0.1527557373046875
1782845621155790800,8.316790771484374,-0.958404541015625,-0.090240478515625,0.161407470703125
1782845621165795800,8.3267958984375,-0.9638519287109375,-0.090362548828125,0.1719207763671875
1782845621175800800,8.33680078125,-0.9748382568359375,-0.09228515625,0.1783294677734375
1782845621185805800,8.346805908203125,-0.9852752685546875,-0.095245361328125,0.1866302490234375
1782845621195810800,8.356810791015626,-0.9977874755859375,-0.10296630859375,0.19232177734375
1782845621205815800,8.36681591796875,-1.0041961669921875,-0.1133880615234375,0.188720703125
1782845621215820800,8.37682080078125,-0.9952239990234375,-0.1256561279296875,0.188568115234375
1782845621225825800,8.38682568359375,-0.9818878173828125,-0.136444091796875,0.1905517578125
1782845621235830800,8.396830810546875,-0.972259521484375,-0.14886474609375,0.188323974609375
1782845621245835800,8.406835693359374,-0.9573211669921875,-0.156280517578125,0.19427490234375
1782845621255840800,8.4168408203125,-0.9337005615234375,-0.168914794921875,0.200286865234375
1782845621265845800,8.426845703125,-0.9210968017578125,-0.1831817626953125,0.19482421875
1782845621275850800,8.436850830078125,-0.9250030517578125,-0.1968994140625,0.18792724609375
1782845621285855700,8.446855712890626,-0.9367523193359375,-0.2063140869140625,0.1827850341796875
1782845621295860700,8.45686083984375,-0.9393157958984375,-0.219512939453125,0.1791229248046875
1782845621305865700,8.46686572265625,-0.9403533935546875,-0.2344512939453125,0.1759185791015625
1782845621315870700,8.47687060546875,-0.9484405517578125,-0.239898681640625,0.1749114990234375
1782845621325875700,8.486875732421876,-0.95361328125,-0.23974609375,0.1836700439453125
1782845621335880700,8.496880615234375,-0.9562835693359375,-0.2393035888671875,0.171661376953125
1782845621345885700,8.5068857421875,-0.9632110595703125,-0.2354278564453125,0.1623687744140625
1782845621355890700,8.516890625,-0.9775238037109375,-0.229339599609375,0.16046142578125
1782845621365895700,8.526895751953125,-0.9960479736328125,-0.22332763671875,0.1593475341796875
1782845621375900700,8.536900634765624,-1.0004119873046875,-0.21832275390625,0.156463623046875
1782845621385905700,8.54690576171875,-0.990692138671875,-0.212615966796875,0.1491851806640625
1782845621395910700,8.55691064453125,-0.9832611083984375,-0.20660400390625,0.146270751953125
1782845621405915600,8.56691552734375,-0.97528076171875,-0.2030487060546875,0.1438751220703125
1782845621415920600,8.576920654296876,-0.96673583984375,-0.2011260986328125,0.1400909423828125
1782845621425926700,8.5869267578125,-0.9506683349609375,-0.1982574462890625,0.14666748046875
1782845621435931600,8.596931640625,-0.923919677734375,-0.1996917724609375,0.142547607421875
1782845621445936600,8.6069365234375,-0.9074554443359375,-0.1970672607421875,0.1311798095703125
1782845621455941600,8.616941650390626,-0.9031982421875,-0.1922760009765625,0.12384033203125
1782845621465946600,8.626946533203125,-0.9078826904296875,-0.18988037109375,0.1241455078125
1782845621475951600,8.63695166015625,-0.917083740234375,-0.1912384033203125,0.131439208984375
1782845621485956600,8.64695654296875,-0.920013427734375,-0.1932220458984375,0.138397216796875
1782845621495961600,8.656961669921875,-0.9278106689453125,-0.2011871337890625,0.1484375
1782845621505966600,8.666966552734374,-0.939422607421875,-0.209991455078125,0.1517486572265625
1782845621515971600,8.6769716796875,-0.948333740234375,-0.2121734619140625,0.1600799560546875
1782845621525976600,8.6869765625,-0.942596435546875,-0.2255096435546875,0.1678924560546875
1782845621535981600,8.696981689453125,-0.941436767578125,-0.2410125732421875,0.1650848388671875
1782845621545986600,8.706986572265626,-0.9324798583984375,-0.2442474365234375,0.17626953125
1782845621555991600,8.716991455078125,-0.926300048828125,-0.2495574951171875,0.181427001953125
1782845621565996500,8.72699658203125,-0.926544189453125,-0.25567626953125,0.187255859375
1782845621576001500,8.73700146484375,-0.925933837890625,-0.262908935546875,0.18408203125
1782845621586006500,8.747006591796875,-0.935089111328125,-0.2669830322265625,0.1849822998046875
1782845621596011500,8.757011474609374,-0.955780029296875,-0.268157958984375,0.1824493408203125
1782845621606016500,8.7670166015625,-0.97540283203125,-0.260711669921875,0.1650848388671875
1782845621616021800,8.777021728515624,-0.96539306640625,-0.2574005126953125,0.1410369873046875
1782845621626026800,8.78702685546875,-0.953094482421875,-0.257781982421875,0.12603759765625
1782845621636031700,8.79703173828125,-0.9271392822265625,-0.2684173583984375,0.1190185546875
1782845621646036700,8.80703662109375,-0.8631134033203125,-0.2807769775390625,0.14996337890625
1782845621656041700,8.817041748046876,-0.9009552001953125,-0.2818450927734375,0.1386566162109375
1782845621666046700,8.827046630859375,-0.9156951904296875,-0.3048553466796875,0.1057281494140625
