time,seconds_elapsed,z,y,x
1782845612909119000,0.070118896484375,0.0010107902344316244,-0.17721346020698547,-0.15288668870925903
1782845612919124000,0.0801240234375,-0.026916012167930603,-0.17020979523658752,-0.12762169539928436
1782845612929129000,0.09012890625,-0.05854557827115059,-0.16785423457622528,-0.09506242722272873
1782845612939134700,0.100134765625,-0.08509606122970581,-0.15544383227825165,-0.0555947907269001
1782845612949139700,0.1101396484375,-0.10628549754619598,-0.13570821285247803,0.005511175375431776
1782845612959144700,0.120144775390625,-0.12396027892827988,-0.11583846062421799,0.0685260221362114
1782845612969150000,0.13014990234375,-0.14084552228450775,-0.06892155855894089,0.1248345673084259
1782845612979155000,0.140155029296875,-0.15610547363758087,-0.0327637679874897,0.15913239121437073
1782845612989160000,0.150159912109375,-0.1781998574733734,0.0023540034890174866,0.17480535805225372
1782845612999165700,0.160165771484375,-0.19453786313533783,0.035334374755620956,0.17423148453235626
1782845613009170700,0.170170654296875,-0.19344596564769745,0.06128927320241928,0.19158171117305756
1782845613019175700,0.18017578125,-0.18918900191783905,0.07022129744291306,0.21982842683792114
1782845613029180700,0.1901806640625,-0.17711317539215088,0.07589542865753174,0.2670063078403473
1782845613039185700,0.200185546875,-0.16574741899967194,0.07637543231248856,0.3240286707878113
1782845613049190700,0.210190673828125,-0.1610133796930313,0.08288872241973877,0.3631049692630768
1782845613059195600,0.220195556640625,-0.16746743023395538,0.08739972859621048,0.3787285387516022
1782845613069200600,0.23020068359375,-0.1930050104856491,0.0963468849658966,0.34419798851013184
1782845613079205600,0.24020556640625,-0.23385992646217346,0.11696606874465942,0.2565590739250183
1782845613089210600,0.250210693359375,-0.27925989031791687,0.14627043902873993,0.14831383526325226
1782845613099216000,0.2602158203125,-0.30738237500190735,0.1660175621509552,0.023223012685775757
1782845613109221600,0.2702216796875,-0.3042030930519104,0.14721378684043884,-0.11587735265493393
1782845613119226600,0.2802265625,-0.26716992259025574,0.13158684968948364,-0.25397080183029175
1782845613129231600,0.290231689453125,-0.19088847935199738,0.09179922193288803,-0.3586269021034241
1782845613139236600,0.300236572265625,-0.0897371917963028,0.04372284561395645,-0.38884007930755615
1782845613149241600,0.31024169921875,0.01952405273914337,-0.01585792750120163,-0.33789700269699097
1782845613159246600,0.32024658203125,0.10301104187965393,-0.04176871478557587,-0.25435081124305725
1782845613169251600,0.33025146484375,0.1451193392276764,-0.031226327642798424,-0.22094464302062988
1782845613179256600,0.340256591796875,0.14772304892539978,-0.0368802435696125,-0.21990422904491425
1782845613189261600,0.350261474609375,0.13650155067443848,-0.05725768953561783,-0.2514110207557678
1782845613199266600,0.3602666015625,0.1721397191286087,-0.12151012569665909,-0.1981457620859146
1782845613209272600,0.3702724609375,0.23255406320095062,-0.18960583209991455,-0.07293405383825302
1782845613219277600,0.380277587890625,0.2859784662723541,-0.21552756428718567,0.04030965641140938
1782845613229282600,0.390282470703125,0.3392520844936371,-0.21846316754817963,0.13668306171894073
1782845613239287600,0.40028759765625,0.37862762808799744,-0.20344895124435425,0.233697310090065
1782845613249292500,0.41029248046875,0.3960460424423218,-0.17467643320560455,0.3210947811603546
1782845613259297500,0.420297607421875,0.37868478894233704,-0.11433310061693192,0.39885514974594116
1782845613269302500,0.430302490234375,0.3303132653236389,-0.06443531811237335,0.4440609812736511
1782845613279307500,0.4403076171875,0.2669704556465149,-0.030620532110333443,0.4367712140083313
1782845613289312500,0.4503125,0.19507521390914917,-0.0036973049864172935,0.3966333866119385
1782845613299317500,0.4603173828125,0.10972002893686295,0.0333082377910614,0.3397906422615051
1782845613309322500,0.470322509765625,0.046073947101831436,0.051630523055791855,0.2850128710269928
1782845613319328800,0.480328857421875,0.008962604217231274,0.044815368950366974,0.23640881478786469
1782845613329333800,0.490333740234375,-0.014088120311498642,0.024601977318525314,0.16656288504600525
1782845613339338800,0.5003388671875,-0.03506752476096153,0.007132270373404026,0.06647071242332458
1782845613349343700,0.51034375,-0.054938167333602905,-0.013678468763828278,-0.07414312660694122
1782845613359348700,0.5203486328125,-0.07130683958530426,-0.040507588535547256,-0.21717104315757751
1782845613369353700,0.530353759765625,-0.07519452273845673,-0.07530605047941208,-0.3248668909072876
1782845613379358700,0.540358642578125,-0.07746537774801254,-0.11591056734323502,-0.3808046579360962
1782845613389363700,0.55036376953125,-0.0824846401810646,-0.17756487429141998,-0.3776160478591919
1782845613399368700,0.56036865234375,-0.07344487309455872,-0.2155025452375412,-0.34264418482780457
1782845613409373700,0.570373779296875,-0.05536600947380066,-0.22666651010513306,-0.2779158055782318
1782845613419378700,0.580378662109375,-0.008131662383675575,-0.23493699729442596,-0.20359838008880615
1782845613429384700,0.590384765625,0.06695829331874847,-0.24251128733158112,-0.13150820136070251
1782845613439389700,0.6003896484375,0.14715874195098877,-0.23316556215286255,-0.06918857991695404
1782845613449394700,0.610394775390625,0.22152218222618103,-0.21219715476036072,-0.019714506343007088
1782845613459399700,0.620399658203125,0.2739507853984833,-0.19015656411647797,0.024336308240890503
1782845613469404700,0.63040478515625,0.30475929379463196,-0.15659008920192719,0.048904769122600555
1782845613479409700,0.64040966796875,0.31515955924987793,-0.10398795455694199,0.05279717221856117
1782845613489414700,0.65041455078125,0.31196296215057373,-0.05183740332722664,0.05044533312320709
1782845613499419600,0.660419677734375,0.29366931319236755,-0.009899952448904514,0.05483704060316086
1782845613509424600,0.670424560546875,0.27511265873908997,0.019561799243092537,0.0763697698712349
1782845613519429600,0.6804296875,0.24285493791103363,0.030559491366147995,0.10984962433576584
1782845613529434600,0.6904345703125,0.2056974470615387,0.00358752952888608,0.14098116755485535
1782845613539439600,0.700439697265625,0.17086158692836761,-0.04062847048044205,0.17590056359767914
1782845613549445600,0.710445556640625,0.1282544732093811,-0.09115076810121536,0.18195179104804993
1782845613559450600,0.72045068359375,0.09530746936798096,-0.1332991123199463,0.17240814864635468
1782845613569455600,0.73045556640625,0.07214383035898209,-0.14000175893306732,0.13778412342071533
1782845613579460600,0.740460693359375,0.0569632388651371,-0.10721234232187271,0.07873842120170593
1782845613589465600,0.750465576171875,0.05408569425344467,-0.058736421167850494,0.01225712988525629
1782845613599470600,0.760470703125,0.04246733337640762,-0.019728543236851692,-0.05847261846065521
1782845613609475600,0.7704755859375,0.030633844435214996,0.002921375911682844,-0.10234793275594711
1782845613619480600,0.78048046875,0.02399441972374916,0.017033804208040237,-0.1196981742978096
1782845613629485600,0.790485595703125,0.015017969533801079,0.028335727751255035,-0.12170939892530441
1782845613639490600,0.800490478515625,-0.002341386629268527,-0.015494722872972488,-0.09945732355117798
1782845613649495600,0.81049560546875,-0.011829164810478687,-0.033098749816417694,-0.07150052487850189
1782845613659501800,0.820501708984375,-0.014469465240836143,-0.05083721876144409,-0.03860725462436676
1782845613669506800,0.8305068359375,-0.015210356563329697,-0.07247460633516312,0.006088046822696924
1782845613679511800,0.84051171875,-0.00955162849277258,-0.0933394581079483,0.059590116143226624
1782845613689516800,0.850516845703125,0.009867608547210693,-0.0810399055480957,0.10092557221651077
1782845613699521800,0.860521728515625,0.034703951328992844,-0.06388401985168457,0.12831032276153564
1782845613709526800,0.87052685546875,0.07239273935556412,-0.04409966245293617,0.11448930948972702
1782845613719531800,0.88053173828125,0.09793739020824432,-0.026184432208538055,0.07872050255537033
1782845613729536800,0.890536865234375,0.11862748861312866,0.011075587943196297,0.024639690294861794
1782845613739541800,0.900541748046875,0.13570047914981842,0.07282201945781708,-0.024320615455508232
1782845613749546800,0.910546630859375,0.13816949725151062,0.14908535778522491,-0.048514898866415024
1782845613759551700,0.9205517578125,0.0761527344584465,0.12985949218273163,-0.013256559148430824
1782845613769556700,0.930556640625,0.0482553206384182,0.10029095411300659,-0.014975628815591335
1782845613779562800,0.940562744140625,0.01770244725048542,0.08416733145713806,-0.026095565408468246
1782845613789567700,0.950567626953125,-0.013960672542452812,0.055820904672145844,-0.0343063548207283
1782845613799572700,0.96057275390625,-0.04287862032651901,0.036767829209566116,-0.04320606589317322
1782845613809577700,0.97057763671875,-0.07285089790821075,0.019715871661901474,-0.05295350030064583
1782845613819582700,0.980582763671875,-0.09413508325815201,0.011953292414546013,-0.07013235241174698
1782845613829587700,0.990587646484375,-0.10675447434186935,0.022001665085554123,-0.10080477595329285
1782845613839592700,1.0005927734375,-0.11604931205511093,0.028557956218719482,-0.12119057774543762
1782845613849597700,1.01059765625,-0.11008276045322418,0.024311812594532967,-0.11954474449157715
1782845613859602700,1.020602783203125,-0.10972998291254044,0.021634366363286972,-0.10649918764829636
1782845613869607700,1.030607666015625,-0.10393920540809631,0.05416115000844002,-0.08349932730197906
1782845613879612700,1.04061279296875,-0.08648388087749481,0.07153648138046265,-0.030071666464209557
1782845613889617700,1.05061767578125,-0.0705999881029129,0.08337903022766113,0.02587415836751461
1782845613899623700,1.060623779296875,-0.045512910932302475,0.08139224350452423,0.055801309645175934
1782845613909628700,1.070628662109375,-0.014723839238286018,0.08034535497426987,0.05369262024760246
1782845613919633700,1.080633544921875,0.017712440341711044,0.07483602315187454,0.046036526560783386
1782845613929638700,1.090638671875,0.0428292416036129,0.06574638932943344,0.0224132239818573
1782845613939643100,1.10064306640625,0.0570615716278553,0.05555938184261322,-0.012235676869750023
1782845613949648100,1.110648193359375,0.0608360730111599,0.046570949256420135,-0.04706422984600067
1782845613959653000,1.120653076171875,0.05747991055250168,0.041080623865127563,-0.06800569593906403
1782845613969658000,1.130658203125,0.06221980229020119,0.03863717243075371,-0.086183100938797
1782845613979663000,1.1406630859375,0.07171104848384857,0.03646882623434067,-0.11145623028278351
1782845613989668000,1.150668212890625,0.0766482800245285,0.04318665340542793,-0.13187041878700256
1782845613999673000,1.160673095703125,0.06679893285036087,0.045727211982011795,-0.12782515585422516
1782845614009679000,1.17067919921875,0.050401315093040466,0.05229882523417473,-0.09580677002668381
1782845614019684000,1.18068408203125,0.03579898923635483,0.06705351918935776,-0.053050871938467026
1782845614029689000,1.190689208984375,0.023095179349184036,0.07685182243585587,0.0011630994267761707
1782845614039694000,1.200694091796875,0.01254119910299778,0.083328478038311,0.06163858249783516
1782845614049699000,1.210698974609375,0.01692556031048298,0.09896069765090942,0.08597934246063232
1782845614059704000,1.2207041015625,0.02209249883890152,0.11288944631814957,0.09772638976573944
1782845614069709000,1.230708984375,0.019717492163181305,0.12330614030361176,0.11137508600950241
1782845614079714000,1.240714111328125,0.022456904873251915,0.13406866788864136,0.1367568075656891
1782845614089719000,1.250718994140625,0.027150193229317665,0.1464102864265442,0.15484552085399628
1782845614099724000,1.26072412109375,0.03154950216412544,0.13784414529800415,0.1693296730518341
1782845614109729000,1.27072900390625,0.05313308909535408,0.1281995177268982,0.1853344738483429
1782845614119734000,1.280734130859375,0.08140112459659576,0.12755966186523438,0.218894362449646
1782845614129740300,1.290740234375,0.12199036031961441,0.13115014135837555,0.2620604634284973
1782845614139745300,1.300745361328125,0.16524899005889893,0.1313766986131668,0.3269727826118469
1782845614149750300,1.310750244140625,0.21302396059036255,0.15304604172706604,0.3885844647884369
1782845614159755300,1.32075537109375,0.257035493850708,0.17893874645233154,0.4188690483570099
1782845614169760300,1.33076025390625,0.2974897027015686,0.17899014055728912,0.39825698733329773
1782845614179765200,1.34076513671875,0.31757184863090515,0.1496886909008026,0.2993457615375519
1782845614189770200,1.350770263671875,0.3218563497066498,0.09096518903970718,0.1393427699804306
1782845614199775200,1.360775146484375,0.2959992587566376,-0.012328998185694218,-0.05603799223899841
1782845614209780200,1.3707802734375,0.2409714162349701,-0.13874739408493042,-0.2652721703052521
1782845614219785200,1.38078515625,0.1283048838376999,-0.2724456191062927,-0.47249865531921387
1782845614229790200,1.390790283203125,0.006918254774063826,-0.3946477174758911,-0.6402447819709778
1782845614239795200,1.400795166015625,-0.0906110629439354,-0.43813011050224304,-0.7601580023765564
1782845614249800200,1.41080029296875,-0.12262438982725143,-0.48037585616111755,-0.7958480715751648
1782845614259806200,1.42080615234375,-0.0963079184293747,-0.548619270324707,-0.7483857274055481
1782845614269811200,1.430811279296875,-0.04895984008908272,-0.5455126762390137,-0.6834932565689087
1782845614279816200,1.440816162109375,0.03239813446998596,-0.6209325790405273,-0.5381879806518555
1782845614289821200,1.4508212890625,0.11220694333314896,-0.6662934422492981,-0.3305719792842865
1782845614299826200,1.460826171875,0.17792518436908722,-0.6720724701881409,-0.1066492572426796
1782845614309831200,1.4708310546875,0.21076355874538422,-0.5882551074028015,0.10123389959335327
1782845614319836200,1.480836181640625,0.2045893371105194,-0.4538160562515259,0.2701666057109833
1782845614329841200,1.490841064453125,0.17130407691001892,-0.35250169038772583,0.38898274302482605
1782845614339846100,1.50084619140625,0.12919871509075165,-0.2951292097568512,0.44610166549682617
1782845614349851100,1.51085107421875,0.08371245115995407,-0.2533918619155884,0.4545481503009796
1782845614359856000,1.520856201171875,0.05736785754561424,-0.22769305109977722,0.4135773181915283
1782845614369861000,1.530861083984375,0.04572371765971184,-0.17993217706680298,0.34985798597335815
1782845614379866000,1.5408662109375,0.04111393168568611,-0.12145340442657471,0.2906465530395508
1782845614389872000,1.5508720703125,0.03606804087758064,-0.08293797075748444,0.2533646821975708
1782845614399877000,1.560877197265625,0.011405646800994873,-0.05340470001101494,0.23097626864910126
1782845614409882000,1.570882080078125,-0.01822574809193611,-0.026251643896102905,0.21496641635894775
1782845614419887000,1.58088720703125,-0.05789552628993988,0.006391134113073349,0.19482024013996124
1782845614429892000,1.59089208984375,-0.1017998605966568,0.04832740128040314,0.15503713488578796
1782845614439897000,1.60089697265625,-0.13889853656291962,0.0991499051451683,0.11451873183250427
1782845614449902000,1.610902099609375,-0.1721523553133011,0.17422574758529663,0.06605319678783417
1782845614459907000,1.620906982421875,-0.1902822107076645,0.26070019602775574,0.02391367405653
1782845614469912000,1.630912109375,-0.1939709484577179,0.3314252495765686,0.008616743609309196
1782845614479917000,1.6409169921875,-0.190365269780159,0.3796924352645874,0.02286270260810852
1782845614489922000,1.650922119140625,-0.16591985523700714,0.3999364674091339,0.022707171738147736
1782845614499927000,1.660927001953125,-0.1355082392692566,0.38642099499702454,0.005889649968594313
1782845614509933300,1.670933349609375,-0.09459729492664337,0.33992886543273926,-0.003468697890639305
1782845614519938300,1.680938232421875,-0.051209956407547,0.2808872163295746,0.003484622808173299
1782845614529943300,1.690943359375,-0.00041308789514005184,0.21383947134017944,0.006815438624471426
1782845614539948300,1.7009482421875,0.05467000976204872,0.15719205141067505,0.004771306179463863
1782845614549953300,1.710953369140625,0.10795187950134277,0.11610719561576843,-0.01688258908689022
1782845614559958300,1.720958251953125,0.15338045358657837,0.10532412678003311,-0.0535852313041687
1782845614569963300,1.73096337890625,0.19633804261684418,0.1209651380777359,-0.1164049357175827
1782845614579968300,1.74096826171875,0.24484169483184814,0.15508045256137848,-0.18905840814113617
1782845614589973200,1.75097314453125,0.29049625992774963,0.17866887152194977,-0.2501009702682495
1782845614599978200,1.760978271484375,0.3368220329284668,0.20886962115764618,-0.31139877438545227
1782845614609983200,1.770983154296875,0.3605659604072571,0.24737361073493958,-0.36576882004737854
1782845614619988200,1.78098828125,0.35115310549736023,0.26335516571998596,-0.40043875575065613
1782845614629993200,1.7909931640625,0.3307943046092987,0.25991517305374146,-0.39612311124801636
1782845614639999200,1.800999267578125,0.2930547893047333,0.25301796197891235,-0.3687342703342438
1782845614650004200,1.811004150390625,0.22764675319194794,0.24596033990383148,-0.3246490955352783
1782845614660009200,1.82100927734375,0.1488438993692398,0.23546817898750305,-0.28404659032821655
1782845614670014200,1.83101416015625,0.06804146617650986,0.22728988528251648,-0.23101747035980225
1782845614680019200,1.841019287109375,-0.0027453682851046324,0.21813391149044037,-0.18225601315498352
1782845614690024200,1.851024169921875,-0.06727642565965652,0.1910538226366043,-0.1485837996006012
1782845614700029200,1.861029296875,-0.12178094685077667,0.16770775616168976,-0.12699489295482635
1782845614710034200,1.8710341796875,-0.17600184679031372,0.12658081948757172,-0.10986703634262085
1782845614720039200,1.8810390625,-0.22918839752674103,0.09183730185031891,-0.1019609197974205
1782845614730044200,1.891044189453125,-0.2856404781341553,0.07401648908853531,-0.08373957127332687
1782845614740049200,1.901049072265625,-0.3478488326072693,0.05790949985384941,-0.0353868305683136
1782845614750054100,1.91105419921875,-0.40208303928375244,0.04725286364555359,0.03475603833794594
1782845614760059100,1.92105908203125,-0.4344371557235718,0.03707283362746239,0.09453407675027847
1782845614770065200,1.931065185546875,-0.4531879425048828,0.017422163859009743,0.13588924705982208
1782845614780070100,1.941070068359375,-0.4572252035140991,0.012497641146183014,0.16282939910888672
1782845614790075100,1.9510751953125,-0.4515790343284607,0.02379370480775833,0.18326117098331451
1782845614800080100,1.961080078125,-0.4294639527797699,0.04011285677552223,0.1862919181585312
1782845614810085000,1.971085205078125,-0.39090272784233093,0.06037471815943718,0.16876405477523804
1782845614820090000,1.981090087890625,-0.3421016037464142,0.07650115340948105,0.13473525643348694
1782845614830095000,1.99109521484375,-0.29292047023773193,0.08810161054134369,0.09437824040651321
1782845614840100000,2.00110009765625,-0.2508736848831177,0.08687230199575424,0.06937888264656067
1782845614850105000,2.01110498046875,-0.21823185682296753,0.07022088021039963,0.055276915431022644
1782845614860110000,2.021110107421875,-0.18682219088077545,0.04880362004041672,0.037024110555648804
1782845614870115000,2.031114990234375,-0.1496681571006775,0.034768231213092804,0.018442172557115555
1782845614880120000,2.0411201171875,-0.11908411979675293,0.02726683020591736,0.008113375864923
1782845614890125000,2.051125,-0.10406868904829025,0.015110829845070839,0.00439480459317565
1782845614900131300,2.06113134765625,-0.10040456056594849,0.00014270353130996227,0.0019895038567483425
1782845614910136300,2.07113623046875,-0.09980402141809464,-0.012584010139107704,0.0034417258575558662
1782845614920141300,2.081141357421875,-0.09698423743247986,-0.025414805859327316,0.0017617137636989355
1782845614930146300,2.091146240234375,-0.09103500097990036,-0.03245939686894417,0.004989731125533581
1782845614940151800,2.10115185546875,-0.08891963958740234,-0.03534476459026337,0.0055647604167461395
1782845614950156800,2.11115673828125,-0.08995800465345383,-0.03755119442939758,-0.0015685160178691149
1782845614960161800,2.121161865234375,-0.106915183365345,-0.03788161650300026,-0.003422350389882922
1782845614970166800,2.131166748046875,-0.12147974222898483,-0.041056904941797256,-0.005841033533215523
1782845614980171800,2.141171875,-0.1336386650800705,-0.03849467635154724,-0.012893084436655045
1782845614990176800,2.1511767578125,-0.1587163209915161,-0.03717827796936035,-0.018959764391183853
1782845615000181800,2.161181640625,-0.201274573802948,-0.02735985815525055,-0.03130314126610756
1782845615010186800,2.171186767578125,-0.24317514896392822,-0.01108261663466692,-0.036147166043519974
1782845615020191700,2.181191650390625,-0.27531635761260986,-0.005640688817948103,-0.02598951756954193
1782845615030197500,2.191197509765625,-0.2747610807418823,-0.006929658818989992,-0.005077312234789133
1782845615040202500,2.201202392578125,-0.24450118839740753,-0.01340462826192379,0.020501062273979187
1782845615050207500,2.21120751953125,-0.20146477222442627,-0.018318958580493927,0.02852809615433216
1782845615060212700,2.221212646484375,-0.15578356385231018,-0.015491988509893417,0.020606745034456253
1782845615070217700,2.2312177734375,-0.10835054516792297,-0.0003055785782635212,-0.002245573326945305
1782845615080222700,2.24122265625,-0.06370588392019272,-0.010105963796377182,-0.028700845316052437
1782845615090227700,2.251227783203125,-0.031068576499819756,-0.013691643252968788,-0.05226369574666023
1782845615100232700,2.261232666015625,-0.009742545895278454,-0.022933803498744965,-0.07292690873146057
1782845615110237700,2.27123779296875,0.0058132437989115715,-0.04970123618841171,-0.08913756906986237
1782845615120242700,2.28124267578125,0.026281150057911873,-0.07123252749443054,-0.10212679207324982
1782845615130247700,2.29124755859375,0.038259249180555344,-0.10302774608135223,-0.09901595860719681
1782845615140252700,2.301252685546875,0.03698477894067764,-0.13135355710983276,-0.07243022322654724
1782845615150257700,2.311257568359375,0.03738345205783844,-0.14508774876594543,-0.03599391132593155
1782845615160263400,2.321263427734375,0.03846726194024086,-0.14987389743328094,0.016731737181544304
1782845615170268400,2.331268310546875,0.03004581481218338,-0.14783579111099243,0.06630008667707443
1782845615180273400,2.3412734375,0.024322234094142914,-0.14026425778865814,0.1096501499414444
1782845615190278700,2.351278564453125,0.009398411028087139,-0.14218120276927948,0.144756481051445
1782845615200283600,2.36128369140625,-0.015514819882810116,-0.1362178921699524,0.15447472035884857
1782845615210288600,2.37128857421875,-0.05084511265158653,-0.11519917100667953,0.13228659331798553
1782845615220293600,2.381293701171875,-0.08382456004619598,-0.0907735750079155,0.062273651361465454
1782845615230298600,2.391298583984375,-0.11688876897096634,-0.07215781509876251,-0.035611096769571304
1782845615240303600,2.4013037109375,-0.14892257750034332,-0.055551618337631226,-0.14975427091121674
1782845615250308600,2.41130859375,-0.1694909781217575,-0.07384327799081802,-0.25592198967933655
1782845615260313600,2.421313720703125,-0.1653086394071579,-0.11730199307203293,-0.3276419937610626
1782845615270318600,2.431318603515625,-0.15405412018299103,-0.1874280869960785,-0.3480522036552429
1782845615280323600,2.441323486328125,-0.1454133242368698,-0.26560378074645996,-0.3353613018989563
1782845615290328600,2.45132861328125,-0.13538385927677155,-0.30866682529449463,-0.2805422842502594
1782845615300334600,2.46133447265625,-0.1123664528131485,-0.3313904106616974,-0.19883334636688232
1782845615310339600,2.471339599609375,-0.06733452528715134,-0.31208810210227966,-0.11323430389165878
1782845615320344600,2.481344482421875,-0.020917128771543503,-0.2818455696105957,-0.032178714871406555
1782845615330349600,2.491349609375,0.026832817122340202,-0.23991969227790833,0.04633500427007675
1782845615340354600,2.5013544921875,0.06577344238758087,-0.21541470289230347,0.13019588589668274
1782845615350359600,2.511359619140625,0.09838517755270004,-0.1865239292383194,0.23731568455696106
1782845615360364800,2.52136474609375,0.11604034155607224,-0.16436952352523804,0.3552778661251068
1782845615370369800,2.531369873046875,0.11935384571552277,-0.132974311709404,0.4630429446697235
1782845615380374800,2.541374755859375,0.11514995247125626,-0.10948540270328522,0.5386884808540344
1782845615390379800,2.5513798828125,0.10323044657707214,-0.09386277198791504,0.565606415271759
1782845615400384800,2.561384765625,0.07616026699542999,-0.07083310186862946,0.5471711158752441
1782845615410389800,2.5713896484375,0.03997989743947983,-0.038634154945611954,0.46845290064811707
1782845615420394800,2.581394775390625,0.005695031024515629,-0.0034049171954393387,0.3463590443134308
1782845615430399700,2.591399658203125,-0.026542268693447113,0.03638004884123802,0.1942102611064911
1782845615440405500,2.601405517578125,-0.045922283083200455,0.07114855945110321,0.0405101552605629
1782845615450410500,2.611410400390625,-0.05541405454277992,0.09188365936279297,-0.09096983820199966
1782845615460415500,2.62141552734375,-0.05971846729516983,0.08607102930545807,-0.19869932532310486
1782845615470420500,2.63142041015625,-0.05591307580471039,0.06757909804582596,-0.28020480275154114
1782845615480425500,2.641425537109375,-0.04280811920762062,0.05514242872595787,-0.33701393008232117
1782845615490430700,2.6514306640625,-0.000397811527363956,0.0476783886551857,-0.3732478618621826
1782845615500435700,2.661435791015625,0.057709090411663055,0.06597774475812912,-0.3674744665622711
1782845615510440700,2.671440673828125,0.11451804637908936,0.08843351900577545,-0.3102652430534363
1782845615520445700,2.68144580078125,0.16578367352485657,0.09513717144727707,-0.2078036367893219
1782845615530450700,2.69145068359375,0.20855963230133057,0.10735335946083069,-0.07400881499052048
1782845615540455700,2.70145556640625,0.23639996349811554,0.11558153480291367,0.059395696967840195
1782845615550460700,2.711460693359375,0.26160863041877747,0.1223483607172966,0.16734027862548828
1782845615560465700,2.721465576171875,0.2811061441898346,0.14652690291404724,0.22748354077339172
1782845615570470700,2.731470703125,0.2938286066055298,0.18107663094997406,0.25147196650505066
1782845615580476400,2.741476318359375,0.3009139597415924,0.22234953939914703,0.2627951502799988
1782845615590481400,2.7514814453125,0.29523104429244995,0.2573978006839752,0.2558805048465729
1782845615600486400,2.761486328125,0.27479737997055054,0.26850688457489014,0.22981594502925873
1782845615610491400,2.771491455078125,0.24054968357086182,0.24644072353839874,0.18542903661727905
1782845615620496400,2.781496337890625,0.18540352582931519,0.20232051610946655,0.12553884088993073
1782845615630501600,2.791501708984375,0.12708216905593872,0.14628228545188904,0.039241496473550797
1782845615640506600,2.801506591796875,0.06977647542953491,0.08141116797924042,-0.0601917989552021
1782845615650511600,2.81151171875,0.019244596362113953,0.02335452474653721,-0.1776723712682724
1782845615660516600,2.8215166015625,-0.03286733105778694,-0.030828677117824554,-0.2923567593097687
1782845615670521600,2.831521484375,-0.0759655311703682,-0.07726062089204788,-0.38533836603164673
1782845615680526600,2.841526611328125,-0.10962752997875214,-0.1177576407790184,-0.44387945532798767
1782845615690531600,2.851531494140625,-0.13341914117336273,-0.14894485473632812,-0.4590171277523041
1782845615700536600,2.86153662109375,-0.136286199092865,-0.15381276607513428,-0.4244951009750366
1782845615710541600,2.87154150390625,-0.1256425976753235,-0.1355954110622406,-0.3416564166545868
1782845615720547600,2.881547607421875,-0.10669253766536713,-0.10896444320678711,-0.20932668447494507
1782845615730552600,2.891552490234375,-0.07218675315380096,-0.07046391814947128,-0.05221962183713913
1782845615740557600,2.9015576171875,-0.03943726420402527,-0.03393334150314331,0.09646107256412506
1782845615750562600,2.9115625,-0.004774090833961964,-0.004685438238084316,0.20394225418567657
1782845615760567600,2.921567626953125,0.035036906599998474,0.010862627997994423,0.26403290033340454
1782845615770572500,2.931572509765625,0.06909793615341187,0.01697458326816559,0.2859709560871124
1782845615780577500,2.94157763671875,0.09561355412006378,0.026780996471643448,0.27859121561050415
1782845615790582800,2.951582763671875,0.12278153002262115,0.038071464747190475,0.25302883982658386
1782845615800587800,2.961587890625,0.1365516185760498,0.04933678358793259,0.2180950939655304
1782845615810592800,2.9715927734375,0.1515798270702362,0.04662381857633591,0.17877298593521118
1782845615820597800,2.98159765625,0.16925303637981415,0.03625666722655296,0.13271774351596832
1782845615830602800,2.991602783203125,0.19131945073604584,0.016773780807852745,0.09225606918334961
1782845615840607700,3.001607666015625,0.2027212530374527,0.0049190097488462925,0.05026010423898697
1782845615850612700,3.01161279296875,0.20554207265377045,-0.01767631433904171,0.016720253974199295
1782845615860618500,3.021618408203125,0.2066887766122818,-0.031920742243528366,-0.007650251965969801
1782845615870623500,3.03162353515625,0.205589160323143,-0.04288337752223015,-0.020454997196793556
1782845615880628500,3.04162841796875,0.1950477659702301,-0.05655030533671379,-0.01949840411543846
1782845615890633500,3.051633544921875,0.17193712294101715,-0.06867088377475739,-0.006140253506600857
1782845615900638500,3.061638427734375,0.14123600721359253,-0.07490333169698715,0.024563034996390343
1782845615910643500,3.0716435546875,0.10433072596788406,-0.05823754146695137,0.04837675392627716
1782845615920648400,3.0816484375,0.07672034949064255,-0.03506629168987274,0.06392081081867218
1782845615930653700,3.09165380859375,0.052369728684425354,-0.027138065546751022,0.08482955396175385
1782845615940659000,3.101658935546875,0.028289010748267174,-0.015247486531734467,0.10789912194013596
1782845615950664000,3.111663818359375,0.0029160110279917717,-0.0037783170118927956,0.12008548527956009
1782845615960669000,3.1216689453125,-0.01371433399617672,0.01662169024348259,0.13174985349178314
1782845615970674000,3.131673828125,-0.023603981360793114,0.034809213131666183,0.12729306519031525
1782845615980679000,3.141678955078125,-0.02855699509382248,0.04660888388752937,0.09586895257234573
1782845615990684200,3.15168408203125,-0.01797812059521675,0.04928269609808922,0.059959158301353455
1782845616000689200,3.161689208984375,0.0028306508902460337,0.04579095542430878,0.0258006788790226
1782845616010695000,3.17169482421875,0.0314822681248188,0.04072988033294678,0.010344757698476315
1782845616020700000,3.181699951171875,0.0650915801525116,0.028997618705034256,0.011724356561899185
1782845616030705000,3.191704833984375,0.09615069627761841,0.01451881043612957,0.011501450091600418
1782845616040710000,3.2017099609375,0.1234414353966713,0.01566053181886673,-0.00025085790548473597
1782845616050715000,3.21171484375,0.14460133016109467,0.025377606973052025,-0.01700214110314846
1782845616060719900,3.221719970703125,0.17033229768276215,0.043609827756881714,-0.027724597603082657
1782845616070724900,3.231724853515625,0.1909952312707901,0.045353129506111145,-0.029451657086610794
1782845616080729900,3.241729736328125,0.19558028876781464,0.046668779104948044,-0.026703380048274994
1782845616090734800,3.25173486328125,0.18058934807777405,0.03531332686543465,-0.022366954013705254
1782845616100739800,3.26173974609375,0.15279768407344818,0.027320140972733498,-0.012689069844782352
1782845616110744800,3.271744873046875,0.11761972308158875,0.02618217281997204,-0.004678281955420971
1782845616120749800,3.281749755859375,0.08871447294950485,0.02125406637787819,0.008144956082105637
1782845616130755000,3.291755126953125,0.07183695584535599,0.018769336864352226,0.016795169562101364
1782845616140760000,3.301760009765625,0.05783967301249504,0.02491782419383526,0.026826677843928337
1782845616150765000,3.31176513671875,0.044325992465019226,0.021826693788170815,0.04207779839634895
1782845616160770800,3.321770751953125,0.033973898738622665,0.020450396463274956,0.04831086844205856
1782845616170775800,3.33177587890625,0.0172207523137331,0.03538114205002785,0.06251643598079681
1782845616180780800,3.34178076171875,0.01094425655901432,0.05906085669994354,0.06410284340381622
1782845616190786000,3.3517861328125,0.01889432594180107,0.0876392349600792,0.05538365617394447
1782845616200791000,3.361791015625,0.04390040785074234,0.10940179228782654,0.05497393757104874
1782845616210796000,3.371796142578125,0.07707806676626205,0.12065764516592026,0.04730616509914398
1782845616220801000,3.381801025390625,0.1147257462143898,0.1264152079820633,0.04164440184831619
1782845616230806000,3.391805908203125,0.1517929583787918,0.12540319561958313,0.035221654921770096
1782845616240811000,3.40181103515625,0.18196691572666168,0.11880698800086975,0.038883160799741745
1782845616250816000,3.41181591796875,0.19311171770095825,0.10177953541278839,0.04980957880616188
1782845616260821000,3.421821044921875,0.1951262354850769,0.0754418671131134,0.05630757287144661
1782845616270826000,3.431825927734375,0.20516741275787354,0.05676191672682762,0.05715792253613472
1782845616280831000,3.4418310546875,0.21288520097732544,0.03118707425892353,0.05386367067694664
1782845616290836000,3.4518359375,0.20288103818893433,0.02961154840886593,0.031810034066438675
1782845616300841200,3.46184130859375,0.18449510633945465,0.018350129947066307,-0.008270583115518093
1782845616310847000,3.471846923828125,0.15515214204788208,0.009134527295827866,-0.059333499521017075
1782845616320852000,3.48185205078125,0.12422613054513931,0.011461088433861732,-0.11772482097148895
1782845616330857000,3.49185693359375,0.11323366314172745,0.0043592373840510845,-0.18760350346565247
1782845616340862000,3.501862060546875,0.12419156730175018,-0.008401976898312569,-0.2673494517803192
1782845616350867000,3.511866943359375,0.15682141482830048,-0.01738082617521286,-0.3418412506580353
1782845616360872000,3.521871826171875,0.19793380796909332,-0.025884611532092094,-0.3936084806919098
1782845616370877000,3.531876953125,0.24100591242313385,-0.03530687838792801,-0.42201802134513855
1782845616380882000,3.5418818359375,0.2875897288322449,-0.04559478908777237,-0.4148152768611908
1782845616390887000,3.551886962890625,0.33045944571495056,-0.053331539034843445,-0.37469741702079773
1782845616400892000,3.561891845703125,0.3533532917499542,-0.06875218451023102,-0.3013535141944885
1782845616410897000,3.57189697265625,0.3773430585861206,-0.07924637198448181,-0.1979866474866867
1782845616420902000,3.58190185546875,0.3758240044116974,-0.07705835998058319,-0.08193331211805344
1782845616430907100,3.5919072265625,0.3707751929759979,-0.07917051762342453,0.03098764456808567
1782845616440912100,3.601912109375,0.3496890068054199,-0.08055341988801956,0.11771626770496368
1782845616450917000,3.611917236328125,0.3333798050880432,-0.09044493734836578,0.1692548245191574
1782845616460922000,3.621922119140625,0.31494081020355225,-0.1056816354393959,0.19243182241916656
1782845616470928000,3.631927978515625,0.2888796627521515,-0.10598549991846085,0.19806760549545288
1782845616480932900,3.641932861328125,0.2509397566318512,-0.07963039726018906,0.1985882669687271
1782845616490937900,3.651937744140625,0.21363447606563568,-0.047015465795993805,0.22100143134593964
1782845616500942800,3.66194287109375,0.17353858053684235,-0.04022454842925072,0.2571699917316437
1782845616510947800,3.67194775390625,0.14543157815933228,-0.04391489177942276,0.2895718514919281
1782845616520952800,3.681952880859375,0.11712628602981567,-0.04356446862220764,0.309574693441391
1782845616530957800,3.691957763671875,0.08633081614971161,-0.03517737612128258,0.2928590774536133
1782845616540962800,3.701962890625,0.06143493950366974,-0.02183331549167633,0.23806342482566833
1782845616550967800,3.7119677734375,0.0386931374669075,-0.008510585874319077,0.16660894453525543
1782845616560973000,3.72197314453125,0.017654919996857643,0.017539704218506813,0.08711043000221252
1782845616570978000,3.73197802734375,-0.009262713603675365,0.04850587621331215,0.02119746245443821
1782845616580983000,3.741983154296875,-0.040271174162626266,0.08010638505220413,-0.024281952530145645
1782845616590988000,3.751988037109375,-0.07169061154127121,0.09968301653862,-0.04622000828385353
1782845616600993000,3.761992919921875,-0.09715735912322998,0.11293996870517731,-0.03351619839668274
1782845616610998000,3.771998046875,-0.12003923952579498,0.11310242116451263,-0.00142990006133914
1782845616621003000,3.7820029296875,-0.13756555318832397,0.10729116201400757,0.03396199271082878
1782845616631009000,3.792009033203125,-0.16046607494354248,0.10606904327869415,0.0604439340531826
1782845616641014000,3.802013916015625,-0.1754509061574936,0.0944683775305748,0.08927956968545914
1782845616651019000,3.81201904296875,-0.18763647973537445,0.08242343366146088,0.12323833256959915
1782845616661024000,3.82202392578125,-0.19307945668697357,0.07946544140577316,0.10114772617816925
1782845616671029000,3.832029052734375,-0.19370929896831512,0.07148527354001999,0.04564931243658066
1782845616681034000,3.842033935546875,-0.18258920311927795,0.06861133873462677,-0.014909670688211918
1782845616691039000,3.8520390625,-0.16850054264068604,0.05132422596216202,-0.05310339480638504
1782845616701044000,3.8620439453125,-0.16069835424423218,0.0392380990087986,-0.06082409247756004
1782845616711049000,3.872049072265625,-0.14374707639217377,0.04167063161730766,-0.06741355359554291
1782845616721054000,3.882053955078125,-0.1205405443906784,0.06566014140844345,-0.07183630764484406
1782845616731059200,3.89205908203125,-0.08617404848337173,0.10242028534412384,-0.08505703508853912
1782845616741064200,3.902064208984375,-0.04222650080919266,0.13088467717170715,-0.09539289027452469
1782845616751069200,3.912069091796875,0.0010173777118325233,0.14587055146694183,-0.10121695697307587
1782845616761074200,3.92207421875,0.02563042752444744,0.1474483162164688,-0.09417189657688141
1782845616771079200,3.9320791015625,0.038119588047266006,0.14047136902809143,-0.09245575219392776
1782845616781084200,3.942084228515625,0.04824485257267952,0.14687904715538025,-0.1057981625199318
1782845616791090000,3.95208984375,0.059589654207229614,0.15417557954788208,-0.12347515672445297
1782845616801095000,3.962094970703125,0.06517928093671799,0.1627168506383896,-0.15028396248817444
1782845616811100000,3.972099853515625,0.06585812568664551,0.17345711588859558,-0.16959694027900696
1782845616821105000,3.98210498046875,0.050105515867471695,0.17199181020259857,-0.17328590154647827
1782845616831110000,3.99210986328125,0.03408021107316017,0.17200805246829987,-0.17071302235126495
1782845616841115000,4.002114990234375,0.01509424950927496,0.17315225303173065,-0.16012781858444214
1782845616851119900,4.012119873046875,0.006171328015625477,0.17038629949092865,-0.13744620978832245
1782845616861125000,4.022125,-0.002502822782844305,0.15557532012462616,-0.10613861680030823
1782845616871130000,4.032130126953125,-0.012673968449234962,0.13614009320735931,-0.06318342685699463
1782845616881135000,4.042135009765625,-0.023781275376677513,0.12589558959007263,-0.03154880926012993
1782845616891140000,4.05214013671875,-0.0432729497551918,0.12258342653512955,-0.015142670832574368
1782845616901145000,4.06214501953125,-0.06318795680999756,0.12586134672164917,0.0011222503380849957
1782845616911150000,4.072150146484375,-0.0810585618019104,0.13213041424751282,0.015536610037088394
1782845616921155000,4.082155029296875,-0.08894032984972,0.14157769083976746,0.030327335000038147
1782845616931160000,4.09216015625,-0.096730075776577,0.1481570303440094,0.04816758632659912
1782845616941165000,4.1021650390625,-0.09826911240816116,0.1556425243616104,0.05992633104324341
1782845616951170000,4.112170166015625,-0.1037035584449768,0.16534973680973053,0.06402626633644104
1782845616961175800,4.12217578125,-0.11649744212627411,0.16907313466072083,0.05009934678673744
1782845616971180800,4.132180908203125,-0.1230006143450737,0.1621989756822586,0.02446003258228302
1782845616981185800,4.142185791015625,-0.12030081450939178,0.15512339770793915,-0.0035025579854846
1782845616991190800,4.152190673828125,-0.10837838053703308,0.15756604075431824,-0.02079499512910843
1782845617001196000,4.162196044921875,-0.09278419613838196,0.15320400893688202,-0.03487223759293556
1782845617011201000,4.172200927734375,-0.08435528725385666,0.1447700411081314,-0.04570890590548515
1782845617021206000,4.1822060546875,-0.08356153964996338,0.1408262848854065,-0.06528618186712265
1782845617031211000,4.1922109375,-0.0939534604549408,0.13889256119728088,-0.0840606689453125
1782845617041216000,4.202216064453125,-0.09789498150348663,0.1323755979537964,-0.11843191832304001
1782845617051221000,4.212220947265625,-0.1046181321144104,0.1214987114071846,-0.1574336439371109
1782845617061226000,4.22222607421875,-0.11301138997077942,0.09638994932174683,-0.19126081466674805
1782845617071231000,4.23223095703125,-0.12214896082878113,0.052516765892505646,-0.2062637209892273
1782845617081236000,4.242236083984375,-0.1194072812795639,0.021175403147935867,-0.21218763291835785
1782845617091241000,4.252240966796875,-0.11806158721446991,0.0025900015607476234,-0.18471446633338928
1782845617101246000,4.262245849609375,-0.11582697182893753,-0.02573533169925213,-0.14301596581935883
1782845617111251000,4.2722509765625,-0.1133294627070427,-0.04305093735456467,-0.09226065874099731
1782845617121256000,4.282255859375,-0.11060155183076859,-0.035999760031700134,-0.047055356204509735
1782845617131262000,4.292261962890625,-0.1083138957619667,-0.019261259585618973,-0.0005666838260367513
1782845617141267000,4.302266845703125,-0.09463321417570114,-0.005650592967867851,0.04976590722799301
1782845617151272000,4.31227197265625,-0.07203922420740128,0.01345918606966734,0.08928242325782776
1782845617161277000,4.32227685546875,-0.051978401839733124,0.02624042145907879,0.11785735189914703
1782845617171282200,4.3322822265625,-0.02439364418387413,0.035607289522886276,0.13115212321281433
1782845617181287200,4.342287109375,-0.003453945741057396,0.040296707302331924,0.13051244616508484
1782845617191292200,4.352292236328125,0.008389131166040897,0.036874279379844666,0.1180001050233841
1782845617201297200,4.362297119140625,0.018054073676466942,0.02534705214202404,0.10546048730611801
1782845617211302100,4.37230224609375,0.02249462902545929,0.012833656743168831,0.0945681631565094
1782845617221307100,4.38230712890625,0.018876362591981888,-0.0010397415608167648,0.08601740002632141
1782845617231312100,4.39231201171875,0.013014478608965874,-0.004433674272149801,0.07897333800792694
1782845617241317000,4.402317138671875,0.007122640032321215,-0.0028034080751240253,0.06447173655033112
1782845617251322000,4.412322021484375,0.005372410640120506,0.006687832064926624,0.04579472541809082
1782845617261327000,4.4223271484375,0.0104783084243536,0.01524021103978157,0.02658900059759617
1782845617271332000,4.43233203125,0.014424314722418785,0.02450614608824253,-0.002355566481128335
1782845617281337000,4.442337158203125,0.013509111478924751,0.02984856814146042,-0.0347684808075428
1782845617291342000,4.452342041015625,0.004545444622635841,0.026837332174181938,-0.06730085611343384
1782845617301348000,4.46234814453125,0.007196440827101469,0.01673533394932747,-0.0911703109741211
1782845617311353000,4.47235302734375,0.010322459042072296,0.0037446997594088316,-0.11700856685638428
1782845617321358000,4.482358154296875,0.01882859505712986,-0.020098581910133362,-0.13337396085262299
1782845617331363000,4.492363037109375,0.032211512327194214,-0.05227090045809746,-0.13016565144062042
1782845617341368000,4.5023681640625,0.05033637955784798,-0.07931651175022125,-0.11977076530456543
1782845617351373000,4.512373046875,0.0709492489695549,-0.09395510703325272,-0.09928014129400253
1782845617361378000,4.5223779296875,0.08322462439537048,-0.09675740450620651,-0.06696244329214096
1782845617371383000,4.532383056640625,0.08578978478908539,-0.09737472981214523,-0.012788420543074608
1782845617381388000,4.542387939453125,0.08573658764362335,-0.1057482361793518,0.060518160462379456
1782845617391393000,4.55239306640625,0.08464069664478302,-0.09323031455278397,0.1310969889163971
1782845617401398000,4.56239794921875,0.09182586520910263,-0.06765566766262054,0.20928236842155457
1782845617411403000,4.572403076171875,0.09948404878377914,-0.05060557648539543,0.2801131308078766
1782845617421408000,4.582407958984375,0.10466506332159042,-0.04941027611494064,0.3432134985923767
1782845617431413000,4.5924130859375,0.10991761833429337,-0.046420346945524216,0.39335229992866516
1782845617441418000,4.60241796875,0.101985402405262,-0.02724183350801468,0.4392308294773102
1782845617451423000,4.612423095703125,0.07791975140571594,-0.01671169511973858,0.4499220848083496
1782845617461428000,4.622427978515625,0.03891036659479141,0.0009914033580571413,0.4238589406013489
1782845617471433000,4.632432861328125,-0.016070062294602394,0.011122601106762886,0.34617507457733154
1782845617481438000,4.64243798828125,-0.07910355925559998,0.016055693849921227,0.20905449986457825
1782845617491444000,4.65244384765625,-0.14084495604038239,0.008807634934782982,0.026395732536911964
1782845617501449000,4.662448974609375,-0.1982872039079666,0.0014333423459902406,-0.1798277497291565
1782845617511454000,4.672453857421875,-0.2332603633403778,-0.02448693849146366,-0.38795191049575806
1782845617521459000,4.682458984375,-0.2399739772081375,-0.08810048550367355,-0.562953770160675
1782845617531464000,4.6924638671875,-0.22405652701854706,-0.1636013686656952,-0.6718717217445374
1782845617541469000,4.702468994140625,-0.18900328874588013,-0.2433656007051468,-0.6804140210151672
1782845617551474000,4.712473876953125,-0.13846874237060547,-0.29314088821411133,-0.6005340814590454
1782845617561479000,4.72247900390625,-0.08038406074047089,-0.3172509968280792,-0.49785342812538147
1782845617571484000,4.73248388671875,-0.021654965355992317,-0.31405359506607056,-0.38481929898262024
1782845617581489000,4.742489013671875,0.03411661088466644,-0.2964956760406494,-0.26453664898872375
1782845617591494000,4.752493896484375,0.09144914150238037,-0.2717631757259369,-0.13030986487865448
1782845617601499100,4.7624990234375,0.14947569370269775,-0.24927754700183868,0.02069108933210373
1782845617611504000,4.772504150390625,0.2021801769733429,-0.2450825423002243,0.15309041738510132
1782845617621509000,4.782509033203125,0.22999919950962067,-0.23622776567935944,0.2508682608604431
1782845617631514000,4.79251416015625,0.22705639898777008,-0.20618943870067596,0.3141516149044037
1782845617641519000,4.80251904296875,0.19724427163600922,-0.18441364169120789,0.3442545533180237
1782845617651524000,4.812524169921875,0.15213164687156677,-0.1524735540151596,0.3450375199317932
1782845617661529000,4.822529052734375,0.10581488162279129,-0.12783198058605194,0.32471826672554016
1782845617671534000,4.8325341796875,0.056732822209596634,-0.0827055275440216,0.28488457202911377
1782845617681540000,4.8425400390625,0.014325062744319439,-0.042510535567998886,0.22480560839176178
1782845617691545000,4.852545166015625,-0.01776443049311638,0.0011024565901607275,0.16656175255775452
1782845617701550000,4.862550048828125,-0.033012401312589645,0.03129582852125168,0.1206187903881073
1782845617711555000,4.87255517578125,-0.03182942420244217,0.03336004540324211,0.10106159746646881
1782845617721560000,4.88256005859375,-0.025983083993196487,0.0271589457988739,0.08767373859882355
1782845617731565000,4.89256494140625,-0.016469741240143776,0.0034200605005025864,0.06121150404214859
1782845617741570000,4.902570068359375,-0.01051993016153574,-0.03240935876965523,0.04036424309015274
1782845617751575000,4.912574951171875,0.0021955992560833693,-0.06868267059326172,0.03284613788127899
1782845617761580000,4.922580078125,0.007131992373615503,-0.11525945365428925,0.03316655382514
1782845617771585000,4.9325849609375,0.008860116824507713,-0.18374024331569672,0.060877278447151184
1782845617781590000,4.942590087890625,0.020593078806996346,-0.19968630373477936,0.06166382133960724
1782845617791595000,4.952594970703125,0.025110865011811256,-0.18568846583366394,0.0158689022064209
1782845617801600000,4.96260009765625,0.03143300488591194,-0.1574884057044983,-0.03656899556517601
1782845617811605000,4.97260498046875,0.03348497301340103,-0.12866874039173126,-0.07164495438337326
1782845617821610000,4.98260986328125,0.04080628976225853,-0.10883825272321701,-0.07590822875499725
1782845617831615000,4.992614990234375,0.06517128646373749,-0.09543322771787643,-0.07103997468948364
1782845617841620000,5.002619873046875,0.1004037857055664,-0.08662853389978409,-0.05988231301307678
1782845617851625000,5.012625,0.1505814641714096,-0.08906026929616928,-0.05175700783729553
1782845617861630000,5.0226298828125,0.21616707742214203,-0.0912054106593132,-0.06615344434976578
1782845617871635000,5.032635009765625,0.2696545422077179,-0.10659289360046387,-0.09666288644075394
1782845617881641000,5.042640869140625,0.315168172121048,-0.12707310914993286,-0.14009763300418854
1782845617891646000,5.05264599609375,0.3525983691215515,-0.14670459926128387,-0.20194049179553986
1782845617901651000,5.06265087890625,0.3795081675052643,-0.15972302854061127,-0.2519761621952057
1782845617911656000,5.072656005859375,0.3967667818069458,-0.1740068942308426,-0.27223241329193115
1782845617921661000,5.082660888671875,0.4031493067741394,-0.18525424599647522,-0.2540592551231384
1782845617931666000,5.092666015625,0.3901093900203705,-0.19418595731258392,-0.21267372369766235
1782845617941670400,5.10267041015625,0.3522394597530365,-0.19938668608665466,-0.13991567492485046
1782845617951675400,5.11267529296875,0.3083218038082123,-0.2015923112630844,-0.05453180521726608
1782845617961680400,5.122680419921875,0.27353939414024353,-0.2126442790031433,0.04782276600599289
1782845617971685400,5.132685302734375,0.23612412810325623,-0.20012210309505463,0.15535801649093628
1782845617981690400,5.1426904296875,0.19841980934143066,-0.17319516837596893,0.2540868818759918
1782845617991695400,5.1526953125,0.15642015635967255,-0.14128144085407257,0.34401625394821167
1782845618001700400,5.162700439453125,0.11129578948020935,-0.10609887540340424,0.40352749824523926
1782845618011705300,5.172705322265625,0.07049217075109482,-0.07343227416276932,0.43702661991119385
1782845618021710300,5.18271044921875,0.029122911393642426,-0.04808627441525459,0.44540467858314514
1782845618031715300,5.19271533203125,-0.0062555838376283646,-0.017585355788469315,0.42300084233283997
1782845618041720300,5.20272021484375,-0.035756926983594894,0.018455782905220985,0.3969157636165619
1782845618051725300,5.212725341796875,-0.0666450709104538,0.04326951876282692,0.3505977988243103
1782845618061730300,5.222730224609375,-0.08342988789081573,0.07123074680566788,0.27589380741119385
1782845618071735300,5.2327353515625,-0.09166331589221954,0.07970040291547775,0.17104540765285492
1782845618081741600,5.242741455078125,-0.08255099505186081,0.06676061451435089,0.04702431708574295
1782845618091746600,5.25274658203125,-0.07344670593738556,0.0392506904900074,-0.07276546955108643
1782845618101751600,5.26275146484375,-0.06126544252038002,0.006967124529182911,-0.18005651235580444
1782845618111756500,5.272756591796875,-0.045107245445251465,-0.02315482497215271,-0.25237223505973816
1782845618121761500,5.282761474609375,-0.028833840042352676,-0.0512564517557621,-0.29709723591804504
1782845618131766500,5.2927666015625,-0.011764309369027615,-0.06250191479921341,-0.3065703511238098
1782845618141771500,5.302771484375,0.0058473446406424046,-0.06207680702209473,-0.2879379689693451
1782845618151776500,5.312776611328125,0.007426865864545107,-0.0686151310801506,-0.2391485720872879
1782845618161781500,5.322781494140625,-0.010497123003005981,-0.06525298207998276,-0.18226392567157745
1782845618171786500,5.332786376953125,-0.035500477999448776,-0.07111912965774536,-0.13542665541172028
1782845618181791500,5.34279150390625,-0.0579163059592247,-0.06824584305286407,-0.10527966171503067
1782845618191796500,5.35279638671875,-0.07520527392625809,-0.06418292224407196,-0.09897302836179733
1782845618201801500,5.362801513671875,-0.0996842160820961,-0.05843241140246391,-0.10072489082813263
1782845618211806500,5.372806396484375,-0.12372191250324249,-0.07074633985757828,-0.10921637713909149
1782845618221811500,5.3828115234375,-0.15134914219379425,-0.08843226730823517,-0.10623055696487427
1782845618231816400,5.39281640625,-0.1776827573776245,-0.1112707331776619,-0.10122115164995193
1782845618241821400,5.402821533203125,-0.1979413777589798,-0.13376329839229584,-0.10395146161317825
1782845618251826400,5.412826416015625,-0.21266385912895203,-0.1319587528705597,-0.11609014868736267
1782845618261831400,5.42283154296875,-0.20732414722442627,-0.10890829563140869,-0.13564319908618927
1782845618271836400,5.43283642578125,-0.18757681548595428,-0.0714258998632431,-0.17133967578411102
1782845618281841400,5.44284130859375,-0.15964463353157043,-0.036674000322818756,-0.20432543754577637
1782845618291847400,5.452847412109375,-0.13513235747814178,-0.007619178853929043,-0.21582257747650146
1782845618301852400,5.462852294921875,-0.11831583827733994,0.008862302638590336,-0.19460086524486542
1782845618311857400,5.472857421875,-0.10236003994941711,0.02088061533868313,-0.15447448194026947
1782845618321862400,5.4828623046875,-0.08810610324144363,0.02371109649538994,-0.11328218877315521
1782845618331867400,5.492867431640625,-0.07976455241441727,0.03026753105223179,-0.07221278548240662
1782845618341872400,5.502872314453125,-0.07780924439430237,0.039982765913009644,-0.029259227216243744
1782845618351877400,5.51287744140625,-0.07658019661903381,0.041851241141557693,0.026993392035365105
1782845618361882400,5.52288232421875,-0.0857144370675087,0.03840259462594986,0.07368910312652588
1782845618371887400,5.532887451171875,-0.1094176322221756,0.036032114177942276,0.0999382883310318
1782845618381892400,5.542892333984375,-0.135141983628273,0.05104873329401016,0.10514692962169647
1782845618391897300,5.5528974609375,-0.1501915007829666,0.07756396383047104,0.08496735990047455
1782845618401902300,5.56290234375,-0.14734488725662231,0.10693280398845673,0.04907308891415596
1782845618411907300,5.5729072265625,-0.12730035185813904,0.12162572890520096,0.024626867845654488
1782845618421912300,5.582912353515625,-0.10082240402698517,0.12367476522922516,0.005129331257194281
1782845618431917300,5.592917236328125,-0.07658657431602478,0.12049974501132965,-0.0052151852287352085
1782845618441922300,5.60292236328125,-0.0500754676759243,0.11996139585971832,-0.004877916537225246
1782845618451927300,5.61292724609375,-0.015241053886711597,0.11851689219474792,-0.012516927905380726
1782845618461932500,5.6229326171875,0.023943258449435234,0.12157345563173294,-0.019193582236766815
1782845618471937500,5.6329375,0.06136360019445419,0.11903466284275055,-0.025407802313566208
1782845618481942500,5.642942626953125,0.08941276371479034,0.11193126440048218,-0.05121992155909538
1782845618491947500,5.652947509765625,0.09773487597703934,0.11125189065933228,-0.08500850945711136
1782845618501953300,5.662953369140625,0.10631707310676575,0.11112277954816818,-0.124671071767807
1782845618511958300,5.672958251953125,0.10947238653898239,0.11935673654079437,-0.15005099773406982
1782845618521963300,5.68296337890625,0.09748919308185577,0.12551137804985046,-0.14313770830631256
1782845618531968300,5.69296826171875,0.07330449670553207,0.12774816155433655,-0.1145811602473259
1782845618541973200,5.70297314453125,0.032937340438365936,0.12043679505586624,-0.052602749317884445
1782845618551978200,5.712978271484375,-0.014746292494237423,0.10696439445018768,0.01715768873691559
1782845618561983200,5.722983154296875,-0.060342445969581604,0.09791889786720276,0.0877971202135086
1782845618571988500,5.732988525390625,-0.09892205893993378,0.08545743674039841,0.153706356883049
1782845618581993500,5.742993408203125,-0.12626998126506805,0.08735055476427078,0.21528606116771698
1782845618591998500,5.75299853515625,-0.14692732691764832,0.11011365801095963,0.27432969212532043
1782845618602003500,5.76300341796875,-0.15675966441631317,0.14281006157398224,0.305733859539032
1782845618612008400,5.773008544921875,-0.17563270032405853,0.17482498288154602,0.27646759152412415
1782845618622013700,5.783013671875,-0.1962355226278305,0.2013397514820099,0.21146154403686523
1782845618632018700,5.793018798828125,-0.19932399690151215,0.23755528032779694,0.09566916525363922
1782845618642023700,5.803023681640625,-0.17494361102581024,0.2853691577911377,-0.05495914816856384
1782845618652028700,5.813028564453125,-0.1294616162776947,0.318960964679718,-0.21468250453472137
1782845618662033700,5.82303369140625,-0.0651678815484047,0.3133974075317383,-0.33659136295318604
1782845618672038700,5.83303857421875,0.017406892031431198,0.24395602941513062,-0.39432498812675476
1782845618682043600,5.843043701171875,0.10522804409265518,0.1288854032754898,-0.39009183645248413
1782845618692048600,5.853048583984375,0.1997939646244049,-0.006561104208230972,-0.3374432623386383
1782845618702053600,5.8630537109375,0.2779102921485901,-0.1346399486064911,-0.2553451359272003
1782845618712058600,5.87305859375,0.33678558468818665,-0.22993263602256775,-0.15880846977233887
1782845618722064400,5.883064453125,0.3713929355144501,-0.3012599050998688,-0.055212683975696564
1782845618732069400,5.8930693359375,0.3948061168193817,-0.32590505480766296,0.04478049278259277
1782845618742074400,5.903074462890625,0.39727917313575745,-0.3258635401725769,0.1501697152853012
1782845618752079400,5.913079345703125,0.3893762230873108,-0.2712112367153168,0.24031345546245575
1782845618762084600,5.923084716796875,0.35738229751586914,-0.1739640235900879,0.3317294716835022
1782845618772089600,5.933089599609375,0.30351772904396057,-0.12550993263721466,0.4370468556880951
1782845618782094600,5.943094482421875,0.24363619089126587,-0.08595313131809235,0.5318357944488525
1782845618792099600,5.953099609375,0.177201509475708,-0.07002955675125122,0.6016766428947449
1782845618802104600,5.9631044921875,0.10963748395442963,-0.049537383019924164,0.6381831169128418
1782845618812109600,5.973109619140625,0.05470605939626694,-0.043813981115818024,0.6436372995376587
1782845618822114600,5.983114501953125,-0.0034884936176240444,-0.04216793179512024,0.6182045936584473
1782845618832119600,5.99311962890625,-0.06089692562818527,-0.021508991718292236,0.5661019682884216
1782845618842124500,6.00312451171875,-0.11910821497440338,0.022910308092832565,0.4956122934818268
1782845618852129500,6.013129638671875,-0.17764103412628174,0.08571137487888336,0.4254145622253418
1782845618862134500,6.023134521484375,-0.2227243185043335,0.1330527514219284,0.35574325919151306
1782845618872139500,6.033139404296875,-0.2402053028345108,0.1738893985748291,0.28843188285827637
1782845618882144500,6.04314453125,-0.24228912591934204,0.2040349692106247,0.22936391830444336
1782845618892149500,6.0531494140625,-0.2300329953432083,0.25423580408096313,0.17513103783130646
1782845618902154500,6.063154541015625,-0.20856602489948273,0.2832982838153839,0.1307705044746399
1782845618912159500,6.073159423828125,-0.18839098513126373,0.27868223190307617,0.11412547528743744
1782845618922164500,6.08316455078125,-0.16102567315101624,0.24256019294261932,0.12101054936647415
1782845618932169500,6.09316943359375,-0.1403142660856247,0.19849738478660583,0.13084720075130463
1782845618942174200,6.10317431640625,-0.12833015620708466,0.15418055653572083,0.13259759545326233
1782845618952180200,6.11318017578125,-0.1185813769698143,0.11970621347427368,0.12594901025295258
1782845618962185200,6.123185302734375,-0.10665930807590485,0.11647599190473557,0.0923127830028534
1782845618972190200,6.133190185546875,-0.08551353961229324,0.13140247762203217,0.054230108857154846
1782845618982195200,6.1431953125,-0.0691637396812439,0.16399729251861572,0.011545385234057903
1782845618992200200,6.1532001953125,-0.0530548132956028,0.2009667605161667,-0.01841704174876213
1782845619002205200,6.163205078125,-0.03921961784362793,0.2418496161699295,-0.04159856215119362
1782845619012210200,6.173210205078125,-0.020756719633936882,0.26162973046302795,-0.049050088971853256
1782845619022215200,6.183215087890625,-0.001321054995059967,0.258171945810318,-0.04026397317647934
1782845619032220200,6.19322021484375,0.023525170981884003,0.2482578307390213,-0.034222595393657684
1782845619042225200,6.20322509765625,0.034750524908304214,0.22926561534404755,-0.03130601346492767
1782845619052230100,6.213230224609375,0.036132439970970154,0.20178978145122528,-0.020115945488214493
1782845619062235100,6.223235107421875,0.02906794846057892,0.17258557677268982,-0.018274793401360512
1782845619072240000,6.233240234375,0.013594981282949448,0.13587576150894165,-0.006139834877103567
1782845619082245000,6.2432451171875,-0.006043275818228722,0.11268448084592819,0.026520265266299248
1782845619092250000,6.25325,-0.046929724514484406,0.10899147391319275,0.052617646753787994
1782845619102255000,6.263255126953125,-0.11103656142950058,0.11172249913215637,0.0763547495007515
1782845619112260000,6.273260009765625,-0.16493602097034454,0.11642750352621078,0.1021069809794426
1782845619122265000,6.28326513671875,-0.21772103011608124,0.10762197524309158,0.12704508006572723
1782845619132270000,6.29327001953125,-0.26229408383369446,0.09335994720458984,0.12866641581058502
1782845619142275000,6.303275146484375,-0.2989327907562256,0.08946263045072556,0.11324066668748856
1782845619152280300,6.3132802734375,-0.31632858514785767,0.07391615957021713,0.08040495216846466
1782845619162285300,6.323285400390625,-0.3330909013748169,0.04290992021560669,0.05335533991456032
1782845619172290300,6.333290283203125,-0.34678247570991516,0.01859712414443493,0.023429132997989655
1782845619182295300,6.34329541015625,-0.36390548944473267,-0.0021567679941654205,-0.01067690085619688
1782845619192300300,6.35330029296875,-0.37952548265457153,-0.003414312843233347,-0.035763345658779144
1782845619202306300,6.363306396484375,-0.3937920033931732,0.014134998433291912,-0.0442083515226841
1782845619212311300,6.373311279296875,-0.4119766056537628,0.02744600921869278,-0.04019337147474289
1782845619222316300,6.38331640625,-0.42272859811782837,0.051777034997940063,-0.031748365610837936
1782845619232321300,6.3933212890625,-0.4183884561061859,0.0707416757941246,-0.026124566793441772
1782845619242326300,6.403326171875,-0.4027017652988434,0.08346839249134064,-0.018243178725242615
1782845619252331300,6.413331298828125,-0.3745090067386627,0.10086256265640259,-0.024744220077991486
1782845619262336300,6.423336181640625,-0.3481602072715759,0.11750080436468124,-0.04731415957212448
1782845619272341200,6.43334130859375,-0.32109954953193665,0.11751464754343033,-0.10823024064302444
1782845619282346200,6.44334619140625,-0.2901173532009125,0.12532541155815125,-0.1967330276966095
1782845619292351200,6.453351318359375,-0.2661515772342682,0.12742291390895844,-0.30644914507865906
1782845619302356200,6.463356201171875,-0.22521457076072693,0.10789746791124344,-0.38550105690956116
1782845619312361200,6.473361328125,-0.17559321224689484,0.06750397384166718,-0.41729065775871277
1782845619322366200,6.4833662109375,-0.11373566091060638,0.03478565812110901,-0.4018203914165497
1782845619332371200,6.49337109375,-0.0420718640089035,0.008983887732028961,-0.3513377904891968
1782845619342376200,6.503376220703125,0.03997174650430679,-0.020495029166340828,-0.29968592524528503
1782845619352381200,6.513381103515625,0.12759827077388763,-0.036248691380023956,-0.2416955828666687
1782845619362386200,6.52338623046875,0.2128477394580841,-0.04439670592546463,-0.17801392078399658
1782845619372391200,6.53339111328125,0.27860358357429504,-0.059346895664930344,-0.10522973537445068
1782845619382396200,6.543396240234375,0.3037729263305664,-0.07043500989675522,-0.024753043428063393
1782845619392401200,6.553401123046875,0.29707425832748413,-0.076055608689785,0.058942120522260666
1782845619402406100,6.56340625,0.2731455862522125,-0.07417961210012436,0.13673141598701477
1782845619412411100,6.5734111328125,0.23736655712127686,-0.08394356071949005,0.21165892481803894
1782845619422416100,6.583416015625,0.2041967213153839,-0.08637826889753342,0.2623528242111206
1782845619432421000,6.593421142578125,0.1766311377286911,-0.09865757077932358,0.2960636615753174
1782845619442427100,6.60342724609375,0.1558302342891693,-0.1193048432469368,0.3069065511226654
1782845619452432100,6.61343212890625,0.1403053253889084,-0.12561839818954468,0.28557780385017395
1782845619462437000,6.62343701171875,0.13486699759960175,-0.13279034197330475,0.25351107120513916
1782845619472442000,6.633442138671875,0.13004907965660095,-0.13365612924098969,0.20892709493637085
1782845619482447000,6.643447021484375,0.1368694007396698,-0.1443859338760376,0.16855037212371826
1782845619492452000,6.6534521484375,0.13867183029651642,-0.16385284066200256,0.14753882586956024
1782845619502457000,6.66345703125,0.1333940029144287,-0.17341794073581696,0.12799286842346191
1782845619512462000,6.673462158203125,0.12120550870895386,-0.1712394803762436,0.11773917078971863
1782845619522467000,6.683467041015625,0.11328482627868652,-0.16090010106563568,0.09855283796787262
1782845619532472000,6.69347216796875,0.12386316806077957,-0.15045730769634247,0.07651251554489136
1782845619542477000,6.70347705078125,0.14582154154777527,-0.12944962084293365,0.05536831542849541
1782845619552482000,6.71348193359375,0.1793171763420105,-0.09540163725614548,0.03800663724541664
1782845619562487000,6.723487060546875,0.20211444795131683,-0.07726575434207916,0.013836693949997425
1782845619572492000,6.733491943359375,0.22687572240829468,-0.0767778605222702,0.000925688655115664
1782845619582497000,6.7434970703125,0.23469935357570648,-0.06818664819002151,-0.01672147773206234
1782845619592502000,6.753501953125,0.23446473479270935,-0.07074141502380371,-0.03187326714396477
1782845619602507000,6.763507080078125,0.2377937287092209,-0.08629713952541351,-0.019826576113700867
1782845619612512000,6.773511962890625,0.2426915466785431,-0.09915541112422943,0.012514051049947739
1782845619622517000,6.78351708984375,0.24193044006824493,-0.11002251505851746,0.058959320187568665
1782845619632522000,6.79352197265625,0.24453261494636536,-0.11753609031438828,0.11998432129621506
1782845619642527000,6.80352685546875,0.24528588354587555,-0.11575138568878174,0.17338138818740845
1782845619652532200,6.8135322265625,0.24418945610523224,-0.1014304980635643,0.2062503844499588
1782845619662537200,6.823537109375,0.23214411735534668,-0.0733145922422409,0.2196081429719925
1782845619672542200,6.833542236328125,0.194594606757164,-0.03879629820585251,0.20256631076335907
1782845619682547500,6.84354736328125,0.14314571022987366,-0.0011982237920165062,0.14087481796741486
1782845619692552400,6.853552490234375,0.09450093656778336,0.04537487030029297,0.030277187004685402
1782845619702557400,6.863557373046875,0.03835543245077133,0.07715141773223877,-0.1217944473028183
1782845619712563200,6.873563232421875,-0.023765461519360542,0.09338445216417313,-0.29474198818206787
1782845619722568200,6.883568115234375,-0.06473380327224731,0.10211867094039917,-0.4634288549423218
1782845619732573200,6.8935732421875,-0.08519194275140762,0.09438911825418472,-0.6035739779472351
1782845619742578200,6.903578125,-0.0836925283074379,0.06095017492771149,-0.6808534264564514
1782845619752583200,6.913583251953125,-0.07958114147186279,0.011997812427580357,-0.6886319518089294
1782845619762588200,6.923588134765625,-0.039648547768592834,-0.04780501872301102,-0.6183042526245117
1782845619772593200,6.93359326171875,0.007258240133523941,-0.0984753891825676,-0.4934464693069458
1782845619782598100,6.94359814453125,0.051967721432447433,-0.13326479494571686,-0.3426717221736908
1782845619792603100,6.95360302734375,0.09195908159017563,-0.15586651861667633,-0.1662791222333908
1782845619802608000,6.963608154296875,0.13209564983844757,-0.16426661610603333,0.013793813064694405
1782845619812613400,6.97361328125,0.16790425777435303,-0.17058736085891724,0.16766859591007233
1782845619822618400,6.983618408203125,0.2047092318534851,-0.1694754660129547,0.2846226692199707
1782845619832623400,6.993623291015625,0.2341046780347824,-0.14617839455604553,0.379946768283844
1782845619842628400,7.00362841796875,0.25295859575271606,-0.10808024555444717,0.4572792053222656
1782845619852633300,7.01363330078125,0.2545114755630493,-0.06613998860120773,0.49772223830223083
1782845619862638300,7.023638427734375,0.2578163146972656,-0.02882128208875656,0.4876841902732849
1782845619872643300,7.033643310546875,0.26603031158447266,0.022794507443904877,0.43902531266212463
1782845619882648300,7.0436484375,0.26249200105667114,0.06716592609882355,0.36865589022636414
1782845619892653300,7.0536533203125,0.24259738624095917,0.10321393609046936,0.2881096601486206
1782845619902658300,7.063658203125,0.21437419950962067,0.13443267345428467,0.21097712218761444
1782845619912663300,7.073663330078125,0.18368926644325256,0.1514316350221634,0.12737277150154114
1782845619922668300,7.083668212890625,0.15494905412197113,0.13155028223991394,0.037544991821050644
1782845619932673300,7.09367333984375,0.13391222059726715,0.09154214709997177,-0.053034707903862
1782845619942678500,7.103678466796875,0.10633490234613419,0.04604119434952736,-0.13569462299346924
1782845619952683500,7.11368359375,0.08365142345428467,0.001224986743181944,-0.21470580995082855
1782845619962688500,7.1236884765625,0.06609311699867249,-0.04796057194471359,-0.2874683737754822
1782845619972694300,7.1336943359375,0.0614088773727417,-0.0791536420583725,-0.343257337808609
1782845619982699500,7.143699462890625,0.06558791548013687,-0.10253725945949554,-0.35462531447410583
1782845619992704500,7.15370458984375,0.07620513439178467,-0.12287582457065582,-0.34548720717430115
1782845620002709500,7.16370947265625,0.08734475821256638,-0.12954021990299225,-0.33323362469673157
1782845620012714500,7.173714599609375,0.10602177679538727,-0.12410657107830048,-0.3147529065608978
1782845620022719500,7.183719482421875,0.12829183042049408,-0.11097151786088943,-0.2931787669658661
1782845620032724500,7.193724365234375,0.15290290117263794,-0.10178148746490479,-0.2675192356109619
1782845620042729500,7.2037294921875,0.17462944984436035,-0.09368781745433807,-0.24443145096302032
1782845620052734500,7.213734375,0.18250975012779236,-0.05536679923534393,-0.23813946545124054
1782845620062739500,7.223739501953125,0.1797374188899994,-0.027818914502859116,-0.22374552488327026
1782845620072744400,7.233744384765625,0.1531960815191269,-0.014440791681408882,-0.21111229062080383
1782845620082749400,7.24374951171875,0.11885954439640045,-0.0056409090757369995,-0.20269906520843506
1782845620092754400,7.25375439453125,0.08573780953884125,-0.021093100309371948,-0.217199444770813
1782845620102759400,7.263759521484375,0.04579354450106621,-0.04559386894106865,-0.2550205588340759
1782845620112764400,7.273764404296875,0.011674989014863968,-0.07571661472320557,-0.29926711320877075
1782845620122769400,7.283769287109375,-0.020172379910945892,-0.10386867821216583,-0.3413197994232178
1782845620132774400,7.2937744140625,-0.04596802219748497,-0.123135045170784,-0.3756023943424225
1782845620142779400,7.303779296875,-0.06514644622802734,-0.13673247396945953,-0.3923478424549103
1782845620152784400,7.313784423828125,-0.07681961357593536,-0.14477574825286865,-0.3928738236427307
1782845620162789400,7.323789306640625,-0.07711871713399887,-0.1387108862400055,-0.36749839782714844
1782845620172794600,7.333794677734375,-0.06831963360309601,-0.11700984835624695,-0.31343090534210205
1782845620182799600,7.343799560546875,-0.057535529136657715,-0.095338836312294,-0.23919516801834106
1782845620192804600,7.3538046875,-0.04191422834992409,-0.08015641570091248,-0.1708555370569229
1782845620202809600,7.3638095703125,-0.011337131261825562,-0.06507118791341782,-0.11648794263601303
1782845620212814600,7.373814697265625,0.02731306105852127,-0.054778337478637695,-0.08760036528110504
1782845620222819600,7.383819580078125,0.0642717108130455,-0.0428282730281353,-0.08261824399232864
1782845620232824600,7.393824462890625,0.09742113947868347,-0.035824425518512726,-0.08753150701522827
1782845620242829600,7.40382958984375,0.1312042623758316,-0.022096507251262665,-0.09748731553554535
1782845620252834600,7.41383447265625,0.15224695205688477,-0.020364120602607727,-0.10568825155496597
1782845620262839600,7.423839599609375,0.17491307854652405,-0.018780048936605453,-0.11240919679403305
1782845620272845600,7.433845458984375,0.18907471001148224,-0.020467428490519524,-0.10466978698968887
1782845620282850600,7.4438505859375,0.1962694227695465,-0.010416803881525993,-0.11244990676641464
1782845620292855600,7.45385546875,0.19793283939361572,0.016403092071413994,-0.12618330121040344
1782845620302860500,7.463860595703125,0.19610267877578735,0.0500321090221405,-0.14172782003879547
1782845620312865500,7.473865478515625,0.18465028703212738,0.06818981468677521,-0.15837949514389038
1782845620322870500,7.48387060546875,0.17042671144008636,0.08785667270421982,-0.1798231601715088
1782845620332875500,7.49387548828125,0.15260323882102966,0.11610535532236099,-0.21779637038707733
1782845620342880500,7.503880615234375,0.12050151079893112,0.08321132510900497,-0.22674086689949036
1782845620352885500,7.513885498046875,0.09145840257406235,0.03040722757577896,-0.21860012412071228
1782845620362890500,7.523890380859375,0.05850564315915108,-0.004463283345103264,-0.2048383504152298
1782845620372895500,7.5338955078125,0.031245790421962738,-0.040882013738155365,-0.19644033908843994
1782845620382900500,7.543900390625,0.008016805164515972,-0.06116350740194321,-0.185145765542984
1782845620392905500,7.553905517578125,-0.0052963364869356155,-0.05530721694231033,-0.16896465420722961
1782845620402910500,7.563910400390625,-0.02727324329316616,-0.04103673994541168,-0.14057482779026031
1782845620412915500,7.57391552734375,-0.04225325956940651,-0.022358126938343048,-0.10597210377454758
1782845620422920400,7.58392041015625,-0.05557753145694733,-0.00022781593725085258,-0.06837048381567001
1782845620432925400,7.593925537109375,-0.07468011975288391,0.019488364458084106,-0.03537950664758682
1782845620442930400,7.603930419921875,-0.08940563350915909,0.039512742310762405,-0.00497488072142005
1782845620452935400,7.613935302734375,-0.0845903679728508,0.05333561450242996,0.02533348836004734
1782845620462940400,7.6239404296875,-0.07068932801485062,0.055157627910375595,0.0555114783346653
1782845620472945400,7.6339453125,-0.05013611912727356,0.05933453142642975,0.090487040579319
1782845620482950400,7.643950439453125,-0.011664167046546936,0.07093431800603867,0.10645938664674759
1782845620492955400,7.653955322265625,0.031173579394817352,0.0962681695818901,0.09775218367576599
1782845620502960400,7.66396044921875,0.0730799064040184,0.12046303600072861,0.07669711858034134
1782845620512965400,7.67396533203125,0.11143527925014496,0.12812760472297668,0.05271055921912193
1782845620522970400,7.683970458984375,0.1456073820590973,0.12213288992643356,0.035908862948417664
1782845620532975400,7.693975341796875,0.16714809834957123,0.11414846777915955,0.023950736969709396
1782845620542980400,7.70398046875,0.1802658885717392,0.11126542091369629,0.01064337883144617
1782845620552985300,7.7139853515625,0.1793724000453949,0.12144003063440323,0.00834959838539362
1782845620562990300,7.723990234375,0.1611749827861786,0.12396638095378876,0.021631846204400063
1782845620572996400,7.733996337890625,0.13151802122592926,0.10891951620578766,0.05152396857738495
1782845620583001300,7.74400146484375,0.0995902419090271,0.10375428944826126,0.08228766173124313
1782845620593006300,7.75400634765625,0.06928852945566177,0.10999327898025513,0.09525085985660553
1782845620603011300,7.76401123046875,0.046716947108507156,0.1329592615365982,0.09019028395414352
1782845620613016300,7.774016357421875,0.02863408252596855,0.15588003396987915,0.07265257090330124
1782845620623021300,7.784021240234375,0.024948596954345703,0.1768253743648529,0.034434348344802856
1782845620633026300,7.7940263671875,0.03990544378757477,0.18812276422977448,-0.00902417954057455
1782845620643031300,7.80403125,0.06230643764138222,0.19515103101730347,-0.0484161339700222
1782845620653036300,7.814036376953125,0.09338872879743576,0.1904473453760147,-0.08406706899404526
1782845620663041300,7.824041259765625,0.12634241580963135,0.17516186833381653,-0.10146789997816086
1782845620673046300,7.83404638671875,0.15723827481269836,0.15437456965446472,-0.09932618588209152
1782845620683051300,7.84405126953125,0.18538278341293335,0.13114918768405914,-0.08015991002321243
1782845620693056300,7.85405615234375,0.207712322473526,0.11340481042861938,-0.054176513105630875
1782845620703061500,7.8640615234375,0.22497010231018066,0.0933227613568306,-0.020385224372148514
1782845620713066500,7.87406640625,0.2394116371870041,0.09657022356987,-0.0004772967076860368
1782845620723071500,7.884071533203125,0.2540337145328522,0.09650737047195435,0.032140832394361496
1782845620733076500,7.894076416015625,0.2702864706516266,0.10314583033323288,0.06588920950889587
1782845620743081500,7.90408154296875,0.290022611618042,0.12031150609254837,0.097793348133564
1782845620753086500,7.91408642578125,0.30865833163261414,0.12405644357204437,0.1304258555173874
1782845620763091500,7.924091552734375,0.32441937923431396,0.12782412767410278,0.15751317143440247
1782845620773096400,7.934096435546875,0.34803467988967896,0.13276349008083344,0.16072441637516022
1782845620783101400,7.944101318359375,0.37192386388778687,0.132193461060524,0.1623251885175705
1782845620793106400,7.9541064453125,0.3884011209011078,0.12770017981529236,0.17742957174777985
1782845620803111700,7.964111572265625,0.39686378836631775,0.11055450141429901,0.2116510272026062
1782845620813116700,7.97411669921875,0.4050138592720032,0.10554749518632889,0.24397540092468262
1782845620823121700,7.98412158203125,0.41103097796440125,0.10210879147052765,0.25810858607292175
1782845620833126700,7.994126708984375,0.41944682598114014,0.12586872279644012,0.25229117274284363
1782845620843131600,8.004131591796876,0.4203692674636841,0.1422494649887085,0.24790127575397491
1782845620853136600,8.01413671875,0.4098489582538605,0.14824184775352478,0.22605429589748383
1782845620863141600,8.0241416015625,0.38305506110191345,0.15464332699775696,0.1786150336265564
1782845620873146600,8.034146728515625,0.3404924273490906,0.15138787031173706,0.09840621799230576
1782845620883151600,8.044151611328125,0.2739143967628479,0.14349539577960968,0.006295236758887768
1782845620893157400,8.054157470703124,0.1947048157453537,0.13548140227794647,-0.08422587066888809
1782845620903162400,8.064162353515625,0.11586477607488632,0.10598674416542053,-0.15967105329036713
1782845620913167400,8.07416748046875,0.04671713709831238,0.056845832616090775,-0.2352513074874878
1782845620923172400,8.08417236328125,-0.003063530893996358,-0.007695465348660946,-0.2925707697868347
1782845620933177300,8.09417724609375,-0.04875272512435913,-0.09090486913919449,-0.325348436832428
1782845620943182600,8.1041826171875,-0.09092740714550018,-0.17671218514442444,-0.32461994886398315
1782845620953187600,8.1141875,-0.12277481704950333,-0.2565063536167145,-0.28422483801841736
1782845620963192600,8.124192626953125,-0.14133325219154358,-0.3359067440032959,-0.2311321198940277
1782845620973197800,8.13419775390625,-0.1499778777360916,-0.3891044557094574,-0.1785605251789093
1782845620983202800,8.144202880859375,-0.1456623673439026,-0.4041215479373932,-0.13647766411304474
1782845620993207800,8.154207763671875,-0.14180079102516174,-0.38449937105178833,-0.09262099862098694
1782845621003212800,8.164212890625,-0.11453818529844284,-0.31350329518318176,-0.06292979419231415
1782845621013217800,8.1742177734375,-0.08757553994655609,-0.2584613561630249,-0.010717456229031086
1782845621023222800,8.184222900390624,-0.059993959963321686,-0.21790681779384613,0.05252467095851898
1782845621033227800,8.194227783203125,-0.04407571628689766,-0.19643428921699524,0.12217777967453003
1782845621043232800,8.204232666015624,-0.04035571217536926,-0.17903965711593628,0.18971756100654602
1782845621053237800,8.21423779296875,-0.04528362676501274,-0.15150949358940125,0.23036672174930573
1782845621063242800,8.22424267578125,-0.06374792754650116,-0.1192220151424408,0.2513820230960846
1782845621073247700,8.234247802734375,-0.09168555587530136,-0.09361039847135544,0.25561779737472534
1782845621083252700,8.244252685546876,-0.1308065950870514,-0.05831499025225639,0.25485825538635254
1782845621093257700,8.2542578125,-0.16644954681396484,-0.012367205694317818,0.23994241654872894
1782845621103262700,8.2642626953125,-0.17855525016784668,0.03178350254893303,0.2061709463596344
1782845621113267700,8.274267822265625,-0.18932321667671204,0.06830449402332306,0.17424443364143372
1782845621123272700,8.284272705078125,-0.1822776049375534,0.09444078058004379,0.1381712108850479
1782845621133277700,8.294277587890624,-0.15334582328796387,0.10804767161607742,0.1196364015340805
1782845621143282700,8.30428271484375,-0.12453451752662659,0.11739863455295563,0.1228613406419754
1782845621153287700,8.31428759765625,-0.09298884123563766,0.13173602521419525,0.13632655143737793
1782845621163292700,8.324292724609375,-0.07322981208562851,0.14205904304981232,0.15887366235256195
1782845621173297700,8.334297607421876,-0.05905913934111595,0.15299399197101593,0.17959599196910858
1782845621183302700,8.344302734375,-0.053046293556690216,0.1627984642982483,0.19295178353786469
1782845621193307600,8.3543076171875,-0.057854097336530685,0.17917530238628387,0.20204408466815948
1782845621203312600,8.364312744140625,-0.07181910425424576,0.1710120588541031,0.21325676143169403
1782845621213317600,8.374317626953125,-0.10383642464876175,0.14769954979419708,0.21237125992774963
1782845621223322600,8.384322509765624,-0.1392601579427719,0.12487088143825531,0.21839767694473267
1782845621233327600,8.39432763671875,-0.16279371082782745,0.09942144900560379,0.21957719326019287
1782845621243334000,8.404333984375,-0.16529279947280884,0.0703769400715828,0.20681053400039673
1782845621253339000,8.4143388671875,-0.1581651121377945,0.05501290038228035,0.1650574952363968
1782845621263343900,8.42434375,-0.14726758003234863,0.07013529539108276,0.11013785749673843
1782845621273348900,8.434348876953125,-0.12979696691036224,0.09659247100353241,0.04764784872531891
1782845621283353900,8.444353759765624,-0.11549398303031921,0.11955240368843079,-0.008162608370184898
1782845621293358800,8.45435888671875,-0.10144075006246567,0.13444186747074127,-0.058031897991895676
1782845621303363800,8.46436376953125,-0.07914864271879196,0.1520405411720276,-0.10485978424549103
1782845621313368800,8.474368896484375,-0.04284815490245819,0.16918811202049255,-0.12365956604480743
1782845621323373800,8.484373779296876,-0.010691234841942787,0.18182970583438873,-0.1421767622232437
1782845621333378800,8.49437890625,0.001686339033767581,0.18208935856819153,-0.15302087366580963
1782845621343383800,8.5043837890625,0.00976075790822506,0.1873723566532135,-0.14984989166259766
1782845621353388800,8.514388916015625,0.009776471182703972,0.1726437509059906,-0.12724338471889496
1782845621363393800,8.524393798828125,0.00716305710375309,0.13193576037883759,-0.08121722936630249
1782845621373398800,8.534398681640624,-0.0006517227739095688,0.08621994405984879,-0.03885139152407646
1782845621383403800,8.54440380859375,-0.015613446943461895,0.033511023968458176,-0.004230222664773464
1782845621393408800,8.55440869140625,-0.03708251938223839,0.0010811768006533384,0.026424359530210495
1782845621403413800,8.564413818359375,-0.058414846658706665,-0.014901930466294289,0.049431826919317245
1782845621413418800,8.574418701171876,-0.07826977968215942,-0.047851886600255966,0.08360950648784637
1782845621423423700,8.584423828125,-0.10075237601995468,-0.07703812420368195,0.09917563945055008
1782845621433428700,8.5944287109375,-0.12049811333417892,-0.08598687499761581,0.10690227150917053
1782845621443433700,8.604433837890625,-0.1508457511663437,-0.07274068146944046,0.09150554984807968
1782845621453438700,8.614438720703125,-0.18135014176368713,-0.05243780463933945,0.08486682176589966
1782845621463443700,8.624443603515624,-0.2165483683347702,-0.026204530149698257,0.09479455649852753
1782845621473448700,8.63444873046875,-0.2469387650489807,-0.006587419658899307,0.1113642081618309
1782845621483453700,8.64445361328125,-0.26746177673339844,0.010143816471099854,0.12641867995262146
1782845621493458700,8.654458740234375,-0.28259679675102234,0.027363816276192665,0.13952836394309998
1782845621503463700,8.664463623046874,-0.2802097797393799,0.04163295775651932,0.14705418050289154
1782845621513468700,8.67446875,-0.26016947627067566,0.042285166680812836,0.1579880565404892
1782845621523473700,8.6844736328125,-0.23267744481563568,0.05236688256263733,0.15802350640296936
1782845621533478700,8.694478759765625,-0.19199234247207642,0.0700574591755867,0.1558636873960495
1782845621543483600,8.704483642578126,-0.14123323559761047,0.08458362519741058,0.14590822160243988
1782845621553488600,8.714488525390625,-0.0933258980512619,0.09502401202917099,0.1291383057832718
1782845621563493600,8.72449365234375,-0.03831610456109047,0.10889843106269836,0.11040478944778442
1782845621573498600,8.73449853515625,0.01209939643740654,0.11880272626876831,0.08133478462696075
1782845621583503600,8.744503662109375,0.07704874873161316,0.10565532743930817,0.04709380120038986
1782845621593508600,8.754508544921874,0.14120163023471832,0.09363967925310135,0.052285898476839066
1782845621603513600,8.764513671875,0.19445788860321045,0.10751639306545258,0.08899468183517456
1782845621613519600,8.77451953125,0.21568754315376282,0.13038522005081177,0.12938205897808075
1782845621623524600,8.784524658203125,0.18532291054725647,0.2672577202320099,0.2490949034690857
1782845621633529600,8.794529541015624,0.12942448258399963,0.165711909532547,0.23154281079769135
1782845621643534600,8.80453466796875,0.11993115395307541,-0.03720851615071297,0.10892688482999802
1782845621653539600,8.81453955078125,0.15622471272945404,-0.21009081602096558,-0.015788685530424118
1782845621663544600,8.824544677734375,0.16954298317432404,-0.3157581388950348,-0.08058590441942215
1782845621673549600,8.834549560546876,0.16800953447818756,-0.3715372383594513,-0.09588842839002609
