time,seconds_elapsed,z,y,x
1782845612906619100,0.067619140625,0.008530370891094208,-0.17790022492408752,-0.1623833179473877
1782845612916624100,0.0776240234375,-0.01683676987886429,-0.17485490441322327,-0.13665558397769928
1782845612926629000,0.087629150390625,-0.04742157831788063,-0.169105663895607,-0.10765296220779419
1782845612936635000,0.097634765625,-0.07491472363471985,-0.16168317198753357,-0.06802325695753098
1782845612946640000,0.107639892578125,-0.09646901488304138,-0.1427672654390335,-0.010664895176887512
1782845612956644900,0.117644775390625,-0.11567573249340057,-0.12188436090946198,0.054608915001153946
1782845612966649900,0.12764990234375,-0.13471919298171997,-0.08587522804737091,0.11236222833395004
1782845612976654800,0.13765478515625,-0.14776203036308289,-0.04111174866557121,0.15166115760803223
1782845612986659800,0.147659912109375,-0.16799752414226532,-0.007958058267831802,0.17376060783863068
1782845612996665600,0.15766552734375,-0.1875981241464615,0.02267654985189438,0.17330999672412872
1782845613006670600,0.167670654296875,-0.19427040219306946,0.05443714186549187,0.18603432178497314
1782845613016675600,0.177675537109375,-0.1897163987159729,0.06253102421760559,0.21273542940616608
1782845613026680800,0.187680908203125,-0.17733269929885864,0.07026483863592148,0.25258803367614746
1782845613036685800,0.197685791015625,-0.16650108993053436,0.07327581197023392,0.306487500667572
1782845613046690800,0.20769091796875,-0.16058142483234406,0.07638584822416306,0.3542504906654358
1782845613056695800,0.21769580078125,-0.16180701553821564,0.08322298526763916,0.3774048089981079
1782845613066700800,0.22770068359375,-0.1807548701763153,0.08873918652534485,0.35607901215553284
1782845613076705800,0.237705810546875,-0.22190231084823608,0.10767639428377151,0.28339070081710815
1782845613086710800,0.247710693359375,-0.2677278518676758,0.13675890862941742,0.17755721509456635
1782845613096715800,0.2577158203125,-0.30065011978149414,0.16326561570167542,0.057673949748277664
1782845613106721500,0.267721435546875,-0.3055135905742645,0.15057273209095,-0.08478280156850815
1782845613116726500,0.2777265625,-0.27789953351020813,0.13173753023147583,-0.22427970170974731
1782845613126731500,0.2877314453125,-0.21073593199253082,0.0997801199555397,-0.339063823223114
1782845613136736500,0.297736572265625,-0.11642967164516449,0.056659016758203506,-0.3876609206199646
1782845613146741500,0.307741455078125,-0.005506617948412895,-0.005249090492725372,-0.3555692732334137
1782845613156746800,0.317746826171875,0.09246042370796204,-0.04152720421552658,-0.2721007466316223
1782845613166751700,0.327751708984375,0.14338059723377228,-0.04204705357551575,-0.22771865129470825
1782845613176756700,0.3377568359375,0.1511242687702179,-0.034807782620191574,-0.21374450623989105
1782845613186761700,0.34776171875,0.1377599984407425,-0.05133056640625,-0.24813337624073029
1782845613196766700,0.3577666015625,0.16187171638011932,-0.10422520339488983,-0.22086207568645477
1782845613206772700,0.367772705078125,0.22087645530700684,-0.17780089378356934,-0.10500071942806244
1782845613216777700,0.37777783203125,0.27482837438583374,-0.21682392060756683,0.017943579703569412
1782845613226782700,0.38778271484375,0.327564537525177,-0.2218562364578247,0.1119406521320343
1782845613236787700,0.39778759765625,0.3717847466468811,-0.2140401154756546,0.20690684020519257
1782845613246792700,0.407792724609375,0.3961191177368164,-0.18966127932071686,0.29724207520484924
1782845613256797700,0.417797607421875,0.389279842376709,-0.13231809437274933,0.3812941014766693
1782845613266802700,0.427802734375,0.3458085358142853,-0.07737415283918381,0.43733125925064087
1782845613276807700,0.4378076171875,0.2845108211040497,-0.03821449726819992,0.44186529517173767
1782845613286812700,0.447812744140625,0.21566252410411835,-0.01275547593832016,0.41102322936058044
1782845613296817700,0.457817626953125,0.13217587769031525,0.01834411919116974,0.3581267297267914
1782845613306822700,0.46782275390625,0.06180024892091751,0.04661756753921509,0.29573071002960205
1782845613316828700,0.47782861328125,0.01763039268553257,0.044564273208379745,0.2505398094654083
1782845613326833700,0.487833740234375,-0.004766525700688362,0.02624225616455078,0.18737921118736267
1782845613336838700,0.497838623046875,-0.025828933343291283,0.004089550115168095,0.09553850442171097
1782845613346843600,0.50784375,-0.04548679292201996,-0.010608435608446598,-0.039795614778995514
1782845613356848600,0.5178486328125,-0.06378243863582611,-0.038182273507118225,-0.1826622188091278
1782845613366853600,0.527853515625,-0.07180015742778778,-0.06814470142126083,-0.30668190121650696
1782845613376858600,0.537858642578125,-0.07303079962730408,-0.10682125389575958,-0.37556058168411255
1782845613386863600,0.547863525390625,-0.0798674002289772,-0.16520653665065765,-0.38234710693359375
1782845613396868600,0.55786865234375,-0.07299564778804779,-0.21207444369792938,-0.3532142639160156
1782845613406873600,0.56787353515625,-0.058928828686475754,-0.22715379297733307,-0.29644179344177246
1782845613416878600,0.577878662109375,-0.023035012185573578,-0.2371228039264679,-0.22197474539279938
1782845613426884600,0.587884521484375,0.04843437671661377,-0.24858132004737854,-0.15031546354293823
1782845613436889600,0.5978896484375,0.13157454133033752,-0.24193966388702393,-0.08662118017673492
1782845613446894600,0.60789453125,0.2092946320772171,-0.22055234014987946,-0.03289882838726044
1782845613456899600,0.617899658203125,0.2611788809299469,-0.19953840970993042,0.013708621263504028
1782845613466904600,0.627904541015625,0.3022141754627228,-0.1694239228963852,0.044553354382514954
1782845613476909600,0.63790966796875,0.3169451951980591,-0.1207173615694046,0.04992947727441788
1782845613486914600,0.64791455078125,0.3145643174648285,-0.06765787303447723,0.052389439195394516
1782845613496919600,0.65791943359375,0.30075931549072266,-0.025523735210299492,0.04940909519791603
1782845613506924500,0.667924560546875,0.28357553482055664,0.012684902176260948,0.06798917055130005
1782845613516929500,0.677929443359375,0.25327861309051514,0.029378129169344902,0.10041848570108414
1782845613526934500,0.6879345703125,0.21565932035446167,0.013353089801967144,0.1305052787065506
1782845613536939500,0.697939453125,0.18323560059070587,-0.032653551548719406,0.17008811235427856
1782845613546945800,0.70794580078125,0.1393008977174759,-0.08206291496753693,0.18119855225086212
1782845613556950800,0.71795068359375,0.10111383348703384,-0.1294248402118683,0.17444264888763428
1782845613566955800,0.727955810546875,0.0801909789443016,-0.1470203399658203,0.14782914519309998
1782845613576960800,0.737960693359375,0.0639432966709137,-0.12078846991062164,0.0922367200255394
1782845613586965800,0.7479658203125,0.05596792697906494,-0.07360151410102844,0.028363198041915894
1782845613596970800,0.757970703125,0.04860774800181389,-0.03199974447488785,-0.03946298733353615
1782845613606975700,0.767975830078125,0.03532896190881729,-0.004763596225529909,-0.0939326211810112
1782845613616980700,0.777980712890625,0.02581748180091381,0.01218476053327322,-0.11720997840166092
1782845613626985700,0.78798583984375,0.0217143502086401,0.024208134040236473,-0.12255813926458359
1782845613636990700,0.79799072265625,0.004087952431291342,-0.007980961352586746,-0.10753551125526428
1782845613646995700,0.80799560546875,-0.007701328955590725,-0.03417474776506424,-0.0781794935464859
1782845613657001700,0.818001708984375,-0.01315282005816698,-0.04658800736069679,-0.046903327107429504
1782845613667006700,0.8280068359375,-0.012989302165806293,-0.06864936649799347,-0.008413458243012428
1782845613677011700,0.83801171875,-0.00824035331606865,-0.09590176492929459,0.046309974044561386
1782845613687016700,0.8480166015625,0.006741259712725878,-0.08848486095666885,0.09205429255962372
1782845613697021700,0.858021728515625,0.027161046862602234,-0.07727587968111038,0.12066729366779327
1782845613707026700,0.868026611328125,0.062360312789678574,-0.0523470938205719,0.1216348186135292
1782845613717031700,0.87803173828125,0.09531001001596451,-0.037269607186317444,0.08478519320487976
1782845613727036700,0.88803662109375,0.11984304338693619,-0.007683752104640007,0.035411786288022995
1782845613737041700,0.898041748046875,0.13018862903118134,0.052866943180561066,-0.015474563464522362
1782845613747046700,0.908046630859375,0.15150031447410583,0.13709181547164917,-0.04761119559407234
1782845613757051600,0.9180517578125,0.08837860077619553,0.137069970369339,-0.0202765092253685
1782845613767056600,0.928056640625,0.05584515631198883,0.1001199409365654,-0.01203775405883789
1782845613777062700,0.938062744140625,0.02695891261100769,0.08721532672643661,-0.025724271312355995
1782845613787067600,0.948067626953125,-0.006307430565357208,0.06144924461841583,-0.03290122374892235
1782845613797072600,0.95807275390625,-0.03423307090997696,0.0394829623401165,-0.04289313778281212
1782845613807077600,0.96807763671875,-0.06319814175367355,0.022853383794426918,-0.05062749236822128
1782845613817082600,0.97808251953125,-0.08995545655488968,0.006684534251689911,-0.06457339972257614
1782845613827087600,0.988087646484375,-0.10023472458124161,0.013317669741809368,-0.09614171087741852
1782845613837092600,0.998092529296875,-0.10981731116771698,0.023502130061388016,-0.11747576296329498
1782845613847097600,1.00809765625,-0.11225330084562302,0.021266406401991844,-0.12140978127717972
1782845613857102600,1.0181025390625,-0.10366088151931763,0.016649017110466957,-0.11293800175189972
1782845613867107600,1.028107666015625,-0.10679168999195099,0.04356372356414795,-0.094815194606781
1782845613877112600,1.038112548828125,-0.0878041535615921,0.06606557220220566,-0.04571635648608208
1782845613887117600,1.04811767578125,-0.06902194768190384,0.07762422412633896,0.009545568376779556
1782845613897123800,1.058123779296875,-0.05350663512945175,0.07821304351091385,0.049849580973386765
1782845613907128800,1.06812890625,-0.02063923142850399,0.07737628370523453,0.058273427188396454
1782845613917133800,1.0781337890625,0.011153585277497768,0.07430326193571091,0.04674327000975609
1782845613927138800,1.088138916015625,0.041244108229875565,0.06745893508195877,0.028785841539502144
1782845613937143000,1.09814306640625,0.056228384375572205,0.05396709591150284,-0.005988916382193565
1782845613947148000,1.10814794921875,0.061529140919446945,0.04801040142774582,-0.04026033729314804
1782845613957153000,1.118153076171875,0.061884671449661255,0.038606248795986176,-0.06274167448282242
1782845613967158000,1.128157958984375,0.06385833770036697,0.03611459583044052,-0.08224666863679886
1782845613977163000,1.1381630859375,0.07505933195352554,0.03412308171391487,-0.10362493246793747
1782845613987168000,1.14816796875,0.07848149538040161,0.03578649461269379,-0.12898914515972137
1782845613997173000,1.158173095703125,0.07345903664827347,0.04086567461490631,-0.13159291446208954
1782845614007179000,1.168178955078125,0.05871018394827843,0.04775740206241608,-0.10699089616537094
1782845614017184000,1.17818408203125,0.04192427918314934,0.06028171628713608,-0.06172887608408928
1782845614027189000,1.18818896484375,0.02786891534924507,0.0720592811703682,-0.012197810225188732
1782845614037194000,1.198194091796875,0.015127287246286869,0.07968950271606445,0.044611942023038864
1782845614047199200,1.20819921875,0.01455630548298359,0.08949659019708633,0.08219233900308609
1782845614057204200,1.218204345703125,0.024889370426535606,0.10658156871795654,0.09590549021959305
1782845614067209200,1.228209228515625,0.022815832868218422,0.12037834525108337,0.10951291024684906
1782845614077214200,1.238214111328125,0.024513065814971924,0.12963415682315826,0.12664316594600677
1782845614087219200,1.24821923828125,0.025428926572203636,0.14318005740642548,0.15401646494865417
1782845614097224200,1.25822412109375,0.033305227756500244,0.13948918879032135,0.16463209688663483
1782845614107229200,1.268229248046875,0.05168822780251503,0.12676593661308289,0.18090853095054626
1782845614117234200,1.278234130859375,0.07773101329803467,0.1255856156349182,0.20717501640319824
1782845614127240200,1.288240234375,0.1123659536242485,0.12641891837120056,0.24816320836544037
1782845614137245200,1.2982451171875,0.1592157483100891,0.12653183937072754,0.3084028363227844
1782845614147250200,1.308250244140625,0.2046077400445938,0.1416333019733429,0.3737584054470062
1782845614157255200,1.318255126953125,0.2475522756576538,0.17067506909370422,0.4120650589466095
1782845614167260200,1.32826025390625,0.28887468576431274,0.178743377327919,0.4095377027988434
1782845614177265200,1.33826513671875,0.3185846507549286,0.15722183883190155,0.3313073515892029
1782845614187270100,1.348270263671875,0.32320868968963623,0.10421055555343628,0.18628278374671936
1782845614197275100,1.358275146484375,0.3063732385635376,0.016053801402449608,-0.0015446334145963192
1782845614207280000,1.368280029296875,0.25936898589134216,-0.11430153995752335,-0.21218709647655487
1782845614217285000,1.37828515625,0.16257134079933167,-0.2365933656692505,-0.42538565397262573
1782845614227290000,1.3882900390625,0.040350351482629776,-0.3754314184188843,-0.6049783229827881
1782845614237295000,1.398295166015625,-0.06490975618362427,-0.4364287257194519,-0.733569860458374
1782845614247300000,1.408300048828125,-0.1195405125617981,-0.462421178817749,-0.7982785105705261
1782845614257306000,1.41830615234375,-0.10105444490909576,-0.5433642268180847,-0.7631384134292603
1782845614267311000,1.42831103515625,-0.062488943338394165,-0.5445096492767334,-0.7054671049118042
1782845614277316000,1.438316162109375,0.01486176997423172,-0.6004485487937927,-0.5854091644287109
1782845614287321000,1.448321044921875,0.09647806733846664,-0.6689133644104004,-0.38382142782211304
1782845614297326000,1.458326171875,0.1666635423898697,-0.6780799627304077,-0.1653013378381729
1782845614307331000,1.4683310546875,0.20879769325256348,-0.6190544366836548,0.0522267185151577
1782845614317336000,1.478336181640625,0.21063180267810822,-0.49280649423599243,0.22852478921413422
1782845614327341000,1.488341064453125,0.18528437614440918,-0.37300100922584534,0.36185967922210693
1782845614337346000,1.498345947265625,0.14049533009529114,-0.30980685353279114,0.4380982518196106
1782845614347351000,1.50835107421875,0.09678912907838821,-0.2695654332637787,0.4572381377220154
1782845614357356000,1.51835595703125,0.06414889544248581,-0.23702213168144226,0.42745012044906616
1782845614367361000,1.528361083984375,0.05224642530083656,-0.19949713349342346,0.3628107011318207
1782845614377366000,1.538365966796875,0.04512326791882515,-0.13819169998168945,0.30285200476646423
1782845614387372000,1.5483720703125,0.03978949040174484,-0.0951606035232544,0.2592076063156128
1782845614397377000,1.558376953125,0.020689832046628,-0.060201287269592285,0.23255734145641327
1782845614407382000,1.568382080078125,-0.006147108506411314,-0.03542803227901459,0.2198151797056198
1782845614417387300,1.57838720703125,-0.04369182139635086,-0.005240035708993673,0.19943641126155853
1782845614427392300,1.588392333984375,-0.08597882091999054,0.03418167307972908,0.16645821928977966
1782845614437397200,1.598397216796875,-0.12815210223197937,0.08327171951532364,0.12522876262664795
1782845614447402200,1.60840234375,-0.1631404608488083,0.15312643349170685,0.07578477263450623
1782845614457407200,1.6184072265625,-0.18525907397270203,0.23908661305904388,0.031017836183309555
1782845614467412200,1.628412109375,-0.19355455040931702,0.31435152888298035,0.005352421198040247
1782845614477417200,1.638417236328125,-0.19138860702514648,0.3653862178325653,0.02279612608253956
1782845614487422200,1.648422119140625,-0.17070436477661133,0.39483386278152466,0.025722406804561615
1782845614497427200,1.65842724609375,-0.14092355966567993,0.39191824197769165,0.006687463726848364
1782845614507433200,1.66843310546875,-0.10319482535123825,0.3534371554851532,-0.005173456855118275
1782845614517438200,1.678438232421875,-0.05878448858857155,0.2909626066684723,-0.0023880566004663706
1782845614527443200,1.688443115234375,-0.01272857841104269,0.22593753039836884,0.0067662931978702545
1782845614537448200,1.6984482421875,0.04543299600481987,0.16766835749149323,0.0022189458832144737
1782845614547453200,1.708453125,0.09828262776136398,0.12166411429643631,-0.009616941213607788
1782845614557458200,1.718458251953125,0.14543229341506958,0.10037853568792343,-0.04049016907811165
1782845614567463200,1.728463134765625,0.18772755563259125,0.11282588541507721,-0.0999782606959343
1782845614577468200,1.73846826171875,0.23839712142944336,0.14623203873634338,-0.17366500198841095
1782845614587473200,1.74847314453125,0.28240400552749634,0.16704465448856354,-0.23694516718387604
1782845614597478100,1.75847802734375,0.32960081100463867,0.19336573779582977,-0.29805487394332886
1782845614607483100,1.768483154296875,0.3574278950691223,0.2346372753381729,-0.35166534781455994
1782845614617488100,1.778488037109375,0.3587208688259125,0.2603309154510498,-0.39475318789482117
1782845614627493000,1.7884931640625,0.34000682830810547,0.2575415372848511,-0.40361112356185913
1782845614637499100,1.7984990234375,0.30676180124282837,0.24914324283599854,-0.37689533829689026
1782845614647504100,1.808504150390625,0.24953632056713104,0.24631576240062714,-0.3372259736061096
1782845614657509000,1.818509033203125,0.16819486021995544,0.23540106415748596,-0.2977011799812317
1782845614667514000,1.82851416015625,0.09194723516702652,0.22637322545051575,-0.24499909579753876
1782845614677519000,1.83851904296875,0.016585635021328926,0.21965938806533813,-0.19622011482715607
1782845614687524000,1.848524169921875,-0.05116358399391174,0.1927233785390854,-0.15487773716449738
1782845614697529000,1.858529052734375,-0.10322146117687225,0.17032432556152344,-0.1323401927947998
1782845614707534000,1.8685341796875,-0.15886102616786957,0.1353205442428589,-0.11373082548379898
1782845614717539000,1.8785390625,-0.21206405758857727,0.09517205506563187,-0.10586357861757278
1782845614727544000,1.8885439453125,-0.26917821168899536,0.07709372043609619,-0.09345245361328125
1782845614737549000,1.898549072265625,-0.33117181062698364,0.05816316977143288,-0.05005118250846863
1782845614747554000,1.908553955078125,-0.38729098439216614,0.04272855445742607,0.013715812005102634
1782845614757559000,1.91855908203125,-0.4256085455417633,0.036562804132699966,0.08037979155778885
1782845614767565000,1.92856494140625,-0.4477631151676178,0.017557954415678978,0.12573981285095215
1782845614777570300,1.9385703125,-0.4538590908050537,0.009823868982493877,0.15532593429088593
1782845614787575300,1.9485751953125,-0.45122575759887695,0.016438893973827362,0.1725374162197113
1782845614797580300,1.958580322265625,-0.43277353048324585,0.03438114374876022,0.18891292810440063
1782845614807585300,1.968585205078125,-0.39856523275375366,0.053110890090465546,0.17252063751220703
1782845614817590300,1.97859033203125,-0.35059022903442383,0.0713849663734436,0.1411997377872467
1782845614827595300,1.98859521484375,-0.3004564940929413,0.08330447971820831,0.10248376429080963
1782845614837600300,1.998600341796875,-0.2569529712200165,0.08332471549510956,0.07411603629589081
1782845614847605200,2.008605224609375,-0.22282108664512634,0.07105926424264908,0.060316335409879684
1782845614857610200,2.0186103515625,-0.192231222987175,0.05126478523015976,0.04205290973186493
1782845614867615200,2.028615234375,-0.15776486694812775,0.03554334491491318,0.021104220300912857
1782845614877620200,2.0386201171875,-0.12401648610830307,0.027183683589100838,0.010308030992746353
1782845614887625200,2.048625244140625,-0.10481403023004532,0.01549107488244772,0.00375958438962698
1782845614897631200,2.05863134765625,-0.09720911085605621,-0.0006298375665210187,-0.0006673881434835494
1782845614907636200,2.06863623046875,-0.09709911793470383,-0.013496633619070053,0.0013193299528211355
1782845614917641200,2.07864111328125,-0.09867784380912781,-0.027814587578177452,0.005015797447413206
1782845614927646200,2.088646240234375,-0.0892433300614357,-0.035120703279972076,0.006174272391945124
1782845614937651700,2.098651611328125,-0.08798179030418396,-0.03874899446964264,0.006373477168381214
1782845614947656700,2.10865673828125,-0.08856289088726044,-0.039137814193964005,-0.0015662050573155284
1782845614957661700,2.11866162109375,-0.10136683285236359,-0.040997765958309174,-0.004257062915712595
1782845614967666700,2.128666748046875,-0.11631808429956436,-0.040698159486055374,-0.008388158865272999
1782845614977671700,2.138671630859375,-0.12606605887413025,-0.04417944699525833,-0.009798835031688213
1782845614987676700,2.1486767578125,-0.14985661208629608,-0.04122493416070938,-0.015687083825469017
1782845614997681700,2.158681640625,-0.18718692660331726,-0.03280455246567726,-0.030834078788757324
1782845615007686700,2.168686767578125,-0.23103508353233337,-0.018544122576713562,-0.036037627607584
1782845615017691600,2.178691650390625,-0.2644217908382416,-0.008164718747138977,-0.03261014074087143
1782845615027697700,2.18869775390625,-0.2742201089859009,-0.006580937188118696,-0.010751181282103062
1782845615037702700,2.19870263671875,-0.2499094307422638,-0.012967463582754135,0.015593873336911201
1782845615047707600,2.208707763671875,-0.21020036935806274,-0.01846582628786564,0.02966761402785778
1782845615057712600,2.218712646484375,-0.16815252602100372,-0.022909043356776237,0.02280757762491703
1782845615067717600,2.228717529296875,-0.119631327688694,-0.005468002520501614,0.006345780100673437
1782845615077722600,2.23872265625,-0.07275596261024475,-0.012181032449007034,-0.023788420483469963
1782845615087727600,2.2487275390625,-0.03640487790107727,-0.01477308664470911,-0.046366166323423386
1782845615097732600,2.258732666015625,-0.01270008273422718,-0.022534603253006935,-0.06916522234678268
1782845615107737600,2.268737548828125,0.005110872443765402,-0.04412378370761871,-0.08581450581550598
1782845615117742600,2.27874267578125,0.02304965816438198,-0.07033035904169083,-0.09943071752786636
1782845615127747600,2.28874755859375,0.040314931422472,-0.0981992706656456,-0.10132795572280884
1782845615137752600,2.298752685546875,0.03982517868280411,-0.1293390840291977,-0.0808919221162796
1782845615147757600,2.308757568359375,0.03958016633987427,-0.14585120975971222,-0.04402657970786095
1782845615157763600,2.318763671875,0.04139697551727295,-0.15096688270568848,0.0025832662358880043
1782845615167768600,2.3287685546875,0.039738092571496964,-0.1521035134792328,0.05073454976081848
1782845615177773600,2.338773681640625,0.02671310305595398,-0.14695829153060913,0.099868543446064
1782845615187778600,2.348778564453125,0.019302858039736748,-0.14589808881282806,0.13448430597782135
1782845615197783600,2.358783447265625,-0.005505286622792482,-0.14126898348331451,0.15547135472297668
1782845615207788800,2.368788818359375,-0.038230475038290024,-0.12093547731637955,0.13973526656627655
1782845615217793800,2.378793701171875,-0.07121079415082932,-0.09876199811697006,0.08093879371881485
1782845615227798800,2.388798828125,-0.10547635704278946,-0.08050256222486496,-0.008606537245213985
1782845615237803800,2.3988037109375,-0.14211079478263855,-0.06041647121310234,-0.12137729674577713
1782845615247808800,2.408808837890625,-0.16641373932361603,-0.06880995631217957,-0.2309674322605133
1782845615257813800,2.418813720703125,-0.16708512604236603,-0.10766547918319702,-0.31539177894592285
1782845615267818800,2.42881884765625,-0.15413790941238403,-0.1693914234638214,-0.34948503971099854
1782845615277823700,2.43882373046875,-0.14425677061080933,-0.25231000781059265,-0.34108489751815796
1782845615287828700,2.448828857421875,-0.13537034392356873,-0.30529358983039856,-0.2966063618659973
1782845615297834800,2.458834716796875,-0.11959430575370789,-0.3323603570461273,-0.22086313366889954
1782845615307839700,2.46883984375,-0.07748866826295853,-0.3266918361186981,-0.12966878712177277
1782845615317844700,2.4788447265625,-0.03105378895998001,-0.29529476165771484,-0.05505739152431488
1782845615327849700,2.488849609375,0.015032744966447353,-0.25454095005989075,0.028016187250614166
1782845615337854700,2.498854736328125,0.0588473379611969,-0.22273561358451843,0.10571098327636719
1782845615347859700,2.508859619140625,0.09443489462137222,-0.19663342833518982,0.207341730594635
1782845615357864700,2.51886474609375,0.11649411916732788,-0.17357152700424194,0.32391440868377686
1782845615367869700,2.52886962890625,0.12340769171714783,-0.14622777700424194,0.43492910265922546
1782845615377874700,2.538874755859375,0.12027208507061005,-0.11401978135108948,0.5242046117782593
1782845615387879700,2.548879638671875,0.11042584478855133,-0.10278603434562683,0.5627874732017517
1782845615397884700,2.558884765625,0.08856315165758133,-0.08092521131038666,0.557986319065094
1782845615407889700,2.5688896484375,0.05291328206658363,-0.04993267357349396,0.4935236871242523
1782845615417894700,2.578894775390625,0.015278289094567299,-0.013368269428610802,0.37947967648506165
1782845615427899600,2.588899658203125,-0.015561116859316826,0.023559654131531715,0.23234695196151733
1782845615437905700,2.59890576171875,-0.04041692987084389,0.05871231481432915,0.07430805265903473
1782845615447910700,2.60891064453125,-0.051833637058734894,0.08663342893123627,-0.0630042627453804
1782845615457915600,2.61891552734375,-0.05726994574069977,0.08555058389902115,-0.1714223474264145
1782845615467920600,2.628920654296875,-0.06012964993715286,0.06850636005401611,-0.2595066726207733
1782845615477925600,2.638925537109375,-0.045522209256887436,0.054857656359672546,-0.32501617074012756
1782845615487930600,2.6489306640625,-0.01221805065870285,0.045631665736436844,-0.36721208691596985
1782845615497935600,2.658935546875,0.046940878033638,0.053943660110235214,-0.37374934554100037
1782845615507940600,2.668940673828125,0.1056598499417305,0.07960721105337143,-0.3318919241428375
1782845615517945600,2.678945556640625,0.1563214361667633,0.08912428468465805,-0.23792068660259247
1782845615527950600,2.68895068359375,0.1995762288570404,0.10041102766990662,-0.10815150290727615
1782845615537955600,2.69895556640625,0.2327224612236023,0.10994753986597061,0.024177774786949158
1782845615547960600,2.708960693359375,0.26143720746040344,0.11643393337726593,0.14046922326087952
1782845615557965600,2.718965576171875,0.27858927845954895,0.13520629703998566,0.21564041078090668
1782845615567970600,2.728970458984375,0.29518502950668335,0.1695549488067627,0.24598713219165802
1782845615577976600,2.7389765625,0.3040323257446289,0.20564770698547363,0.2629932761192322
1782845615587981800,2.74898193359375,0.3009483814239502,0.24978932738304138,0.25634709000587463
1782845615597986800,2.75898681640625,0.2842058837413788,0.26238128542900085,0.2350229024887085
1782845615607991800,2.76899169921875,0.2522445023059845,0.25063276290893555,0.19713729619979858
1782845615617996800,2.778996826171875,0.20139916241168976,0.21269549429416656,0.14161118865013123
1782845615628001800,2.789001708984375,0.14556066691875458,0.15800482034683228,0.06255685538053513
1782845615638006800,2.7990068359375,0.08565418422222137,0.09633878618478775,-0.034274615347385406
1782845615648011800,2.80901171875,0.03293691202998161,0.035113245248794556,-0.15018603205680847
1782845615658016800,2.819016845703125,-0.01606818288564682,-0.020183831453323364,-0.2680698037147522
1782845615668021800,2.829021728515625,-0.06284154951572418,-0.07077936083078384,-0.36449992656707764
1782845615678026800,2.83902685546875,-0.09919475764036179,-0.11236569285392761,-0.43896618485450745
1782845615688031700,2.84903173828125,-0.12437041848897934,-0.1435350626707077,-0.4600810408592224
1782845615698036700,2.85903662109375,-0.13437804579734802,-0.1576969474554062,-0.43632087111473083
1782845615708041700,2.869041748046875,-0.1275736689567566,-0.14445091784000397,-0.36436012387275696
1782845615718047700,2.8790478515625,-0.10804657638072968,-0.11952559649944305,-0.24419349431991577
1782845615728052700,2.889052734375,-0.0765877217054367,-0.08467573672533035,-0.09236428141593933
1782845615738057700,2.8990576171875,-0.04490089416503906,-0.04626709595322609,0.061411429196596146
1782845615748062700,2.909062744140625,-0.010881409980356693,-0.014993330463767052,0.17899905145168304
1782845615758067700,2.919067626953125,0.030349116772413254,0.002296443795785308,0.2529459595680237
1782845615768072700,2.92907275390625,0.0618647001683712,0.011233746074140072,0.2836458384990692
1782845615778077700,2.93907763671875,0.09447324275970459,0.01912495866417885,0.2793584167957306
1782845615788082700,2.949082763671875,0.11915568262338638,0.029584523290395737,0.2592017352581024
1782845615798087700,2.959087646484375,0.13663534820079803,0.04392697662115097,0.22959192097187042
1782845615808092700,2.9690927734375,0.14870798587799072,0.04397544637322426,0.18933451175689697
1782845615818097700,2.97909765625,0.16751550137996674,0.03947363793849945,0.14354358613491058
1782845615828102700,2.9891025390625,0.18672966957092285,0.016515860334038734,0.1009569764137268
1782845615838107600,2.999107666015625,0.20208892226219177,0.0015717976493760943,0.05825957655906677
1782845615848112600,3.009112548828125,0.20789355039596558,-0.015560850501060486,0.022335931658744812
1782845615858118700,3.01911865234375,0.210573211312294,-0.03273610770702362,-0.007068828213959932
1782845615868123600,3.02912353515625,0.20754440128803253,-0.04322390258312225,-0.020052004605531693
1782845615878128600,3.039128662109375,0.20058315992355347,-0.05759857967495918,-0.02106640301644802
1782845615888133600,3.049133544921875,0.18067710101604462,-0.06852632761001587,-0.012015117332339287
1782845615898138600,3.059138671875,0.15272802114486694,-0.08149486035108566,0.015802398324012756
1782845615908143600,3.0691435546875,0.11824808269739151,-0.06899771094322205,0.04534830525517464
1782845615918148600,3.079148681640625,0.08713463693857193,-0.043246008455753326,0.058874234557151794
1782845615928153600,3.089153564453125,0.05760230869054794,-0.03339311107993126,0.08203255385160446
1782845615938159000,3.0991591796875,0.03961079195141792,-0.021559886634349823,0.0987609326839447
1782845615948164000,3.1091640625,0.01227504201233387,-0.009229451417922974,0.11970802396535873
1782845615958169000,3.119169189453125,-0.009891512803733349,0.006742857396602631,0.12905731797218323
1782845615968174000,3.129174072265625,-0.022702382877469063,0.027890220284461975,0.1306472271680832
1782845615978179000,3.139178955078125,-0.0283469520509243,0.039320774376392365,0.10478740185499191
1782845615988184000,3.14918408203125,-0.019100723788142204,0.047868188470602036,0.06964432448148727
1782845615998189000,3.15918896484375,-0.00007909588020993397,0.04350140318274498,0.030060164630413055
1782845616008194800,3.16919482421875,0.02552107162773609,0.038844600319862366,0.011230017989873886
1782845616018199800,3.17919970703125,0.05798979848623276,0.02894935943186283,0.012494220398366451
1782845616028204800,3.189204833984375,0.09061325341463089,0.014311561360955238,0.012928848154842854
1782845616038209800,3.199209716796875,0.11929257214069366,0.014597051776945591,0.0006359628750942647
1782845616048215000,3.209215087890625,0.1438213437795639,0.01973242498934269,-0.01537336315959692
1782845616058220000,3.219219970703125,0.16721215844154358,0.03388499468564987,-0.028251079842448235
1782845616068225000,3.22922509765625,0.18960562348365784,0.04285159334540367,-0.031268440186977386
1782845616078230000,3.23922998046875,0.19834744930267334,0.04566388949751854,-0.028534704819321632
1782845616088235000,3.249235107421875,0.18863941729068756,0.038668300956487656,-0.023033946752548218
1782845616098240000,3.259239990234375,0.1612916886806488,0.026929352432489395,-0.01624048873782158
1782845616108245000,3.269244873046875,0.12984667718410492,0.026101907715201378,-0.012052934616804123
1782845616118250000,3.27925,0.09806744754314423,0.02094070240855217,0.005345230456441641
1782845616128255000,3.2892548828125,0.0797148048877716,0.015917712822556496,0.01564713567495346
1782845616138260000,3.299260009765625,0.06437552720308304,0.020323647186160088,0.02503797598183155
1782845616148265200,3.30926513671875,0.054311174899339676,0.0185244157910347,0.035540416836738586
1782845616158271000,3.31927099609375,0.03892742469906807,0.01677844673395157,0.04494137689471245
1782845616168276000,3.32927587890625,0.020728981122374535,0.025490712374448776,0.05926785245537758
1782845616178281000,3.339281005859375,0.014481470920145512,0.0476122610270977,0.06302344053983688
1782845616188286000,3.349285888671875,0.02352023869752884,0.08097421377897263,0.05619749054312706
1782845616198291000,3.359291015625,0.03917829692363739,0.10153061896562576,0.050463173538446426
1782845616208296000,3.3692958984375,0.07097537070512772,0.11529117077589035,0.04779309034347534
1782845616218301200,3.37930126953125,0.10956510901451111,0.1244785487651825,0.041916292160749435
1782845616228306200,3.38930615234375,0.14713113009929657,0.12235067784786224,0.037288516759872437
1782845616238311200,3.399311279296875,0.17629007995128632,0.11756817251443863,0.03886590525507927
1782845616248316200,3.409316162109375,0.19137048721313477,0.10616478323936462,0.04803037643432617
1782845616258321200,3.419321044921875,0.19843585789203644,0.07779359817504883,0.05344991013407707
1782845616268326100,3.429326171875,0.2053225338459015,0.05613331124186516,0.0564960315823555
1782845616278331100,3.4393310546875,0.21537090837955475,0.037205424159765244,0.05323685705661774
1782845616288336100,3.449336181640625,0.20999637246131897,0.03133128955960274,0.03814605250954628
1782845616298341000,3.459341064453125,0.19350528717041016,0.015457785688340664,0.005595034919679165
1782845616308347000,3.469346923828125,0.1612892895936966,0.009821205399930477,-0.04598933085799217
1782845616318352000,3.479351806640625,0.13253061473369598,0.006380667444318533,-0.10202489793300629
1782845616328356900,3.48935693359375,0.11577613651752472,0.00487331859767437,-0.17095443606376648
1782845616338361900,3.49936181640625,0.11949390918016434,-0.00714552728459239,-0.2475634515285492
1782845616348366800,3.509366943359375,0.14800943434238434,-0.018619490787386894,-0.3294607102870941
1782845616358372000,3.5193720703125,0.18998245894908905,-0.025440111756324768,-0.384793221950531
1782845616368377000,3.529377197265625,0.23213016986846924,-0.03393985703587532,-0.41909366846084595
1782845616378382000,3.539382080078125,0.2782694399356842,-0.045955508947372437,-0.4236055910587311
1782845616388387000,3.549386962890625,0.3256651759147644,-0.05636820197105408,-0.3890255093574524
1782845616398392000,3.55939208984375,0.3494197726249695,-0.06773430854082108,-0.32282891869544983
1782845616408397000,3.56939697265625,0.3738393783569336,-0.08276518434286118,-0.22312070429325104
1782845616418402000,3.579402099609375,0.38225388526916504,-0.0856107771396637,-0.11157926172018051
1782845616428407000,3.589406982421875,0.3771025538444519,-0.08108686655759811,0.005864280741661787
1782845616438412000,3.599412109375,0.35998162627220154,-0.08447813242673874,0.09704159200191498
1782845616448417000,3.6094169921875,0.34041908383369446,-0.09240502864122391,0.1612623929977417
1782845616458422000,3.619422119140625,0.32327979803085327,-0.10310135036706924,0.18907831609249115
1782845616468427800,3.629427734375,0.29574695229530334,-0.10929080098867416,0.1954757571220398
1782845616478432800,3.639432861328125,0.26369982957839966,-0.0941707044839859,0.19360995292663574
1782845616488438000,3.64943798828125,0.22431832551956177,-0.055321577936410904,0.21268244087696075
1782845616498443000,3.659443115234375,0.1845269650220871,-0.04309394210577011,0.24623587727546692
1782845616508448000,3.669447998046875,0.15540850162506104,-0.04688441753387451,0.28222477436065674
1782845616518453200,3.679453369140625,0.1270386427640915,-0.047325436025857925,0.30490371584892273
1782845616528458200,3.689458251953125,0.09816811233758926,-0.04089922830462456,0.30020830035209656
1782845616538463200,3.699463134765625,0.06880410015583038,-0.02767423912882805,0.2535957992076874
1782845616548468200,3.70946826171875,0.049018409103155136,-0.015453524887561798,0.18040572106838226
1782845616558473200,3.71947314453125,0.02515462227165699,0.0044136568903923035,0.10313144326210022
1782845616568478200,3.729478271484375,-0.0010607370641082525,0.03882675617933273,0.03261999413371086
1782845616578483200,3.739483154296875,-0.03051822818815708,0.07050372660160065,-0.016401875764131546
1782845616588488200,3.74948828125,-0.0631352961063385,0.09238532185554504,-0.042384207248687744
1782845616598493200,3.7594931640625,-0.08971337229013443,0.10689689218997955,-0.03845977410674095
1782845616608498200,3.769498291015625,-0.11305838078260422,0.11367383599281311,-0.014731542207300663
1782845616618503200,3.779503173828125,-0.1307135373353958,0.10497648268938065,0.02262355387210846
1782845616628509000,3.789509033203125,-0.1501956284046173,0.1013047844171524,0.05264110863208771
1782845616638514000,3.799513916015625,-0.17270971834659576,0.09388548135757446,0.08005888015031815
1782845616648519000,3.809518798828125,-0.1831194907426834,0.08169592916965485,0.1191149353981018
1782845616658524200,3.819524169921875,-0.188640758395195,0.07840079814195633,0.11182959377765656
1782845616668529200,3.829529052734375,-0.18880586326122284,0.0709785670042038,0.05982578173279762
1782845616678534100,3.8395341796875,-0.18416903913021088,0.06510896235704422,-0.0023257385473698378
1782845616688539100,3.8495390625,-0.16876958310604095,0.05222565308213234,-0.047032490372657776
1782845616698544000,3.859544189453125,-0.159783273935318,0.04008909687399864,-0.06335154175758362
1782845616708549000,3.869549072265625,-0.14466823637485504,0.03463973477482796,-0.0702430009841919
1782845616718554000,3.87955419921875,-0.12504206597805023,0.05374525487422943,-0.07449660450220108
1782845616728559000,3.88955908203125,-0.0939219668507576,0.09087903797626495,-0.07982612401247025
1782845616738564000,3.899564208984375,-0.0527697391808033,0.12221592664718628,-0.0942109227180481
1782845616748569000,3.909569091796875,-0.009926932863891125,0.13832299411296844,-0.10414504259824753
1782845616758574000,3.919573974609375,0.023870179429650307,0.14345702528953552,-0.09601574391126633
1782845616768579000,3.9295791015625,0.03724271059036255,0.13647715747356415,-0.09246228635311127
1782845616778584000,3.939583984375,0.047141145914793015,0.14065484702587128,-0.1042073592543602
1782845616788590000,3.949590087890625,0.058520033955574036,0.1483852118253708,-0.12052801251411438
1782845616798595000,3.959594970703125,0.06883179396390915,0.15698295831680298,-0.1458514779806137
1782845616808600000,3.96960009765625,0.07056950777769089,0.16777941584587097,-0.16655009984970093
1782845616818605000,3.97960498046875,0.05770191177725792,0.17176297307014465,-0.17579632997512817
1782845616828610000,3.989610107421875,0.041063278913497925,0.16883589327335358,-0.1726202368736267
1782845616838615000,3.999614990234375,0.021982530131936073,0.16745024919509888,-0.1668694168329239
1782845616848620000,4.0096201171875,0.010017480701208115,0.16846971213817596,-0.14684510231018066
1782845616858625000,4.019625,0.0029878003988415003,0.1581568866968155,-0.1150035485625267
1782845616868630000,4.029630126953125,-0.009905627928674221,0.13660897314548492,-0.07207632064819336
1782845616878635000,4.039635009765625,-0.01830443926155567,0.12416988611221313,-0.04138712212443352
1782845616888640000,4.049639892578125,-0.03803633153438568,0.11759907007217407,-0.020364394411444664
1782845616898645000,4.05964501953125,-0.060572534799575806,0.12234695255756378,-0.0017057546647265553
1782845616908650000,4.06964990234375,-0.07480073720216751,0.12710095942020416,0.009578324854373932
1782845616918655000,4.079655029296875,-0.0865790992975235,0.13502280414104462,0.02532612904906273
1782845616928660000,4.089659912109375,-0.09539416432380676,0.14622671902179718,0.04247741773724556
1782845616938665000,4.0996650390625,-0.09665064513683319,0.15155276656150818,0.05802974849939346
1782845616948670000,4.109669921875,-0.10231518745422363,0.15679121017456055,0.06484290957450867
1782845616958676000,4.119676025390625,-0.10987430065870285,0.16424939036369324,0.052976664155721664
1782845616968681000,4.129680908203125,-0.11789601296186447,0.1584160029888153,0.028140557929873466
1782845616978686000,4.13968603515625,-0.11781904101371765,0.15504950284957886,-0.00045327001134864986
1782845616988691000,4.14969091796875,-0.10890384763479233,0.15099431574344635,-0.018614429980516434
1782845616998696000,4.159696044921875,-0.09477178007364273,0.1527426689863205,-0.03398166969418526
1782845617008701000,4.169700927734375,-0.08473166823387146,0.145175039768219,-0.04218953102827072
1782845617018706000,4.179705810546875,-0.08031108230352402,0.138674795627594,-0.05885745584964752
1782845617028711200,4.189711181640625,-0.0905165821313858,0.1359652876853943,-0.08082587271928787
1782845617038716200,4.199716064453125,-0.09671269357204437,0.13287761807441711,-0.1117667481303215
1782845617048721200,4.20972119140625,-0.10248323529958725,0.11904916167259216,-0.14957377314567566
1782845617058726100,4.21972607421875,-0.10953554511070251,0.1024550050497055,-0.18685616552829742
1782845617068731100,4.229731201171875,-0.11332922428846359,0.06114484742283821,-0.20340052247047424
1782845617078736100,4.239736083984375,-0.11878657341003418,0.023081617429852486,-0.2125205248594284
1782845617088741000,4.2497412109375,-0.11596947908401489,0.00800093449652195,-0.19426268339157104
1782845617098746000,4.25974609375,-0.11527785658836365,-0.018497517332434654,-0.15589399635791779
1782845617108751000,4.269751220703125,-0.11203838884830475,-0.046115562319755554,-0.10458473116159439
1782845617118756000,4.279756103515625,-0.11090175062417984,-0.045047637075185776,-0.05982658267021179
1782845617128762000,4.28976220703125,-0.10576930642127991,-0.026931216940283775,-0.014581605792045593
1782845617138767000,4.29976708984375,-0.09689485281705856,-0.013682522810995579,0.03491590544581413
1782845617148772000,4.309772216796875,-0.07613631337881088,0.006085323169827461,0.08034783601760864
1782845617158777000,4.319777099609375,-0.053771086037158966,0.020917000249028206,0.10857148468494415
1782845617168782000,4.329781982421875,-0.02798929065465927,0.02972913347184658,0.1291409432888031
1782845617178787000,4.339787109375,-0.006131395697593689,0.03406662493944168,0.1305452287197113
1782845617188792000,4.3497919921875,0.007801730185747147,0.030429277569055557,0.11973679065704346
1782845617198797000,4.359797119140625,0.017406953498721123,0.024658475071191788,0.1081581637263298
1782845617208802000,4.369802001953125,0.02304087020456791,0.011843875981867313,0.09845972806215286
1782845617218807000,4.37980712890625,0.021556423977017403,-0.00011478224041638896,0.08799510449171066
1782845617228812000,4.38981201171875,0.01623968966305256,-0.007190268486738205,0.0782705694437027
1782845617238817000,4.399817138671875,0.00965875294059515,-0.005239236634224653,0.0662783533334732
1782845617248822000,4.409822021484375,0.006648315116763115,0.0018434401135891676,0.04733582213521004
1782845617258827000,4.419826904296875,0.010426541790366173,0.01116317231208086,0.03267991542816162
1782845617268832000,4.42983203125,0.017897240817546844,0.0190794188529253,0.0028788771014660597
1782845617278837000,4.4398369140625,0.017196297645568848,0.02328667975962162,-0.027108583599328995
1782845617288842000,4.449842041015625,0.011098457500338554,0.025974076241254807,-0.05844147130846977
1782845617298848000,4.459847900390625,0.00777643034234643,0.01726660504937172,-0.08699268847703934
1782845617308853000,4.46985302734375,0.01209874078631401,0.00506985979154706,-0.11364293843507767
1782845617318858000,4.47985791015625,0.020742828026413918,-0.017541974782943726,-0.13108451664447784
1782845617328863000,4.489863037109375,0.030899325385689735,-0.044317398220300674,-0.13294632732868195
1782845617338868000,4.499867919921875,0.04769748076796532,-0.0764942392706871,-0.12454485893249512
1782845617348873000,4.509873046875,0.06975910812616348,-0.09421278536319733,-0.10604840517044067
1782845617358878000,4.5198779296875,0.08263495564460754,-0.09927678853273392,-0.08096462488174438
1782845617368883000,4.529883056640625,0.08713144063949585,-0.09979210793972015,-0.03013712912797928
1782845617378888000,4.539887939453125,0.08869870752096176,-0.10694269835948944,0.038904521614313126
1782845617388893000,4.549892822265625,0.08894451707601547,-0.0981244370341301,0.1143055334687233
1782845617398898000,4.55989794921875,0.094983771443367,-0.07548011094331741,0.18973398208618164
1782845617408903000,4.56990283203125,0.1006762757897377,-0.05801190435886383,0.2619445323944092
1782845617418908000,4.579907958984375,0.10849105566740036,-0.05252925306558609,0.3233751356601715
1782845617428913000,4.589912841796875,0.11176381260156631,-0.04778563231229782,0.38084959983825684
1782845617438918000,4.59991796875,0.10936111211776733,-0.03448633849620819,0.42700353264808655
1782845617448923000,4.6099228515625,0.08911629021167755,-0.02124536782503128,0.4496835470199585
1782845617458927900,4.619927978515625,0.05232978239655495,-0.007004113402217627,0.4347218871116638
1782845617468932900,4.629932861328125,-0.0001656486128922552,0.008018511347472668,0.37049204111099243
1782845617478937900,4.639937744140625,-0.060326192528009415,0.0098038949072361,0.24724148213863373
1782845617488944000,4.649944091796875,-0.12329956144094467,0.009243831969797611,0.07318073511123657
1782845617498949000,4.65994921875,-0.1817634105682373,0.002092445734888315,-0.12626765668392181
1782845617508954000,4.6699541015625,-0.2250983566045761,-0.017374197021126747,-0.3382891118526459
1782845617518959000,4.679958984375,-0.2426576465368271,-0.07653845101594925,-0.5251740217208862
1782845617528964000,4.689964111328125,-0.22729839384555817,-0.1471439152956009,-0.6535030007362366
1782845617538969000,4.699968994140625,-0.19498254358768463,-0.2283860296010971,-0.6897991895675659
1782845617548974000,4.70997412109375,-0.14622299373149872,-0.2867699861526489,-0.6215530037879944
1782845617558979000,4.71997900390625,-0.09307188540697098,-0.31634438037872314,-0.5256459712982178
1782845617568984000,4.729984130859375,-0.034319888800382614,-0.31923791766166687,-0.4163828492164612
1782845617578989000,4.739989013671875,0.022428343072533607,-0.30508267879486084,-0.2984716594219208
1782845617588994000,4.749994140625,0.07793235033750534,-0.279999703168869,-0.16221074759960175
1782845617598999000,4.7599990234375,0.13553385436534882,-0.25670528411865234,-0.015924638137221336
1782845617609004000,4.770004150390625,0.1960374116897583,-0.24933739006519318,0.12339890003204346
1782845617619009000,4.780009033203125,0.22556282579898834,-0.2414698749780655,0.23121698200702667
1782845617629014000,4.790013916015625,0.22894077003002167,-0.21529100835323334,0.30052149295806885
1782845617639019000,4.80001904296875,0.2091500163078308,-0.1986885964870453,0.33942121267318726
1782845617649024000,4.81002392578125,0.16677939891815186,-0.1578492820262909,0.34639257192611694
1782845617659029000,4.820029052734375,0.11740199476480484,-0.1422402262687683,0.3315262794494629
1782845617669034000,4.830033935546875,0.06875855475664139,-0.09687461704015732,0.29362043738365173
1782845617679040000,4.8400400390625,0.028147747740149498,-0.05729924142360687,0.2400895655155182
1782845617689045000,4.850044921875,-0.009545035660266876,-0.01031788531690836,0.17750394344329834
1782845617699050000,4.860050048828125,-0.027833495289087296,0.023486949503421783,0.12817154824733734
1782845617709055000,4.870054931640625,-0.02810993231832981,0.03105645254254341,0.10275807231664658
1782845617719060000,4.88006005859375,-0.02550802379846573,0.026159698143601418,0.09274671226739883
1782845617729065000,4.89006494140625,-0.019221631810069084,0.008266185410320759,0.06684427708387375
1782845617739070000,4.900070068359375,-0.009410279802978039,-0.025250494480133057,0.04309900104999542
1782845617749075000,4.910074951171875,-0.00022929816623218358,-0.06293049454689026,0.03766082599759102
1782845617759080000,4.920079833984375,0.008860070258378983,-0.10296420007944107,0.02972780168056488
1782845617769085000,4.9300849609375,0.01073972973972559,-0.16742362082004547,0.04945197328925133
1782845617779090000,4.94008984375,0.01865677535533905,-0.20439468324184418,0.06886348873376846
1782845617789095000,4.950094970703125,0.025228124111890793,-0.19432953000068665,0.02949371002614498
1782845617799100000,4.960099853515625,0.02876107394695282,-0.1701299250125885,-0.022473083809018135
1782845617809105000,4.97010498046875,0.034559041261672974,-0.13719433546066284,-0.0672014057636261
1782845617819110000,4.98010986328125,0.04128139466047287,-0.11845074594020844,-0.07606200873851776
1782845617829115000,4.990114990234375,0.059177834540605545,-0.10229814052581787,-0.07605934888124466
1782845617839120000,5.000119873046875,0.09331530332565308,-0.08976743370294571,-0.06314301490783691
1782845617849124900,5.010124755859375,0.13941700756549835,-0.09234164655208588,-0.053098373115062714
1782845617859129900,5.0201298828125,0.2008875608444214,-0.09138850122690201,-0.062311578541994095
1782845617869134800,5.030134765625,0.2616470456123352,-0.10336420685052872,-0.0932745561003685
1782845617879140900,5.040140869140625,0.30733171105384827,-0.12712013721466064,-0.13170023262500763
1782845617889145900,5.050145751953125,0.3459416925907135,-0.1461912989616394,-0.1852279156446457
1782845617899150800,5.06015087890625,0.376316636800766,-0.16056756675243378,-0.24269306659698486
1782845617909155800,5.07015576171875,0.39459338784217834,-0.17252117395401,-0.2699414789676666
1782845617919161000,5.0801611328125,0.40596190094947815,-0.186568021774292,-0.26224198937416077
1782845617929166000,5.090166015625,0.39815402030944824,-0.19354629516601562,-0.22704194486141205
1782845617939170300,5.10017041015625,0.3675106465816498,-0.20123350620269775,-0.15989325940608978
1782845617949175300,5.11017529296875,0.3211665749549866,-0.20154643058776855,-0.0797443613409996
1782845617959180300,5.12018017578125,0.28371426463127136,-0.21451416611671448,0.01794011890888214
1782845617969185300,5.130185302734375,0.24957920610904694,-0.2064112275838852,0.12724317610263824
1782845617979190300,5.140190185546875,0.21141476929187775,-0.18120041489601135,0.23094692826271057
1782845617989195300,5.1501953125,0.16828061640262604,-0.15157674252986908,0.3221285045146942
1782845617999200500,5.160200439453125,0.12292032688856125,-0.11673460900783539,0.3926231861114502
1782845618009205500,5.17020556640625,0.08288796246051788,-0.08700919896364212,0.4316827058792114
1782845618019210500,5.18021044921875,0.0402374342083931,-0.05493515357375145,0.4409552812576294
1782845618029215500,5.190215576171875,0.0033686324022710323,-0.02712882310152054,0.42944297194480896
1782845618039220500,5.200220458984375,-0.027415379881858826,0.005546032916754484,0.4030097723007202
1782845618049225500,5.2102255859375,-0.05675515905022621,0.03395343944430351,0.364957720041275
1782845618059230500,5.22023046875,-0.07796697318553925,0.0629054605960846,0.2960268557071686
1782845618069235500,5.2302353515625,-0.08640093356370926,0.07656747847795486,0.1968824416399002
1782845618079241500,5.240241455078125,-0.08427093923091888,0.0682874470949173,0.07789719849824905
1782845618089246500,5.25024658203125,-0.07416610419750214,0.04701517894864082,-0.04535869136452675
1782845618099251500,5.26025146484375,-0.060984790325164795,0.00911413598805666,-0.1519455909729004
1782845618109256400,5.27025634765625,-0.04546868056058884,-0.020627779886126518,-0.23770657181739807
1782845618119261400,5.280261474609375,-0.03263171389698982,-0.04976089671254158,-0.29073622822761536
1782845618129266400,5.290266357421875,-0.014570420607924461,-0.06532973796129227,-0.30893173813819885
1782845618139271400,5.300271484375,0.00452684098854661,-0.06413024663925171,-0.2950955629348755
1782845618149276400,5.3102763671875,0.011936288326978683,-0.07076897472143173,-0.25209882855415344
1782845618159281400,5.320281494140625,-0.0005707154050469398,-0.06833351403474808,-0.19614340364933014
1782845618169286400,5.330286376953125,-0.028598088771104813,-0.0696168914437294,-0.14560779929161072
1782845618179291400,5.34029150390625,-0.0519886314868927,-0.07060199975967407,-0.11270257830619812
1782845618189296400,5.35029638671875,-0.06477420032024384,-0.06636810302734375,-0.1004437804222107
1782845618199301400,5.36030126953125,-0.08939699083566666,-0.06263089179992676,-0.10004857182502747
1782845618209306400,5.370306396484375,-0.11707655340433121,-0.06951862573623657,-0.10672671347856522
1782845618219311400,5.380311279296875,-0.1432378590106964,-0.08680760115385056,-0.10826548933982849
1782845618229316400,5.39031640625,-0.16813653707504272,-0.11193852126598358,-0.10127895325422287
1782845618239321300,5.4003212890625,-0.19199606776237488,-0.1333378106355667,-0.10435862839221954
1782845618249326600,5.41032666015625,-0.20705358684062958,-0.13643640279769897,-0.11394654214382172
1782845618259331600,5.42033154296875,-0.20812150835990906,-0.11860547959804535,-0.1329905390739441
1782845618269336600,5.430336669921875,-0.19085223972797394,-0.0826549306511879,-0.16453248262405396
1782845618279341600,5.440341552734375,-0.1658475548028946,-0.05140193924307823,-0.20000313222408295
1782845618289347300,5.450347412109375,-0.14019837975502014,-0.016634104773402214,-0.21582071483135223
1782845618299352300,5.460352294921875,-0.11982201039791107,0.00436119269579649,-0.20381784439086914
1782845618309357300,5.470357421875,-0.10570938140153885,0.013847372494637966,-0.16429705917835236
1782845618319362300,5.4803623046875,-0.0893959254026413,0.01829538308084011,-0.12309397011995316
1782845618329367300,5.4903671875,-0.08261152356863022,0.025676866993308067,-0.0850435197353363
1782845618339372300,5.500372314453125,-0.0755445584654808,0.036924462765455246,-0.04302709549665451
1782845618349377300,5.510377197265625,-0.07670649886131287,0.04234905540943146,0.0085439532995224
1782845618359382300,5.52038232421875,-0.08102747797966003,0.036971867084503174,0.06299521028995514
1782845618369387300,5.53038720703125,-0.09947545826435089,0.03139893710613251,0.09924908727407455
1782845618379392500,5.540392578125,-0.1288626343011856,0.04283374920487404,0.10794483870267868
1782845618389397500,5.5503974609375,-0.1454746425151825,0.06885816156864166,0.09075786918401718
1782845618399402500,5.560402587890625,-0.14617878198623657,0.09866345673799515,0.05555780231952667
1782845618409407500,5.570407470703125,-0.1319447159767151,0.11375053226947784,0.028678782284259796
1782845618419412500,5.58041259765625,-0.10675361007452011,0.12145639210939407,0.009287508204579353
1782845618429417500,5.59041748046875,-0.07938376814126968,0.1172480657696724,-0.003570500062778592
1782845618439422500,5.60042236328125,-0.05482010543346405,0.11721290647983551,-0.0035361452028155327
1782845618449427500,5.610427490234375,-0.023604927584528923,0.11393456161022186,-0.011516840197145939
1782845618459432400,5.620432373046875,0.01471662800759077,0.1152067482471466,-0.017166735604405403
1782845618469437400,5.6304375,0.054968975484371185,0.11729174107313156,-0.022876020520925522
1782845618479442400,5.6404423828125,0.08469358086585999,0.10917548835277557,-0.04352031275629997
1782845618489447400,5.650447509765625,0.09952899068593979,0.10870490968227386,-0.07756110280752182
1782845618499453400,5.660453369140625,0.10748784244060516,0.11014781147241592,-0.11871173977851868
1782845618509458400,5.67045849609375,0.11105621606111526,0.1159263327717781,-0.147678941488266
1782845618519463400,5.68046337890625,0.10366727411746979,0.12029791623353958,-0.15076927840709686
1782845618529468400,5.690468505859375,0.08337078988552094,0.12620852887630463,-0.12530092895030975
1782845618539473400,5.700473388671875,0.04989698529243469,0.1190962940454483,-0.07216287404298782
1782845618549478700,5.710478759765625,0.0021406488958746195,0.10621671378612518,-0.0030338731594383717
1782845618559483600,5.720483642578125,-0.046310506761074066,0.09602613002061844,0.0686858519911766
1782845618569488600,5.730488525390625,-0.08760841190814972,0.08743317425251007,0.13369548320770264
1782845618579493600,5.74049365234375,-0.11776018887758255,0.08393111824989319,0.19889472424983978
1782845618589498600,5.75049853515625,-0.13940024375915527,0.10182489454746246,0.2626931369304657
1782845618599503600,5.760503662109375,-0.1516188234090805,0.13121022284030914,0.3031396269798279
1782845618609508600,5.770508544921875,-0.1712244749069214,0.1637905240058899,0.28608208894729614
1782845618619513600,5.780513671875,-0.1914815455675125,0.1927899569272995,0.23538722097873688
1782845618629518600,5.7905185546875,-0.20025452971458435,0.22485601902008057,0.12949754297733307
1782845618639523600,5.800523681640625,-0.17929811775684357,0.26898086071014404,-0.014374678023159504
1782845618649528600,5.810528564453125,-0.1409696340560913,0.3112279176712036,-0.1766546666622162
1782845618659533600,5.820533447265625,-0.08194173872470856,0.31699126958847046,-0.31172406673431396
1782845618669538600,5.83053857421875,-0.0006056028068996966,0.263714998960495,-0.38692426681518555
1782845618679543600,5.84054345703125,0.08906169980764389,0.15933212637901306,-0.3959997892379761
1782845618689548500,5.850548583984375,0.1811854988336563,0.026808178052306175,-0.35494717955589294
1782845618699553500,5.860553466796875,0.26310646533966064,-0.107451893389225,-0.27979329228401184
1782845618709558500,5.87055859375,0.32512643933296204,-0.21111303567886353,-0.18259510397911072
1782845618719564500,5.880564453125,0.37059590220451355,-0.28898173570632935,-0.08313296735286713
1782845618729569500,5.890569580078125,0.39515769481658936,-0.3268774449825287,0.020902352407574654
1782845618739574500,5.900574462890625,0.40117165446281433,-0.32986366748809814,0.12031229585409164
1782845618749579500,5.91057958984375,0.3949451744556427,-0.29559996724128723,0.21862953901290894
1782845618759584500,5.92058447265625,0.3715756833553314,-0.19731706380844116,0.30518868565559387
1782845618769589500,5.930589599609375,0.3229010999202728,-0.13896694779396057,0.41169461607933044
1782845618779594500,5.940594482421875,0.25946539640426636,-0.0985444188117981,0.5111831426620483
1782845618789599500,5.950599609375,0.19542355835437775,-0.07632273435592651,0.5834964513778687
1782845618799604500,5.9606044921875,0.12729483842849731,-0.057918425649404526,0.6342677474021912
1782845618809609500,5.970609375,0.06779502332210541,-0.046720899641513824,0.6454524993896484
1782845618819614500,5.980614501953125,0.012765596620738506,-0.047743555158376694,0.6245163083076477
1782845618829619500,5.990619384765625,-0.042930956929922104,-0.030878819525241852,0.5784433484077454
1782845618839624400,6.00062451171875,-0.10125764459371567,0.008205199614167213,0.513228178024292
1782845618849629400,6.01062939453125,-0.16324405372142792,0.06571296602487564,0.44436758756637573
1782845618859634400,6.020634521484375,-0.21312612295150757,0.12187424302101135,0.373060405254364
1782845618869639400,6.030639404296875,-0.2382676899433136,0.15992601215839386,0.3047439157962799
1782845618879644400,6.04064453125,-0.2403992861509323,0.19309541583061218,0.24501560628414154
1782845618889649400,6.0506494140625,-0.22708667814731598,0.23829539120197296,0.1858218014240265
1782845618899654400,6.060654296875,-0.2118866890668869,0.2745588421821594,0.13881035149097443
1782845618909659400,6.070659423828125,-0.1892855018377304,0.27625608444213867,0.11475454270839691
1782845618919664400,6.080664306640625,-0.1672917902469635,0.2526753842830658,0.11837697774171829
1782845618929669400,6.09066943359375,-0.1419568657875061,0.2087145894765854,0.1278727501630783
1782845618939674000,6.100674072265625,-0.12906184792518616,0.16121046245098114,0.13655997812747955
1782845618949680400,6.110680419921875,-0.12000736594200134,0.1256311684846878,0.12736673653125763
1782845618959685400,6.120685302734375,-0.10970492660999298,0.11273320764303207,0.09748794138431549
1782845618969690400,6.1306904296875,-0.0891415923833847,0.12031469494104385,0.06258402019739151
1782845618979695400,6.1406953125,-0.06658115983009338,0.14965073764324188,0.022582007572054863
1782845618989700400,6.150700439453125,-0.05398626998066902,0.19084344804286957,-0.015981629490852356
1782845618999705300,6.160705322265625,-0.04222681745886803,0.2281775027513504,-0.03955007344484329
1782845619009710300,6.17071044921875,-0.02503957226872444,0.2578381896018982,-0.04970284178853035
1782845619019715300,6.18071533203125,-0.002909237053245306,0.25646960735321045,-0.042939476668834686
1782845619029720300,6.19072021484375,0.01679549179971218,0.24643906950950623,-0.038719434291124344
1782845619039725300,6.200725341796875,0.03191345930099487,0.23109526932239532,-0.03353585675358772
1782845619049730300,6.210730224609375,0.03590952977538109,0.20129555463790894,-0.020851751789450645
1782845619059735300,6.2207353515625,0.03552017733454704,0.17450496554374695,-0.017620539292693138
1782845619069740300,6.230740234375,0.01816835068166256,0.14094673097133636,-0.010979680344462395
1782845619079745300,6.240745361328125,0.0019323896849527955,0.11270364373922348,0.01601065881550312
1782845619089750300,6.250750244140625,-0.03327086940407753,0.10854431986808777,0.04397092014551163
1782845619099755300,6.26075537109375,-0.09152752161026001,0.10491736233234406,0.07146353274583817
1782845619109760300,6.27076025390625,-0.15038497745990753,0.11065034568309784,0.09652627259492874
1782845619119765200,6.28076513671875,-0.2025027722120285,0.10712778568267822,0.12034105509519577
1782845619129770200,6.290770263671875,-0.24805161356925964,0.09177759289741516,0.12943202257156372
1782845619139775200,6.300775146484375,-0.28864750266075134,0.08396707475185394,0.11574577540159225
1782845619149780200,6.3107802734375,-0.3096175193786621,0.07571793347597122,0.08755674958229065
1782845619159785200,6.32078515625,-0.32693231105804443,0.04779548570513725,0.06123965606093407
1782845619169790200,6.330790283203125,-0.33804914355278015,0.022826751694083214,0.0291147418320179
1782845619179795200,6.340795166015625,-0.3574204444885254,-0.0003259709046687931,-0.0026943201664835215
1782845619189800200,6.35080029296875,-0.37425696849823,-0.005260009318590164,-0.03352333977818489
1782845619199806200,6.36080615234375,-0.38939568400382996,0.00330285239033401,-0.04450994357466698
1782845619209811200,6.370811279296875,-0.4049472212791443,0.02171887829899788,-0.04264546558260918
1782845619219816200,6.380816162109375,-0.41609227657318115,0.04182014986872673,-0.03707945719361305
1782845619229821200,6.3908212890625,-0.4182177484035492,0.06331931799650192,-0.028356540948152542
1782845619239826200,6.400826171875,-0.4037400186061859,0.07734805345535278,-0.019107913598418236
1782845619249831200,6.4108310546875,-0.38183924555778503,0.09229450672864914,-0.022371085360646248
1782845619259836200,6.420836181640625,-0.3514760136604309,0.11149244010448456,-0.03705895319581032
1782845619269841200,6.430841064453125,-0.32620128989219666,0.11753568798303604,-0.08744622766971588
1782845619279846100,6.44084619140625,-0.2976287603378296,0.11879269778728485,-0.171160027384758
1782845619289851100,6.45085107421875,-0.270920991897583,0.1262974888086319,-0.28206098079681396
1782845619299856100,6.460856201171875,-0.23621892929077148,0.11158165335655212,-0.37078607082366943
1782845619309861000,6.470861083984375,-0.1860167384147644,0.0720992237329483,-0.4141428470611572
1782845619319866000,6.4808662109375,-0.12821230292320251,0.04026619717478752,-0.4097385108470917
1782845619329871000,6.49087109375,-0.056103482842445374,0.013787451200187206,-0.36602646112442017
1782845619339876000,6.5008759765625,0.02207973599433899,-0.0182916559278965,-0.3133046627044678
1782845619349881000,6.510881103515625,0.10756134986877441,-0.03676813468337059,-0.25752580165863037
1782845619359886000,6.520885986328125,0.19594447314739227,-0.04418477043509483,-0.19346240162849426
1782845619369891000,6.53089111328125,0.2658894658088684,-0.05709657445549965,-0.12557336688041687
1782845619379896000,6.54089599609375,0.30330395698547363,-0.06960543990135193,-0.04285265877842903
1782845619389901000,6.550901123046875,0.3038688004016876,-0.07962718605995178,0.036249082535505295
1782845619399906000,6.560906005859375,0.2800063490867615,-0.0758012905716896,0.11612953245639801
1782845619409911000,6.5709111328125,0.24767450988292694,-0.08260060101747513,0.19320914149284363
1782845619419916000,6.580916015625,0.21322067081928253,-0.08781587332487106,0.2507326304912567
1782845619429921000,6.590921142578125,0.18662101030349731,-0.09775638580322266,0.2863326966762543
1782845619439927000,6.600927001953125,0.1629047691822052,-0.11652980744838715,0.30044904351234436
1782845619449932000,6.61093212890625,0.14907310903072357,-0.12578269839286804,0.29501885175704956
1782845619459937000,6.62093701171875,0.14016509056091309,-0.13390401005744934,0.2652870714664459
1782845619469942300,6.6309423828125,0.1312008947134018,-0.13301290571689606,0.22095341980457306
1782845619479947300,6.640947265625,0.13566648960113525,-0.14662033319473267,0.17670953273773193
1782845619489952300,6.6509521484375,0.13881833851337433,-0.1623992919921875,0.14772208034992218
1782845619499957200,6.660957275390625,0.13705718517303467,-0.17558246850967407,0.13049276173114777
1782845619509962200,6.670962158203125,0.12707193195819855,-0.17517846822738647,0.11568239331245422
1782845619519967200,6.68096728515625,0.11649492383003235,-0.16624170541763306,0.10505371540784836
1782845619529972200,6.69097216796875,0.12192803621292114,-0.1536063402891159,0.08081468939781189
1782845619539977200,6.700977294921875,0.14187724888324738,-0.1418018788099289,0.059960272163152695
1782845619549982200,6.710982177734375,0.17289534211158752,-0.10491176694631577,0.03694789856672287
1782845619559987200,6.7209873046875,0.1984177529811859,-0.0825558602809906,0.017009077593684196
1782845619569992200,6.7309921875,0.22001145780086517,-0.08023012429475784,0.006429403554648161
1782845619579997200,6.7409970703125,0.2342258095741272,-0.07378314435482025,-0.013716344721615314
1782845619590002200,6.751002197265625,0.23700082302093506,-0.07293599098920822,-0.027392741292715073
1782845619600007200,6.761007080078125,0.2386474609375,-0.08377639204263687,-0.02593625895678997
1782845619610012400,6.771012451171875,0.24226535856723785,-0.09665650129318237,0.0001310275256400928
1782845619620017400,6.781017333984375,0.24324460327625275,-0.11325491964817047,0.04627242311835289
1782845619630022400,6.7910224609375,0.24887533485889435,-0.11757349967956543,0.105753593146801
1782845619640027400,6.80102734375,0.24839836359024048,-0.1199951171875,0.15938326716423035
1782845619650032400,6.811032470703125,0.2505006492137909,-0.11040560156106949,0.19994720816612244
1782845619660037400,6.821037353515625,0.24004802107810974,-0.08281898498535156,0.21761009097099304
1782845619670042400,6.83104248046875,0.2069971263408661,-0.05097316950559616,0.20970262587070465
1782845619680047400,6.84104736328125,0.15582501888275146,-0.014765630476176739,0.16026291251182556
1782845619690052400,6.85105224609375,0.10748358070850372,0.03069106675684452,0.057493917644023895
1782845619700057300,6.861057373046875,0.05482063814997673,0.06881687790155411,-0.07984263449907303
1782845619710063000,6.87106298828125,-0.006593986880034208,0.08949925750494003,-0.253780335187912
1782845619720068000,6.881068115234375,-0.056539442390203476,0.09716436266899109,-0.4205719828605652
1782845619730073000,6.891072998046875,-0.08137554675340652,0.09783095866441727,-0.576288104057312
1782845619740078300,6.901078369140625,-0.08408798277378082,0.06673429161310196,-0.667159914970398
1782845619750083300,6.911083251953125,-0.07907191663980484,0.025982065126299858,-0.6935811638832092
1782845619760088300,6.92108837890625,-0.04902666434645653,-0.038966573774814606,-0.6436673998832703
1782845619770093300,6.93109326171875,-0.0005581985460594296,-0.08805795013904572,-0.5319792032241821
1782845619780098300,6.941098388671875,0.045933935791254044,-0.13111060857772827,-0.38560521602630615
1782845619790103300,6.951103271484375,0.08578813821077347,-0.15156981348991394,-0.2123364955186844
1782845619800108300,6.9611083984375,0.120696060359478,-0.16797462105751038,-0.028732312843203545
1782845619810113300,6.97111328125,0.16151805222034454,-0.17094191908836365,0.1292557269334793
1782845619820118300,6.9811181640625,0.2000207006931305,-0.17621231079101562,0.25908589363098145
1782845619830123300,6.991123291015625,0.2298009693622589,-0.15761145949363708,0.3573048710823059
1782845619840128300,7.001128173828125,0.25154221057891846,-0.1186843067407608,0.439857542514801
1782845619850133200,7.01113330078125,0.25732502341270447,-0.08200991153717041,0.49255457520484924
1782845619860138200,7.02113818359375,0.25979483127593994,-0.04009309038519859,0.494366317987442
1782845619870143200,7.031143310546875,0.2672535479068756,0.006120743229985237,0.4533235430717468
1782845619880148200,7.041148193359375,0.2666487395763397,0.05495006591081619,0.3850664496421814
1782845619890153200,7.0511533203125,0.24835069477558136,0.08909578621387482,0.30762600898742676
1782845619900158200,7.061158203125,0.22157739102840424,0.1244812086224556,0.23425084352493286
1782845619910163200,7.0711630859375,0.19508907198905945,0.14825524389743805,0.14971652626991272
1782845619920168200,7.081168212890625,0.16400012373924255,0.13657276332378387,0.06300373375415802
1782845619930173200,7.091173095703125,0.13747423887252808,0.09786824136972427,-0.030231138691306114
1782845619940178400,7.101178466796875,0.11455001682043076,0.05547391250729561,-0.11681237071752548
1782845619950183400,7.111183349609375,0.09252806752920151,0.009692308492958546,-0.1919175088405609
1782845619960188400,7.1211884765625,0.07314318418502808,-0.03711727634072304,-0.2754558026790619
1782845619970194700,7.131194580078125,0.06771992146968842,-0.07458129525184631,-0.3337303102016449
1782845619980199700,7.14119970703125,0.06612256169319153,-0.09878037124872208,-0.35443824529647827
1782845619990204700,7.15120458984375,0.07525214552879333,-0.1215868815779686,-0.3499830365180969
1782845620000209700,7.161209716796875,0.08346666395664215,-0.1339452862739563,-0.3333292305469513
1782845620010214700,7.171214599609375,0.10447048395872116,-0.12718164920806885,-0.3213375508785248
1782845620020219600,7.1812197265625,0.12466203421354294,-0.11791811138391495,-0.30016806721687317
1782845620030224600,7.191224609375,0.14864246547222137,-0.10677198320627213,-0.27127543091773987
1782845620040229600,7.201229736328125,0.17126362025737762,-0.09973884373903275,-0.25134193897247314
1782845620050234600,7.211234619140625,0.1856689304113388,-0.06807758659124374,-0.2415335327386856
1782845620060239600,7.221239501953125,0.18475466966629028,-0.035778503865003586,-0.22772423923015594
1782845620070244600,7.23124462890625,0.16336043179035187,-0.020503943786025047,-0.21326327323913574
1782845620080249600,7.24124951171875,0.13022936880588531,-0.012271846644580364,-0.20637421309947968
1782845620090254600,7.251254638671875,0.09317521750926971,-0.015598933212459087,-0.21582843363285065
1782845620100259600,7.261259521484375,0.059902749955654144,-0.04092346504330635,-0.24476660788059235
1782845620110264600,7.2712646484375,0.02339800074696541,-0.07149042934179306,-0.29114022850990295
1782845620120269600,7.28126953125,-0.011483550071716309,-0.09984457492828369,-0.3315553069114685
1782845620130274600,7.291274658203125,-0.03713911399245262,-0.11915808171033859,-0.3679386079311371
1782845620140279600,7.301279541015625,-0.05870965123176575,-0.1392044872045517,-0.3877192437648773
1782845620150284500,7.311284423828125,-0.07379326224327087,-0.14826802909374237,-0.3908306062221527
1782845620160289500,7.32128955078125,-0.07629530131816864,-0.14423413574695587,-0.3770016133785248
1782845620170294500,7.33129443359375,-0.07037003338336945,-0.12474406510591507,-0.3321499824523926
1782845620180299500,7.341299560546875,-0.06147747486829758,-0.10429391264915466,-0.2597721815109253
1782845620190304500,7.351304443359375,-0.04785061255097389,-0.08402139693498611,-0.18400126695632935
1782845620200309500,7.3613095703125,-0.016103869304060936,-0.07260416448116302,-0.13034549355506897
1782845620210314500,7.371314453125,0.019351594150066376,-0.06364182382822037,-0.0945584625005722
1782845620220319500,7.381319580078125,0.055986035615205765,-0.048413872718811035,-0.08498439937829971
1782845620230324500,7.391324462890625,0.09451931715011597,-0.04348941892385483,-0.08803611248731613
1782845620240329500,7.40132958984375,0.12392380833625793,-0.03105485439300537,-0.09706982225179672
1782845620250334500,7.41133447265625,0.1529485434293747,-0.020230170339345932,-0.10322092473506927
1782845620260339500,7.42133935546875,0.17022685706615448,-0.02220117673277855,-0.10977869480848312
1782845620270345500,7.431345458984375,0.18751849234104156,-0.024176975712180138,-0.10531763732433319
1782845620280350500,7.4413505859375,0.19748777151107788,-0.019637616351246834,-0.11036831885576248
1782845620290355500,7.45135546875,0.19833625853061676,0.003683151677250862,-0.12382340431213379
1782845620300360400,7.4613603515625,0.19850510358810425,0.03863075003027916,-0.13889317214488983
1782845620310365400,7.471365478515625,0.1898610144853592,0.059538960456848145,-0.1575094610452652
1782845620320370400,7.481370361328125,0.1787276715040207,0.08231963962316513,-0.17729702591896057
1782845620330375400,7.49137548828125,0.16001230478286743,0.10087069123983383,-0.20593558251857758
1782845620340380400,7.50138037109375,0.1301710456609726,0.0906209796667099,-0.22866886854171753
1782845620350385400,7.511385498046875,0.10293304175138474,0.037217676639556885,-0.22196196019649506
1782845620360390400,7.521390380859375,0.0686861202120781,-0.0018658105982467532,-0.20911407470703125
1782845620370395400,7.5313955078125,0.038540735840797424,-0.03080584853887558,-0.19943320751190186
1782845620380400400,7.541400390625,0.016335830092430115,-0.060330186039209366,-0.19187729060649872
1782845620390405400,7.5514052734375,-0.0009555422002449632,-0.06288681924343109,-0.17633454501628876
1782845620400410400,7.561410400390625,-0.0185270793735981,-0.04891694337129593,-0.1459396332502365
1782845620410415400,7.571415283203125,-0.03513508290052414,-0.029258286580443382,-0.11383282393217087
1782845620420420400,7.58142041015625,-0.050575558096170425,-0.008356466889381409,-0.07872996479272842
1782845620430425300,7.59142529296875,-0.06942168623209,0.01064944826066494,-0.047317713499069214
1782845620440430300,7.601430419921875,-0.08263469487428665,0.0294931773096323,-0.01178981363773346
1782845620450435300,7.611435302734375,-0.08524885028600693,0.04411952570080757,0.015662848949432373
1782845620460440300,7.6214404296875,-0.0718800500035286,0.05327200889587402,0.048941709101200104
1782845620470445300,7.6314453125,-0.05361102893948555,0.05446430668234825,0.08450742810964584
1782845620480450300,7.6414501953125,-0.01901496946811676,0.06426767259836197,0.1043088287115097
1782845620490455300,7.651455322265625,0.021710621193051338,0.08445602655410767,0.10217403620481491
1782845620500460300,7.661460205078125,0.06807039678096771,0.11159257590770721,0.07965648174285889
1782845620510465300,7.67146533203125,0.10480231046676636,0.12788446247577667,0.05638391524553299
1782845620520470300,7.68147021484375,0.14026176929473877,0.11946727335453033,0.04050588235259056
1782845620530475300,7.691475341796875,0.16534128785133362,0.111226387321949,0.029948577284812927
1782845620540480300,7.701480224609375,0.18145261704921722,0.10790622979402542,0.013028983026742935
1782845620550485200,7.7114853515625,0.18468676507472992,0.11486560106277466,0.006314887665212154
1782845620560490500,7.721490478515625,0.1711195558309555,0.12088967114686966,0.012687565758824348
1782845620570496500,7.73149658203125,0.14112143218517303,0.11073397099971771,0.040221720933914185
1782845620580501500,7.74150146484375,0.10920505225658417,0.10151730477809906,0.06789356470108032
1782845620590506500,7.751506591796875,0.07966739684343338,0.10281506180763245,0.09141246974468231
1782845620600511500,7.761511474609375,0.05476497858762741,0.12217863649129868,0.09343993663787842
1782845620610516500,7.7715166015625,0.034157704561948776,0.14504720270633698,0.07695657014846802
1782845620620521500,7.781521484375,0.02526407688856125,0.1665375828742981,0.04254692792892456
1782845620630526500,7.7915263671875,0.033058084547519684,0.18299219012260437,0.0019054916920140386
1782845620640531500,7.801531494140625,0.056294698268175125,0.1906098872423172,-0.038718633353710175
1782845620650536400,7.811536376953125,0.08940524607896805,0.19241738319396973,-0.07811211049556732
1782845620660541400,7.82154150390625,0.1231461688876152,0.17521628737449646,-0.10006401687860489
1782845620670546400,7.83154638671875,0.15107473731040955,0.15519358217716217,-0.10170026123523712
1782845620680551400,7.841551513671875,0.18147152662277222,0.13524331152439117,-0.0882214680314064
1782845620690556400,7.851556396484375,0.2043858915567398,0.11792849749326706,-0.06521229445934296
1782845620700561400,7.8615615234375,0.22611835598945618,0.0958935022354126,-0.032588303089141846
1782845620710566400,7.87156640625,0.23996572196483612,0.09065080434083939,-0.0060024987906217575
1782845620720571400,7.8815712890625,0.25258299708366394,0.09278026968240738,0.02424914762377739
1782845620730576600,7.89157666015625,0.2691989839076996,0.09851272404193878,0.05802308768033981
1782845620740581600,7.90158154296875,0.2881060838699341,0.11292734742164612,0.088791124522686
1782845620750586600,7.911586669921875,0.30528905987739563,0.1219586655497551,0.12245666980743408
1782845620760591600,7.921591552734375,0.32172664999961853,0.12411076575517654,0.1501500904560089
1782845620770596600,7.9315966796875,0.347249299287796,0.12988317012786865,0.1593819409608841
1782845620780601600,7.9416015625,0.37039831280708313,0.13038569688796997,0.15650518238544464
1782845620790606600,7.951606689453125,0.38530614972114563,0.12612038850784302,0.17046600580215454
1782845620800611600,7.961611572265625,0.4020017683506012,0.1097712367773056,0.20562319457530975
1782845620810616600,7.971616455078125,0.40805354714393616,0.10219800472259521,0.2335866540670395
1782845620820621600,7.98162158203125,0.41363978385925293,0.09780112653970718,0.2576395273208618
1782845620830626600,7.99162646484375,0.4197924733161926,0.11594684422016144,0.24820101261138916
1782845620840631600,8.001631591796874,0.4234519302845001,0.13512267172336578,0.2469237595796585
1782845620850636500,8.011636474609375,0.41554340720176697,0.14594921469688416,0.2301165610551834
1782845620860641500,8.0216416015625,0.394090861082077,0.1513008326292038,0.19332179427146912
1782845620870646500,8.031646484375,0.35339826345443726,0.1505034863948822,0.12178342789411545
1782845620880651500,8.041651611328126,0.2910321056842804,0.1418982744216919,0.031029021367430687
1782845620890657500,8.051657470703125,0.2186359316110611,0.1369117796421051,-0.062179483473300934
1782845620900662500,8.06166259765625,0.13745665550231934,0.11522352695465088,-0.14390790462493896
1782845620910667500,8.07166748046875,0.06620698422193527,0.06519817560911179,-0.21783804893493652
1782845620920672500,8.081672607421876,0.009529323317110538,0.005750829819589853,-0.2823837697505951
1782845620930677500,8.091677490234375,-0.0350370779633522,-0.07251148670911789,-0.32106271386146545
1782845620940682800,8.101682861328126,-0.07813581079244614,-0.16071777045726776,-0.3300154507160187
1782845620950687700,8.111687744140625,-0.11383016407489777,-0.2365635335445404,-0.29885461926460266
1782845620960692700,8.121692626953125,-0.13489842414855957,-0.32301586866378784,-0.24322862923145294
1782845620970697700,8.13169775390625,-0.14815697073936462,-0.3850502073764801,-0.19055557250976562
1782845620980702700,8.14170263671875,-0.14317314326763153,-0.4046894311904907,-0.14938762784004211
1782845620990707700,8.151707763671874,-0.13999678194522858,-0.39607223868370056,-0.10552456229925156
1782845621000712700,8.161712646484375,-0.12090751528739929,-0.33625179529190063,-0.0714118629693985
1782845621010717700,8.1717177734375,-0.09298746287822723,-0.27168717980384827,-0.02485981024801731
1782845621020722700,8.18172265625,-0.0644381120800972,-0.23107290267944336,0.03437315300107002
1782845621030727700,8.191727783203126,-0.04649106785655022,-0.20169822871685028,0.1049053743481636
1782845621040732700,8.201732666015625,-0.03568875417113304,-0.1859664022922516,0.17318083345890045
1782845621050737700,8.211737548828125,-0.040287233889102936,-0.16296547651290894,0.22100481390953064
1782845621060742700,8.22174267578125,-0.0536017082631588,-0.13152234256267548,0.2461479902267456
1782845621070747600,8.23174755859375,-0.07785165309906006,-0.1019548624753952,0.25518354773521423
1782845621080752600,8.241752685546874,-0.11890667676925659,-0.06986989825963974,0.25414758920669556
1782845621090757600,8.251757568359375,-0.1550961136817932,-0.026260633021593094,0.2428712397813797
1782845621100762600,8.2617626953125,-0.17751140892505646,0.01854146085679531,0.21662764251232147
1782845621110767600,8.271767578125,-0.18423934280872345,0.05612904950976372,0.18148963153362274
1782845621120772600,8.281772705078126,-0.179265096783638,0.08670506626367569,0.14502856135368347
1782845621130777600,8.291777587890625,-0.15664847195148468,0.10137482732534409,0.12193309515714645
1782845621140782600,8.301782470703126,-0.1299084573984146,0.11137259751558304,0.11525708436965942
1782845621150787800,8.311787841796875,-0.09994576871395111,0.1257813572883606,0.13015267252922058
1782845621160792800,8.321792724609375,-0.07352721691131592,0.13530349731445312,0.1518039107322693
1782845621170797800,8.3317978515625,-0.058397263288497925,0.14813700318336487,0.17247216403484344
1782845621180802800,8.341802734375,-0.04951322451233864,0.1576804369688034,0.19178754091262817
1782845621190807800,8.351807861328124,-0.0548214353621006,0.1710556298494339,0.2019168734550476
1782845621200812800,8.361812744140625,-0.06497074663639069,0.17086122930049896,0.21032634377479553
1782845621210817800,8.37181787109375,-0.09142046421766281,0.14925873279571533,0.21029677987098694
1782845621220822800,8.38182275390625,-0.12991805374622345,0.12935186922550201,0.21481269598007202
1782845621230827800,8.391827880859376,-0.15456481277942657,0.10600552707910538,0.21689316630363464
1782845621240833800,8.401833740234375,-0.16200807690620422,0.07283559441566467,0.21306486427783966
1782845621250838800,8.4118388671875,-0.1588628888130188,0.05119527503848076,0.17961423099040985
1782845621260843800,8.42184375,-0.14398646354675293,0.06246976926922798,0.12214002013206482
1782845621270848800,8.431848876953126,-0.13147254288196564,0.0877719298005104,0.06270039826631546
1782845621280853800,8.441853759765625,-0.11594711244106293,0.11096007376909256,0.0043894220143556595
1782845621290858800,8.451858642578125,-0.10192183405160904,0.125658318400383,-0.0482141338288784
1782845621300863700,8.46186376953125,-0.08416920900344849,0.1446480005979538,-0.09465833008289337
1782845621310868700,8.47186865234375,-0.05053374916315079,0.16162431240081787,-0.11811412125825882
1782845621320873700,8.481873779296874,-0.015020494349300861,0.17737185955047607,-0.13990996778011322
1782845621330878700,8.491878662109375,0.0008317052270285785,0.18054713308811188,-0.1516803354024887
1782845621340883700,8.5018837890625,0.011196195147931576,0.18413415551185608,-0.15434829890727997
1782845621350888700,8.511888671875,0.014876684173941612,0.17688502371311188,-0.1367698311805725
1782845621360893700,8.521893798828126,0.008105862885713577,0.13948120176792145,-0.09675663709640503
1782845621370898700,8.531898681640625,0.00105301383882761,0.09567752480506897,-0.049981676042079926
1782845621380903700,8.541903564453126,-0.008123972453176975,0.04188460111618042,-0.0138417799025774
1782845621390908700,8.55190869140625,-0.0290585495531559,0.005242965184152126,0.019700733944773674
1782845621400913700,8.56191357421875,-0.047504402697086334,-0.015441274270415306,0.046234339475631714
1782845621410918700,8.571918701171874,-0.07151173055171967,-0.042322155088186264,0.07472030818462372
1782845621420923600,8.581923583984375,-0.09338401257991791,-0.07349126040935516,0.09580322355031967
1782845621430928600,8.5919287109375,-0.11096592992544174,-0.09158104658126831,0.10513094812631607
1782845621440933600,8.60193359375,-0.14020025730133057,-0.08300860226154327,0.09577925503253937
1782845621450938600,8.611938720703124,-0.17143221199512482,-0.06126921623945236,0.08480170369148254
1782845621460943600,8.621943603515625,-0.20450706779956818,-0.034693267196416855,0.09055466949939728
1782845621470948600,8.631948486328126,-0.23880991339683533,-0.012415124103426933,0.10583961009979248
1782845621480953600,8.64195361328125,-0.26128965616226196,0.0035744947381317616,0.11692608892917633
1782845621490958600,8.65195849609375,-0.2765418589115143,0.021433653309941292,0.13405101001262665
1782845621500963600,8.661963623046875,-0.27829259634017944,0.03803020715713501,0.14454838633537292
1782845621510968600,8.671968505859375,-0.2639016807079315,0.034634944051504135,0.1561158299446106
1782845621520973600,8.6819736328125,-0.23573502898216248,0.04604445770382881,0.15889804065227509
1782845621530978600,8.691978515625,-0.19810110330581665,0.06184845417737961,0.15533632040023804
1782845621540983600,8.701983642578124,-0.15438450872898102,0.07921599596738815,0.1474994421005249
1782845621550988800,8.71198876953125,-0.10309256613254547,0.09048249572515488,0.13531015813350677
1782845621560993800,8.721993896484374,-0.048760879784822464,0.10257671028375626,0.11230150610208511
1782845621570998800,8.731998779296875,0.00004660531703848392,0.11651089787483215,0.08701851963996887
1782845621581003800,8.742003662109376,0.06541549414396286,0.10545798391103745,0.047385357320308685
1782845621591008800,8.7520087890625,0.12458773702383041,0.08736206591129303,0.04695286229252815
1782845621601013800,8.762013671875,0.18766151368618011,0.09864934533834457,0.07711555808782578
1782845621611019500,8.77201953125,0.21536263823509216,0.12146251648664474,0.11947207152843475
1782845621621024500,8.7820244140625,0.20622427761554718,0.21543322503566742,0.20655210316181183
1782845621631029500,8.792029541015625,0.14152570068836212,0.2171538919210434,0.255531370639801
1782845621641034500,8.802034423828125,0.11739054322242737,0.010729077272117138,0.13982580602169037
1782845621651039500,8.81203955078125,0.14850345253944397,-0.1764855533838272,0.011144263669848442
1782845621661044500,8.82204443359375,0.17265139520168304,-0.30054038763046265,-0.0718558132648468
1782845621671049500,8.832049560546874,0.1699560135602951,-0.36492443084716797,-0.09394833445549011
