time,seconds_elapsed,z,y,x
1782845437470955000,0.062955078125,-1.031768798828125,-0.375762939453125,0.04473876953125
1782845437480960000,0.0729599609375,-1.048736572265625,-0.362213134765625,0.049224853515625
1782845437490964000,0.0829638671875,-1.050537109375,-0.3419036865234375,0.04486083984375
1782845437500969000,0.092968994140625,-1.0462646484375,-0.3221588134765625,0.0350494384765625
1782845437510973000,0.102972900390625,-1.0439605712890625,-0.2911834716796875,0.0433349609375
1782845437520978000,0.11297802734375,-1.0488433837890625,-0.253814697265625,0.062103271484375
1782845437530982100,0.122982177734375,-1.0544281005859375,-0.2313995361328125,0.081329345703125
1782845437540987100,0.132987060546875,-1.0791778564453125,-0.208984375,0.1084442138671875
1782845437550991000,0.1429912109375,-1.1118316650390625,-0.185150146484375,0.1219329833984375
1782845437560996000,0.15299609375,-1.13385009765625,-0.1737518310546875,0.1567535400390625
1782845437570999800,0.162999755859375,-1.168670654296875,-0.18048095703125,0.199249267578125
1782845437581004800,0.1730048828125,-1.1699981689453125,-0.1972808837890625,0.2255706787109375
1782845437591009000,0.183009033203125,-1.1273345947265625,-0.2172393798828125,0.231689453125
1782845437601014000,0.193013916015625,-1.059173583984375,-0.2210235595703125,0.2339324951171875
1782845437611018000,0.20301806640625,-0.9954833984375,-0.2185821533203125,0.230224609375
1782845437621023000,0.21302294921875,-0.9456634521484375,-0.230804443359375,0.2101593017578125
1782845437631027000,0.22302685546875,-0.899200439453125,-0.238372802734375,0.18280029296875
1782845437641032000,0.233031982421875,-0.8619384765625,-0.205230712890625,0.161285400390625
1782845437651037000,0.243036865234375,-0.83135986328125,-0.1745758056640625,0.133941650390625
1782845437661041000,0.253041015625,-0.8109588623046875,-0.1689453125,0.1066436767578125
1782845437671046100,0.263046142578125,-0.8011016845703125,-0.1502838134765625,0.1021881103515625
1782845437681050000,0.273050048828125,-0.8082122802734375,-0.139373779296875,0.1109161376953125
1782845437691055000,0.28305517578125,-0.8177337646484375,-0.1488800048828125,0.125762939453125
1782845437701058800,0.293058837890625,-0.8264007568359375,-0.14239501953125,0.134765625
1782845437711063800,0.303063720703125,-0.8325653076171875,-0.1158447265625,0.136993408203125
1782845437721068000,0.313068115234375,-0.82611083984375,-0.10443115234375,0.12237548828125
1782845437731073000,0.323072998046875,-0.82281494140625,-0.100341796875,0.104827880859375
1782845437741077000,0.333076904296875,-0.8304595947265625,-0.09228515625,0.109222412109375
1782845437751082000,0.34308203125,-0.8526763916015625,-0.0843353271484375,0.1128387451171875
1782845437761086500,0.35308642578125,-0.885406494140625,-0.0734405517578125,0.11541748046875
1782845437771091500,0.363091552734375,-0.919921875,-0.059112548828125,0.1181793212890625
1782845437781095400,0.373095458984375,-0.9482269287109375,-0.0447845458984375,0.11578369140625
1782845437791100400,0.383100341796875,-0.9637603759765625,-0.03839111328125,0.1135711669921875
1782845437801104600,0.393104736328125,-0.9782562255859375,-0.0492401123046875,0.111480712890625
1782845437811109600,0.403109619140625,-1.001434326171875,-0.05908203125,0.111358642578125
1782845437821113600,0.413113525390625,-1.0334014892578125,-0.0668487548828125,0.10394287109375
1782845437831118600,0.42311865234375,-1.0735015869140625,-0.09033203125,0.0944976806640625
1782845437841122600,0.43312255859375,-1.117401123046875,-0.1129608154296875,0.0978546142578125
1782845437851127600,0.44312744140625,-1.1507415771484375,-0.124053955078125,0.1066436767578125
1782845437861131500,0.453131591796875,-1.1678924560546875,-0.1483306884765625,0.111358642578125
1782845437871136800,0.46313671875,-1.1742095947265625,-0.1712493896484375,0.1214752197265625
1782845437881140500,0.473140380859375,-1.161834716796875,-0.18853759765625,0.124664306640625
1782845437891145500,0.4831455078125,-1.135223388671875,-0.1944580078125,0.120330810546875
1782845437901149400,0.4931494140625,-1.099945068359375,-0.1902618408203125,0.1096649169921875
1782845437911154400,0.503154541015625,-1.058349609375,-0.1786041259765625,0.091949462890625
1782845437921158700,0.51315869140625,-1.0214385986328125,-0.171600341796875,0.07525634765625
1782845437931163600,0.52316357421875,-0.979949951171875,-0.1728515625,0.0624237060546875
1782845437941167600,0.533167724609375,-0.93463134765625,-0.173126220703125,0.0694427490234375
1782845437951172600,0.543172607421875,-0.9033203125,-0.1737518310546875,0.0896759033203125
1782845437961176600,0.553176513671875,-0.8702239990234375,-0.1708221435546875,0.108612060546875
1782845437971181600,0.563181640625,-0.841644287109375,-0.172393798828125,0.1146697998046875
1782845437981185500,0.573185546875,-0.8303680419921875,-0.1678466796875,0.109588623046875
1782845437991190500,0.5831904296875,-0.836883544921875,-0.16424560546875,0.1025238037109375
1782845438001194500,0.593194580078125,-0.85009765625,-0.16571044921875,0.0912933349609375
1782845438011199500,0.603199462890625,-0.86541748046875,-0.1625213623046875,0.0804595947265625
1782845438021203500,0.613203369140625,-0.8940887451171875,-0.1649627685546875,0.0796661376953125
1782845438031208400,0.62320849609375,-0.9176177978515625,-0.1674041748046875,0.0806427001953125
1782845438041212700,0.633212646484375,-0.935302734375,-0.172027587890625,0.0812530517578125
1782845438051217700,0.6432177734375,-0.9443206787109375,-0.180572509765625,0.0821380615234375
1782845438061221600,0.6532216796875,-0.94384765625,-0.194000244140625,0.08245849609375
1782845438071226600,0.6632265625,-0.9410552978515625,-0.206878662109375,0.082427978515625
1782845438081230600,0.673230712890625,-0.9437103271484375,-0.2126617431640625,0.07781982421875
1782845438091235600,0.683235595703125,-0.9524383544921875,-0.2121734619140625,0.07220458984375
1782845438101239600,0.693239501953125,-0.961669921875,-0.2138824462890625,0.0662689208984375
1782845438111244500,0.70324462890625,-0.9649810791015625,-0.2189178466796875,0.0576019287109375
1782845438121248500,0.71324853515625,-0.9731292724609375,-0.2191925048828125,0.04559326171875
1782845438131253500,0.72325341796875,-0.975799560546875,-0.215789794921875,0.0394744873046875
1782845438141257500,0.733257568359375,-0.970123291015625,-0.2111968994140625,0.04180908203125
1782845438151262500,0.743262451171875,-0.959747314453125,-0.2140655517578125,0.043701171875
1782845438161266700,0.7532666015625,-0.94635009765625,-0.220001220703125,0.0458831787109375
1782845438171271700,0.763271728515625,-0.937652587890625,-0.2293853759765625,0.043212890625
1782845438181275600,0.773275634765625,-0.9348297119140625,-0.2368011474609375,0.041656494140625
1782845438191280600,0.78328076171875,-0.9362640380859375,-0.2374725341796875,0.0467529296875
1782845438201284600,0.79328466796875,-0.9360504150390625,-0.235870361328125,0.0477294921875
1782845438211289600,0.80328955078125,-0.93670654296875,-0.2412261962890625,0.04376220703125
1782845438221293600,0.81329345703125,-0.9415130615234375,-0.24749755859375,0.039306640625
1782845438231298600,0.823298583984375,-0.950439453125,-0.24725341796875,0.03515625
1782845438241302500,0.833302490234375,-0.961181640625,-0.2430419921875,0.031829833984375
1782845438251307500,0.8433076171875,-0.9729156494140625,-0.2464141845703125,0.0281524658203125
1782845438261311500,0.8533115234375,-0.978179931640625,-0.2537384033203125,0.0178680419921875
1782845438271316500,0.86331640625,-0.9727783203125,-0.253875732421875,0.0060272216796875
1782845438281320400,0.873320556640625,-0.9628143310546875,-0.2505340576171875,-0.005340576171875
1782845438291325700,0.88332568359375,-0.94580078125,-0.2475738525390625,-0.01495361328125
1782845438301329700,0.89332958984375,-0.9280853271484375,-0.244232177734375,-0.02252197265625
1782845438311334700,0.903334716796875,-0.92523193359375,-0.2416229248046875,-0.0332183837890625
1782845438321338600,0.913338623046875,-0.945648193359375,-0.241973876953125,-0.0455474853515625
1782845438331343600,0.923343505859375,-0.98822021484375,-0.2392730712890625,-0.0511322021484375
1782845438341347300,0.933347412109375,-1.027862548828125,-0.23834228515625,-0.042724609375
1782845438351352600,0.9433525390625,-1.060211181640625,-0.24365234375,-0.0253143310546875
1782845438361356500,0.9533564453125,-1.0726776123046875,-0.2332305908203125,-0.0140533447265625
1782845438371361500,0.963361572265625,-1.064117431640625,-0.2177581787109375,-0.0174560546875
1782845438381365500,0.973365478515625,-1.0411834716796875,-0.2017059326171875,-0.01678466796875
1782845438391370500,0.98337060546875,-1.019439697265625,-0.188690185546875,-0.00531005859375
1782845438401374500,0.99337451171875,-1.0033416748046875,-0.191741943359375,0.019500732421875
1782845438411379500,1.00337939453125,-0.99871826171875,-0.194244384765625,0.0455474853515625
1782845438421383700,1.0133837890625,-1.013092041015625,-0.19635009765625,0.0690460205078125
1782845438431388700,1.023388671875,-1.0382537841796875,-0.199249267578125,0.088592529296875
1782845438441393700,1.0333935546875,-1.0670166015625,-0.197021484375,0.1150054931640625
1782845438451397600,1.043397705078125,-1.0940704345703125,-0.188232421875,0.14501953125
1782845438461402600,1.053402587890625,-1.116363525390625,-0.1949920654296875,0.1683807373046875
1782845438471406300,1.06340625,-1.1191253662109375,-0.1991424560546875,0.190521240234375
1782845438481411600,1.07341162109375,-1.1172637939453125,-0.1915435791015625,0.2158203125
1782845438491415600,1.08341552734375,-1.1086578369140625,-0.1876373291015625,0.229278564453125
1782845438501420500,1.093420654296875,-1.0942840576171875,-0.1756439208984375,0.23193359375
1782845438511424500,1.103424560546875,-1.07916259765625,-0.1658172607421875,0.2244720458984375
1782845438521429500,1.113429443359375,-1.0593719482421875,-0.156982421875,0.2056732177734375
1782845438531433500,1.12343359375,-1.0290679931640625,-0.1471710205078125,0.17724609375
1782845438541438500,1.1334384765625,-0.999237060546875,-0.1474761962890625,0.156219482421875
1782845438551442700,1.143442626953125,-0.9681243896484375,-0.154541015625,0.139312744140625
1782845438561447700,1.15344775390625,-0.947784423828125,-0.1592559814453125,0.1316680908203125
1782845438571451600,1.16345166015625,-0.9340362548828125,-0.16558837890625,0.1216278076171875
1782845438581456600,1.17345654296875,-0.9185791015625,-0.171966552734375,0.109954833984375
1782845438591460400,1.18346044921875,-0.897613525390625,-0.18109130859375,0.1144256591796875
1782845438601465300,1.19346533203125,-0.8892974853515625,-0.18829345703125,0.125885009765625
1782845438611469600,1.203469482421875,-0.886260986328125,-0.194671630859375,0.139678955078125
1782845438621474600,1.213474609375,-0.8909454345703125,-0.2001800537109375,0.1522369384765625
1782845438631478500,1.223478515625,-0.904327392578125,-0.205352783203125,0.1633758544921875
1782845438641483500,1.2334833984375,-0.9221343994140625,-0.2030487060546875,0.1797943115234375
1782845438651487500,1.243487548828125,-0.94354248046875,-0.1963043212890625,0.199615478515625
1782845438661492500,1.253492431640625,-0.967437744140625,-0.192291259765625,0.2163848876953125
1782845438671496700,1.26349658203125,-0.994537353515625,-0.190399169921875,0.2412567138671875
1782845438681501700,1.273501708984375,-1.0003814697265625,-0.1842803955078125,0.251434326171875
1782845438691505400,1.28350537109375,-0.99072265625,-0.1871490478515625,0.269287109375
1782845438701510400,1.293510498046875,-0.97998046875,-0.1922454833984375,0.279754638671875
1782845438711514400,1.303514404296875,-0.96649169921875,-0.1948089599609375,0.2763671875
1782845438721519400,1.313519287109375,-0.96044921875,-0.1996002197265625,0.2734375
1782845438731523600,1.323523681640625,-0.951507568359375,-0.20208740234375,0.270843505859375
1782845438741528600,1.333528564453125,-0.937164306640625,-0.2015838623046875,0.2616424560546875
1782845438751532500,1.343532470703125,-0.9310760498046875,-0.2213134765625,0.25140380859375
1782845438761537000,1.353537109375,-0.9326171875,-0.2357025146484375,0.2375030517578125
1782845438771541000,1.363541015625,-0.939697265625,-0.23992919921875,0.227813720703125
1782845438781546200,1.373546142578125,-0.9399871826171875,-0.237518310546875,0.21368408203125
1782845438791550200,1.38355029296875,-0.938720703125,-0.235809326171875,0.197509765625
1782845438801555200,1.39355517578125,-0.94598388671875,-0.2352142333984375,0.183685302734375
1782845438811559200,1.40355908203125,-0.9612274169921875,-0.2315673828125,0.1697235107421875
1782845438821564200,1.413564208984375,-0.9676361083984375,-0.2318572998046875,0.15777587890625
1782845438831568100,1.423568115234375,-0.9676666259765625,-0.229949951171875,0.1512908935546875
1782845438841573000,1.433572998046875,-0.966064453125,-0.227874755859375,0.1417236328125
1782845438851577000,1.4435771484375,-0.9593505859375,-0.230682373046875,0.1351318359375
1782845438861582000,1.45358203125,-0.9474945068359375,-0.23492431640625,0.1272430419921875
1782845438871586000,1.4635859375,-0.935089111328125,-0.2410430908203125,0.1284942626953125
1782845438881591000,1.473591064453125,-0.91680908203125,-0.2522430419921875,0.130462646484375
1782845438891595000,1.483594970703125,-0.907012939453125,-0.258880615234375,0.1330108642578125
1782845438901600000,1.49360009765625,-0.8958740234375,-0.254486083984375,0.135406494140625
1782845438911604200,1.503604248046875,-0.8969268798828125,-0.2512969970703125,0.130828857421875
1782845438921609200,1.513609130859375,-0.904266357421875,-0.2523345947265625,0.1264190673828125
1782845438931613200,1.52361328125,-0.9014129638671875,-0.257293701171875,0.1201629638671875
1782845438941618200,1.5336181640625,-0.89227294921875,-0.2662200927734375,0.11370849609375
1782845438951622000,1.543621826171875,-0.8843841552734375,-0.2754669189453125,0.1092987060546875
1782845438961627000,1.553626953125,-0.8774566650390625,-0.2741241455078125,0.1116943359375
1782845438971631000,1.563631103515625,-0.8727264404296875,-0.2606658935546875,0.112152099609375
1782845438981636000,1.573635986328125,-0.870758056640625,-0.261199951171875,0.1116790771484375
1782845438991640000,1.58364013671875,-0.870452880859375,-0.26318359375,0.1129302978515625
1782845439001645000,1.59364501953125,-0.8778839111328125,-0.268707275390625,0.1142425537109375
1782845439011649000,1.60364892578125,-0.8906402587890625,-0.27655029296875,0.118621826171875
1782845439021654000,1.613654052734375,-0.911224365234375,-0.2740936279296875,0.12164306640625
1782845439031658200,1.623658203125,-0.9243011474609375,-0.2658233642578125,0.126251220703125
1782845439041663200,1.633663330078125,-0.92510986328125,-0.2602386474609375,0.1262054443359375
1782845439051667000,1.6436669921875,-0.917999267578125,-0.2646484375,0.1266632080078125
1782845439061672000,1.653671875,-0.9043426513671875,-0.273345947265625,0.1254730224609375
1782845439071676000,1.663676025390625,-0.8932037353515625,-0.274688720703125,0.1279449462890625
1782845439081681000,1.673680908203125,-0.89593505859375,-0.269805908203125,0.1285552978515625
1782845439091685000,1.68368505859375,-0.8928985595703125,-0.2751922607421875,0.1159820556640625
1782845439101690000,1.693690185546875,-0.8944854736328125,-0.284576416015625,0.10986328125
1782845439111694000,1.703694091796875,-0.90399169921875,-0.2970428466796875,0.1062774658203125
1782845439121699000,1.713698974609375,-0.902130126953125,-0.3052215576171875,0.1060638427734375
1782845439131703000,1.723703125,-0.8968505859375,-0.309295654296875,0.104827880859375
1782845439141708000,1.7337080078125,-0.8996429443359375,-0.3070220947265625,0.10040283203125
1782845439151712300,1.743712158203125,-0.912261962890625,-0.3018951416015625,0.1031951904296875
1782845439161717200,1.75371728515625,-0.93035888671875,-0.3043212890625,0.0980072021484375
1782845439171722200,1.76372216796875,-0.945343017578125,-0.3089599609375,0.0988616943359375
1782845439181726000,1.773725830078125,-0.953338623046875,-0.3060302734375,0.1064910888671875
1782845439191731000,1.78373095703125,-0.9636077880859375,-0.29803466796875,0.1109771728515625
1782845439201735000,1.79373486328125,-0.9662933349609375,-0.298614501953125,0.110260009765625
1782845439211740000,1.803739990234375,-0.9617919921875,-0.3029022216796875,0.1077423095703125
1782845439221744000,1.813744140625,-0.9468231201171875,-0.3081207275390625,0.1044158935546875
1782845439231749000,1.8237490234375,-0.9319610595703125,-0.31329345703125,0.1016998291015625
1782845439241753000,1.833753173828125,-0.9181365966796875,-0.3175506591796875,0.1056060791015625
1782845439251758000,1.843758056640625,-0.9082489013671875,-0.3191986083984375,0.109954833984375
1782845439261762000,1.853761962890625,-0.9048919677734375,-0.320037841796875,0.1173095703125
1782845439271767000,1.86376708984375,-0.9077301025390625,-0.31976318359375,0.1251983642578125
1782845439281771300,1.873771240234375,-0.905853271484375,-0.31610107421875,0.1320343017578125
1782845439291776300,1.8837763671875,-0.9023590087890625,-0.3168792724609375,0.1337127685546875
1782845439301780000,1.893780029296875,-0.8988800048828125,-0.315032958984375,0.14892578125
1782845439311785000,1.903784912109375,-0.9128265380859375,-0.3123931884765625,0.144622802734375
1782845439321789000,1.913788818359375,-0.898468017578125,-0.3429412841796875,0.082122802734375
1782845439331794000,1.9237939453125,-0.875518798828125,-0.3638458251953125,0.123260498046875
1782845439341798100,1.933798095703125,-0.9004669189453125,-0.356658935546875,0.1441650390625
1782845439351803100,1.94380322265625,-0.9043121337890625,-0.3483123779296875,0.1174468994140625
1782845439361807000,1.95380712890625,-0.9207916259765625,-0.3527374267578125,0.1219329833984375
1782845439371812000,1.96381201171875,-0.9554290771484375,-0.3617095947265625,0.137603759765625
1782845439381816000,1.973816162109375,-0.96875,-0.3710479736328125,0.139556884765625
1782845439391821000,1.983821044921875,-0.9718780517578125,-0.3771514892578125,0.1534423828125
1782845439401825300,1.9938251953125,-0.9613800048828125,-0.40625,0.15338134765625
1782845439411830300,2.003830322265625,-0.99530029296875,-0.3846282958984375,0.1324615478515625
1782845439421834000,2.013833984375,-0.996002197265625,-0.3820343017578125,0.1358795166015625
1782845439431839000,2.0238388671875,-0.9953765869140625,-0.4000396728515625,0.116058349609375
1782845439441843000,2.033843017578125,-0.9875030517578125,-0.4189453125,0.1010589599609375
1782845439451848000,2.043847900390625,-0.9847412109375,-0.41558837890625,0.09405517578125
1782845439461852200,2.05385205078125,-0.99810791015625,-0.3906707763671875,0.089752197265625
1782845439471857200,2.063857177734375,-1.0106048583984375,-0.3740386962890625,0.1007232666015625
1782845439481861000,2.073861083984375,-1.018218994140625,-0.378936767578125,0.11865234375
1782845439491866000,2.0838662109375,-1.0222930908203125,-0.3806304931640625,0.1193695068359375
1782845439501870000,2.0938701171875,-1.0379180908203125,-0.3468170166015625,0.122406005859375
1782845439511875000,2.103875,-1.0702667236328125,-0.30865478515625,0.1360931396484375
1782845439521879300,2.11387939453125,-1.090118408203125,-0.280029296875,0.1554107666015625
1782845439531884300,2.12388427734375,-1.08892822265625,-0.2586822509765625,0.15985107421875
1782845439541888000,2.133887939453125,-1.077972412109375,-0.2389068603515625,0.159210205078125
1782845439551893000,2.14389306640625,-1.066436767578125,-0.2166748046875,0.155364990234375
1782845439561897000,2.15389697265625,-1.0485687255859375,-0.187957763671875,0.142303466796875
1782845439571902000,2.16390185546875,-1.0281829833984375,-0.1735382080078125,0.1157989501953125
1782845439581906200,2.17390625,-1.0009002685546875,-0.167449951171875,0.0930938720703125
1782845439591911200,2.1839111328125,-0.957183837890625,-0.1689453125,0.076873779296875
1782845439601915100,2.1939150390625,-0.919769287109375,-0.1840362548828125,0.066619873046875
1782845439611920100,2.203920166015625,-0.895111083984375,-0.189605712890625,0.0604248046875
1782845439621924000,2.213924072265625,-0.8837127685546875,-0.206512451171875,0.0600128173828125
1782845439631929000,2.22392919921875,-0.88421630859375,-0.226226806640625,0.07159423828125
1782845439641933300,2.233933349609375,-0.8948822021484375,-0.2389984130859375,0.0864410400390625
1782845439651938300,2.243938232421875,-0.907928466796875,-0.2484893798828125,0.09246826171875
1782845439661942000,2.25394189453125,-0.9308929443359375,-0.2370147705078125,0.0985260009765625
1782845439671947000,2.263947021484375,-0.9471893310546875,-0.20587158203125,0.1087493896484375
1782845439681951000,2.273950927734375,-0.9371337890625,-0.2091522216796875,0.1074676513671875
1782845439691956000,2.2839560546875,-0.9089813232421875,-0.2054443359375,0.10235595703125
1782845439701960200,2.293960205078125,-0.890625,-0.17462158203125,0.106414794921875
1782845439711965200,2.303965087890625,-0.88922119140625,-0.148468017578125,0.114990234375
1782845439721969200,2.31396923828125,-0.889984130859375,-0.138214111328125,0.12255859375
1782845439731974100,2.32397412109375,-0.886199951171875,-0.1226654052734375,0.1462554931640625
1782845439741978000,2.33397802734375,-0.9032745361328125,-0.1121826171875,0.154327392578125
1782845439751983000,2.343983154296875,-0.9229278564453125,-0.10626220703125,0.1568450927734375
1782845439761987300,2.3539873046875,-0.9430999755859375,-0.0933685302734375,0.15960693359375
1782845439771992300,2.363992431640625,-0.9622802734375,-0.08636474609375,0.1571044921875
1782845439781996300,2.373996337890625,-0.9679718017578125,-0.0914154052734375,0.1529541015625
1782845439792001300,2.384001220703125,-0.972320556640625,-0.094024658203125,0.1475372314453125
1782845439802005200,2.394005126953125,-0.9830322265625,-0.0889739990234375,0.1347198486328125
1782845439812010200,2.40401025390625,-0.9896392822265625,-0.094329833984375,0.1118621826171875
1782845439822015200,2.41401513671875,-0.994598388671875,-0.1045379638671875,0.0920257568359375
1782845439832019500,2.42401953125,-1.00811767578125,-0.10955810546875,0.085845947265625
1782845439842024400,2.4340244140625,-1.0234527587890625,-0.1168670654296875,0.0761260986328125
1782845439852028400,2.4440283203125,-1.03875732421875,-0.1315765380859375,0.068511962890625
1782845439862033400,2.454033447265625,-1.044769287109375,-0.1450347900390625,0.0666961669921875
1782845439872037400,2.464037353515625,-1.0426025390625,-0.151519775390625,0.0656585693359375
1782845439882042400,2.47404248046875,-1.0442962646484375,-0.15472412109375,0.0673370361328125
1782845439892046300,2.48404638671875,-1.0470733642578125,-0.1615753173828125,0.0697784423828125
1782845439902051300,2.49405126953125,-1.038238525390625,-0.171661376953125,0.06878662109375
1782845439912055300,2.50405517578125,-1.0215606689453125,-0.1666412353515625,0.066619873046875
1782845439922060300,2.514060302734375,-1.005889892578125,-0.160491943359375,0.064361572265625
1782845439932064300,2.524064208984375,-0.9906463623046875,-0.16278076171875,0.0770111083984375
1782845439942069200,2.5340693359375,-0.9686126708984375,-0.1710662841796875,0.085906982421875
1782845439952073200,2.5440732421875,-0.92901611328125,-0.1799468994140625,0.0919342041015625
1782845439962078200,2.554078125,-0.8889312744140625,-0.183349609375,0.110198974609375
1782845439972082400,2.56408251953125,-0.884124755859375,-0.18524169921875,0.104644775390625
1782845439982087400,2.57408740234375,-0.903533935546875,-0.1805267333984375,0.081024169921875
1782845439992091400,2.58409130859375,-0.9024810791015625,-0.1809539794921875,0.079864501953125
1782845440002096400,2.594096435546875,-0.889068603515625,-0.1851959228515625,0.08953857421875
1782845440012100400,2.604100341796875,-0.8797149658203125,-0.1711273193359375,0.128631591796875
1782845440022105300,2.614105224609375,-0.9316558837890625,-0.1896209716796875,0.070281982421875
1782845440032109300,2.624109375,-0.943756103515625,-0.1926727294921875,0.0596466064453125
1782845440042114300,2.6341142578125,-0.904876708984375,-0.1766357421875,0.1138763427734375
1782845440052118300,2.6441181640625,-0.9218902587890625,-0.18878173828125,0.0818939208984375
1782845440062123300,2.654123291015625,-0.923797607421875,-0.18359375,0.0727996826171875
1782845440072127200,2.664127197265625,-0.95330810546875,-0.1839752197265625,0.0673675537109375
1782845440082132200,2.67413232421875,-0.9761199951171875,-0.186767578125,0.059600830078125
1782845440092136400,2.684136474609375,-0.994842529296875,-0.191986083984375,0.057464599609375
1782845440102141400,2.694141357421875,-1.0093536376953125,-0.194915771484375,0.0585479736328125
1782845440112145400,2.7041455078125,-1.02410888671875,-0.191925048828125,0.0554962158203125
1782845440122150400,2.714150390625,-1.0406494140625,-0.191741943359375,0.045623779296875
1782845440132154000,2.724154052734375,-1.0382080078125,-0.1954803466796875,0.0458221435546875
1782845440142159000,2.7341591796875,-1.0089263916015625,-0.213043212890625,0.06170654296875
1782845440152163300,2.744163330078125,-0.997039794921875,-0.2241058349609375,0.0615386962890625
1782845440162168300,2.754168212890625,-0.976654052734375,-0.2278289794921875,0.06402587890625
1782845440172172300,2.76417236328125,-0.96893310546875,-0.2277374267578125,0.0611114501953125
1782845440182177300,2.77417724609375,-0.9640655517578125,-0.2290802001953125,0.0649566650390625
1782845440192181200,2.78418115234375,-0.9616546630859375,-0.235748291015625,0.0668792724609375
1782845440202186200,2.794186279296875,-0.9605865478515625,-0.2354736328125,0.0680999755859375
1782845440212190500,2.8041904296875,-0.9706573486328125,-0.23370361328125,0.0688018798828125
1782845440222195500,2.814195556640625,-0.9713287353515625,-0.2415924072265625,0.06854248046875
1782845440232199400,2.824199462890625,-0.9619598388671875,-0.2445068359375,0.06719970703125
1782845440242204400,2.834204345703125,-0.9562530517578125,-0.2432861328125,0.066864013671875
1782845440252208000,2.8442080078125,-0.9521484375,-0.245452880859375,0.06829833984375
1782845440262213000,2.854213134765625,-0.9393463134765625,-0.2536163330078125,0.0681304931640625
1782845440272217300,2.86421728515625,-0.9155120849609375,-0.2646942138671875,0.05987548828125
1782845440282222300,2.874222412109375,-0.88970947265625,-0.2720947265625,0.06182861328125
1782845440292226300,2.884226318359375,-0.870574951171875,-0.283203125,0.0633697509765625
1782845440302231300,2.894231201171875,-0.8654022216796875,-0.288543701171875,0.06207275390625
1782845440312235300,2.9042353515625,-0.883331298828125,-0.280853271484375,0.0641632080078125
1782845440322240300,2.914240234375,-0.910400390625,-0.2738189697265625,0.0590667724609375
1782845440332244500,2.924244384765625,-0.9318389892578125,-0.2740478515625,0.0478057861328125
1782845440342249500,2.93424951171875,-0.9501800537109375,-0.279144287109375,0.0377349853515625
1782845440352253400,2.94425341796875,-0.963531494140625,-0.28466796875,0.031890869140625
1782845440362258400,2.954258544921875,-0.9752960205078125,-0.2813873291015625,0.0298919677734375
1782845440372262100,2.96426220703125,-0.9795684814453125,-0.2819976806640625,0.0260467529296875
1782845440382267100,2.97426708984375,-0.982574462890625,-0.2826385498046875,0.024505615234375
1782845440392271400,2.984271240234375,-0.996063232421875,-0.27960205078125,0.0326385498046875
1782845440402276400,2.9942763671875,-1.01434326171875,-0.2769012451171875,0.0373687744140625
1782845440412280300,3.0042802734375,-1.0255889892578125,-0.2750701904296875,0.0377197265625
1782845440422285300,3.014285400390625,-1.030975341796875,-0.2780303955078125,0.0409393310546875
1782845440432290300,3.024290283203125,-1.032318115234375,-0.2836456298828125,0.0539398193359375
1782845440442294300,3.034294189453125,-1.0185699462890625,-0.2823638916015625,0.0630340576171875
1782845440452299300,3.04429931640625,-0.9956512451171875,-0.2836151123046875,0.0616455078125
1782845440462303500,3.054303466796875,-0.967926025390625,-0.28387451171875,0.066650390625
1782845440472308500,3.06430859375,-0.9486083984375,-0.28070068359375,0.0708160400390625
1782845440482312400,3.0743125,-0.9256439208984375,-0.283782958984375,0.0686492919921875
1782845440492317400,3.0843173828125,-0.905242919921875,-0.28387451171875,0.0699005126953125
1782845440502321200,3.094321044921875,-0.8870849609375,-0.2858428955078125,0.0779266357421875
1782845440512326100,3.104326171875,-0.86956787109375,-0.2882080078125,0.084716796875
1782845440522330400,3.114330322265625,-0.8567352294921875,-0.2794189453125,0.1024322509765625
1782845440532335400,3.12433544921875,-0.86962890625,-0.2931976318359375,0.0167999267578125
1782845440542339300,3.13433935546875,-0.8339385986328125,-0.3191070556640625,0.0111236572265625
1782845440552344300,3.14434423828125,-0.8362274169921875,-0.2949066162109375,0.0598907470703125
1782845440562348300,3.154348388671875,-0.8475341796875,-0.2684783935546875,0.039337158203125
1782845440572353300,3.164353271484375,-0.8661651611328125,-0.2622528076171875,0.056121826171875
1782845440582357500,3.174357421875,-0.9256134033203125,-0.2738800048828125,0.0495758056640625
1782845440592362500,3.184362548828125,-0.9765625,-0.2771148681640625,0.029937744140625
1782845440602366500,3.194366455078125,-1.0160369873046875,-0.2719268798828125,0.0187835693359375
1782845440612371500,3.204371337890625,-1.044921875,-0.2669219970703125,0.0349273681640625
1782845440622375200,3.214375244140625,-1.082733154296875,-0.2592315673828125,0.03082275390625
1782845440632380200,3.224380126953125,-1.1354827880859375,-0.2259674072265625,0.025604248046875
1782845440642384400,3.23438427734375,-1.170684814453125,-0.2206878662109375,0.039031982421875
1782845440652389400,3.244389404296875,-1.187255859375,-0.2153472900390625,0.051727294921875
1782845440662393300,3.254393310546875,-1.1789703369140625,-0.2244110107421875,0.04998779296875
1782845440672398300,3.2643984375,-1.1627960205078125,-0.2291107177734375,0.0408172607421875
1782845440682402300,3.27440234375,-1.1302642822265625,-0.2300872802734375,0.0327301025390625
1782845440692407300,3.2844072265625,-1.098236083984375,-0.2286834716796875,0.02789306640625
1782845440702411500,3.29441162109375,-1.06646728515625,-0.227874755859375,0.0279541015625
1782845440712416500,3.30441650390625,-1.0209503173828125,-0.22930908203125,0.0308685302734375
1782845440722420500,3.31442041015625,-0.974761962890625,-0.230255126953125,0.03155517578125
1782845440732425500,3.324425537109375,-0.945404052734375,-0.2299652099609375,0.0345611572265625
1782845440742429200,3.33442919921875,-0.9260711669921875,-0.22796630859375,0.0365142822265625
1782845440752434200,3.34443408203125,-0.91119384765625,-0.2198638916015625,0.0352783203125
1782845440762438100,3.354438232421875,-0.9052276611328125,-0.219329833984375,0.03717041015625
1782845440772443100,3.364443115234375,-0.8995208740234375,-0.2177276611328125,0.05401611328125
1782845440782447000,3.374447021484375,-0.896087646484375,-0.2122650146484375,0.0676422119140625
1782845440792452000,3.3844521484375,-0.8912811279296875,-0.2029266357421875,0.0743865966796875
1782845440802456000,3.3944560546875,-0.896148681640625,-0.18719482421875,0.082366943359375
1782845440812461000,3.4044609375,-0.904510498046875,-0.1760101318359375,0.0904693603515625
1782845440822465000,3.414465087890625,-0.909912109375,-0.1660919189453125,0.1030426025390625
1782845440832470000,3.424469970703125,-0.90228271484375,-0.1611785888671875,0.1304931640625
1782845440842474000,3.434473876953125,-0.902313232421875,-0.1574859619140625,0.1485137939453125
1782845440852479000,3.44447900390625,-0.9084014892578125,-0.1472625732421875,0.1590728759765625
1782845440862483000,3.45448291015625,-0.9199371337890625,-0.1350555419921875,0.16864013671875
1782845440872488000,3.464488037109375,-0.9349517822265625,-0.1309356689453125,0.1737823486328125
1782845440882492200,3.4744921875,-0.9471893310546875,-0.13165283203125,0.173095703125
1782845440892497200,3.4844970703125,-0.950836181640625,-0.13714599609375,0.173431396484375
1782845440902501000,3.494501220703125,-0.951873779296875,-0.1469268798828125,0.1744232177734375
1782845440912506000,3.504506103515625,-0.959625244140625,-0.158966064453125,0.18072509765625
1782845440922510000,3.514510009765625,-0.960296630859375,-0.1748046875,0.1869354248046875
1782845440932515000,3.52451513671875,-0.9595184326171875,-0.1898193359375,0.196380615234375
1782845440942519000,3.53451904296875,-0.95513916015625,-0.20703125,0.2014617919921875
1782845440952524000,3.54452392578125,-0.9566650390625,-0.226806640625,0.2077484130859375
1782845440962529000,3.554529052734375,-0.9640350341796875,-0.2496185302734375,0.2091217041015625
1782845440972533000,3.564532958984375,-0.9759063720703125,-0.2606201171875,0.213409423828125
1782845440982538000,3.5745380859375,-0.987213134765625,-0.2586822509765625,0.2168731689453125
1782845440992542000,3.5845419921875,-0.9928741455078125,-0.264373779296875,0.20758056640625
1782845441002547000,3.594546875,-0.99615478515625,-0.2712860107421875,0.19879150390625
1782845441012551200,3.60455126953125,-1.0035247802734375,-0.2735137939453125,0.2003326416015625
1782845441022556200,3.61455615234375,-1.003753662109375,-0.2741241455078125,0.2010498046875
1782845441032560000,3.62456005859375,-1.0012664794921875,-0.26788330078125,0.2003631591796875
1782845441042565000,3.634565185546875,-0.99609375,-0.27362060546875,0.19366455078125
1782845441052569000,3.644569091796875,-0.9919281005859375,-0.286346435546875,0.17864990234375
1782845441062574000,3.654573974609375,-0.9797515869140625,-0.2878265380859375,0.160369873046875
1782845441072578000,3.664578125,-0.9653167724609375,-0.2715911865234375,0.1428070068359375
1782845441082583000,3.6745830078125,-0.9517059326171875,-0.2589569091796875,0.1234588623046875
1782845441092587000,3.6845869140625,-0.941131591796875,-0.253143310546875,0.1085052490234375
1782845441102592000,3.694592041015625,-0.941375732421875,-0.2422332763671875,0.1046600341796875
1782845441112596000,3.704595947265625,-0.9453887939453125,-0.2328338623046875,0.1029510498046875
1782845441122601000,3.71460107421875,-0.950439453125,-0.2294158935546875,0.10711669921875
1782845441132605200,3.724605224609375,-0.94573974609375,-0.2359161376953125,0.0973052978515625
1782845441142610200,3.734610107421875,-0.936309814453125,-0.2455291748046875,0.0893707275390625
1782845441152614100,3.7446142578125,-0.93341064453125,-0.2442779541015625,0.094146728515625
1782845441162619100,3.754619140625,-0.939208984375,-0.252716064453125,0.0943603515625
1782845441172623000,3.764623046875,-0.9349517822265625,-0.2623748779296875,0.1011962890625
1782845441182628000,3.774628173828125,-0.9249420166015625,-0.2601165771484375,0.106903076171875
1782845441192632000,3.784632080078125,-0.9249267578125,-0.249359130859375,0.1063995361328125
1782845441202637000,3.794636962890625,-0.9299774169921875,-0.23358154296875,0.1045379638671875
1782845441212641000,3.80464111328125,-0.923248291015625,-0.232879638671875,0.106689453125
1782845441222646000,3.81464599609375,-0.919708251953125,-0.2451629638671875,0.11309814453125
1782845441232650000,3.82464990234375,-0.9193878173828125,-0.2578582763671875,0.1189422607421875
1782845441242655000,3.834655029296875,-0.922088623046875,-0.2664642333984375,0.126708984375
1782845441252659200,3.8446591796875,-0.9201507568359375,-0.271881103515625,0.1289825439453125
1782845441262664200,3.854664306640625,-0.922607421875,-0.2759246826171875,0.1263427734375
1782845441272668200,3.864668212890625,-0.9260711669921875,-0.2740325927734375,0.1206817626953125
1782845441282673200,3.874673095703125,-0.931854248046875,-0.2669525146484375,0.1179962158203125
1782845441292677000,3.884677001953125,-0.9346160888671875,-0.2687835693359375,0.1175384521484375
1782845441302682000,3.89468212890625,-0.92999267578125,-0.2765655517578125,0.11590576171875
1782845441312686000,3.90468603515625,-0.9178619384765625,-0.2849273681640625,0.1146697998046875
1782845441322691000,3.914691162109375,-0.9076385498046875,-0.2897491455078125,0.1148529052734375
1782845441332695000,3.924695068359375,-0.8944244384765625,-0.2986602783203125,0.110076904296875
1782845441342700000,3.934699951171875,-0.8857574462890625,-0.3032989501953125,0.1026153564453125
1782845441352704000,3.9447041015625,-0.8853759765625,-0.3068695068359375,0.0950927734375
1782845441362709000,3.954708984375,-0.877777099609375,-0.3105621337890625,0.087738037109375
1782845441372713200,3.964713134765625,-0.868377685546875,-0.313995361328125,0.080657958984375
1782845441382718200,3.97471826171875,-0.85772705078125,-0.3189239501953125,0.076446533203125
1782845441392722200,3.98472216796875,-0.8472747802734375,-0.32196044921875,0.070159912109375
1782845441402727200,3.99472705078125,-0.84307861328125,-0.322174072265625,0.0704345703125
1782845441412731000,4.00473095703125,-0.8528289794921875,-0.3205718994140625,0.076263427734375
1782845441422736000,4.01473583984375,-0.8681640625,-0.3263092041015625,0.081512451171875
1782845441432740000,4.024739990234375,-0.8820953369140625,-0.3342437744140625,0.0867156982421875
1782845441442745000,4.0347451171875,-0.8918609619140625,-0.3383331298828125,0.0958099365234375
1782845441452750000,4.04475,-0.895751953125,-0.3400115966796875,0.10205078125
1782845441462754000,4.054754150390625,-0.894287109375,-0.3406524658203125,0.1036224365234375
1782845441472759000,4.064759033203125,-0.89556884765625,-0.338775634765625,0.1035003662109375
1782845441482763000,4.074762939453125,-0.9039764404296875,-0.3293304443359375,0.100250244140625
1782845441492768000,4.08476806640625,-0.9069366455078125,-0.3252105712890625,0.08978271484375
1782845441502772000,4.09477197265625,-0.9026031494140625,-0.336456298828125,0.0809478759765625
1782845441512777200,4.104777099609375,-0.9016265869140625,-0.3602752685546875,0.0839691162109375
1782845441522781200,4.11478125,-0.9106903076171875,-0.3757781982421875,0.0928955078125
1782845441532786200,4.1247861328125,-0.9391326904296875,-0.3732452392578125,0.1077117919921875
1782845441542790000,4.134789794921875,-0.9781494140625,-0.3760528564453125,0.1088714599609375
1782845441552795000,4.144794921875,-1.0189971923828125,-0.3814239501953125,0.1051025390625
1782845441562799000,4.154799072265625,-1.051605224609375,-0.386077880859375,0.0977630615234375
1782845441572804000,4.16480419921875,-1.06915283203125,-0.3870697021484375,0.08917236328125
1782845441582808000,4.17480810546875,-1.0673370361328125,-0.39227294921875,0.0816650390625
1782845441592813000,4.18481298828125,-1.0553436279296875,-0.40838623046875,0.078125
1782845441602817000,4.194817138671875,-1.0355682373046875,-0.4211578369140625,0.0795135498046875
1782845441612822000,4.204822021484375,-1.0047760009765625,-0.4326171875,0.0809326171875
1782845441622826000,4.214825927734375,-0.970245361328125,-0.4155120849609375,0.0844268798828125
1782845441632831000,4.2248310546875,-0.9332275390625,-0.3748016357421875,0.080718994140625
1782845441642835200,4.234835205078125,-0.903167724609375,-0.3520660400390625,0.072967529296875
1782845441652840200,4.244840087890625,-0.8889617919921875,-0.347412109375,0.070068359375
1782845441662844000,4.254843994140625,-0.89251708984375,-0.3336639404296875,0.0850830078125
1782845441672849000,4.264848876953125,-0.906707763671875,-0.2991180419921875,0.117584228515625
1782845441682852900,4.274852783203125,-0.9311370849609375,-0.2596282958984375,0.1424560546875
1782845441692857900,4.28485791015625,-0.9563446044921875,-0.2281036376953125,0.165374755859375
1782845441702862000,4.294862060546875,-0.9835662841796875,-0.200469970703125,0.174163818359375
1782845441712867000,4.3048671875,-1.0136260986328125,-0.1797332763671875,0.1723785400390625
1782845441722871000,4.31487109375,-1.0514984130859375,-0.1653900146484375,0.167938232421875
1782845441732876000,4.3248759765625,-1.0886993408203125,-0.1524505615234375,0.1618804931640625
1782845441742880000,4.3348798828125,-1.11212158203125,-0.147705078125,0.15606689453125
1782845441752885000,4.344885009765625,-1.120513916015625,-0.1544342041015625,0.15478515625
1782845441762889500,4.354889404296875,-1.1259307861328125,-0.1657257080078125,0.15625
1782845441772894500,4.36489453125,-1.119781494140625,-0.1827545166015625,0.153778076171875
1782845441782898200,4.374898193359375,-1.09100341796875,-0.18804931640625,0.146728515625
1782845441792903200,4.384903076171875,-1.053070068359375,-0.191192626953125,0.139678955078125
1782845441802907100,4.3949072265625,-1.0079193115234375,-0.196502685546875,0.1265716552734375
1782845441812912000,4.404912109375,-0.9683074951171875,-0.19378662109375,0.1185150146484375
1782845441822916400,4.414916259765625,-0.9291839599609375,-0.186859130859375,0.11492919921875
1782845441832921300,4.42492138671875,-0.883880615234375,-0.1855316162109375,0.109893798828125
1782845441842925300,4.43492529296875,-0.8533172607421875,-0.1812591552734375,0.1065673828125
1782845441852930300,4.444930419921875,-0.8403778076171875,-0.180206298828125,0.1096954345703125
1782845441862934300,4.454934326171875,-0.847625732421875,-0.164947509765625,0.119140625
1782845441872939300,4.464939208984375,-0.8670501708984375,-0.1378936767578125,0.122161865234375
1782845441882943500,4.474943603515625,-0.8793792724609375,-0.1237945556640625,0.1248931884765625
1782845441892948500,4.484948486328125,-0.8834381103515625,-0.1173248291015625,0.1328125
1782845441902952200,4.4949521484375,-0.891845703125,-0.1091461181640625,0.1373748779296875
1782845441912957200,4.504957275390625,-0.9019012451171875,-0.1013031005859375,0.1365814208984375
1782845441922962200,4.514962158203125,-0.9141998291015625,-0.097747802734375,0.133575439453125
1782845441932966100,4.524966064453125,-0.9288177490234375,-0.10394287109375,0.131072998046875
1782845441942971100,4.53497119140625,-0.94891357421875,-0.1073455810546875,0.133880615234375
1782845441952975400,4.544975341796875,-0.9636993408203125,-0.107269287109375,0.132080078125
1782845441962980400,4.55498046875,-0.97186279296875,-0.110809326171875,0.1214141845703125
1782845441972984300,4.564984375,-0.9740447998046875,-0.1182403564453125,0.10833740234375
1782845441982989300,4.5749892578125,-0.97259521484375,-0.12890625,0.0917816162109375
1782845441992993300,4.5849931640625,-0.9678955078125,-0.13458251953125,0.0724334716796875
1782845442002998300,4.594998291015625,-0.9745941162109375,-0.1389923095703125,0.0569000244140625
1782845442013002500,4.60500244140625,-0.9866485595703125,-0.1405029296875,0.046783447265625
1782845442023007500,4.615007568359375,-0.9923553466796875,-0.147796630859375,0.0406036376953125
1782845442033011200,4.62501123046875,-0.9857940673828125,-0.1614990234375,0.0374298095703125
1782845442043016200,4.63501611328125,-0.9846954345703125,-0.172882080078125,0.0407257080078125
1782845442053020200,4.645020263671875,-0.99365234375,-0.17529296875,0.0508880615234375
1782845442063025200,4.655025146484375,-1.0006256103515625,-0.1754302978515625,0.05908203125
1782845442073029400,4.665029296875,-1.0083160400390625,-0.18121337890625,0.064697265625
1782845442083034400,4.675034423828125,-1.0084381103515625,-0.1873626708984375,0.069488525390625
1782845442093038300,4.685038330078125,-1.0061798095703125,-0.18927001953125,0.076202392578125
1782845442103043300,4.695043212890625,-1.0055389404296875,-0.1856842041015625,0.081756591796875
1782845442113047300,4.70504736328125,-1.00677490234375,-0.1826934814453125,0.0777587890625
1782845442123052300,4.71505224609375,-1.0037384033203125,-0.17401123046875,0.069580078125
1782845442133056500,4.725056396484375,-0.9991912841796875,-0.17041015625,0.065582275390625
1782845442143061500,4.7350615234375,-0.983428955078125,-0.17041015625,0.0639495849609375
1782845442153065200,4.745065185546875,-0.956298828125,-0.1729736328125,0.062286376953125
1782845442163070200,4.7550703125,-0.92584228515625,-0.174560546875,0.0653839111328125
1782845442173074200,4.76507421875,-0.89959716796875,-0.1816864013671875,0.06536865234375
1782845442183079200,4.7750791015625,-0.8857421875,-0.189453125,0.0696868896484375
1782845442193083400,4.78508349609375,-0.8799896240234375,-0.193145751953125,0.0757598876953125
1782845442203088400,4.79508837890625,-0.875946044921875,-0.1924591064453125,0.083038330078125
1782845442213092400,4.80509228515625,-0.8775787353515625,-0.1931304931640625,0.086761474609375
1782845442223097300,4.815097412109375,-0.8859100341796875,-0.196685791015625,0.08795166015625
1782845442233101300,4.825101318359375,-0.9009552001953125,-0.19915771484375,0.0845794677734375
1782845442243106300,4.835106201171875,-0.9114532470703125,-0.201446533203125,0.0840301513671875
1782845442253110500,4.845110595703125,-0.9204254150390625,-0.2128753662109375,0.080810546875
1782845442263115500,4.855115478515625,-0.9325103759765625,-0.221435546875,0.0796661376953125
1782845442273119200,4.865119140625,-0.948944091796875,-0.2324981689453125,0.0810394287109375
1782845442283124200,4.875124267578125,-0.97296142578125,-0.2458953857421875,0.0779876708984375
1782845442293128200,4.885128173828125,-1.001556396484375,-0.255157470703125,0.074188232421875
1782845442303133200,4.89513330078125,-1.0223236083984375,-0.25286865234375,0.0734405517578125
1782845442313138200,4.90513818359375,-1.0339202880859375,-0.252716064453125,0.065704345703125
1782845442323142400,4.915142333984375,-1.0304107666015625,-0.25091552734375,0.0552825927734375
1782845442333147400,4.9251474609375,-1.01165771484375,-0.250762939453125,0.0489349365234375
1782845442343151400,4.9351513671875,-0.9897308349609375,-0.249847412109375,0.0428924560546875
1782845442353156400,4.94515625,-0.9691619873046875,-0.2493743896484375,0.037322998046875
1782845442363160300,4.955160400390625,-0.9506683349609375,-0.25341796875,0.031646728515625
1782845442373165300,4.965165283203125,-0.9320068359375,-0.25372314453125,0.0289764404296875
1782845442383169500,4.97516943359375,-0.919830322265625,-0.2552490234375,0.0256500244140625
1782845442393174500,4.985174560546875,-0.9066162109375,-0.2575531005859375,0.0305328369140625
1782845442403178200,4.99517822265625,-0.900177001953125,-0.2570953369140625,0.039306640625
1782845442413183200,5.005183349609375,-0.906402587890625,-0.25726318359375,0.052825927734375
1782845442423187200,5.015187255859375,-0.91485595703125,-0.2511138916015625,0.0683746337890625
1782845442433192200,5.025192138671875,-0.9284210205078125,-0.2472686767578125,0.0743408203125
1782845442443196400,5.035196533203125,-0.9420318603515625,-0.2412567138671875,0.0780487060546875
1782845442453201400,5.045201416015625,-0.9533843994140625,-0.2362213134765625,0.0793304443359375
1782845442463205400,5.055205322265625,-0.96728515625,-0.241424560546875,0.0841827392578125
1782845442473210400,5.06521044921875,-0.970703125,-0.2391510009765625,0.09063720703125
1782845442483214300,5.07521435546875,-0.9723663330078125,-0.2441558837890625,0.0969696044921875
1782845442493219300,5.08521923828125,-0.978271484375,-0.2500762939453125,0.0941619873046875
1782845442503223300,5.095223388671875,-0.9809417724609375,-0.2451171875,0.09466552734375
1782845442513228500,5.105228515625,-0.97698974609375,-0.247589111328125,0.0872802734375
1782845442523232300,5.115232177734375,-0.9706878662109375,-0.2515411376953125,0.0757598876953125
1782845442533237200,5.1252373046875,-0.9745330810546875,-0.249725341796875,0.0642547607421875
1782845442543241200,5.1352412109375,-0.9882049560546875,-0.2513885498046875,0.0499420166015625
1782845442553246200,5.14524609375,-1.004669189453125,-0.2517547607421875,0.0388946533203125
1782845442563250200,5.155250244140625,-1.019256591796875,-0.252105712890625,0.0393218994140625
1782845442573255400,5.16525537109375,-1.0243377685546875,-0.2551727294921875,0.0421600341796875
1782845442583259400,5.17525927734375,-1.011474609375,-0.2574310302734375,0.048858642578125
1782845442593264400,5.185264404296875,-0.9962005615234375,-0.262176513671875,0.0510101318359375
1782845442603268400,5.195268310546875,-0.980438232421875,-0.261474609375,0.0479736328125
1782845442613273300,5.2052734375,-0.954986572265625,-0.2594451904296875,0.0478363037109375
1782845442623277300,5.21527734375,-0.939239501953125,-0.2574462890625,0.050628662109375
1782845442633282300,5.2252822265625,-0.9278564453125,-0.2564239501953125,0.0572662353515625
1782845442643286300,5.235286376953125,-0.9143829345703125,-0.26116943359375,0.0675811767578125
1782845442653291300,5.245291259765625,-0.91510009765625,-0.2681427001953125,0.0798492431640625
1782845442663295200,5.255295166015625,-0.9291839599609375,-0.269805908203125,0.0927276611328125
1782845442673300200,5.26530029296875,-0.9454803466796875,-0.27001953125,0.0966644287109375
1782845442683305200,5.27530517578125,-0.965972900390625,-0.2747650146484375,0.0905914306640625
1782845442693309200,5.28530908203125,-0.989654541015625,-0.2767486572265625,0.0817108154296875
1782845442703314400,5.295314453125,-1.000335693359375,-0.2711334228515625,0.0705413818359375
1782845442713318400,5.305318359375,-1.00067138671875,-0.255706787109375,0.05108642578125
1782845442723323400,5.315323486328125,-0.9964447021484375,-0.2346649169921875,0.0294342041015625
1782845442733327400,5.325327392578125,-0.9852447509765625,-0.21820068359375,0.0084991455078125
1782845442743332400,5.335332275390625,-0.965240478515625,-0.2191314697265625,0.00286865234375
1782845442753336000,5.345336181640625,-0.9611358642578125,-0.2253570556640625,0.0151214599609375
1782845442763341300,5.35534130859375,-0.968292236328125,-0.221832275390625,0.0417327880859375
1782845442773345300,5.36534521484375,-1.009979248046875,-0.2134552001953125,0.0750274658203125
1782845442783350300,5.375350341796875,-1.0743255615234375,-0.211944580078125,0.098724365234375
1782845442793354200,5.385354248046875,-1.130401611328125,-0.20501708984375,0.12060546875
1782845442803359200,5.395359130859375,-1.1731109619140625,-0.1864471435546875,0.13665771484375
1782845442813363200,5.40536328125,-1.2009429931640625,-0.16973876953125,0.1344451904296875
1782845442823368200,5.4153681640625,-1.208984375,-0.158447265625,0.1196441650390625
1782845442833372200,5.4253720703125,-1.1971282958984375,-0.159912109375,0.1012115478515625
1782845442843377200,5.435377197265625,-1.1748504638671875,-0.170440673828125,0.090423583984375
1782845442853381000,5.445381103515625,-1.1395263671875,-0.1860198974609375,0.0666961669921875
1782845442863386000,5.45538623046875,-1.116363525390625,-0.1941070556640625,0.030914306640625
1782845442873390000,5.46539013671875,-1.0791015625,-0.1813507080078125,0.0093841552734375
1782845442883395000,5.47539501953125,-1.02197265625,-0.1796875,-0.0075531005859375
1782845442893399300,5.4853994140625,-0.9568328857421875,-0.1830291748046875,-0.0144500732421875
1782845442903404300,5.495404296875,-0.8928070068359375,-0.180908203125,-0.0074462890625
1782845442913408300,5.505408203125,-0.8505859375,-0.179534912109375,0.0012359619140625
1782845442923413200,5.515413330078125,-0.829864501953125,-0.1753997802734375,-0.0048065185546875
1782845442933417000,5.5254169921875,-0.81585693359375,-0.1768646240234375,-0.00189208984375
1782845442943422000,5.535421875,-0.81591796875,-0.1826019287109375,0.0021209716796875
1782845442953427200,5.54542724609375,-0.817352294921875,-0.1868743896484375,-0.000640869140625
1782845442963431200,5.55543115234375,-0.8229827880859375,-0.1912078857421875,-0.0025482177734375
1782845442973436200,5.565436279296875,-0.8326416015625,-0.1917724609375,0.0173492431640625
1782845442983440100,5.575440185546875,-0.84259033203125,-0.196136474609375,0.050689697265625
1782845442993445000,5.585445068359375,-0.8611297607421875,-0.2054595947265625,0.08331298828125
1782845443003449000,5.595448974609375,-0.89300537109375,-0.20831298828125,0.111053466796875
1782845443013454000,5.6054541015625,-0.9287872314453125,-0.2089385986328125,0.1334228515625
1782845443023458300,5.615458251953125,-0.966217041015625,-0.207550048828125,0.14794921875
1782845443033463300,5.62546337890625,-0.9945068359375,-0.200164794921875,0.16357421875
1782845443043467300,5.63546728515625,-1.01702880859375,-0.1968841552734375,0.17303466796875
1782845443053472300,5.64547216796875,-1.0361175537109375,-0.1949005126953125,0.181671142578125
1782845443063476000,5.65547607421875,-1.04644775390625,-0.19244384765625,0.1893768310546875
1782845443073481000,5.66548095703125,-1.0426483154296875,-0.1879119873046875,0.191680908203125
1782845443083485200,5.675485107421875,-1.025543212890625,-0.1811981201171875,0.1861572265625
1782845443093490200,5.685490234375,-1.00274658203125,-0.18182373046875,0.1832122802734375
1782845443103494100,5.695494140625,-0.9829559326171875,-0.176544189453125,0.1786346435546875
1782845443113499100,5.7054990234375,-0.970367431640625,-0.1735076904296875,0.1651153564453125
1782845443123503000,5.715503173828125,-0.9641265869140625,-0.1806793212890625,0.1620635986328125
1782845443133508000,5.725508056640625,-0.9592437744140625,-0.1842193603515625,0.15911865234375
1782845443143512300,5.73551220703125,-0.9541015625,-0.187713623046875,0.149932861328125
1782845443153517300,5.745517333984375,-0.950653076171875,-0.1924896240234375,0.1375274658203125
1782845443163521300,5.755521240234375,-0.9444122314453125,-0.2030792236328125,0.124786376953125
1782845443173526300,5.7655263671875,-0.9437103271484375,-0.2139739990234375,0.11474609375
1782845443183531300,5.77553125,-0.9488677978515625,-0.23162841796875,0.0985107421875
1782845443193535000,5.785534912109375,-0.950592041015625,-0.2418212890625,0.0815582275390625
1782845443203540000,5.7955400390625,-0.942626953125,-0.241607666015625,0.0724029541015625
1782845443213544200,5.805544189453125,-0.9335784912109375,-0.239349365234375,0.0619354248046875
1782845443223549200,5.815549072265625,-0.9388427734375,-0.2418975830078125,0.049163818359375
1782845443233553200,5.82555322265625,-0.9504241943359375,-0.2454376220703125,0.04461669921875
1782845443243558100,5.83555810546875,-0.9573974609375,-0.247528076171875,0.04156494140625
1782845443253562000,5.84556201171875,-0.954681396484375,-0.246551513671875,0.041046142578125
1782845443263567000,5.855567138671875,-0.9430084228515625,-0.242279052734375,0.0496673583984375
1782845443273571300,5.8655712890625,-0.9271240234375,-0.2415008544921875,0.0623931884765625
1782845443283576300,5.875576416015625,-0.920562744140625,-0.238922119140625,0.076873779296875
1782845443293580000,5.885580078125,-0.919647216796875,-0.233062744140625,0.089141845703125
1782845443303585300,5.895585205078125,-0.9218597412109375,-0.232818603515625,0.0962371826171875
1782845443313589000,5.905589111328125,-0.92669677734375,-0.23028564453125,0.105194091796875
1782845443323594000,5.915593994140625,-0.931488037109375,-0.222015380859375,0.11529541015625
1782845443333598200,5.92559814453125,-0.934906005859375,-0.2204132080078125,0.122283935546875
1782845443343603200,5.935603271484375,-0.9360198974609375,-0.2208709716796875,0.122222900390625
1782845443353607200,5.945607177734375,-0.94317626953125,-0.226959228515625,0.1246490478515625
1782845443363612200,5.955612060546875,-0.9464111328125,-0.232421875,0.1336822509765625
1782845443373617200,5.9656171875,-0.9381561279296875,-0.2406005859375,0.13446044921875
1782845443383621000,5.97562109375,-0.9282989501953125,-0.2460174560546875,0.138671875
1782845443393626000,5.985626220703125,-0.925994873046875,-0.24237060546875,0.1376190185546875
1782845443403630300,5.99563037109375,-0.923248291015625,-0.2479705810546875,0.13525390625
1782845443413635300,6.00563525390625,-0.9127655029296875,-0.25714111328125,0.127105712890625
1782845443423639000,6.01563916015625,-0.907867431640625,-0.26239013671875,0.1224212646484375
1782845443433644000,6.02564404296875,-0.908050537109375,-0.2699737548828125,0.112274169921875
1782845443443648000,6.03564794921875,-0.919647216796875,-0.2738800048828125,0.100341796875
1782845443453653000,6.045653076171875,-0.9344940185546875,-0.2764129638671875,0.0887451171875
1782845443463657200,6.0556572265625,-0.9376220703125,-0.27996826171875,0.0786285400390625
1782845443473662200,6.065662109375,-0.94140625,-0.2773590087890625,0.0722503662109375
1782845443483666200,6.075666259765625,-0.9494476318359375,-0.27685546875,0.0679779052734375
1782845443493671200,6.085671142578125,-0.9569244384765625,-0.2740325927734375,0.063995361328125
1782845443503675100,6.095675048828125,-0.962799072265625,-0.265289306640625,0.0576629638671875
1782845443513680100,6.10568017578125,-0.966583251953125,-0.2651519775390625,0.0508270263671875
1782845443523684400,6.115684326171875,-0.9614105224609375,-0.2805328369140625,0.0416717529296875
1782845443533689300,6.125689453125,-0.945098876953125,-0.288909912109375,0.0411376953125
1782845443543693000,6.135693115234375,-0.939605712890625,-0.2869873046875,0.0535430908203125
1782845443553698000,6.145697998046875,-0.933441162109375,-0.2845001220703125,0.059722900390625
1782845443563702000,6.155701904296875,-0.92535400390625,-0.27783203125,0.0611724853515625
1782845443573707000,6.16570703125,-0.9225006103515625,-0.2719573974609375,0.0617523193359375
1782845443583712000,6.1757119140625,-0.9194793701171875,-0.267364501953125,0.063568115234375
1782845443593716200,6.18571630859375,-0.9174652099609375,-0.266632080078125,0.0621337890625
1782845443603721200,6.19572119140625,-0.91119384765625,-0.2645111083984375,0.0602874755859375
1782845443613725200,6.20572509765625,-0.9055023193359375,-0.27239990234375,0.0587310791015625
1782845443623730200,6.215730224609375,-0.8995819091796875,-0.2854461669921875,0.061187744140625
1782845443633734100,6.225734130859375,-0.8935546875,-0.295318603515625,0.0684661865234375
1782845443643739100,6.2357392578125,-0.8910980224609375,-0.3004608154296875,0.076568603515625
1782845443653743400,6.245743408203125,-0.89727783203125,-0.2960968017578125,0.086456298828125
1782845443663748400,6.255748291015625,-0.9046630859375,-0.2862091064453125,0.094024658203125
1782845443673752000,6.265751953125,-0.90655517578125,-0.290252685546875,0.09185791015625
1782845443683757000,6.275757080078125,-0.8978271484375,-0.30328369140625,0.0892181396484375
1782845443693761000,6.285760986328125,-0.8898162841796875,-0.3177032470703125,0.0876617431640625
1782845443703766000,6.29576611328125,-0.8849029541015625,-0.3309783935546875,0.0868682861328125
1782845443713770200,6.305770263671875,-0.8890380859375,-0.342742919921875,0.0870819091796875
1782845443723775200,6.315775146484375,-0.8952484130859375,-0.349609375,0.089111328125
1782845443733780200,6.3257802734375,-0.9079742431640625,-0.3533477783203125,0.0861968994140625
1782845443743784200,6.3357841796875,-0.927398681640625,-0.3555145263671875,0.0849456787109375
1782845443753789200,6.3457890625,-0.953887939453125,-0.35882568359375,0.0790557861328125
1782845443763793200,6.355793212890625,-0.98883056640625,-0.36334228515625,0.0694427490234375
1782845443773798400,6.36579833984375,-1.018218994140625,-0.3711090087890625,0.0636138916015625
1782845443783802600,6.375802734375,-1.039642333984375,-0.384033203125,0.0566558837890625
1782845443793807600,6.3858076171875,-1.05133056640625,-0.398895263671875,0.04766845703125
1782845443803811300,6.395811279296875,-1.046356201171875,-0.4086761474609375,0.0448760986328125
1782845443813816300,6.40581640625,-1.03314208984375,-0.4039306640625,0.0475921630859375
1782845443823820300,6.4158203125,-1.010498046875,-0.3861541748046875,0.0511627197265625
1782845443833825300,6.4258251953125,-0.9931640625,-0.371734619140625,0.04925537109375
1782845443843829500,6.43582958984375,-0.9805450439453125,-0.3502349853515625,0.046844482421875
1782845443853834500,6.44583447265625,-0.973602294921875,-0.3247833251953125,0.0514068603515625
1782845443863838500,6.45583837890625,-0.9787445068359375,-0.2990570068359375,0.06402587890625
1782845443873843500,6.465843505859375,-0.989227294921875,-0.2739410400390625,0.0847320556640625
1782845443883848400,6.475848388671875,-1.0172576904296875,-0.2314453125,0.1139678955078125
1782845443893852400,6.485852294921875,-1.0531768798828125,-0.19085693359375,0.1474456787109375
1782845443903857400,6.495857421875,-1.087310791015625,-0.177032470703125,0.164093017578125
1782845443913861600,6.505861572265625,-1.101806640625,-0.18414306640625,0.175201416015625
1782845443923866600,6.51586669921875,-1.107177734375,-0.200286865234375,0.186767578125
1782845443933870300,6.525870361328125,-1.101287841796875,-0.21038818359375,0.1967315673828125
1782845443943875300,6.535875244140625,-1.0834197998046875,-0.2160186767578125,0.200714111328125
1782845443953879300,6.54587939453125,-1.04998779296875,-0.22674560546875,0.186187744140625
1782845443963884300,6.55588427734375,-1.0047454833984375,-0.2444000244140625,0.1655120849609375
1782845443973888500,6.565888427734375,-0.953399658203125,-0.2671356201171875,0.1426849365234375
1782845443983893500,6.5758935546875,-0.910919189453125,-0.29315185546875,0.112152099609375
1782845443993897500,6.5858974609375,-0.88818359375,-0.3112030029296875,0.098968505859375
1782845444003902500,6.59590234375,-0.8866119384765625,-0.313690185546875,0.0952301025390625
1782845444013906400,6.605906494140625,-0.8821258544921875,-0.30694580078125,0.0845794677734375
1782845444023911400,6.615911376953125,-0.8716888427734375,-0.2940216064453125,0.07220458984375
1782845444033916400,6.62591650390625,-0.8746490478515625,-0.282989501953125,0.0622100830078125
1782845444043920600,6.635920654296875,-0.8873291015625,-0.268829345703125,0.0531463623046875
1782845444053925600,6.645925537109375,-0.896270751953125,-0.2473297119140625,0.0428619384765625
1782845444063929300,6.655929443359375,-0.8975372314453125,-0.2257232666015625,0.0399017333984375
1782845444073934300,6.665934326171875,-0.899932861328125,-0.2042083740234375,0.0453033447265625
1782845444083938300,6.675938232421875,-0.895172119140625,-0.2015380859375,0.063690185546875
1782845444093943300,6.685943359375,-0.8896026611328125,-0.197479248046875,0.084442138671875
1782845444103947500,6.695947509765625,-0.897430419921875,-0.1773529052734375,0.091583251953125
1782845444113952500,6.705952392578125,-0.9102630615234375,-0.1668548583984375,0.0939483642578125
1782845444123956500,6.71595654296875,-0.921875,-0.170196533203125,0.0951385498046875
1782845444133961500,6.72596142578125,-0.9429168701171875,-0.162506103515625,0.1033782958984375
1782845444143965400,6.73596533203125,-0.9690704345703125,-0.1456298828125,0.1170196533203125
1782845444153970400,6.745970458984375,-0.9891510009765625,-0.1370697021484375,0.1153106689453125
1782845444163975400,6.755975341796875,-0.999725341796875,-0.1491241455078125,0.1048431396484375
1782845444173979600,6.765979736328125,-0.9991455078125,-0.14837646484375,0.096466064453125
1782845444183984600,6.775984619140625,-0.9959716796875,-0.1402435302734375,0.0924835205078125
1782845444193988400,6.78598828125,-0.990234375,-0.1362457275390625,0.0908203125
1782845444203993300,6.795993408203125,-0.973968505859375,-0.1345062255859375,0.087127685546875
1782845444213997300,6.805997314453125,-0.9573516845703125,-0.1314849853515625,0.084564208984375
1782845444224002300,6.816002197265625,-0.954132080078125,-0.1195526123046875,0.0823211669921875
1782845444234006500,6.826006591796875,-0.956695556640625,-0.1101837158203125,0.0770416259765625
1782845444244011500,6.836011474609375,-0.95904541015625,-0.1047821044921875,0.069122314453125
1782845444254015500,6.846015380859375,-0.960113525390625,-0.09918212890625,0.0667724609375
1782845444264020500,6.8560205078125,-0.959869384765625,-0.0979156494140625,0.0739593505859375
1782845444274024400,6.8660244140625,-0.9427642822265625,-0.1049957275390625,0.073516845703125
1782845444284029400,6.876029541015625,-0.9173736572265625,-0.11785888671875,0.076995849609375
1782845444294034400,6.886034423828125,-0.896453857421875,-0.1281585693359375,0.07122802734375
1782845444304038400,6.896038330078125,-0.88812255859375,-0.134033203125,0.069427490234375
1782845444314043600,6.906043701171875,-0.89202880859375,-0.140869140625,0.0675506591796875
1782845444324047400,6.91604736328125,-0.905609130859375,-0.1533355712890625,0.068328857421875
1782845444334052400,6.92605224609375,-0.9282684326171875,-0.1681060791015625,0.0745391845703125
1782845444344056300,6.936056396484375,-0.9561309814453125,-0.1731719970703125,0.08453369140625
1782845444354061300,6.946061279296875,-0.983428955078125,-0.16754150390625,0.09283447265625
1782845444364065500,6.9560654296875,-1.0080413818359375,-0.1597900390625,0.099609375
1782845444374070500,6.966070556640625,-1.0281982421875,-0.1489410400390625,0.1078643798828125
1782845444384074500,6.976074462890625,-1.0429840087890625,-0.1367950439453125,0.1087188720703125
1782845444394079500,6.98607958984375,-1.0501251220703125,-0.134979248046875,0.1033172607421875
1782845444404084500,6.99608447265625,-1.027435302734375,-0.1418609619140625,0.08624267578125
1782845444414088400,7.00608837890625,-1.0013275146484375,-0.14306640625,0.06927490234375
1782845444424093400,7.016093505859375,-0.9797210693359375,-0.1442718505859375,0.0614013671875
1782845444434097400,7.026097412109375,-0.964324951171875,-0.150360107421875,0.059906005859375
1782845444444102400,7.036102294921875,-0.9542694091796875,-0.1549072265625,0.0642547607421875
1782845444454106400,7.0461064453125,-0.93267822265625,-0.1618499755859375,0.0756988525390625
1782845444464111400,7.056111328125,-0.9311676025390625,-0.1654052734375,0.0692596435546875
1782845444474115300,7.066115234375,-0.9240264892578125,-0.1603546142578125,0.0654296875
1782845444484120300,7.076120361328125,-0.9104156494140625,-0.169158935546875,0.065277099609375
1782845444494124300,7.086124267578125,-0.90289306640625,-0.168182373046875,0.061859130859375
1782845444504129500,7.096129638671875,-0.90899658203125,-0.1609344482421875,0.0604400634765625
1782845444514133500,7.106133544921875,-0.9073944091796875,-0.164215087890625,0.0507659912109375
1782845444524138500,7.116138427734375,-0.908660888671875,-0.1746978759765625,0.047210693359375
1782845444534143500,7.1261435546875,-0.9211578369140625,-0.180389404296875,0.057586669921875
1782845444544147500,7.1361474609375,-0.934417724609375,-0.19598388671875,0.0592193603515625
1782845444554152400,7.14615234375,-0.945831298828125,-0.213714599609375,0.062347412109375
1782845444564156400,7.156156494140625,-0.958038330078125,-0.22332763671875,0.0598297119140625
1782845444574161400,7.166161376953125,-0.9663238525390625,-0.22607421875,0.0645599365234375
1782845444584165400,7.176165283203125,-0.9738616943359375,-0.2258148193359375,0.0666351318359375
1782845444594170400,7.18617041015625,-0.9897003173828125,-0.2260284423828125,0.0609130859375
1782845444604174300,7.19617431640625,-1.0085906982421875,-0.219573974609375,0.0491180419921875
1782845444614179300,7.206179443359375,-1.0232696533203125,-0.2125396728515625,0.0376739501953125
1782845444624183300,7.216183349609375,-1.02923583984375,-0.2078399658203125,0.0247344970703125
1782845444634188300,7.226188232421875,-1.036529541015625,-0.2014312744140625,0.022613525390625
1782845444644193500,7.236193603515625,-1.0308380126953125,-0.197235107421875,0.025115966796875
1782845444654197500,7.246197509765625,-1.008392333984375,-0.19573974609375,0.02728271484375
1782845444664202500,7.256202392578125,-0.9818878173828125,-0.1920623779296875,0.02813720703125
1782845444674206500,7.26620654296875,-0.9622039794921875,-0.1902008056640625,0.0293426513671875
1782845444684211500,7.27621142578125,-0.9533538818359375,-0.188568115234375,0.025909423828125
1782845444694215400,7.28621533203125,-0.9502716064453125,-0.1934356689453125,0.0196990966796875
1782845444704220400,7.296220458984375,-0.949371337890625,-0.194488525390625,0.02301025390625
1782845444714224400,7.306224365234375,-0.965240478515625,-0.198211669921875,0.022369384765625
1782845444724229400,7.3162294921875,-0.975738525390625,-0.199462890625,0.0249786376953125
1782845444734233300,7.3262333984375,-0.9909210205078125,-0.2039794921875,0.0257110595703125
1782845444744238300,7.33623828125,-1.0039825439453125,-0.2106475830078125,0.0318450927734375
1782845444754243300,7.346243408203125,-1.011474609375,-0.2143707275390625,0.0432281494140625
1782845444764247300,7.356247314453125,-1.0146942138671875,-0.218902587890625,0.047149658203125
1782845444774252300,7.366252197265625,-1.012969970703125,-0.224365234375,0.04388427734375
1782845444784256500,7.376256591796875,-1.0121307373046875,-0.2223358154296875,0.032684326171875
1782845444794261500,7.386261474609375,-1.0096282958984375,-0.21466064453125,0.023590087890625
1782845444804265500,7.396265380859375,-1.00994873046875,-0.2100067138671875,0.017303466796875
1782845444814270500,7.4062705078125,-1.0106964111328125,-0.2076263427734375,0.0111541748046875
1782845444824274400,7.4162744140625,-1.0052032470703125,-0.21234130859375,0.0076751708984375
1782845444834279400,7.426279541015625,-0.9986572265625,-0.2195281982421875,0.0145263671875
1782845444844284400,7.436284423828125,-0.9862518310546875,-0.220916748046875,0.02447509765625
1782845444854288400,7.446288330078125,-0.9697723388671875,-0.22796630859375,0.0298614501953125
1782845444864293400,7.45629345703125,-0.9502716064453125,-0.2289581298828125,0.030181884765625
1782845444874297300,7.46629736328125,-0.9453277587890625,-0.2267608642578125,0.0274200439453125
1782845444884302300,7.47630224609375,-0.9532928466796875,-0.2280426025390625,0.018646240234375
1782845444894306300,7.486306396484375,-0.967254638671875,-0.232391357421875,0.0120849609375
1782845444904311300,7.496311279296875,-0.9910888671875,-0.22607421875,0.0119781494140625
1782845444914315500,7.5063154296875,-1.0118255615234375,-0.2168731689453125,0.0118255615234375
1782845444924320500,7.516320556640625,-1.0136260986328125,-0.2126312255859375,0.009246826171875
1782845444934324500,7.526324462890625,-1.002716064453125,-0.2128753662109375,-0.003326416015625
1782845444944329500,7.53632958984375,-0.984161376953125,-0.2169036865234375,-0.0098876953125
1782845444954334500,7.54633447265625,-0.9720458984375,-0.2160186767578125,-0.0170135498046875
1782845444964338400,7.55633837890625,-0.9730377197265625,-0.2205963134765625,-0.005889892578125
1782845444974343400,7.566343505859375,-0.983856201171875,-0.2251434326171875,0.029937744140625
1782845444984347400,7.576347412109375,-1.0175933837890625,-0.2213592529296875,0.059478759765625
1782845444994352400,7.586352294921875,-1.0734100341796875,-0.211944580078125,0.0901641845703125
1782845445004356400,7.5963564453125,-1.1362457275390625,-0.209869384765625,0.1049652099609375
1782845445014361300,7.606361328125,-1.1899566650390625,-0.2020263671875,0.108001708984375
1782845445024365300,7.616365234375,-1.21905517578125,-0.1919403076171875,0.101348876953125
1782845445034370300,7.626370361328125,-1.220458984375,-0.188751220703125,0.0850830078125
1782845445044374500,7.63637451171875,-1.201690673828125,-0.1922607421875,0.075347900390625
1782845445054379500,7.646379638671875,-1.1609344482421875,-0.1920013427734375,0.0776214599609375
1782845445064384500,7.656384521484375,-1.11260986328125,-0.189056396484375,0.0690155029296875
1782845445074388500,7.666388427734375,-1.06829833984375,-0.19049072265625,0.0487823486328125
1782845445084393500,7.6763935546875,-1.015228271484375,-0.1917877197265625,0.033294677734375
1782845445094397200,7.686397216796875,-0.9638519287109375,-0.1903533935546875,0.022064208984375
1782845445104402400,7.69640234375,-0.921417236328125,-0.1828460693359375,0.0170745849609375
1782845445114406400,7.706406494140625,-0.8863067626953125,-0.1679229736328125,0.016937255859375
1782845445124411400,7.716411376953125,-0.8575592041015625,-0.15545654296875,0.0159759521484375
1782845445134415400,7.726415283203125,-0.8386688232421875,-0.13702392578125,0.0213623046875
1782845445144420400,7.73642041015625,-0.8216552734375,-0.1220855712890625,0.0301361083984375
1782845445154425300,7.74642529296875,-0.815887451171875,-0.1183624267578125,0.0301055908203125
1782845445164429300,7.75642919921875,-0.81317138671875,-0.124542236328125,0.0269317626953125
1782845445174434300,7.766434326171875,-0.8252716064453125,-0.1339874267578125,0.026397705078125
1782845445184438500,7.7764384765625,-0.8568572998046875,-0.1375579833984375,0.033294677734375
1782845445194443500,7.786443603515625,-0.8978118896484375,-0.136138916015625,0.0521697998046875
1782845445204447500,7.796447509765625,-0.9353485107421875,-0.1300048828125,0.076080322265625
1782845445214452500,7.806452392578125,-0.9682159423828125,-0.135833740234375,0.0994415283203125
1782845445224456200,7.816456298828125,-0.99346923828125,-0.1405487060546875,0.125579833984375
1782845445234461200,7.826461181640625,-1.012603759765625,-0.1475830078125,0.1526641845703125
1782845445244466400,7.836466552734375,-1.0159912109375,-0.159149169921875,0.1777191162109375
1782845445254470400,7.846470458984375,-1.0046234130859375,-0.163116455078125,0.199432373046875
1782845445264475400,7.856475341796875,-0.9921112060546875,-0.1644134521484375,0.204498291015625
1782845445274479400,7.866479248046875,-0.9786529541015625,-0.167572021484375,0.216461181640625
1782845445284484400,7.876484375,-0.9643096923828125,-0.1810455322265625,0.23846435546875
1782845445294488300,7.88648828125,-0.962158203125,-0.185943603515625,0.2510833740234375
1782845445304493300,7.896493408203125,-0.9647216796875,-0.18292236328125,0.2566070556640625
1782845445314497500,7.90649755859375,-0.9672698974609375,-0.1860198974609375,0.2586517333984375
1782845445324502500,7.91650244140625,-0.970855712890625,-0.1817474365234375,0.2601318359375
1782845445334506500,7.926506591796875,-0.981231689453125,-0.175048828125,0.25616455078125
1782845445344511500,7.936511474609375,-0.98931884765625,-0.1744842529296875,0.24700927734375
1782845445354516500,7.9465166015625,-0.9943084716796875,-0.1782684326171875,0.23663330078125
1782845445364520200,7.956520263671875,-0.9922637939453125,-0.1773681640625,0.225677490234375
1782845445374525200,7.966525146484375,-0.9897003173828125,-0.1671600341796875,0.213897705078125
1782845445384529400,7.976529296875,-0.98516845703125,-0.1611328125,0.1940155029296875
1782845445394534400,7.986534423828125,-0.9761810302734375,-0.1663970947265625,0.171966552734375
1782845445404538400,7.996538330078125,-0.9687042236328125,-0.171356201171875,0.1558685302734375
1782845445414543400,8.00654345703125,-0.9605865478515625,-0.179718017578125,0.1378173828125
1782845445424547300,8.01654736328125,-0.951171875,-0.1832122802734375,0.120391845703125
1782845445434552300,8.02655224609375,-0.9432525634765625,-0.1869964599609375,0.1072845458984375
1782845445444557300,8.036557373046875,-0.9410247802734375,-0.1968841552734375,0.0995941162109375
1782845445454561500,8.0465615234375,-0.93792724609375,-0.2069091796875,0.100433349609375
1782845445464566500,8.05656640625,-0.9312591552734375,-0.216583251953125,0.103668212890625
1782845445474570500,8.066570556640626,-0.926055908203125,-0.2292938232421875,0.1072845458984375
1782845445484575500,8.076575439453125,-0.9211578369140625,-0.235687255859375,0.1146697998046875
1782845445494579200,8.0865791015625,-0.91534423828125,-0.2367706298828125,0.1168212890625
1782845445504584200,8.096584228515624,-0.9174957275390625,-0.23126220703125,0.122955322265625
1782845445514588400,8.10658837890625,-0.9175262451171875,-0.2356719970703125,0.122528076171875
1782845445524593400,8.116593505859376,-0.92181396484375,-0.2405548095703125,0.12249755859375
1782845445534598400,8.126598388671875,-0.92919921875,-0.2398529052734375,0.1248626708984375
1782845445544602400,8.136602294921875,-0.931488037109375,-0.237152099609375,0.1298980712890625
1782845445554607400,8.146607421875,-0.9275360107421875,-0.243896484375,0.13055419921875
1782845445564611300,8.156611328125,-0.92547607421875,-0.24200439453125,0.1378936767578125
1782845445574616300,8.1666162109375,-0.925628662109375,-0.2407989501953125,0.1484832763671875
1782845445584620500,8.17662060546875,-0.929473876953125,-0.2396392822265625,0.159454345703125
1782845445594625500,8.18662548828125,-0.9307403564453125,-0.2347412109375,0.1673583984375
1782845445604629500,8.19662939453125,-0.9311065673828125,-0.2355804443359375,0.17095947265625
1782845445614634500,8.206634521484375,-0.9356536865234375,-0.2349090576171875,0.1730804443359375
1782845445624639500,8.216639404296876,-0.9433441162109375,-0.237518310546875,0.1793975830078125
1782845445634643200,8.226643310546875,-0.94915771484375,-0.24127197265625,0.180145263671875
1782845445644648200,8.236648193359375,-0.9472808837890625,-0.2428741455078125,0.1772003173828125
1782845445654652400,8.24665234375,-0.9407806396484375,-0.248565673828125,0.1680755615234375
1782845445664657400,8.256657470703125,-0.9352874755859375,-0.2564849853515625,0.1583099365234375
1782845445674661400,8.266661376953126,-0.931243896484375,-0.251678466796875,0.149688720703125
1782845445684666400,8.276666259765625,-0.9285736083984375,-0.248260498046875,0.131805419921875
1782845445694670300,8.28667041015625,-0.926361083984375,-0.2660064697265625,0.111175537109375
1782845445704675300,8.29667529296875,-0.920135498046875,-0.274261474609375,0.1021728515625
1782845445714680300,8.306680419921875,-0.930267333984375,-0.2711181640625,0.0944976806640625
1782845445724684500,8.3166845703125,-0.9446563720703125,-0.265472412109375,0.0853424072265625
1782845445734689500,8.326689453125,-0.952850341796875,-0.2640533447265625,0.078125
1782845445744693500,8.336693603515625,-0.9495849609375,-0.2682342529296875,0.0757293701171875
1782845445754698500,8.346698486328124,-0.9457244873046875,-0.27947998046875,0.0706024169921875
1782845445764702200,8.3567021484375,-0.945068359375,-0.284423828125,0.075347900390625
1782845445774707700,8.366707763671876,-0.9500579833984375,-0.287445068359375,0.0831451416015625
1782845445784712700,8.376712646484375,-0.95111083984375,-0.2907257080078125,0.089691162109375
1782845445794717000,8.386717041015626,-0.9394683837890625,-0.29010009765625,0.095855712890625
1782845445804722000,8.396721923828125,-0.9171295166015625,-0.29345703125,0.0995635986328125
1782845445814726000,8.406725830078125,-0.904693603515625,-0.2962646484375,0.103485107421875
1782845445824731000,8.41673095703125,-0.890167236328125,-0.2912139892578125,0.1115875244140625
1782845445834734800,8.42673486328125,-0.8777313232421875,-0.289825439453125,0.11688232421875
1782845445844739800,8.43673974609375,-0.873748779296875,-0.2852020263671875,0.1181793212890625
1782845445854743800,8.446743896484374,-0.88275146484375,-0.282745361328125,0.119720458984375
1782845445864748800,8.456748779296875,-0.8841552734375,-0.277679443359375,0.1207733154296875
1782845445874753800,8.46675390625,-0.8862457275390625,-0.2796173095703125,0.1180877685546875
1782845445884757800,8.4767578125,-0.885772705078125,-0.2842864990234375,0.10211181640625
1782845445894762800,8.4867626953125,-0.88323974609375,-0.2833709716796875,0.0895538330078125
1782845445904766700,8.4967666015625,-0.8880767822265625,-0.288421630859375,0.09552001953125
1782845445914771700,8.506771728515625,-0.8944854736328125,-0.2978668212890625,0.103912353515625
1782845445924776000,8.51677587890625,-0.9049224853515625,-0.305328369140625,0.09625244140625
1782845445934781000,8.526781005859375,-0.9085540771484375,-0.313690185546875,0.087860107421875
1782845445944785000,8.536784912109376,-0.914154052734375,-0.3182220458984375,0.0835723876953125
1782845445954790000,8.546789794921875,-0.9350433349609375,-0.3234405517578125,0.084381103515625
1782845445964795000,8.556794921875,-0.96429443359375,-0.3275299072265625,0.0773162841796875
1782845445974798600,8.566798583984376,-0.994049072265625,-0.32763671875,0.0655364990234375
1782845445984803800,8.576803955078125,-0.98504638671875,-0.3351593017578125,0.0555877685546875
1782845445994807800,8.586807861328126,-0.9391632080078125,-0.3437347412109375,0.0721435546875
1782845446004812800,8.596812744140625,-0.9364776611328125,-0.3619384765625,0.0804443359375
1782845446014816800,8.606816650390625,-0.9350433349609375,-0.388336181640625,0.0865325927734375
1782845446024821800,8.61682177734375,-0.9439849853515625,-0.40576171875,0.0878448486328125
1782845446034825700,8.62682568359375,-0.9486541748046875,-0.4200286865234375,0.086761474609375
1782845446044830700,8.636830810546876,-0.9784393310546875,-0.4142608642578125,0.0866241455078125
1782845446054835700,8.646835693359375,-0.9773101806640625,-0.392822265625,0.067535400390625
