time,seconds_elapsed,z,y,x
1782845437493464000,0.085464111328125,-0.7556266443669796,-1.3622953378014266,-0.25769648500569164
1782845437503469000,0.095468994140625,-0.7345154672771692,-1.1748016122475267,-0.36310141767673193
1782845437513473000,0.10547314453125,-0.6852700825929642,-0.9589208733819424,-0.399861560927704
1782845437523478000,0.11547802734375,-0.6949620400458574,-0.6161984460629523,-0.2614811911761761
1782845437533482000,0.12548193359375,-0.7531862654775381,-0.34430341290012,-0.08892638381794095
1782845437543487000,0.135487060546875,-0.8362865734905004,-0.20061185806319115,0.0938819603987038
1782845437553491000,0.145490966796875,-1.2026742462962865,0.0071541095383465285,0.30880919793173667
1782845437563496000,0.155495849609375,-1.4021464328050612,0.14869389316886664,0.44181291614621876
1782845437573500000,0.1655,-1.716435669583082,0.17174962845519184,0.8929419421702622
1782845437583505000,0.1755048828125,-1.952030724352598,0.028170886342972514,1.215759207188338
1782845437593508900,0.1855087890625,-1.711238100939989,-0.15649214582964777,1.3677131250664591
1782845437603513900,0.195513916015625,-1.170071368855238,-0.262537860622257,1.3940157333195209
1782845437613518000,0.20551806640625,-0.4813181203216314,-0.2045372148133814,1.4066095496937632
1782845437623523000,0.215523193359375,0.047614568611979484,-0.1896533878058195,1.2896926045358181
1782845437633527000,0.225527099609375,0.5145616337537765,-0.29495354492813347,1.0518748322155327
1782845437643532000,0.235531982421875,0.9065373368024825,-0.1203589023053646,0.786544418265298
1782845437653537000,0.245537109375,1.2393494877427815,0.3412190370187163,0.5855359620999544
1782845437663541000,0.255541015625,1.4602444015085696,0.5189224593117833,0.24684118286184964
1782845437673546000,0.2655458984375,1.6271663175463675,0.6752297500938177,0.09906776553876698
1782845437683550000,0.275550048828125,1.6063526620984077,0.8978871434874832,0.1091071481898427
1782845437693555000,0.285554931640625,1.5106629216253757,0.9181729756690561,0.24984679441861807
1782845437703559000,0.295558837890625,1.409239605936408,0.8767522932611406,0.35006248788349326
1782845437713564000,0.30556396484375,1.334426649275422,1.0858575466424225,0.4135702797412872
1782845437723567900,0.31556787109375,1.327410633033514,1.3054326099812983,0.3467864618875086
1782845437733572900,0.32557275390625,1.4118623556554317,1.338624247095734,0.14195537869408725
1782845437743577000,0.3355771484375,1.3802584261238575,1.3753858516514301,0.08329970304258168
1782845437753582000,0.34558203125,1.2495254293203353,1.4371315292075275,0.12792539203688502
1782845437763586600,0.355586669921875,0.9763047005116939,1.4827150303833185,0.12634586776047943
1782845437773591600,0.365591552734375,0.6451742190480232,1.5769346983037889,0.1709102550216019
1782845437783595500,0.375595458984375,0.3297334741473198,1.6828243457518517,0.16769443478025495
1782845437793600500,0.3856005859375,0.13602175086140633,1.7610748756460843,0.14706658422797916
1782845437803604500,0.3956044921875,0.012869418445229529,1.7016531109929083,0.11946209959611295
1782845437813609700,0.405609619140625,-0.15930968746840954,1.5143302119612694,0.12253551569208503
1782845437823613700,0.41561376953125,-0.41171734535098076,1.3900219875082374,0.07213540801480411
1782845437833618700,0.42561865234375,-0.7624906849175691,1.1937624794356525,-0.02383022679015994
1782845437843622400,0.435622314453125,-1.175854628431797,0.8693509309634566,-0.07307575760483741
1782845437853627400,0.44562744140625,-1.5611697045475244,0.6775438722550868,-0.000328282106295228
1782845437863631400,0.45563134765625,-1.7993004152745007,0.4867201254956424,0.05929806520827114
1782845437873636600,0.46563671875,-1.912718120139837,0.20067747064530847,0.1268896192483604
1782845437883640600,0.475640625,-1.8901392085850237,-0.015482377422600984,0.21332111751064656
1782845437893645600,0.4856455078125,-1.6804092474341392,-0.15124445443451404,0.1943823160238564
1782845437903649500,0.4956494140625,-1.3796803339749575,-0.14547317755669353,0.14032624312229453
1782845437913654500,0.505654541015625,-0.9971592724919318,-0.042194443259388204,-0.009165303230285644
1782845437923658500,0.515658447265625,-0.6054694006472826,0.096560678088665,-0.16945377260297537
1782845437933663500,0.52566357421875,-0.24772972919940947,0.14455387075468898,-0.33045090170167385
1782845437943667700,0.535667724609375,0.2102408332824707,0.16083762768805027,-0.3652846799999475
1782845437953672700,0.545672607421875,0.5703747063905,0.18062778530716894,-0.22892507548630237
1782845437963676400,0.555676513671875,0.8731699047297239,0.2229142907641828,-0.01500431158207357
1782845437973681400,0.565681396484375,1.1824182247310877,0.2421658114619553,0.10843239073343575
1782845437983685400,0.575685302734375,1.3831734367877244,0.2570793029554188,0.09895027663893997
1782845437993690400,0.5856904296875,1.4064490984350442,0.30783801481202244,0.020180472110956905
1782845438003694600,0.595694580078125,1.2807149328321217,0.3014313626401126,-0.061681380148231976
1782845438013699600,0.605699462890625,1.1735410907924175,0.30082857444137334,-0.1960707805674523
1782845438023703600,0.61570361328125,0.9296808965027332,0.28945962368696926,-0.2648705413535237
1782845438033708500,0.62570849609375,0.6753735424786805,0.2625473591029644,-0.26774792342074216
1782845438043712500,0.63571240234375,0.46983226518929,0.22414646290764212,-0.26891689413487907
1782845438053717500,0.645717529296875,0.3305944748908281,0.1605617333561182,-0.26734825657866895
1782845438063721700,0.6557216796875,0.2913327240824699,0.0591053921803832,-0.27868184375874694
1782845438073726700,0.665726806640625,0.3146300130397081,-0.07344254509061575,-0.27791261295191944
1782845438083730400,0.67573046875,0.32960721741914745,-0.17715484849959612,-0.31783772303983565
1782845438093735400,0.6857353515625,0.2644371183723211,-0.20147242041528224,-0.3730129361644387
1782845438103739400,0.695739501953125,0.17028700855672357,-0.19769465544223785,-0.43263994106613096
1782845438113744400,0.705744384765625,0.1073614735662937,-0.23529694860577582,-0.4986917183183133
1782845438123748600,0.71574853515625,0.05530220050513744,-0.27439561780691146,-0.6200317406155169
1782845438133753600,0.725753662109375,-0.015942250019311904,-0.26149010513499377,-0.7225762423541396
1782845438143757600,0.735757568359375,0.0175502697378397,-0.20981530134677887,-0.7432748200550675
1782845438153762600,0.745762451171875,0.08446750471293926,-0.19746157733872532,-0.7199210516702383
1782845438163766500,0.7557666015625,0.20923194850087165,-0.24266397024244069,-0.7210034400794655
1782845438173771500,0.765771484375,0.32501170632243154,-0.29958544251248237,-0.7125255345914513
1782845438183775700,0.775775634765625,0.37754151950478554,-0.3968455010421574,-0.7516198929436504
1782845438193780700,0.78578076171875,0.37324119196236133,-0.44300300271362064,-0.7308222387824207
1782845438203784400,0.795784423828125,0.3714496323704719,-0.4248120969846844,-0.6970861925929784
1782845438213789400,0.80578955078125,0.37766660718917844,-0.4433259510576725,-0.7184947451941669
1782845438223793400,0.81579345703125,0.3529413312554359,-0.5266382943861186,-0.7656464455347508
1782845438233798400,0.82579833984375,0.2764285849392414,-0.5512785223849117,-0.804425454327464
1782845438243802600,0.835802734375,0.1729179415822029,-0.5247136099338531,-0.8442875091165304
1782845438253807600,0.8458076171875,0.0729103379100561,-0.49788244776204227,-0.8452093732018023
1782845438263811600,0.8558115234375,-0.02284136188328266,-0.560960104574263,-0.925592677341029
1782845438273816600,0.865816650390625,-0.018161095112562177,-0.5880090011499822,-1.0228606269162148
1782845438283820500,0.875820556640625,0.056519759601354594,-0.5543937317959964,-1.1267718869633971
1782845438293825500,0.885825439453125,0.18477905976772308,-0.5085220613285899,-1.2154217188622802
1782845438303829500,0.89582958984375,0.3763210377991199,-0.4779894142903387,-1.277102003031969
1782845438313834500,0.90583447265625,0.484711269891262,-0.4202462503738701,-1.3480614991351962
1782845438323838500,0.91583837890625,0.4034486986994743,-0.42184447935074565,-1.4607643337294458
1782845438333843500,0.925843505859375,0.08367313946485519,-0.3959745634265244,-1.5306483095556496
1782845438343847400,0.935847412109375,-0.3537041323214769,-0.33684535197913645,-1.5280033480048179
1782845438353852400,0.945852294921875,-0.7044920849353075,-0.35695758115947246,-1.3821993310585616
1782845438363856600,0.955856689453125,-0.9510516013115644,-0.29902006371468304,-1.1993810499697923
1782845438373861600,0.965861572265625,-0.9732751235574484,-0.10972878721952438,-1.1725002765025943
1782845438383865600,0.975865478515625,-0.8194184407979249,0.09434212525635957,-1.1832754991475491
1782845438393870600,0.98587060546875,-0.5917419040679931,0.3246393658787012,-1.1263575340088456
1782845438403874600,0.99587451171875,-0.4208978461503982,0.4089490496814251,-0.935374651164934
1782845438413879600,1.005879638671875,-0.3071674220740795,0.40415129401087757,-0.6649832274980843
1782845438423883500,1.015883544921875,-0.36648996413648127,0.40269261963516473,-0.4134394929684698
1782845438433888500,1.025888427734375,-0.5685030672997236,0.3959672569029033,-0.20871508501991629
1782845438443893500,1.0358935546875,-0.8541080613851547,0.3656093819096684,0.00043115795888006687
1782845438453897500,1.0458974609375,-1.1079022051900624,0.4454619401730597,0.28678404780216515
1782845438463902500,1.05590234375,-1.3834306264191865,0.44613691682517526,0.5502445762272924
1782845438473906400,1.065906494140625,-1.5025982731133698,0.3483962351717055,0.7621143258858472
1782845438483911400,1.075911376953125,-1.4759551808595657,0.36633404292240734,1.001644308951497
1782845438493915600,1.08591552734375,-1.439417302057147,0.39932781937718387,1.2214803613141179
1782845438503920600,1.095920654296875,-1.3046616256088017,0.459109357253462,1.296127021497488
1782845438513924600,1.105924560546875,-1.146771741810441,0.5747974912688136,1.2958334453783928
1782845438523929600,1.1159296875,-1.0079232430905103,0.6513841796040535,1.2159618170883506
1782845438533933600,1.12593359375,-0.726339759606123,0.7621016855999827,0.9754155696522444
1782845438543938600,1.1359384765625,-0.4452028508454561,0.8338765897393227,0.7776775134596973
1782845438553942500,1.145942626953125,-0.12638707655370235,0.8008228997908532,0.6257724762246012
1782845438563947500,1.155947509765625,0.11380115122497081,0.7679787609398364,0.5258773930162192
1782845438573951500,1.165951416015625,0.27441315346360207,0.7363466282270849,0.49954183234162625
1782845438583956500,1.17595654296875,0.39318332527279853,0.6911109175756573,0.3818146667793393
1782845438593960400,1.18596044921875,0.5904401738196611,0.6369516034953295,0.3663060589369386
1782845438603965400,1.19596533203125,0.7362181795418262,0.5655263895764947,0.46173115712441504
1782845438613969700,1.2059697265625,0.7787900778114796,0.5099062091633677,0.5930925149593502
1782845438623974700,1.215974609375,0.7752806083858013,0.4652747480154037,0.719888026183471
1782845438633978600,1.225978515625,0.6910954277455806,0.39607553958296776,0.8324171116460114
1782845438643983600,1.235983642578125,0.5247054266273975,0.3828032394252717,0.9308619229808449
1782845438653987600,1.245987548828125,0.34435119756460186,0.43253260823413725,1.1222951068755238
1782845438663992600,1.25599267578125,0.11582593505084514,0.4929550743624568,1.2658210228219628
1782845438673996500,1.26599658203125,-0.15852935074567795,0.5154468921557068,1.4616408243030308
1782845438684001500,1.27600146484375,-0.3296791136115789,0.5757056921549141,1.6106218638502061
1782845438694005500,1.286005615234375,-0.3014379385113716,0.5881666759297252,1.715504087821394
1782845438704010500,1.296010498046875,-0.19908523301780223,0.5638477888397873,1.8730957193255424
1782845438714014500,1.306014404296875,-0.0833808785200119,0.5157398837529122,1.8809588539160786
1782845438724019500,1.31601953125,0.014535890352725981,0.5165390713065863,1.8172507902458308
1782845438734023700,1.326023681640625,0.07227145548462867,0.4647659217104316,1.8109166187882422
1782845438744028700,1.336028564453125,0.19926643480360506,0.4979515674754977,1.733938885308802
1782845438754032600,1.34603271484375,0.30393092437088487,0.40281916862428185,1.6417479467369616
1782845438764037000,1.356037109375,0.31628420998752116,0.21084289082884788,1.5249115194693206
1782845438774041000,1.366041015625,0.27623861532509325,0.11887684705406426,1.4052327083826064
1782845438784046000,1.376046142578125,0.2198994729876518,0.12241261996477841,1.2980031906329095
1782845438794050000,1.386050048828125,0.24495500378906726,0.14982406624257563,1.1602004746388643
1782845438804055000,1.396054931640625,0.22453765418231486,0.15274053821116684,0.9987733566250652
1782845438814059000,1.40605908203125,0.10178747282624244,0.1867775401085615,0.8817360730230808
1782845438824064000,1.41606396484375,-0.01875087769925594,0.21037848818749189,0.7347425540313124
1782845438834068000,1.42606787109375,-0.04089958114326,0.19133797989189624,0.6575352495796978
1782845438844073000,1.436072998046875,-0.03717559218406677,0.250712836663425,0.5741830126322806
1782845438854077200,1.4460771484375,-0.008572598034143447,0.24159634101092814,0.4890769908200949
1782845438864082200,1.456082275390625,0.083354575034976,0.2239075395852327,0.40113559945151206
1782845438874086100,1.466086181640625,0.19369009597599504,0.18759353266656398,0.3533993772212416
1782845438884091100,1.476091064453125,0.3602583762705326,0.11099164676219224,0.373934215727821
1782845438894095000,1.48609521484375,0.49226972244679923,0.01665653576850891,0.3657408993348479
1782845438904100000,1.49610009765625,0.5873439613699912,0.016760872925817967,0.4042594305604696
1782845438914104000,1.50610400390625,0.6534516335278749,0.08721826472580432,0.3717363403573632
1782845438924109000,1.516109130859375,0.5827852751523256,0.10116963318884373,0.3330753319211304
1782845438934113000,1.526113037109375,0.54661447609663,0.07906155401617287,0.26696407956667245
1782845438944118000,1.536117919921875,0.6135270348966121,0.023847908577322958,0.20087591582685707
1782845438954122000,1.5461220703125,0.7025842054873704,-0.061602177432179446,0.12973901733011006
1782845438964127000,1.556126953125,0.7589689405322074,-0.1214762158975005,0.12110307173617184
1782845438974131200,1.566131103515625,0.8340595450907945,-0.01986146928966045,0.14236695516966283
1782845438984136200,1.57613623046875,0.859329595425725,0.053095338110625744,0.13163571779690683
1782845438994140200,1.58614013671875,0.8778647845476866,0.02697188581675291,0.1313756786212325
1782845439004145200,1.596145263671875,0.841636117824912,-0.010111936430633068,0.13859598526358605
1782845439014149000,1.606149169921875,0.748624656650424,-0.10258739103227853,0.14955562456473706
1782845439024154000,1.616154052734375,0.5763865140259266,-0.14622691853344438,0.19210297291502357
1782845439034158000,1.626157958984375,0.40489480585455895,-0.08857172516137361,0.218948894264549
1782845439044163000,1.6361630859375,0.3332213162630796,-0.025125088906288146,0.24093546594940124
1782845439054167000,1.6461669921875,0.3765338037669658,-0.016904957571625707,0.23505481041297316
1782845439064172000,1.656172119140625,0.47859717092514037,-0.11699205622076987,0.23269078469537197
1782845439074176000,1.666176025390625,0.6275386091142893,-0.18484861787259577,0.22575345971286295
1782845439084181000,1.676180908203125,0.660820116469264,-0.16167729338258505,0.2513254156038165
1782845439094185200,1.686185302734375,0.6528402236312627,-0.18142653446942567,0.18686536452248692
1782845439104190200,1.696190185546875,0.6903367183327674,-0.26818624177277084,0.06953194751814007
1782845439114194200,1.706194091796875,0.6219102478384971,-0.4060518669351935,0.033230727015808224
1782845439124199200,1.71619921875,0.5725134719848632,-0.5284631717257201,0.007922609692811965
1782845439134203100,1.726203125,0.6344383055001497,-0.6094527711950242,0.011288505929335951
1782845439144208100,1.7362080078125,0.6559381896466017,-0.6485777438811957,-0.038018691944703455
1782845439154212000,1.746212158203125,0.5847755721867084,-0.6231373054154217,-0.028559447269141672
1782845439164217000,1.756217041015625,0.4335959996819496,-0.6331650706939399,-0.04325213561877608
1782845439174222000,1.76622216796875,0.25536475412249565,-0.7047035357289015,-0.08243804471194743
1782845439184226000,1.77622607421875,0.1786696369767189,-0.734063485725969,-0.023016645384952423
1782845439194231000,1.78623095703125,0.08172843513786793,-0.6772006117753684,0.04834412499554455
1782845439204235000,1.796235107421875,0.00708323625922203,-0.632383564927429,0.06544884292297065
1782845439214240000,1.806239990234375,0.02488485040962696,-0.6694955903559923,0.04787139291726052
1782845439224244200,1.816244140625,0.11154431220889091,-0.7163241231568157,0.027383608422800895
1782845439234249200,1.826249267578125,0.2780091321289539,-0.7596369029216468,-0.0012433511245995758
1782845439244253200,1.836253173828125,0.4043944551169872,-0.804056328754127,-0.0025702158141881226
1782845439254258200,1.846258056640625,0.5232096351116895,-0.8174844039954244,0.053173006456717846
1782845439264262100,1.85626220703125,0.6013146190553903,-0.8165710885427891,0.0962737509060651
1782845439274267100,1.86626708984375,0.5881377420961856,-0.8300617076262832,0.17850312130339444
1782845439284271000,1.87627099609375,0.5753261913180351,-0.7944624248482286,0.26458858260698614
1782845439294276000,1.886276123046875,0.5980132394224404,-0.7711807718515395,0.29872838729172946
1782845439304280000,1.896280029296875,0.6445937888115644,-0.7744676845677196,0.36646300306431945
1782845439314285000,1.90628515625,0.6129442665725946,-0.7041903255097568,0.5875520511627197
1782845439324289000,1.9162890625,0.5141437006026506,-0.8382172492921351,0.06934453518725932
1782845439334294000,1.9262939453125,0.8485936818778514,-1.1511945266887544,-0.05381145049072802
1782845439344298200,1.93629833984375,0.7622767499059439,-1.200488280559331,0.4533242710459977
1782845439354303200,1.94630322265625,0.5916846209228038,-1.0965502055704592,0.31021161207556724
1782845439364307200,1.95630712890625,0.5665232916593551,-1.0883153150580822,0.17430238167792558
1782845439374312200,1.966312255859375,0.2711877616763115,-1.1601676683478057,0.3240606892079115
1782845439384316200,1.976316162109375,0.005619593447446823,-1.243697015427798,0.4108750493079424
1782845439394321200,1.986321044921875,-0.060792030093073844,-1.3108584344223142,0.4885233024600893
1782845439404325000,1.9963251953125,0.03770809162557125,-1.5056293113723396,0.5935922811750323
1782845439414330000,2.006330078125,-0.11807634432613849,-1.568936977548152,0.45884683385975655
1782845439424334000,2.016333984375,-0.32221418455839157,-1.331289812554419,0.40867220550142225
1782845439434339000,2.026339111328125,-0.303777779635787,-1.440929460185766,0.35522615425698456
1782845439444343000,2.036343017578125,-0.2662882991969585,-1.6128594136439263,0.15561638590842483
1782845439454348000,2.04634814453125,-0.194637605959177,-1.7010164205245673,0.0714622579935938
1782845439464352300,2.056352294921875,-0.255209271299839,-1.4999974429652094,0.00942417336218059
1782845439474357200,2.066357177734375,-0.4038146094024181,-1.261551382678747,0.024058044196665285
1782845439484361200,2.076361328125,-0.5047790754079818,-1.193857318112254,0.21167992617487907
1782845439494366200,2.0863662109375,-0.5658049142569304,-1.2994365844368934,0.28951201146133243
1782845439504370000,2.096369873046875,-0.6120195529431104,-1.1431062050402163,0.2881632272008806
1782845439514375000,2.106375,-0.878320711621642,-0.7759959170483052,0.348276846575737
1782845439524379100,2.116379150390625,-1.1604285112410784,-0.48443201455846424,0.5479611414652318
1782845439534384000,2.126384033203125,-1.229551731827855,-0.2690032572440803,0.6661190265949816
1782845439544388000,2.13638818359375,-1.1445078885316848,-0.10341463563665747,0.6906123204037546
1782845439554393000,2.14639306640625,-1.0309797090291977,0.0757403006389737,0.6985270390510558
1782845439564397000,2.15639697265625,-0.8904080397784709,0.33804888255000115,0.6534909426249563
1782845439574402000,2.166402099609375,-0.6826900029718875,0.5644498463861644,0.4796568360459059
1782845439584406000,2.176406005859375,-0.4830436289399862,0.6588466244392097,0.22697525659278034
1782845439594411000,2.186410888671875,-0.11975450667142867,0.7266302669852972,0.06365633348301053
1782845439604415200,2.196415283203125,0.302740837803483,0.6353343775570393,-0.07414082955308259
1782845439614420200,2.206420166015625,0.5951940903484821,0.5518018156066536,-0.14368278700858353
1782845439624424000,2.216423828125,0.7684978163778782,0.4833696460239589,-0.18984686455130576
1782845439634429000,2.226428955078125,0.8159218308538198,0.29581220758408305,-0.1418469498835504
1782845439644433000,2.236432861328125,0.7421095756679773,0.14928352962508798,-0.0008944646216928958
1782845439654438100,2.246438232421875,0.633096827763319,0.06238236802443862,0.10337371910437941
1782845439664442000,2.256442138671875,0.4570288977175951,0.02627162859290838,0.1087548276208341
1782845439674447000,2.266447021484375,0.21125439423918724,0.32505291511565443,0.2139808965936303
1782845439684451000,2.276451171875,0.18610066376030443,0.4782040799543261,0.22216098817884922
1782845439694456000,2.2864560546875,0.3867734582304954,0.42127690859586,0.1715703263655305
1782845439704460000,2.2964599609375,0.647552638617158,0.607003478346765,0.12785291132256388
1782845439714465000,2.306465087890625,0.7267728903263807,0.9315823462098837,0.2060769185360521
1782845439724469200,2.31646923828125,0.7102227375417948,1.0757187222048639,0.24989523667022584
1782845439734474200,2.32647412109375,0.7465192088037729,1.1891536704659462,0.3972871803950518
1782845439744478000,2.33647802734375,0.6911041955739259,1.3389800747960805,0.5804428767446428
1782845439754483000,2.34648291015625,0.493034861600399,1.387111068497598,0.589371667805314
1782845439764487200,2.356487060546875,0.3048971390545368,1.453446558061987,0.6243177473716437
1782845439774492200,2.3664921875,0.10201835897266864,1.5653341307505964,0.627099048653245
1782845439784496400,2.376496337890625,-0.019463994404673574,1.5530973111204802,0.5890395863067358
1782845439794501400,2.38650146484375,-0.04579553649127483,1.4775826359309254,0.5449579410612583
1782845439804505300,2.39650537109375,-0.11772153953909874,1.4888361436121165,0.46872466927357015
1782845439814510300,2.40651025390625,-0.209779645511508,1.484338539931923,0.2918585745874792
1782845439824515300,2.416515380859375,-0.24080782098174094,1.3621402933701872,0.06775229755975305
1782845439834519300,2.426519287109375,-0.3319026348799467,1.275847765187174,-0.047753465626016255
1782845439844524300,2.436524169921875,-0.4605401207089424,1.190996667984128,-0.103053693369776
1782845439854528500,2.446528564453125,-0.6227712485820055,1.0701803773000835,-0.1884133246168494
1782845439864533500,2.456533447265625,-0.7241600774794816,0.9018724137313664,-0.22313611682131884
1782845439874537200,2.466537109375,-0.7354419344723224,0.789053259281069,-0.22241496293991803
1782845439884542200,2.476542236328125,-0.7163654780805111,0.7554277607940137,-0.22334062641747293
1782845439894546200,2.486546142578125,-0.7603302920132875,0.7090903725109994,-0.1731151446547359
1782845439904551200,2.49655126953125,-0.721089583992958,0.6143249072760343,-0.1694904513515532
1782845439914555400,2.506555419921875,-0.6034726738721132,0.5906631689205766,-0.1708927193649113
1782845439924560400,2.516560302734375,-0.4328723615825176,0.6887954802401364,-0.21021416447125374
1782845439934564400,2.526564453125,-0.30970132446587084,0.7143573531284928,-0.1510552885379642
1782845439944569300,2.5365693359375,-0.12469547020494937,0.681756813775003,-0.022890900113433598
1782845439954573300,2.5465732421875,0.16927286307811737,0.5841738069012761,0.023115064258128402
1782845439964578300,2.556578369140625,0.603855535709858,0.5405513766653836,0.15101707541942597
1782845439974582500,2.56658251953125,0.8505214350700377,0.5122757147736847,0.248701350710541
1782845439984587500,2.57658740234375,0.7106862634003162,0.5355087063230574,0.05617569540403783
1782845439994591200,2.58659130859375,0.5992845745325088,0.5738375601954758,-0.11719495838172733
1782845440004596200,2.59659619140625,0.7146259409368038,0.5286464193381368,-0.04409991155453026
1782845440014600200,2.60660009765625,0.7999620451778173,0.5568348413378,0.1570109090067446
1782845440024605200,2.616605224609375,0.7459481309175491,0.6189154499366879,0.29078151994049545
1782845440034609400,2.626609375,0.0865261908084154,0.3532540504664182,-0.4803195377383381
1782845440044614400,2.636614501953125,0.526088405418396,0.5414902649506926,0.112139063231647
1782845440054618400,2.646618408203125,0.5199503410547971,0.4928540982060134,0.13878515116013584
1782845440064623400,2.656623291015625,0.4597299733698368,0.43758170831724996,-0.11808752330727874
1782845440074627300,2.66662744140625,0.3226818020701408,0.47606239175051446,-0.13006817621923983
1782845440084632300,2.67663232421875,0.029576807618141174,0.4103568706527352,-0.22488858651183544
1782845440094636500,2.686636474609375,-0.1407581317335367,0.3618704876422882,-0.2652822639595717
1782845440104641500,2.6966416015625,-0.31980887698233124,0.2896374644719064,-0.27286424352116884
1782845440114645200,2.706645263671875,-0.4262871379733085,0.288888399670273,-0.2677231543056667
1782845440124650200,2.716650146484375,-0.619303280210495,0.3074057608745992,-0.36164690801948307
1782845440134654200,2.726654296875,-0.7189473112672566,0.2937147969134152,-0.4210479952108115
1782845440144659200,2.7366591796875,-0.49808571524918077,0.1800948474742472,-0.32793555787988005
1782845440154663400,2.746663330078125,-0.3144184161156416,0.022782179041951893,-0.25165304012298584
1782845440164668400,2.75666845703125,-0.14591887549757956,-0.03927753289937973,-0.2490671883482486
1782845440174672400,2.76667236328125,-0.010433715730905532,-0.050313890698552126,-0.2467875529784709
1782845440184677400,2.776677490234375,0.04324994366168976,-0.05438537792116403,-0.2549153298545629
1782845440194681300,2.786681396484375,0.07997545399069786,-0.09642872227206825,-0.21379896415546534
1782845440204686300,2.796686279296875,0.10143734421432017,-0.14200857018604873,-0.21635149818249044
1782845440214690600,2.806690673828125,0.061770519736409187,-0.10562222868353127,-0.2053700123757124
1782845440224695600,2.816695556640625,-0.030206922215223312,-0.13011354973092673,-0.2099965031325817
1782845440234699300,2.82669921875,0.032229367953538895,-0.18542890197858214,-0.23089849445112048
1782845440244704300,2.836704345703125,0.10683365029990673,-0.16478227366060016,-0.23303872135020792
1782845440254708200,2.846708251953125,0.14415654200017453,-0.15683905957117675,-0.2558580175321549
1782845440264713200,2.856713134765625,0.20348376023769377,-0.17821721703410148,-0.22668438388742504
1782845440274717400,2.866717529296875,0.3920470147192478,-0.26619652926027776,-0.31103666472285985
1782845440284722400,2.876722412109375,0.6362959160655737,-0.3437375957109034,-0.3436581737991422
1782845440294726400,2.886726318359375,0.870748815062642,-0.4159843551456928,-0.324731135815382
1782845440304731400,2.8967314453125,0.9920558118730783,-0.5097032339371741,-0.33536899581626056
1782845440314735400,2.9067353515625,0.9374608828544616,-0.5087880187883973,-0.349619128030166
1782845440324740400,2.916740234375,0.6793395235002041,-0.4133963844791054,-0.34259617059081793
1782845440334744600,2.92674462890625,0.45096974380910393,-0.3843200737290084,-0.4387183841969818
1782845440344749600,2.93674951171875,0.25113632277250286,-0.4349982676953077,-0.5490603348787874
1782845440354753300,2.946753173828125,0.10312544343173503,-0.4989131059840321,-0.6301044410143047
1782845440364758300,2.95675830078125,-0.021506898409128186,-0.5227743124343455,-0.6582022621210664
1782845440374762200,2.96676220703125,-0.10570727661848067,-0.4954815241001546,-0.6773258455902338
1782845440384767200,2.976767333984375,-0.10825696110129356,-0.518203205126524,-0.7207785452824086
1782845440394771500,2.986771484375,-0.19640461563169956,-0.5151562386460602,-0.6830578133709728
1782845440404776400,2.9967763671875,-0.3639601533979177,-0.4656329138033092,-0.618770269312337
1782845440414780400,3.006780517578125,-0.5260545031487941,-0.44698754230514165,-0.6033572307989001
1782845440424785400,3.016785400390625,-0.5921265194714069,-0.43822219817787406,-0.6036578942459077
1782845440434790400,3.026790283203125,-0.6389519835323095,-0.4754388530246913,-0.5350013413228094
1782845440444794400,3.03679443359375,-0.5945499472260475,-0.46629707680046556,-0.39332740991860626
1782845440454799400,3.04679931640625,-0.40791619950234886,-0.4338701404482126,-0.384665453100577
1782845440464803600,3.056803466796875,-0.16476795287430285,-0.4257145987823605,-0.38090588137134906
1782845440474808600,3.06680859375,0.057734980610013004,-0.3625003099784255,-0.31883878984116015
1782845440484812300,3.076812255859375,0.260531927627325,-0.3359741221025586,-0.3210452869094908
1782845440494817300,3.0868173828125,0.4581605320960283,-0.3209294054448604,-0.3533958700899035
1782845440504821200,3.0968212890625,0.6481710627764463,-0.30415684208124877,-0.30824929902665316
1782845440514826200,3.106826171875,0.8039888164758682,-0.3165507519692182,-0.20980010377764702
1782845440524830500,3.11683056640625,0.9867723185122013,-0.271043092508614,-0.10980740541368722
1782845440534835500,3.12683544921875,0.9416349536687135,-0.209037302711606,-0.26145751803964373
1782845440544839400,3.13683935546875,1.0335784933507441,-0.5022413736239075,-1.139407058261335
1782845440554844400,3.146844482421875,1.3008785999387502,-0.5141550987794995,-0.505357898209244
1782845440564848400,3.156848388671875,1.1286205835700034,-0.22096710221916435,-0.5182170144561677
1782845440574853400,3.166853271484375,1.079948614859581,-0.06477583903223276,-0.5194140422210097
1782845440584857300,3.176857421875,0.6790577839493751,-0.1470715526640415,-0.40859271052442486
1782845440594862300,3.1868623046875,0.08527239135503768,-0.27775325767174364,-0.5579677178252488
1782845440604866300,3.1968662109375,-0.29638650034070013,-0.3093878746025264,-0.7499674495615065
1782845440614871300,3.206871337890625,-0.6588222206503153,-0.2626628021761775,-0.6919098859336227
1782845440624875300,3.216875244140625,-0.898412482535839,-0.3479834165871143,-0.5711971286892891
1782845440634880300,3.22688037109375,-1.3847458006709814,-0.11798428212851285,-0.7007773752611131
1782845440644884200,3.23688427734375,-1.8085732705324886,0.0031606559880077837,-0.610297989847511
1782845440654889500,3.246889404296875,-2.0586463479876516,0.007274813308566808,-0.45481845512650904
1782845440664893400,3.2568935546875,-2.0785107398867604,-0.05921791264414787,-0.38348252692632373
1782845440674898400,3.2668984375,-1.946222914856672,-0.1771343902334571,-0.4446332342639565
1782845440684902400,3.27690234375,-1.7159271355390548,-0.21238179083392023,-0.5171046693000942
1782845440694907400,3.286907470703125,-1.3587439289301633,-0.2350982111632824,-0.5840357136048376
1782845440704911000,3.2969111328125,-1.0766840601056813,-0.2142003845632076,-0.5999580898799002
1782845440714916400,3.306916259765625,-0.6885691241383552,-0.22989114403948185,-0.5593748081441968
1782845440724920300,3.31692041015625,-0.21519524081945418,-0.2202193525917828,-0.5545726685594767
1782845440734925300,3.32692529296875,0.1631242773205042,-0.2172692706145346,-0.5139785731688141
1782845440744929300,3.33692919921875,0.37395080153644084,-0.182604638338089,-0.4909956108577549
1782845440754934300,3.346934326171875,0.5552367584913969,-0.11321136863827705,-0.4716452328953892
1782845440764938200,3.356938232421875,0.6496855589926243,-0.0369685253046453,-0.4843958472665399
1782845440774943200,3.366943115234375,0.6815601221591234,-0.021278642611205576,-0.385906173876673
1782845440784947200,3.376947265625,0.7224275545984506,0.044044601170718664,-0.21884156143255531
1782845440794952200,3.3869521484375,0.7627876220375299,0.14829758732765913,-0.11245346294306217
1782845440804956000,3.396955810546875,0.772297208660841,0.3023059535175562,-0.05545271489173174
1782845440814961000,3.4069609375,0.673761431106925,0.4608620461396873,0.023760887880995868
1782845440824965000,3.416965087890625,0.588235941773653,0.5950443066142499,0.09410239821635186
1782845440834970000,3.42697021484375,0.6126672031968832,0.6911392668873071,0.30448125173002477
1782845440844974000,3.43697412109375,0.647476066249609,0.7498261413946747,0.5279057570386678
1782845440854979000,3.44697900390625,0.6089437987595796,0.8360030803740024,0.6523061167545616
1782845440864983000,3.456983154296875,0.5135954190701246,0.9886441037334501,0.7374284321144223
1782845440874988000,3.466988037109375,0.3847136030912399,1.1000595288656652,0.808967262475565
1782845440884992000,3.476991943359375,0.2199298681259155,1.1272554326966404,0.8162081004492938
1782845440894997000,3.4869970703125,0.14031272605359554,1.1321367749974132,0.8053617122642696
1782845440905001200,3.497001220703125,0.1401753634095192,1.0697799798056482,0.8068091345936059
1782845440915006200,3.507006103515625,0.07035948438346386,1.0013923800170421,0.8419922377862036
1782845440925010000,3.517010009765625,0.016671148815751075,0.880140912786126,0.9065716043982655
1782845440935015000,3.527014892578125,0.007833762365579604,0.7517202845782041,0.9776651021447033
1782845440945019000,3.537018798828125,0.049933951470255845,0.614646102054417,1.0482417364101857
1782845440955024100,3.547024169921875,0.050174189966917034,0.43903848299682136,1.0844390581466257
1782845440965029000,3.557029052734375,0.017614567145705223,0.2245838314116001,1.1288237049266696
1782845440975033000,3.567033203125,-0.08806231433451175,0.03229804927557706,1.140086053501442
1782845440985038000,3.5770380859375,-0.20628654269874094,0.011723755541443824,1.187362549265474
1782845440995042000,3.5870419921875,-0.29432021546065806,-0.008817804966866969,1.1603456552632152
1782845441005047000,3.597047119140625,-0.3175584677070379,-0.10428542712181806,1.0448671454105525
1782845441015051000,3.607051025390625,-0.3724707921117544,-0.16493717196136712,1.012071960267797
1782845441025056000,3.617055908203125,-0.41847851004898545,-0.19067659337371587,1.025558414632827
1782845441035060000,3.62706005859375,-0.39662440563738344,-0.16389993786811827,1.0281488695174454
1782845441045065200,3.637065185546875,-0.3604191197901964,-0.1661865875005722,1.0025480528581887
1782845441055069000,3.64706884765625,-0.30093875681757926,-0.26100568261891605,0.9072928313449025
1782845441065074000,3.657073974609375,-0.24584347706139087,-0.37707711686342954,0.7312085346862673
1782845441075078000,3.667077880859375,-0.08886778549849987,-0.27437136014848945,0.5617847918953747
1782845441085083000,3.677082763671875,0.04468026872575283,-0.11681903774142265,0.38670945308357474
1782845441095087000,3.687087158203125,0.17354630261361598,-0.043613808538019654,0.20879333788789808
1782845441105092000,3.697092041015625,0.2319733571410179,0.035063130074739456,0.11496712626442313
1782845441115096000,3.707095947265625,0.20491466982364653,0.1495692146986723,0.10499635187014937
1782845441125101000,3.71710107421875,0.14844225649535656,0.21780893044918775,0.11827515483386813
1782845441135105000,3.72710498046875,0.13076105385422707,0.20699469096809625,0.09814816647581756
1782845441145110000,3.737110107421875,0.21505846269726753,0.10994389127492904,-0.03689465635083616
1782845441155114000,3.747114013671875,0.28120705138742924,0.08205342930853367,-0.05062777895331382
1782845441165119000,3.757118896484375,0.25416882233619686,0.07290741530060768,-0.03182802061103284
1782845441175123000,3.767123046875,0.22578736198246477,-0.042379590567946435,-0.020189386069774627
1782845441185128000,3.7771279296875,0.3165016521304846,-0.07484130597263575,0.04716463288739323
1782845441195132000,3.7871318359375,0.37734102849662304,0.0030269466057419774,0.05113952786773443
1782845441205137000,3.797136962890625,0.33112054459154605,0.1381152160093188,0.0270562030993402
1782845441215141000,3.80714111328125,0.33122868114113807,0.24107377844154834,0.012487871781736612
1782845441225146000,3.81714599609375,0.3966705828666687,0.17613661136776207,0.05059475346654653
1782845441235150000,3.827150146484375,0.4079688064724207,0.04166004412174225,0.10601955743804574
1782845441245155000,3.837155029296875,0.3856073370605707,-0.07490268077105283,0.15831044729799032
1782845441255159000,3.847158935546875,0.3978378730803728,-0.13461305310726165,0.19708163811042903
1782845441265164000,3.8571640625,0.39343525420725345,-0.19702011718153953,0.2004948075547814
1782845441275168000,3.86716796875,0.35315760435461996,-0.2202025475874543,0.12825082459896803
1782845441285173000,3.877173095703125,0.3173813575744629,-0.17267215012758969,0.09342720236852764
1782845441295177000,3.887177001953125,0.26543840436935423,-0.13339637079387903,0.07019969071187078
1782845441305182000,3.897181884765625,0.270987270668149,-0.19607377624213695,0.05933430556543171
1782845441315186000,3.90718603515625,0.3588163607686758,-0.2821028311833739,0.04643661087378859
1782845441325191000,3.91719091796875,0.48846506946682927,-0.3317106194391847,0.05717668914012611
1782845441335195100,3.927195068359375,0.5871709428906441,-0.4024830685377121,0.04318279670961201
1782845441345200000,3.9372001953125,0.7148363688170909,-0.4725137593582272,-0.016094737167283893
1782845441355204000,3.9472041015625,0.7466857975423336,-0.49604924098551273,-0.07939999219030142
1782845441365209000,3.957208984375,0.771750680693984,-0.5302227287441492,-0.1588037837728858
1782845441375213000,3.967213134765625,0.8607248491764068,-0.5690083864733576,-0.1989823571652174
1782845441385218000,3.977218017578125,0.9705962597370147,-0.6003668168112635,-0.26119360640645023
1782845441395222000,3.987221923828125,1.066848894789815,-0.6376014457061886,-0.30108298759385943
1782845441405227000,3.99722705078125,1.1592068604916332,-0.6695642716780305,-0.3444086268402636
1782845441415231000,4.00723095703125,1.1212369030594824,-0.6413873939856887,-0.28480018050856887
1782845441425236000,4.017236083984375,0.9941665204167366,-0.6528542521566152,-0.2218606169927865
1782845441435240000,4.027239990234375,0.8398948271155356,-0.7439090263053775,-0.17333390197195112
1782845441445245000,4.037244873046875,0.7301520113706589,-0.805471748510003,-0.0945043300807476
1782845441455250000,4.04725,0.6649480100542307,-0.8313374266505241,-0.006337970849871635
1782845441465254100,4.057254150390625,0.6516770250707864,-0.8422767538160085,0.04533968248255551
1782845441475259100,4.067259033203125,0.6680272713690996,-0.8372419745191931,0.054879006657004355
1782845441485263000,4.07726318359375,0.6153372991889715,-0.7857803750902413,0.05951996433064341
1782845441495268000,4.08726806640625,0.5447703095346689,-0.6963643080592155,0.014101079132035373
1782845441505272000,4.09727197265625,0.5675128872185945,-0.7427829448848963,-0.0922805896166712
1782845441515277000,4.107277099609375,0.5947405013620853,-0.9340840998977422,-0.11186192679069935
1782845441525281000,4.117281005859375,0.5917530099838971,-1.178873976252973,-0.0421451242249459
1782845441535286000,4.1272861328125,0.410884986180067,-1.246701457940787,0.08724391062371432
1782845441545290000,4.1372900390625,0.0712204851269722,-1.2382283747583627,0.20282748828604816
1782845441555295000,4.147294921875,-0.3340197731643915,-1.306101741414517,0.18559432167336343
1782845441565299000,4.157298828125,-0.7057248416006565,-1.3451995338328182,0.15272512144632636
1782845441575304000,4.167303955078125,-0.9579524667412042,-1.368660635049641,0.0806123636547476
1782845441585308200,4.17730810546875,-1.0384195036411286,-1.3491159766241907,0.033336452412605286
1782845441595313200,4.187313232421875,-0.9545441196024417,-1.4309323823064566,-0.021687369542568922
1782845441605317000,4.197317138671875,-0.8201666288167238,-1.5370537926837802,-0.02410297931693494
1782845441615322000,4.207322021484375,-0.582290185111761,-1.6201488399997352,0.01143923951163888
1782845441625326000,4.217326171875,-0.2631394797772169,-1.5989710274145006,0.01875409256964922
1782845441635331000,4.2273310546875,0.08139116600751876,-1.2385086530044673,0.044587622006237504
1782845441645335000,4.2373349609375,0.42292672162950035,-0.8972963379874825,-0.041238238513097165
1782845441655340000,4.247340087890625,0.6544388909995555,-0.8016966138854622,-0.10146503593884408
1782845441665344000,4.257343994140625,0.7132371169269085,-0.7872761666059493,-0.06536898261979222
1782845441675349000,4.267348876953125,0.6304097806364297,-0.5949103049710392,0.1844537733361125
1782845441685353000,4.27735302734375,0.45537586981356143,-0.2771732658267021,0.4747786355502903
1782845441695358000,4.28735791015625,0.223093885114789,-0.014368717092275619,0.7224280660551041
1782845441705362200,4.297362060546875,-0.0005500350981950759,0.19295915135294198,0.8896529105622321
1782845441715367200,4.3073671875,-0.27434827153384683,0.3577539922341704,0.9185082720380275
1782845441725371100,4.31737109375,-0.5823644193917512,0.4646230061084032,0.8921998916313052
1782845441735376100,4.327376220703125,-0.9583616320639848,0.534583554302156,0.8496972592055797
1782845441745380000,4.337380126953125,-1.2533867809236048,0.6065272391371429,0.787691907799989
1782845441755385000,4.347385009765625,-1.394423729598522,0.5672669496335089,0.7537384194675832
1782845441765389300,4.357389404296875,-1.459943372735381,0.4756378827281296,0.7594269134327769
1782845441775394300,4.367394287109375,-1.4815040471583605,0.3582810848481953,0.7620249671019613
1782845441785398300,4.377398193359375,-1.3064800732076167,0.26134879696816204,0.7019755720697343
1782845441795403300,4.3874033203125,-0.9796627787679433,0.28494653017669913,0.6286285963080823
1782845441805407200,4.3974072265625,-0.5761380922228098,0.2858547310627997,0.5328639639679342
1782845441815412200,4.407412109375,-0.15666881757080553,0.31342911281734703,0.4055332498885691
1782845441825416400,4.41741650390625,0.18119360249638555,0.42897681544870137,0.3532368801359087
1782845441835421400,4.42742138671875,0.6076712946057319,0.5110454423263668,0.2944973986584693
1782845441845425400,4.43742529296875,0.978822236290574,0.5647611042924225,0.23597981630340217
1782845441855430400,4.447430419921875,1.1903484332084655,0.6207365278840065,0.21668971716091034
1782845441865434400,4.457434326171875,1.2171224583655595,0.67750543994084,0.27388847200237215
1782845441875439400,4.467439453125,1.0504559783935545,0.9284165756553411,0.3388130718555301
1782845441885443300,4.477443359375,0.8875491432160139,1.1562839587822555,0.338794659416005
1782845441895448300,4.4874482421875,0.8178326329112052,1.242317982159555,0.3750323862280696
1782845441905452300,4.497452392578125,0.765637166249752,1.3146885141044855,0.45438298631869256
1782845441915457300,4.507457275390625,0.6708078419983386,1.3899340169638394,0.47021578461416064
1782845441925462300,4.517462158203125,0.5698287629455328,1.4481274088658391,0.43978878990747033
1782845441935466200,4.52746630859375,0.4312772013455629,1.4420928048767148,0.41234446427337823
1782845441945471200,4.53747119140625,0.2646411165118217,1.3624844306327402,0.416023225851357
1782845441955475500,4.547475341796875,0.0714946258932352,1.3639476350530981,0.44366278179660434
1782845441965480400,4.55748046875,-0.03747252930402756,1.3551166783437132,0.3780558257024735
1782845441975484400,4.567484375,-0.0846662421554327,1.298970282099396,0.25842085375748575
1782845441985489400,4.577489501953125,-0.08184300142824649,1.1866850883953273,0.1299065559167415
1782845441995493400,4.587493408203125,-0.04215221155285835,1.1044457811258732,-0.04720591474585235
1782845442005498400,4.597498291015625,-0.03855681740939617,1.0421719880424438,-0.22365005769282578
1782845442015502300,4.60750244140625,-0.130759300288558,1.0142271655403077,-0.3239894506026059
1782845442025507300,4.61750732421875,-0.2375193008303642,0.9693255091488361,-0.4031292574867606
1782845442035511300,4.62751123046875,-0.2248012735545635,0.8477624917507172,-0.43728783993721004
1782845442045516300,4.637516357421875,-0.15687866092920302,0.6957378467239439,-0.4418679342690855
1782845442055520300,4.647520263671875,-0.20957681641578674,0.613344371806085,-0.3613029168874025
1782845442065525200,4.657525146484375,-0.28038755169808866,0.6073726039201021,-0.2738194253541529
1782845442075529200,4.667529296875,-0.362413508477807,0.5658844092339277,-0.20548640529699622
1782845442085534200,4.6775341796875,-0.40491058794558044,0.4915889005757868,-0.15164631323367356
1782845442095538400,4.687538330078125,-0.3697983580321073,0.43945890036597846,-0.10220080286748706
1782845442105543400,4.69754345703125,-0.3663812430649996,0.4534747123673558,-0.03626972938552499
1782845442115547100,4.707547119140625,-0.3647849137842655,0.4819742461428046,-0.01657243768163025
1782845442125552400,4.717552490234375,-0.3615460779935121,0.5315712207436561,-0.09897036957889795
1782845442135556000,4.72755615234375,-0.3254372382581234,0.6188873928859829,-0.16717318738512693
1782845442145561300,4.737561279296875,-0.24149989489912985,0.6409687301822007,-0.18384930463694035
1782845442155565300,4.7475654296875,-0.03575695755779743,0.6320701150640845,-0.20695428589247167
1782845442165570300,4.7575703125,0.2657528771460056,0.6185993697248399,-0.19638430349603295
1782845442175574300,4.76757421875,0.5511825146645307,0.6010106676727534,-0.19906148681603372
1782845442185579300,4.777579345703125,0.7440390824258327,0.5291078993700444,-0.17216135106123984
1782845442195583200,4.787583251953125,0.8256231406569481,0.46227147454619405,-0.13795878333859146
1782845442205588200,4.797588134765625,0.8837363069295883,0.4591277696929872,-0.07822415334396064
1782845442215592400,4.807592529296875,0.8995137217760085,0.4421311883151531,-0.021782500480115412
1782845442225597400,4.817597412109375,0.8489017249137163,0.4268937255643308,-0.01323700964860618
1782845442235601200,4.82760107421875,0.7315969494819641,0.36298794736489653,-0.008325710600987076
1782845442245606100,4.837606201171875,0.5997334873437881,0.33016777391135693,-0.0593423427414149
1782845442255610000,4.847610107421875,0.5219114119946956,0.2407860475413501,-0.05416771658249199
1782845442265615000,4.857614990234375,0.42055706988871094,0.105278675942868,-0.08617423556558787
1782845442275619300,4.867619384765625,0.30146073486506936,-0.00720481681227684,-0.08036701059155166
1782845442285624300,4.877624267578125,0.11414251200854778,-0.16185001960098744,-0.08070917509272695
1782845442295628300,4.887628173828125,-0.1547048240214586,-0.3153140497811138,-0.12999679148346185
1782845442305633300,4.89763330078125,-0.3980599913984537,-0.35619200361445547,-0.13638240086734293
1782845442315638300,4.90763818359375,-0.5686141264587641,-0.3414239119410515,-0.1777879587713629
1782845442325642200,4.917642333984375,-0.6076438220769167,-0.3395385365858674,-0.25493469214215875
1782845442335647200,4.927647216796875,-0.48804421370625495,-0.3317452523611486,-0.3392407226830721
1782845442345651500,4.9376513671875,-0.28059973314404485,-0.33760084652155636,-0.37755379446446896
1782845442355656400,4.947656494140625,-0.0651285979926586,-0.30887115725204345,-0.4388701406925916
1782845442365660200,4.95766015625,0.12296294732391834,-0.3383611633695662,-0.48567412357404827
1782845442375665200,4.9676650390625,0.3150099522680044,-0.35476650085598227,-0.5274866548437624
1782845442385669000,4.977669189453125,0.46980245457291603,-0.35216494005545973,-0.5488401162568479
1782845442395674000,4.987674072265625,0.5694201821446419,-0.38999621966928244,-0.5544152860406786
1782845442405678300,4.99767822265625,0.6953104150921106,-0.4047393230319023,-0.4715449873913079
1782845442415683300,5.007683349609375,0.6904483620136976,-0.41520562585815785,-0.37208150053322314
1782845442425687300,5.017687255859375,0.6165379071503877,-0.41030777081400155,-0.2126179376773536
1782845442435692300,5.0276923828125,0.5150988093703985,-0.3724686001546681,-0.12220299580208957
1782845442445696300,5.0376962890625,0.37230244980752464,-0.3587308744423091,-0.08545834238119424
1782845442455701200,5.047701171875,0.2739665787398815,-0.3011494769588113,-0.06533011191412806
1782845442465705500,5.05770556640625,0.13565350207090376,-0.3356587725430727,-0.03770538821183145
1782845442475710500,5.06771044921875,0.049476270830631254,-0.37351562498956914,0.01812222440689802
1782845442485714200,5.077714111328125,0.05049509248435497,-0.3957620897196233,0.087294398701936
1782845442495719200,5.08771923828125,0.010345452925562859,-0.4906362760260701,0.10282704500705003
1782845442505723100,5.09772314453125,-0.0247480722874403,-0.5027908242002129,0.09575221124999224
1782845442515728100,5.10772802734375,-0.03166588885188103,-0.49745764647871255,0.06919687034487725
1782845442525732400,5.117732421875,0.04558101695775985,-0.5674677329026162,-0.024609686730057
1782845442535737300,5.1277373046875,0.07587094128131866,-0.5706733970761299,-0.13401632932312785
1782845442545741300,5.1377412109375,-0.03622866672277451,-0.5765145243197679,-0.2590229113038629
1782845442555746300,5.147746337890625,-0.17878595683276652,-0.5932572770670056,-0.39598976099565625
1782845442565750300,5.157750244140625,-0.3439578143328428,-0.5899440608657897,-0.4547897404886782
1782845442575755300,5.16775537109375,-0.4491197320282459,-0.6048506842270494,-0.4274376962479204
1782845442585759500,5.177759521484375,-0.4116103778451681,-0.6174703656949102,-0.38045506886392827
1782845442595764500,5.187764404296875,-0.24936639049053191,-0.6408880661614239,-0.3437207176413387
1782845442605768200,5.197768310546875,-0.12899521322548388,-0.650002223726362,-0.35698593047112226
1782845442615773200,5.207773193359375,0.0749281074732542,-0.6137824709624051,-0.38910745413601394
1782845442625777200,5.217777099609375,0.29545711053609847,-0.5715924116171897,-0.39360666525140403
1782845442635782100,5.2277822265625,0.3972726404130459,-0.5393612900979816,-0.3554655159708112
1782845442645786400,5.237786376953125,0.5326800587683915,-0.5311623476818204,-0.27844211671873925
1782845442655791400,5.247791259765625,0.6003782149881124,-0.584558130043745,-0.1824325697068125
1782845442665795300,5.25779541015625,0.5203495695054531,-0.6192610485039651,-0.05302431870102882
1782845442675800300,5.26780029296875,0.34792847152948375,-0.6094723526783287,0.03483494734205305
1782845442685805300,5.277805419921875,0.18105857793986796,-0.6122520465247333,0.011690291663259267
1782845442695809300,5.287809326171875,-0.05940905130207538,-0.6403000371403992,-0.06133936177752912
1782845442705814300,5.297814208984375,-0.23521570006310938,-0.592916062413901,-0.1633721146017313
1782845442715818500,5.307818603515625,-0.29666648632586,-0.46660058979168534,-0.3106002460669726
1782845442725823500,5.317823486328125,-0.26874796730875966,-0.24200550633370874,-0.5180599972635507
1782845442735827200,5.3278271484375,-0.22680852172374724,-0.02454480480030179,-0.7463359611913561
1782845442745832200,5.337832275390625,-0.04386836782097816,0.07233326867446303,-0.8919271391045301
1782845442755836200,5.347836181640625,0.07563888609111309,-0.004900047001242637,-0.8623175251953303
1782845442765841200,5.357841064453125,0.09597557167708873,-0.035559827550500626,-0.6720558692980557
1782845442775845400,5.367845458984375,-0.13854805446863175,-0.0035721593983471392,-0.3683332539156079
1782845442785850400,5.377850341796875,-0.6674649613112211,0.004137245935201645,-0.06961757997497915
1782845442795854000,5.38785400390625,-1.2789011614084242,-0.041563305748999115,0.1278895900711417
1782845442805859000,5.397859130859375,-1.7477777333080768,0.051606268596649164,0.35972697280757127
1782845442815863000,5.407863037109375,-2.094976136997342,0.18478227463811636,0.43629276448525484
1782845442825868000,5.417867919921875,-2.2489818728387356,0.29533421480879185,0.38807942626252767
1782845442835872300,5.427872314453125,-2.2286218063771726,0.33482641337215896,0.2260649368148297
1782845442845877200,5.437877197265625,-2.058290958678722,0.25247692372649905,0.13289543553441763
1782845442855881200,5.447881103515625,-1.751794567734003,0.15847060629576443,0.005413695611804724
1782845442865886200,5.45788623046875,-1.4730465999364852,0.02114215674996376,-0.3133433342300355
1782845442875890200,5.46789013671875,-1.212343407395482,0.117007692181319,-0.574067058102414
1782845442885895200,5.477895263671875,-0.7526315542042255,0.26725772875100373,-0.7459544875930995
1782845442895899100,5.487899169921875,-0.14907821631133555,0.3007141542814672,-0.8806636214859783
1782845442905904000,5.497904052734375,0.4757131399214267,0.36673692463487384,-0.8737988502830266
1782845442915908000,5.507908203125,1.0089502480506896,0.4449918384432792,-0.7528183820132166
1782845442925913000,5.5179130859375,1.2816069132357835,0.53809156242311,-0.7333592829793691
1782845442935917000,5.5279169921875,1.4393857378751038,0.6189890996947884,-0.7650183767642825
1782845442945922000,5.537922119140625,1.4944967997223138,0.6303514745779335,-0.6909054581314324
1782845442955927000,5.547927001953125,1.464739959362149,0.6277668649122119,-0.679082699194923
1782845442965931300,5.55793115234375,1.4220640161961315,0.6343851140081882,-0.7294562111262232
1782845442975936300,5.567936279296875,1.3431430396944284,0.6338321563005447,-0.6566162350386381
1782845442985940200,5.577940185546875,1.2288514746040105,0.6482865058496594,-0.36208749139383434
1782845442995945200,5.5879453125,1.105197037884593,0.5878446043685078,-0.04728175646103918
1782845443005949200,5.59794921875,0.8396013971269131,0.5232789009556174,0.2523852999202907
1782845443015954200,5.6079541015625,0.5240262121915817,0.5214806193619966,0.48675212806910273
1782845443025958100,5.617958251953125,0.13449381064176558,0.4910515788286924,0.6575519084535538
1782845443035963100,5.627963134765625,-0.18025719842910765,0.5337532409578561,0.7894008306097239
1782845443045967000,5.637967041015625,-0.4270727353930473,0.599159194587171,0.9068009561747312
1782845443055972000,5.64797216796875,-0.6267822377890349,0.5907753971233963,0.9832094383988529
1782845443065976000,5.65797607421875,-0.7874445089101791,0.6186418936923146,1.0519571767367422
1782845443075981000,5.66798095703125,-0.8137643605589866,0.6454249789386988,1.117722830523923
1782845443085985300,5.6779853515625,-0.7080822183817624,0.7167100537344813,1.0860612525209783
1782845443095990300,5.687990234375,-0.5011906955271959,0.7536851549103856,1.0486110811792313
1782845443105994200,5.697994140625,-0.28380992736220356,0.7506134923800826,1.0179412906926124
1782845443115999200,5.707999267578125,-0.12821253841519356,0.8249468488305807,0.922484262996912
1782845443126003200,5.718003173828125,-0.031122868016362187,0.7790598346635699,0.842081450439617
1782845443136008200,5.72800830078125,0.017521628165245055,0.7269710432469845,0.8286860353589057
1782845443146012200,5.73801220703125,0.06261106221377849,0.696602208468318,0.770059074345231
1782845443156017200,5.74801708984375,0.10417115309238434,0.6558227465733886,0.6803650671556591
1782845443166021000,5.758021240234375,0.1618991194397211,0.5630000859692692,0.546789467337355
1782845443176026000,5.768026123046875,0.21011223846673965,0.45340690782815213,0.45355486493147906
1782845443186031000,5.778031005859375,0.1835802053719759,0.29845863043963905,0.3356682710237801
1782845443196035000,5.78803515625,0.13354279352724552,0.14087795872092246,0.159397877208516
1782845443206040000,5.7980400390625,0.17656944982707498,0.09078267920911312,0.0543817977245897
1782845443216044300,5.808044189453125,0.2722965997010469,0.12170184134691953,-0.028321839120984075
1782845443226049300,5.81804931640625,0.3030810295432806,0.10992167944312095,-0.14928133766800164
1782845443236053200,5.82805322265625,0.19799451517164707,0.08313742515295744,-0.2428799510806799
1782845443246058200,5.838058349609375,0.08990122019946574,0.05950695871859789,-0.273020968452841
1782845443256062200,5.848062255859375,0.08167173651456833,0.05837298625260591,-0.3007364391785115
1782845443266067200,5.858067138671875,0.12938216671645641,0.09565729950815438,-0.2817140510614961
1782845443276071200,5.8680712890625,0.3020610388457775,0.14276187277138233,-0.16808664896823464
1782845443286076200,5.878076171875,0.40721535775661466,0.13887772481441496,-0.05441803808175027
1782845443296080100,5.888080078125,0.42556466891765593,0.198158765822649,0.08054499750696122
1782845443306085000,5.898085205078125,0.4353863902300596,0.2305158518090844,0.15595957332290708
1782845443316089000,5.908089111328125,0.38073008641302586,0.22209873659759757,0.22141550357379017
1782845443326094000,5.918093994140625,0.33364684819877144,0.29967618953585623,0.3046475482076406
1782845443336098300,5.928098388671875,0.30076398477256294,0.3421802832663059,0.3930103798586875
1782845443346103300,5.938103271484375,0.2822358099132776,0.3448696684807539,0.4018196361929178
1782845443356107300,5.948107177734375,0.23405425506830213,0.3156763072222471,0.3904573343750089
1782845443366112300,5.9581123046875,0.16191431700885295,0.2484577512130141,0.44566893398724494
1782845443376117200,5.9681171875,0.19116788402199744,0.2020049198567867,0.47772367602623994
1782845443386121200,5.978121337890625,0.30233284152448175,0.09859276843816041,0.4801655892856419
1782845443396126200,5.988126220703125,0.36210780352950095,0.0918377412199974,0.4998578394882381
1782845443406130200,5.998130126953125,0.3798427821844816,0.09615501989722251,0.4869537150558084
1782845443416135200,6.00813525390625,0.44535424201488494,-0.014613631764054297,0.4420679138205945
1782845443426139100,6.01813916015625,0.5382546440303325,-0.08842530242800713,0.3755689773228019
1782845443436144000,6.02814404296875,0.5694792188555002,-0.18709172062426804,0.3242658563911915
1782845443446148000,6.038148193359375,0.5175549703508615,-0.25644217409566045,0.222447184709087
1782845443456153000,6.048153076171875,0.37175767540633675,-0.30171193314716216,0.11599186620227991
1782845443466157300,6.0581572265625,0.28480303005278107,-0.35916444355398414,0.01873122315071523
1782845443476162300,6.068162353515625,0.2817448115259409,-0.37051001343280077,-0.053730567274242635
1782845443486166300,6.078166259765625,0.211443194809556,-0.36685660549178717,-0.09554792084954679
1782845443496171300,6.088171142578125,0.14853811808526515,-0.3692676121562719,-0.13181626199558377
1782845443506175200,6.09817529296875,0.07310381465554237,-0.3178136115118861,-0.17416830696947871
1782845443516180200,6.10818017578125,0.03469371224045753,-0.2561062201395631,-0.23143545087203382
1782845443526184200,6.11818408203125,0.026864041528105734,-0.3414449547290802,-0.30658721103332937
1782845443536189200,6.128189208984375,0.1495160232067108,-0.4783126548953354,-0.3666759151626378
1782845443546193200,6.138193115234375,0.2665343829125166,-0.4931779233328998,-0.29248496285751463
1782845443556198100,6.1481982421875,0.2969412116140127,-0.4634465096749365,-0.17956095979325473
1782845443566202000,6.1582021484375,0.38300387656390666,-0.3971168653294444,-0.15733736448213456
1782845443576207000,6.16820703125,0.4275929598748684,-0.33171003491729495,-0.15482932718396186
1782845443586212000,6.178212158203125,0.45191842283606526,-0.2565402276426554,-0.12987316510379313
1782845443596216300,6.18821630859375,0.46798108436465263,-0.22691300501152872,-0.14101217955984174
1782845443606221300,6.19822119140625,0.5077794262677431,-0.19156696634218096,-0.1606103217381984
1782845443616225300,6.208225341796875,0.5742348889499902,-0.2060870746038854,-0.17214074666462836
1782845443626230300,6.218230224609375,0.6226531751602887,-0.30623423287719487,-0.181550380044803
1782845443636234200,6.228234130859375,0.6829115367680788,-0.4125754234850406,-0.1318711339879781
1782845443646239200,6.2382392578125,0.7172381692618132,-0.48363487283140416,-0.057412616787850854
1782845443656243200,6.2482431640625,0.7030646824806929,-0.5017484755404293,0.019787088879197834
1782845443666248200,6.258248291015625,0.6186965464890003,-0.39308629463911055,0.10934088388048112
1782845443676252200,6.268252197265625,0.5584995596796274,-0.36502807489037514,0.12485329111516474
1782845443686257200,6.278257080078125,0.6079600484192371,-0.44800943269878624,0.09690350017696618
1782845443696261000,6.28826123046875,0.6923246772795916,-0.5968148234181105,0.07002521092779934
1782845443706266000,6.29826611328125,0.7706810056358575,-0.7356224056057632,0.05995609072558582
1782845443716270300,6.308270263671875,0.7806611323803663,-0.8787373295985161,0.06855301948338746
1782845443726275300,6.318275390625,0.7342629538208246,-0.977197849959135,0.07099522500373423
1782845443736280300,6.3282802734375,0.6440466763228178,-1.0441489872038363,0.07247925301641225
1782845443746284300,6.3382841796875,0.4829606268316507,-1.0826492521204054,0.052066506519541145
1782845443756289300,6.348289306640625,0.2708838102936745,-1.115143993011862,0.030909590591862796
1782845443766293500,6.35829345703125,-0.042110710498690605,-1.1619922534264624,-0.054345703497901555
1782845443776298500,6.368298583984375,-0.3795423379331827,-1.2097170044146477,-0.12691358464583755
1782845443786302200,6.37830224609375,-0.6088730716109275,-1.293304219161719,-0.18108495449014006
1782845443796307200,6.38830712890625,-0.8041296862512827,-1.4307229773394763,-0.25286292736940086
1782845443806311400,6.3983115234375,-0.8327560612767935,-1.5352372447811067,-0.33136414408907294
1782845443816316400,6.40831640625,-0.747953040999174,-1.5524500992581247,-0.3083798666037619
1782845443826320400,6.4183203125,-0.5651958424478769,-1.3841642013907431,-0.27375629699006676
1782845443836325400,6.428325439453125,-0.35770284656882284,-1.2306366044551134,-0.2582733350455761
1782845443846329300,6.438329345703125,-0.21571020460426807,-1.059811835759878,-0.2982826893508434
1782845443856334300,6.448334228515625,-0.11142740783095359,-0.8566311501219868,-0.2959861028462648
1782845443866338600,6.458338623046875,-0.08031506120860576,-0.6300872706837952,-0.20938721212781963
1782845443876343600,6.468343505859375,-0.16665303596854208,-0.4588207495704293,-0.06159845110513269
1782845443886348500,6.4783486328125,-0.307123582932353,-0.18909882266297937,0.17714286580085753
1782845443896352500,6.4883525390625,-0.6360942560136318,0.19734861848354338,0.503814614289999
1782845443906357500,6.498357421875,-0.9772416891008615,0.4222714725911617,0.7796984978932887
1782845443916361200,6.508361328125,-1.2249129661113023,0.386696009080112,0.8825063267432153
1782845443926366200,6.5183662109375,-1.2922282604932784,0.23996990885287522,1.0337272541716693
1782845443936370400,6.528370361328125,-1.293991178512573,0.06735504187047481,1.1292663341276348
1782845443946375400,6.53837548828125,-1.1766460710704325,0.004913929396122694,1.2390922981113195
1782845443956379400,6.54837939453125,-0.9258066854178905,-0.060834846321493385,1.1823866605490445
1782845443966384400,6.55838427734375,-0.5374713846981525,-0.1780905219145119,1.0127258210666477
1782845443976388400,6.568388427734375,-0.06289630889594555,-0.35028029535263777,0.8166754257000982
1782845443986393300,6.578393310546875,0.4210159195721149,-0.5713058497607708,0.5555113376490771
1782845443996397600,6.5883974609375,0.734303285831213,-0.761722623154521,0.32530352887585756
1782845444006402600,6.598402587890625,0.8346066575795411,-0.8197918041549622,0.2697654007229954
1782845444016406500,6.608406494140625,0.8136316740900278,-0.7616225237809121,0.22548078025132418
1782845444026411500,6.61841162109375,0.9143068017601966,-0.640825376188755,0.09262991451099514
1782845444036416500,6.62841650390625,0.958327729794383,-0.49711672408655283,-0.0031837446026504036
1782845444046420200,6.638420166015625,0.8643728502899408,-0.385802567371726,-0.10768128010518849
1782845444056425200,6.64842529296875,0.7436503753691911,-0.18430851964652537,-0.192149223209545
1782845444066429400,6.658429443359375,0.6948615022808313,0.007817249622195958,-0.2803421051211655
1782845444076434400,6.668434326171875,0.6854787569075822,0.25818288028314706,-0.2571624511942267
1782845444086438400,6.6784384765625,0.6784884596288204,0.3569621112041175,-0.15840462838746605
1782845444096443400,6.688443359375,0.7682651766657829,0.36126214648559685,0.05914959664829075
1782845444106447400,6.698447265625,0.7524684725970029,0.49800475896745916,0.19883330408334732
1782845444116452400,6.708452392578125,0.6413795029401779,0.6667762483946978,0.23605310073532162
1782845444126456600,6.71845654296875,0.5207254170805216,0.6770961284875869,0.24415165151692925
1782845444136461600,6.728461669921875,0.3768365861058235,0.6631516281567513,0.2923175704013556
1782845444146465500,6.738465576171875,0.13334990130364893,0.799576552991569,0.42067119778767226
1782845444156470500,6.748470458984375,-0.10997487093508243,0.968586965741217,0.49297312147580086
1782845444166475500,6.7584755859375,-0.2699941679775715,0.934153658002615,0.4064516068425029
1782845444176479200,6.768479248046875,-0.30796295636594295,0.851595201781392,0.31724421412609516
1782845444186484200,6.778484130859375,-0.29052433030903335,0.9371301895953714,0.2494831487379968
1782845444196488400,6.788488525390625,-0.2544505618870258,1.0008632415764034,0.2227117539294064
1782845444206493400,6.798493408203125,-0.15612813482284546,1.0442020325653254,0.19937164874374866
1782845444216497400,6.808497314453125,0.04498012845516205,1.0592259986959398,0.15766060508713126
1782845444226502400,6.81850244140625,0.1242021337300539,1.1560963272556661,0.1358285663768649
1782845444236506400,6.82850634765625,0.1135141509771347,1.2767566967256367,0.08443082596436143
1782845444246511400,6.838511474609375,0.07823474780321121,1.3618597228631377,0.021710823483392594
1782845444256515600,6.848515625,0.07470657367706299,1.419969820395857,-0.06016491117067635
1782845444266520600,6.8585205078125,0.04716565580070019,1.4907099746599792,-0.01675685433782637
1782845444276524300,6.868524169921875,0.1181979248791933,1.4496478964313864,-0.0018792378753423689
1782845444286529500,6.878529541015625,0.35096214013695715,1.3556126451671122,0.018134864692762494
1782845444296534500,6.888534423828125,0.5951543428599834,1.2210115747585892,0.017242811223864556
1782845444306538200,6.898538330078125,0.7388228090822696,1.1312195140220225,-0.03872559810504317
1782845444316543200,6.908543212890625,0.7654127098441124,1.0564558033302425,-0.04308057844415307
1782845444326547500,6.91854736328125,0.6835229466646909,0.9319045639015734,-0.06501607752889395
1782845444336552400,6.928552490234375,0.5214133993446827,0.7469638838313519,-0.027924948757886883
1782845444346556400,6.938556396484375,0.27112872496545315,0.5795329953581094,0.06012472529076039
1782845444356561400,6.9485615234375,0.008043605723977089,0.5506697428368031,0.15325835154019296
1782845444366565400,6.9585654296875,-0.23722996249496936,0.5671607127800583,0.21833763049840926
1782845444376570400,6.9685703125,-0.44426410869061944,0.6158700908914208,0.29512298321090635
1782845444386574600,6.97857470703125,-0.6123901398211717,0.7021482982881366,0.3548741259489208
1782845444396579600,6.98857958984375,-0.7396575063407421,0.7579751071892679,0.34041984946504233
1782845444406584600,6.99858447265625,-0.6548848812013864,0.6940501858979463,0.24166546072438358
1782845444416588300,7.00858837890625,-0.3760124102413654,0.6380296079903841,0.06603416853025555
1782845444426593300,7.01859326171875,-0.1414817698329687,0.6278519128471612,-0.06430953669473528
1782845444436597200,7.02859716796875,0.04554302303493023,0.5935923542402685,-0.10802512510679661
1782845444446602200,7.038602294921875,0.15742518889605997,0.5253646211884916,-0.10369929779693483
1782845444456606500,7.0486064453125,0.312552622243762,0.49272813373878593,-0.016775851299241185
1782845444466611500,7.058611572265625,0.46147126407921313,0.3958193728648126,0.011275427252054214
1782845444476615400,7.068615478515625,0.4454951117902994,0.44441900699138637,-0.06500409483015537
1782845444486620400,7.078620361328125,0.5904127012908459,0.395827848432213,-0.0797320736888796
1782845444496624400,7.088624267578125,0.6910632790416479,0.3278304170049727,-0.10303126234225927
1782845444506629400,7.09862939453125,0.6963683997124434,0.36927813355028627,-0.11668993146903812
1782845444516633600,7.108633544921875,0.6565010842263698,0.38109073641896246,-0.16770912089273332
1782845444526638600,7.118638671875,0.7072825924366712,0.27418431314378977,-0.2675822845302522
1782845444536643600,7.1286435546875,0.616292992478609,0.1775045387201011,-0.19461283684410155
1782845444546647300,7.138647216796875,0.4972837512165308,0.044199645601958035,-0.13874576899781824
1782845444556652300,7.14865234375,0.3784370070397854,-0.15007994069978595,-0.10589395829699932
1782845444566656300,7.15865625,0.2747036608427763,-0.32477526721805333,-0.12086816700175404
1782845444576661200,7.1686611328125,0.1640127505928278,-0.4038699928514659,-0.1042613886591047
1782845444586665500,7.17866552734375,0.12266484116017817,-0.44534109027236696,-0.058454088664799925
1782845444596670500,7.18867041015625,-0.008082768690586089,-0.46350379282012577,-0.07922711984142661
1782845444606674400,7.19867431640625,-0.16909633746743202,-0.45794235930070276,-0.1676096791062504
1782845444616679400,7.208679443359375,-0.35123160472810266,-0.40031814558878537,-0.2850624116413295
1782845444626683400,7.218683349609375,-0.43813715024292466,-0.3600419570408761,-0.41262393880188464
1782845444636688400,7.2286884765625,-0.5002613057225942,-0.2957651535719633,-0.50303654258959
1782845444646693400,7.238693359375,-0.5397878449469804,-0.24613486122339961,-0.4960599085099995
1782845444656697600,7.248697509765625,-0.3858294553786516,-0.23422259737253187,-0.4795324059486389
1782845444666702600,7.25870263671875,-0.11798398986756801,-0.20209362105354667,-0.4689768904689699
1782845444676706300,7.268706298828125,0.10466858122050761,-0.19011954401284456,-0.47007272288165985
1782845444686711300,7.278711181640625,0.2645031693458557,-0.1517635098725557,-0.474583405239135
1782845444696715300,7.28871533203125,0.2868628851920366,-0.19695961916595697,-0.5424927199915052
1782845444706720300,7.29872021484375,0.34236849931478497,-0.24080855163410306,-0.5586843416620045
1782845444716724500,7.308724365234375,0.24310323844254014,-0.26807386743947864,-0.550827709877491
1782845444726729500,7.3187294921875,0.1152390750735998,-0.3125748340755701,-0.5624439133912325
1782845444736733400,7.3287333984375,0.002147533422708511,-0.33642011230438945,-0.5399725538641214
1782845444746738400,7.338738525390625,-0.15158932234942912,-0.412197091691941,-0.5319667228672653
1782845444756743400,7.348743408203125,-0.24532792875468729,-0.48053398420661686,-0.44308140171207483
1782845444766747400,7.358747314453125,-0.3104138566493988,-0.5227339804239571,-0.3625705987356603
1782845444776752400,7.36875244140625,-0.30158699159324165,-0.5682635594554245,-0.36878947325050826
1782845444786756600,7.378756591796875,-0.28746728082597256,-0.5805059320434928,-0.45102987649850546
1782845444796761600,7.38876171875,-0.2804015802234411,-0.5264401414655149,-0.575989477532357
1782845444806765300,7.398765380859375,-0.2664952199459076,-0.4519349355794489,-0.6446086941197514
1782845444816770300,7.408770263671875,-0.28674305820465085,-0.39528570437952876,-0.7113620437700301
1782845444826774300,7.418774169921875,-0.2608604289293289,-0.3814224525913596,-0.7772308656707405
1782845444836779300,7.428779296875,-0.2127320655763149,-0.43443332728892564,-0.7810225861039012
1782845444846784300,7.4387841796875,-0.12157295427024364,-0.4456957489289343,-0.6931062561113387
1782845444856788500,7.44878857421875,0.01736848343014717,-0.46353857187256214,-0.6285324424572288
1782845444866793500,7.45879345703125,0.1933867291152477,-0.4881410982094705,-0.6021319267876446
1782845444876797400,7.46879736328125,0.3319254312336445,-0.4526186800599098,-0.6240780933968723
1782845444886802400,7.478802490234375,0.2858119148343801,-0.42549744890034197,-0.6855718420185148
1782845444896806400,7.488806396484375,0.18889234030544758,-0.4437802706964314,-0.7825752954386174
1782845444906811400,7.498811279296875,-0.004499649506807327,-0.4285566903404891,-0.8196085565425455
1782845444916815600,7.508815673828125,-0.257253344348073,-0.3136719816625118,-0.8128085942041129
1782845444926820600,7.518820556640625,-0.3722586106657982,-0.20840485002696513,-0.8288651913180947
1782845444936824300,7.52882421875,-0.33363924941420553,-0.16536664941981433,-0.9092096978168934
1782845444946829300,7.538829345703125,-0.17251111434698105,-0.19000205511301754,-1.0234420070007444
1782845444956834300,7.548834228515625,-0.011949965512752533,-0.18505553862154484,-1.08383678140454
1782845444966838300,7.55883837890625,0.04389525582790375,-0.21026494481042027,-1.114014550590515
1782845444976843300,7.56884326171875,-0.0064151277393102646,-0.2907180993154645,-0.8475079324677586
1782845444986847500,7.578847412109375,-0.20623919642567634,-0.3367057973779738,-0.5318278258532285
1782845444996852500,7.5888525390625,-0.6553454844504595,-0.2846059000454843,-0.22435206848233938
1782845445006856400,7.5988564453125,-1.243335927030444,-0.27338571011200546,-0.0028217794224619864
1782845445016861400,7.608861328125,-1.8282383404672145,-0.266390006005764,0.0950450858939439
1782845445026865400,7.618865478515625,-2.246727371910214,-0.20324337561056016,0.07521043154597282
1782845445036870400,7.628870361328125,-2.3892986905455587,-0.12945143256038427,-0.017254355531185865
1782845445046874600,7.63887451171875,-2.2823919750094412,-0.16213190528228877,-0.16704831889644264
1782845445056879600,7.648879638671875,-2.00137547775805,-0.1774424332693219,-0.1482246682219207
1782845445066884600,7.658884521484375,-1.5257821648240089,-0.15136471981331706,-0.12851181362271308
1782845445076888300,7.668888427734375,-1.0712000757366418,-0.11243921522200107,-0.26591902749314905
1782845445086893300,7.678893310546875,-0.6228565887778997,-0.11109203839674592,-0.43089675066061317
1782845445096897300,7.688897216796875,-0.08097557094395161,-0.06518193561509251,-0.5256317476920783
1782845445106902300,7.69890234375,0.365015215408802,0.004642272847890853,-0.6038002983912826
1782845445116906500,7.708906494140625,0.740301064941287,0.15526830312311649,-0.5893431723631918
1782845445126911500,7.718911376953125,1.04925244782269,0.3225596369951963,-0.5791723453521728
1782845445136915500,7.72891552734375,1.28000941491127,0.49007557340338825,-0.5632977537415922
1782845445146920400,7.73892041015625,1.4465893856436014,0.7081310259595512,-0.45317127244137223
1782845445156925400,7.748925537109375,1.5651491295725106,0.8273635545834899,-0.40335020676106215
1782845445166929400,7.758929443359375,1.5851093830615282,0.8373281914979219,-0.40352315217517315
1782845445176934400,7.768934326171875,1.556673562172055,0.7597937009185552,-0.4458401989009231
1782845445186938600,7.778938720703125,1.3340303434342144,0.7227671618163585,-0.40906697697266936
1782845445196943600,7.788943603515625,0.9657681089282035,0.7231481239579618,-0.29281485239900645
1782845445206947300,7.798947265625,0.5609697491854428,0.7793696312651037,-0.07321428929269314
1782845445216952300,7.808952392578125,0.21399346381425857,0.8051856250450015,0.13678542871028185
1782845445226956300,7.818956298828125,-0.08802432041168212,0.7493792744100093,0.3619264556132257
1782845445236961300,7.828961181640625,-0.3099930008888244,0.7266857965648174,0.6063928721677512
1782845445246966300,7.83896630859375,-0.43216918174922464,0.6408418889321387,0.8463012600917369
1782845445256970500,7.848970458984375,-0.3893675663769245,0.5850181487709284,1.059812785607949
1782845445266975500,7.8589755859375,-0.25665187132358547,0.5819738126389682,1.1915498448874802
1782845445276979500,7.8689794921875,-0.16495616892278195,0.6012783786982298,1.2266598097786308
1782845445286984400,7.878984375,0.001830138036608696,0.5214132532142103,1.4019887580253183
1782845445296988400,7.888988525390625,0.07452361832559108,0.4231153760693967,1.5641434596613049
1782845445306993400,7.898993408203125,0.06720481974482535,0.4394841809377074,1.6370856540143488
1782845445316997600,7.90899755859375,0.030585107877850532,0.4453495658397674,1.6571075745627284
1782845445327002600,7.919002685546875,0.010769815817475319,0.42751185746267434,1.6678769519887864
1782845445337006300,7.92900634765625,-0.0701134006679058,0.5049579391062259,1.6413032717093825
1782845445347011300,7.93901123046875,-0.1625999611854553,0.5277331038855015,1.563514514108002
1782845445357016300,7.949016357421875,-0.23566870452761648,0.5089177826479077,1.4663187529861925
1782845445367020300,7.959020263671875,-0.23617665404975413,0.4675463462091982,1.3564683852136135
1782845445377025300,7.969025390625,-0.20745967813134192,0.5184894747219979,1.247804304616153
1782845445387029500,7.979029541015625,-0.1722211914896965,0.6186192434690893,1.1003609229650348
1782845445397034500,7.989034423828125,-0.11649287452697753,0.6085001466453075,0.8898776592288166
1782845445407038500,7.99903857421875,-0.023304303219914436,0.5642138456732034,0.711193920661509
1782845445417043500,8.00904345703125,0.04840893386006355,0.4972434192061424,0.5428710517846047
1782845445427047400,8.01904736328125,0.13020868066847324,0.41862098725959657,0.37514439523518084
1782845445437052400,8.029052490234376,0.21923370255529878,0.4151315377086401,0.21304076619930565
1782845445447057400,8.039057373046875,0.27952362834513184,0.3400517468050122,0.09432363975159823
1782845445457061600,8.0490615234375,0.27719021696150303,0.2515961953692138,0.06731237177252769
1782845445467066600,8.059066650390625,0.3396925581037998,0.16207301470190286,0.07779599105976522
1782845445477070300,8.0690703125,0.39370413427650924,0.050893590282648796,0.09097001847475766
1782845445487075300,8.079075439453124,0.4375391843497753,-0.029392244831472635,0.14217267470657824
1782845445497079300,8.089079345703125,0.4902811789780855,-0.059739598430693146,0.18176007727272808
1782845445507084300,8.099084228515625,0.5043582196474075,-0.009342997884750365,0.1985747992776334
1782845445517088500,8.109088623046874,0.4778092354178428,0.012618074032664298,0.24160277075171468
1782845445527093500,8.119093505859375,0.46565702533125874,-0.029580753140896556,0.2179066186700016
1782845445537098500,8.129098388671874,0.401121717056632,-0.029421617056429386,0.21856179464310407
1782845445547102500,8.1391025390625,0.3230617412984371,0.019953823748230935,0.26188706856332716
1782845445557107500,8.149107421875,0.35418168670535083,0.00647694092914462,0.28755568976178764
1782845445567111400,8.159111328125,0.38225568854510783,-0.01203486731722951,0.30688495187088843
1782845445577116400,8.169116455078125,0.3864017023086548,0.03932093364968896,0.3984899072483182
1782845445587120600,8.17912060546875,0.35055648194551464,0.041732817097008226,0.5019655523572116
1782845445597125600,8.189125732421875,0.3256453280508518,0.10242007164135575,0.5784848745446651
1782845445607129300,8.19912939453125,0.3115747171223163,0.13685367164090276,0.6409726026397198
1782845445617134300,8.20913427734375,0.29512568662464617,0.14257014959156514,0.6415018141455948
1782845445627139300,8.219139404296875,0.22952362590134143,0.15101035341769456,0.6818839472860098
1782845445637143300,8.229143310546876,0.132833183953166,0.12448942623883485,0.7203563743475824
1782845445647148300,8.239148193359375,0.1262748483508825,0.10408230576515197,0.7076389315936714
1782845445657152500,8.249152587890626,0.16918284670710562,0.0779369339004159,0.6485947680812328
1782845445667157500,8.259157470703125,0.24273732773959636,0.0032031799554824826,0.5624859259020537
1782845445677161500,8.269161376953125,0.26832185085117816,-0.02261310608536005,0.47898865446075795
1782845445687166500,8.27916650390625,0.32547815479040143,0.047480420838296414,0.38532406313978135
1782845445697170400,8.28917041015625,0.33273616309463977,-0.029655718073248863,0.1767781972069293
1782845445707175400,8.299175537109376,0.3879015854775905,-0.1982896987259388,0.04226370910331607
1782845445717180400,8.309180419921875,0.3740910867899656,-0.21633739659190176,-0.01578472137004137
1782845445727184600,8.3191845703125,0.24611060356497763,-0.16249240915775298,-0.09442783077843486
1782845445737189600,8.329189697265624,0.12513327710032462,-0.12082301268577575,-0.17831950836479663
1782845445747193300,8.339193359375,0.09749182145893573,-0.13318418934792278,-0.20379143794737756
1782845445757198300,8.3491982421875,0.15194938783347606,-0.21315555168539285,-0.24161679927706717
1782845445767202300,8.359202392578124,0.17171850266456604,-0.2997515928596258,-0.2468001932643354
1782845445777207800,8.369207763671875,0.15143500857055187,-0.3214513834923506,-0.17634097483344374
1782845445787212800,8.379212890625,0.09929214887917041,-0.34529958433061836,-0.1138544888474047
1782845445797216800,8.389216796875,0.13832067545354365,-0.3374734207496047,-0.04512333631813526
1782845445807222000,8.399221923828126,0.3298977247983217,-0.32913872312456366,0.007852613196521996
1782845445817225700,8.409225830078125,0.4884229838907718,-0.3519637183949351,0.02992715542577207
1782845445827230700,8.419230712890625,0.6141138948738575,-0.3197016172155738,0.09453983978554606
1782845445837234700,8.429234619140624,0.7453747149437665,-0.27518559914082286,0.15442695692814887
1782845445847239700,8.43923974609375,0.8498679395973682,-0.23332710983753202,0.18895481108240783
1782845445857244000,8.449243896484376,0.7824293110966682,-0.18453969805389642,0.19964929664134978
1782845445867249000,8.459248779296875,0.7426566881567239,-0.15074088882654904,0.20735987101867795
1782845445877254000,8.46925390625,0.728726947003603,-0.10647212351113557,0.21935411406457422
1782845445887257900,8.4792578125,0.6980740345865488,-0.14348054243475197,0.12845979117453096
1782845445897262800,8.489262939453125,0.7406500245094298,-0.15009469987750051,-0.06416537898369133
1782845445907266800,8.499266845703126,0.7098632565796374,-0.15623627137243748,-0.0649617900583893
1782845445917271800,8.509271728515625,0.669153060528636,-0.23690847545564173,0.02646335177272558
1782845445927275800,8.51927587890625,0.571948823839426,-0.3291106660738587,0.020103315221518276
1782845445937280800,8.52928076171875,0.4979530287802219,-0.4140700459569692,-0.06571984188407659
1782845445947284700,8.53928466796875,0.476395276966691,-0.47725043249130245,-0.12178564717285334
1782845445957289700,8.549289794921876,0.3636965340256691,-0.5384352612942457,-0.14560053026340902
1782845445967294700,8.559294677734375,0.07635083375275134,-0.5844824344590306,-0.14643077054247258
1782845445977298700,8.569298583984375,-0.15526479599177836,-0.6297805428221821,-0.27910854473821817
1782845445987303700,8.5793037109375,-0.4636854329973459,-0.6095242289960384,-0.4189074760507792
1782845445997308000,8.589307861328125,0.05144143342375755,-0.7121762096971272,-0.39073374016359447
1782845446007313000,8.59931298828125,0.19318097741007803,-0.8113432708919048,-0.2502748105723411
1782845446017316900,8.60931689453125,0.2388707154393196,-1.048954049398005,-0.19192469373866913
1782845446027321900,8.61932177734375,0.16789748307168484,-1.2677052291333675,-0.12793079886436462
1782845446037325800,8.629325927734374,0.14940496404767037,-1.428736041305959,-0.1292795100595802
1782845446047330800,8.639330810546875,-0.046668227672576904,-1.5184268336251376,-0.08272818676494062
1782845446057335800,8.649335693359374,-0.23405776219964025,-1.3126350887060165,-0.20672405733317137
