time,seconds_elapsed,z,y,x
1782845437475957800,0.067957763671875,-0.34621545672416687,-0.22900442779064178,-0.0057737333700060844
1782845437485962000,0.0779619140625,-0.36944809556007385,-0.17736811935901642,0.0027720844373106956
1782845437495967000,0.087967041015625,-0.4076721668243408,-0.09224817156791687,-0.026386067271232605
1782845437505971000,0.097970947265625,-0.44930216670036316,-0.006544984877109528,-0.09207479655742645
1782845437515976000,0.107975830078125,-0.49159902334213257,0.06690207123756409,-0.1826568990945816
1782845437525980000,0.11797998046875,-0.5399726629257202,0.1394260674715042,-0.29042065143585205
1782845437535985000,0.12798486328125,-0.5842280387878418,0.13463610410690308,-0.3674437999725342
1782845437545989000,0.137989013671875,-0.5991369485855103,0.16697460412979126,-0.38999277353286743
1782845437555994000,0.147994140625,-0.5754425525665283,0.09888236969709396,-0.33350232243537903
1782845437565998000,0.157998046875,-0.5131818056106567,0.019760122522711754,-0.2035912126302719
1782845437576003000,0.168003173828125,-0.42971542477607727,-0.037568412721157074,-0.03286953270435333
1782845437586006800,0.1780068359375,-0.3639342784881592,-0.04809482395648956,0.11400992423295975
1782845437596011800,0.18801171875,-0.29473069310188293,-0.03917882591485977,0.24225471913814545
1782845437606016000,0.19801611328125,-0.1885635256767273,-0.03236939013004303,0.3604561984539032
1782845437616021000,0.20802099609375,-0.06830768287181854,-0.02184617705643177,0.45365405082702637
1782845437626025000,0.21802490234375,0.04507240280508995,0.001145159243606031,0.515254020690918
1782845437636030000,0.228030029296875,0.15291205048561096,0.03195500373840332,0.5521771311759949
1782845437646034000,0.238033935546875,0.2095838487148285,0.06713056564331055,0.5686869025230408
1782845437656039000,0.248038818359375,0.22036033868789673,0.10113407671451569,0.553425133228302
1782845437666043100,0.258043212890625,0.20858170092105865,0.11772982776165009,0.5097841620445251
1782845437676048100,0.268048095703125,0.1849333643913269,0.1289513260126114,0.4391869604587555
1782845437686051800,0.2780517578125,0.17619100213050842,0.14271719753742218,0.33200642466545105
1782845437696057000,0.28805712890625,0.18074581027030945,0.13769474625587463,0.22555296123027802
1782845437706060800,0.298060791015625,0.18232347071170807,0.10985246300697327,0.12650839984416962
1782845437716065800,0.308065673828125,0.14644642174243927,0.09045320004224777,0.025060079991817474
1782845437726070000,0.318070068359375,0.0853109061717987,0.09383461624383926,-0.08495936542749405
1782845437736075000,0.328074951171875,0.023001456633210182,0.09887278079986572,-0.19417454302310944
1782845437746079000,0.338078857421875,-0.035303130745887756,0.09343381226062775,-0.28854256868362427
1782845437756084000,0.348083984375,-0.09279145300388336,0.06319494545459747,-0.3490663766860962
1782845437766088400,0.35808837890625,-0.15561409294605255,0.01636565662920475,-0.3650522828102112
1782845437776093400,0.368093505859375,-0.19820070266723633,-0.02912672609090805,-0.36622193455696106
1782845437786097400,0.378097412109375,-0.2195853590965271,-0.06209000200033188,-0.38341689109802246
1782845437796102400,0.388102294921875,-0.23064865171909332,-0.06748556345701218,-0.43019986152648926
1782845437806106600,0.398106689453125,-0.24287310242652893,-0.05206852778792381,-0.4847930669784546
1782845437816111600,0.408111572265625,-0.24829049408435822,-0.014882543124258518,-0.5524733066558838
1782845437826115600,0.418115478515625,-0.27545979619026184,0.01703570783138275,-0.6021833419799805
1782845437836120600,0.42812060546875,-0.3179044723510742,0.006560430862009525,-0.5623930096626282
1782845437846124500,0.43812451171875,-0.3459877669811249,-0.0016825852217152715,-0.47699132561683655
1782845437856129500,0.448129638671875,-0.36058375239372253,-0.015509450808167458,-0.3835465908050537
1782845437866133500,0.458133544921875,-0.34552597999572754,-0.034209102392196655,-0.2823438048362732
1782845437876138500,0.468138427734375,-0.3081868588924408,-0.06352224946022034,-0.1769942194223404
1782845437886142500,0.478142578125,-0.2587023973464966,-0.09152139723300934,-0.06474970281124115
1782845437896147500,0.4881474609375,-0.20542480051517487,-0.11371191591024399,0.0507073849439621
1782845437906151400,0.4981513671875,-0.16051244735717773,-0.11747043579816818,0.15950044989585876
1782845437916156400,0.508156494140625,-0.12809857726097107,-0.08266185969114304,0.2595668435096741
1782845437926160600,0.51816064453125,-0.10713337361812592,-0.03307512775063515,0.31720617413520813
1782845437936165600,0.52816552734375,-0.08031001687049866,0.011195396073162556,0.34237945079803467
1782845437946169600,0.538169677734375,-0.03170466795563698,0.041620947420597076,0.32505398988723755
1782845437956174600,0.548174560546875,0.02600177377462387,0.053893059492111206,0.2604598104953766
1782845437966179600,0.5581796875,0.07656188309192657,0.0560278482735157,0.17814522981643677
1782845437976183600,0.56818359375,0.10876110196113586,0.06007452309131622,0.0711657926440239
1782845437986187500,0.5781875,0.11844435334205627,0.07119268923997879,-0.02948758378624916
1782845437996192500,0.588192626953125,0.1097821593284607,0.08118513226509094,-0.09591268002986908
1782845438006197500,0.598197509765625,0.09879262000322342,0.10555651783943176,-0.13775493204593658
1782845438016201500,0.608201416015625,0.08965452015399933,0.12364684045314789,-0.13396792113780975
1782845438026206500,0.61820654296875,0.0863782986998558,0.13490349054336548,-0.10454744845628738
1782845438036210400,0.62821044921875,0.08699402213096619,0.13039502501487732,-0.04380260780453682
1782845438046215400,0.63821533203125,0.09045932441949844,0.12792573869228363,0.003070092061534524
1782845438056219600,0.6482197265625,0.0966690182685852,0.13361665606498718,0.01847381517291069
1782845438066224600,0.658224609375,0.10006961226463318,0.12053573876619339,0.008976184763014317
1782845438076228600,0.668228515625,0.10365768522024155,0.09984776377677917,-0.005411809775978327
1782845438086233600,0.678233642578125,0.11036991328001022,0.08093692362308502,-0.025962091982364655
1782845438096237600,0.688237548828125,0.11543258279561996,0.07395065575838089,-0.04090375825762749
1782845438106242600,0.69824267578125,0.11404427886009216,0.07088935375213623,-0.05374179035425186
1782845438116246500,0.70824658203125,0.11206208914518356,0.0774010494351387,-0.058405786752700806
1782845438126251500,0.71825146484375,0.11220642924308777,0.08720414340496063,-0.037454165518283844
1782845438136255500,0.72825537109375,0.11252973973751068,0.08733809739351273,-0.006804642733186483
1782845438146260500,0.738260498046875,0.11281203478574753,0.08116702735424042,0.022966835647821426
1782845438156264400,0.748264404296875,0.11016778647899628,0.07831984013319016,0.03135552629828453
1782845438166269400,0.75826953125,0.10527689009904861,0.08153214305639267,0.02581854723393917
1782845438176273700,0.768273681640625,0.1063152551651001,0.07848761975765228,0.009241435676813126
1782845438186278700,0.778278564453125,0.1070883721113205,0.07413254678249359,-0.012514459900557995
1782845438196282600,0.78828271484375,0.11999192088842392,0.05855013057589531,-0.03269296512007713
1782845438206287600,0.79828759765625,0.13540416955947876,0.04671370983123779,-0.044760812073946
1782845438216291600,0.80829150390625,0.15930816531181335,0.03394198790192604,-0.051593951880931854
1782845438226296600,0.818296630859375,0.18392668664455414,0.01914147101342678,-0.04788869619369507
1782845438236300500,0.828300537109375,0.21441908180713654,-0.0009720537927933037,-0.02617328055202961
1782845438246305500,0.838305419921875,0.23755237460136414,-0.021201957017183304,0.003940146882086992
1782845438256309500,0.8483095703125,0.2517355680465698,-0.03991252928972244,0.03802940621972084
1782845438266314500,0.858314453125,0.25718066096305847,-0.06155497208237648,0.06998787075281143
1782845438276318500,0.868318359375,0.2592739164829254,-0.08477720618247986,0.08776820451021194
1782845438286323500,0.878323486328125,0.25336915254592896,-0.11184930056333542,0.08941696584224701
1782845438296327700,0.88832763671875,0.2511153221130371,-0.13120968639850616,0.07666575163602829
1782845438306332700,0.898332763671875,0.2353011965751648,-0.12557096779346466,0.05294949933886528
1782845438316336600,0.908336669921875,0.22607120871543884,-0.10199667513370514,0.050821900367736816
1782845438326341600,0.918341552734375,0.22255051136016846,-0.06234140321612358,0.07895606756210327
1782845438336345300,0.928345458984375,0.2236778289079666,-0.03134966641664505,0.15260978043079376
1782845438346350300,0.938350341796875,0.22222428023815155,-0.023873373866081238,0.26961657404899597
1782845438356354600,0.9483544921875,0.22823983430862427,-0.03592977300286293,0.3875375986099243
1782845438366359600,0.958359619140625,0.21157988905906677,-0.054060038179159164,0.48780402541160583
1782845438376363500,0.968363525390625,0.16768886148929596,-0.07413414865732193,0.5426188111305237
1782845438386368500,0.978368408203125,0.1027602031826973,-0.09949836134910583,0.5472817420959473
1782845438396372500,0.98837255859375,0.02857918106019497,-0.1055101826786995,0.5069313645362854
1782845438406377500,0.99837744140625,-0.0335150845348835,-0.08373431116342545,0.4155452847480774
1782845438416381700,1.008381591796875,-0.08358757197856903,-0.052922338247299194,0.28133153915405273
1782845438426386700,1.01838671875,-0.13054628670215607,-0.016533169895410538,0.14276860654354095
1782845438436390700,1.028390625,-0.1648225039243698,-0.009644637815654278,0.0365084744989872
1782845438446395600,1.038395751953125,-0.18045872449874878,-0.014889733865857124,-0.030557377263903618
1782845438456399400,1.0483994140625,-0.19197902083396912,-0.01816888339817524,-0.0740494579076767
1782845438466404400,1.058404296875,-0.18457649648189545,-0.03327859565615654,-0.12124945968389511
1782845438476408600,1.06840869140625,-0.15384522080421448,-0.052622463554143906,-0.16451305150985718
1782845438486413600,1.07841357421875,-0.09823069721460342,-0.09926613420248032,-0.1868377923965454
1782845438496417500,1.08841748046875,-0.02677515521645546,-0.16050206124782562,-0.16907291114330292
1782845438506422500,1.098422607421875,0.048707086592912674,-0.2084733098745346,-0.11210816353559494
1782845438516426500,1.108426513671875,0.11399155110120773,-0.25049638748168945,-0.03892849013209343
1782845438526431500,1.118431396484375,0.16006769239902496,-0.2836410403251648,0.038065891712903976
1782845438536435700,1.128435791015625,0.18344146013259888,-0.308173269033432,0.11444295197725296
1782845438546440700,1.138440673828125,0.17383091151714325,-0.324686199426651,0.17471881210803986
1782845438556444700,1.148444580078125,0.14877855777740479,-0.3204198181629181,0.21608436107635498
1782845438566449700,1.15844970703125,0.09848902374505997,-0.29730331897735596,0.24811233580112457
1782845438576453400,1.168453369140625,0.023902935907244682,-0.2573455274105072,0.2447948306798935
1782845438586458400,1.178458251953125,-0.06675985455513,-0.21030184626579285,0.21615147590637207
1782845438596462600,1.188462646484375,-0.16022509336471558,-0.1582181304693222,0.16657140851020813
1782845438606467600,1.198467529296875,-0.24787478148937225,-0.11330018937587738,0.11784061789512634
1782845438616471600,1.208471435546875,-0.3271602690219879,-0.06968134641647339,0.06972528249025345
1782845438626476500,1.2184765625,-0.38869768381118774,-0.023688284680247307,0.036852288991212845
1782845438636480500,1.22848046875,-0.43408939242362976,0.01769697107374668,0.016701215878129005
1782845438646485500,1.238485595703125,-0.45220714807510376,0.05841457471251488,0.009499495849013329
1782845438656489700,1.24848974609375,-0.4449170231819153,0.09665890038013458,0.02629365585744381
1782845438666494700,1.25849462890625,-0.4082801640033722,0.11952000856399536,0.05945001170039177
1782845438676498700,1.268498779296875,-0.3524874746799469,0.12007314711809158,0.09057117998600006
1782845438686503700,1.278503662109375,-0.26961469650268555,0.11981108784675598,0.10674562305212021
1782845438696507400,1.28850732421875,-0.18065179884433746,0.11349460482597351,0.1135776937007904
1782845438706512400,1.298512451171875,-0.09673772752285004,0.10604840517044067,0.11715858429670334
1782845438716516600,1.3085166015625,-0.031980037689208984,0.09668845683336258,0.11652687937021255
1782845438726521600,1.318521484375,0.02401026152074337,0.07743620127439499,0.09996281564235687
1782845438736525600,1.328525634765625,0.06610338389873505,0.05265442281961441,0.07755710929632187
1782845438746530600,1.338530517578125,0.09297548234462738,0.035343874245882034,0.05101817846298218
1782845438756534500,1.348534423828125,0.11528771370649338,0.014996792189776897,0.024530909955501556
1782845438766539000,1.3585390625,0.13015800714492798,-0.0019406455103307962,0.01341407559812069
1782845438776543200,1.368543212890625,0.1405656337738037,-0.011150122620165348,-0.003207244910299778
1782845438786548200,1.37854833984375,0.14341841638088226,-0.01495471503585577,-0.010934406891465187
1782845438796552200,1.38855224609375,0.13807478547096252,-0.011692075990140438,-0.010944793000817299
1782845438806557200,1.39855712890625,0.14010198414325714,0.013133911415934563,-0.0052320463582873344
1782845438816562200,1.408562255859375,0.1372755616903305,0.03259602561593056,0.014455106109380722
1782845438826566000,1.41856591796875,0.13028530776500702,0.04615897312760353,0.03459952399134636
1782845438836571000,1.42857080078125,0.11295398324728012,0.06681764870882034,0.058099523186683655
1782845438846575000,1.4385751953125,0.09515021741390228,0.08797326683998108,0.08292870223522186
1782845438856580000,1.448580078125,0.07895100861787796,0.1114136129617691,0.09551294147968292
1782845438866584000,1.458583984375,0.07023394852876663,0.13548991084098816,0.10093806684017181
1782845438876589000,1.468589111328125,0.06545224040746689,0.14285968244075775,0.10828093439340591
1782845438886593000,1.478593017578125,0.0699593797326088,0.14202718436717987,0.10344063490629196
1782845438896598000,1.488597900390625,0.07748547196388245,0.1262226551771164,0.09457603842020035
1782845438906602200,1.498602294921875,0.07903143763542175,0.09838329255580902,0.0960618183016777
1782845438916607200,1.508607177734375,0.0842275321483612,0.08274015039205551,0.10613309592008591
1782845438926611200,1.518611083984375,0.08010735362768173,0.06969066709280014,0.11433536559343338
1782845438936616200,1.5286162109375,0.06699341535568237,0.0630202442407608,0.10591551661491394
1782845438946620000,1.538619873046875,0.056302156299352646,0.06415847688913345,0.0831683874130249
1782845438956625000,1.548625,0.04536721482872963,0.06016373634338379,0.05644942820072174
1782845438966629000,1.558629150390625,0.042331211268901825,0.05636740103363991,0.021943381056189537
1782845438976634000,1.568634033203125,0.03458407521247864,0.04794089496135712,-0.011950402520596981
1782845438986638000,1.57863818359375,0.028147215023636818,0.046250585466623306,-0.045933935791254044
1782845438996643000,1.58864306640625,0.012503807432949543,0.04950523376464844,-0.0760287195444107
1782845439006647000,1.59864697265625,0.007673099637031555,0.05927930399775505,-0.10657278448343277
1782845439016652000,1.608652099609375,0.0016026903176680207,0.06979186087846756,-0.11814022064208984
1782845439026656300,1.61865625,0.001826662220992148,0.07269337773323059,-0.11192680150270462
1782845439036661200,1.6286611328125,0.008145544677972794,0.07172878086566925,-0.10165951400995255
1782845439046665200,1.638665283203125,0.013236709870398045,0.06766586005687714,-0.10147921741008759
1782845439056670200,1.648670166015625,0.024622788652777672,0.05242379382252693,-0.11226475238800049
1782845439066674000,1.658673828125,0.03792554512619972,0.03495771810412407,-0.13179585337638855
1782845439076679000,1.668678955078125,0.05619589611887932,0.03322320058941841,-0.1506829857826233
1782845439086683100,1.67868310546875,0.06512760370969772,0.03959747776389122,-0.16969849169254303
1782845439096688000,1.688688232421875,0.06734628230333328,0.046362705528736115,-0.1851741224527359
1782845439106692000,1.698692138671875,0.06504397839307785,0.05771895498037338,-0.19861482083797455
1782845439116697000,1.708697021484375,0.05645634979009628,0.053641658276319504,-0.21520578861236572
1782845439126701000,1.718701171875,0.041190847754478455,0.03929893672466278,-0.23745116591453552
1782845439136706000,1.7287060546875,0.019418172538280487,0.027402596548199654,-0.26247742772102356
1782845439146710300,1.738710205078125,-0.00529569573700428,0.008231830783188343,-0.2695028483867645
1782845439156715300,1.74871533203125,-0.03377154469490051,-0.01519706193357706,-0.2529100179672241
1782845439166719200,1.75871923828125,-0.05560067668557167,-0.03265008702874184,-0.22524404525756836
1782845439176724200,1.76872412109375,-0.07149362564086914,-0.04960457235574722,-0.1829221546649933
1782845439186728000,1.77872802734375,-0.07684817910194397,-0.05909234657883644,-0.12912389636039734
1782845439196733000,1.78873291015625,-0.07412509620189667,-0.06968347728252411,-0.0636756494641304
1782845439206737200,1.798737060546875,-0.07250376045703888,-0.06650339066982269,-0.005663744639605284
1782845439216742100,1.8087421875,-0.06769169867038727,-0.0547545924782753,0.03977297991514206
1782845439226746000,1.81874609375,-0.06796014308929443,-0.04183559864759445,0.06843870878219604
1782845439236751000,1.828751220703125,-0.06314274668693542,-0.03606399521231651,0.08441475033760071
1782845439246755000,1.838755126953125,-0.062071092426776886,-0.027963723987340927,0.088288314640522
1782845439256760000,1.848760009765625,-0.05530453473329544,-0.02623000554740429,0.08773837238550186
1782845439266764300,1.858764404296875,-0.044617533683776855,-0.02737942710518837,0.0844283327460289
1782845439276769300,1.868769287109375,-0.03267379105091095,-0.04051626846194267,0.0791052058339119
1782845439286773200,1.878773193359375,-0.01997157745063305,-0.058155182749032974,0.07276155799627304
1782845439296778200,1.8887783203125,0.010104565881192684,-0.08058299124240875,0.06592362374067307
1782845439306782000,1.898781982421875,0.02875654771924019,-0.08989979326725006,0.07066218554973602
1782845439316787000,1.908786865234375,-0.010871290229260921,-0.08742038905620575,0.0520554780960083
1782845439326791200,1.918791259765625,-0.00038535939529538155,-0.07958351075649261,0.011516840197145939
1782845439336796200,1.928796142578125,0.020383834838867188,-0.046611178666353226,-0.01110351737588644
1782845439346800000,1.938800048828125,0.011913384310901165,-0.03699982911348343,-0.028969598934054375
1782845439356805000,1.94880517578125,0.014145912602543831,-0.03434545546770096,-0.03205860033631325
1782845439366809000,1.95880908203125,0.01359517127275467,-0.017531055957078934,-0.011807656846940517
1782845439376814000,1.96881396484375,0.023033147677779198,-0.025253424420952797,0.005485845264047384
1782845439386818000,1.978818115234375,0.05327440798282623,-0.06208840385079384,0.01594194769859314
1782845439396823000,1.988822998046875,0.09473209828138351,-0.07901892066001892,0.006317284423857927
1782845439406827000,1.998826904296875,0.14006443321704865,-0.06590205430984497,0.03959454596042633
1782845439416832000,2.00883203125,0.18528464436531067,-0.08580917865037918,0.0926111564040184
1782845439426836000,2.0188359375,0.21408618986606598,-0.0788215771317482,0.1471465677022934
1782845439436841000,2.028841064453125,0.21342599391937256,-0.06255073100328445,0.20225057005882263
1782845439446845000,2.038844970703125,0.20490388572216034,-0.025543710216879845,0.22262509167194366
1782845439456850200,2.04885009765625,0.19203628599643707,0.0070339408703148365,0.21989640593528748
1782845439466854100,2.058854248046875,0.17077574133872986,0.025354092940688133,0.1856265813112259
1782845439476859100,2.068859130859375,0.1457444131374359,0.0483424998819828,0.09174750000238419
1782845439486863000,2.078863037109375,0.10159959644079208,0.06551269441843033,-0.03997298330068588
1782845439496868000,2.0888681640625,0.045293178409338,0.06455741822719574,-0.16695836186408997
1782845439506873000,2.098873046875,-0.0010048106778413057,0.050339601933956146,-0.25584375858306885
1782845439516877000,2.108876953125,-0.009463010355830193,0.00395639194175601,-0.31158292293548584
1782845439526882000,2.118882080078125,0.009782057255506516,-0.07277274131774902,-0.3245096504688263
1782845439536886000,2.128885986328125,0.05246640369296074,-0.14502456784248352,-0.2969096899032593
1782845439546891000,2.13889111328125,0.09757023304700851,-0.20846132934093475,-0.22726485133171082
1782845439556895000,2.14889501953125,0.1313263326883316,-0.2421332746744156,-0.12685754895210266
1782845439566900000,2.15889990234375,0.14951039850711823,-0.2221960574388504,-0.013585849665105343
1782845439576904000,2.168904052734375,0.16098755598068237,-0.16419292986392975,0.1052265539765358
1782845439586909000,2.178908935546875,0.1599438637495041,-0.09833935648202896,0.17824296653270721
1782845439596913200,2.1889130859375,0.15698376297950745,-0.03816496208310127,0.20458748936653137
1782845439606918100,2.198918212890625,0.13969504833221436,0.008423312567174435,0.20714306831359863
1782845439616922000,2.208922119140625,0.08982682228088379,0.032410405576229095,0.1950874626636505
1782845439626927000,2.218927001953125,0.019181417301297188,0.042817771434783936,0.17698170244693756
1782845439636931000,2.22893115234375,-0.05603610351681709,0.06426047533750534,0.14631620049476624
1782845439646936000,2.23893603515625,-0.1241626963019371,0.08129565417766571,0.11313135176897049
1782845439656940000,2.24893994140625,-0.18657679855823517,0.0861591175198555,0.11543391644954681
1782845439666945000,2.258945068359375,-0.24703189730644226,0.08934026211500168,0.13657169044017792
1782845439676949000,2.268948974609375,-0.2824825644493103,0.10647610574960709,0.14189907908439636
1782845439686954000,2.2789541015625,-0.28856974840164185,0.11362003535032272,0.11926567554473877
1782845439696958000,2.2889580078125,-0.272272527217865,0.10729316622018814,0.07923170179128647
1782845439706963000,2.298962890625,-0.2428608536720276,0.09759686142206192,0.028014324605464935
1782845439716967200,2.30896728515625,-0.1889163851737976,0.08565790951251984,-0.02243952825665474
1782845439726972200,2.31897216796875,-0.11217420548200607,0.0761706680059433,-0.06671085208654404
1782845439736976100,2.32897607421875,-0.04328542202711105,0.08527521789073944,-0.10656213015317917
1782845439746981000,2.338981201171875,0.02239212393760681,0.09221994131803513,-0.13071087002754211
1782845439756985000,2.348985107421875,0.08800256252288818,0.083497554063797,-0.1485535204410553
1782845439766990300,2.358990234375,0.1436687558889389,0.06333689391613007,-0.14759930968284607
1782845439776994300,2.368994384765625,0.1847916841506958,0.041135452687740326,-0.1550777405500412
1782845439786999300,2.378999267578125,0.21189095079898834,0.016708672046661377,-0.1706646829843521
1782845439797003300,2.389003173828125,0.22751091420650482,0.004289287142455578,-0.19842387735843658
1782845439807008300,2.39900830078125,0.21923008561134338,-0.0026943201664835215,-0.2354269027709961
1782845439817012200,2.40901220703125,0.1989639699459076,-0.00932372733950615,-0.2718115448951721
1782845439827017200,2.419017333984375,0.17222902178764343,-0.026611370965838432,-0.2796662747859955
1782845439837021400,2.429021484375,0.13775946199893951,-0.043658263981342316,-0.2552328407764435
1782845439847026400,2.4390263671875,0.10170212388038635,-0.06670526415109634,-0.20994152128696442
1782845439857030400,2.449030517578125,0.06468871235847473,-0.08678070455789566,-0.1576673984527588
1782845439867035400,2.459035400390625,0.03813806548714638,-0.09039541333913803,-0.10338311642408371
1782845439877039400,2.469039306640625,0.013969345018267632,-0.09627486765384674,-0.05018114671111107
1782845439887044400,2.47904443359375,-0.009593771770596504,-0.10312505066394806,0.01098500657826662
1782845439897048300,2.48904833984375,-0.023680828511714935,-0.1038379818201065,0.05535593256354332
1782845439907053300,2.49905322265625,-0.03867282718420029,-0.09102711081504822,0.09665890038013458
1782845439917057300,2.509057373046875,-0.046434078365564346,-0.08040083199739456,0.12709243595600128
1782845439927062300,2.519062255859375,-0.04038896784186363,-0.0508384145796299,0.1415664553642273
1782845439937066200,2.529066162109375,-0.03128841519355774,-0.010496050119400024,0.14841024577617645
1782845439947071200,2.5390712890625,-0.013099024072289467,0.015619173645973206,0.13407711684703827
1782845439957075500,2.549075439453125,0.0235868189483881,0.05842043459415436,0.08170924335718155
1782845439967080400,2.55908056640625,0.05537670478224754,0.07939974963665009,0.04075275734066963
1782845439977084400,2.56908447265625,0.055923186242580414,0.07814034074544907,0.02520655281841755
1782845439987089400,2.57908935546875,0.06259973347187042,0.07114741206169128,0.005247758701443672
1782845439997093400,2.58909326171875,0.07169841974973679,0.05643291398882866,-0.02569284662604332
1782845440007098400,2.599098388671875,0.13011246919631958,0.1075030267238617,-0.0895213633775711
1782845440017102300,2.609102294921875,0.11906220763921738,0.07468648999929428,-0.07701276242733002
1782845440027107300,2.619107421875,0.13303475081920624,-0.026487266644835472,-0.06640805304050446
1782845440037111300,2.629111328125,0.18096472322940826,-0.05077023804187775,-0.09983392059803009
1782845440047116300,2.6391162109375,0.20222261548042297,-0.0474223755300045,-0.14349856972694397
1782845440057120300,2.649120361328125,0.2243654578924179,-0.04294506832957268,-0.18414480984210968
1782845440067125200,2.659125244140625,0.2319464087486267,-0.012230567634105682,-0.20740193128585815
1782845440077129500,2.66912939453125,0.2385268211364746,0.0213572196662426,-0.2280920296907425
1782845440087134500,2.679134521484375,0.23960433900356293,0.055622782558202744,-0.22844861447811127
1782845440097138400,2.689138427734375,0.2367188036441803,0.07670702785253525,-0.20994390547275543
1782845440107143400,2.699143310546875,0.22020800411701202,0.09279012680053711,-0.1625487059354782
1782845440117148400,2.7091484375,0.1881248950958252,0.0896177664399147,-0.10147043317556381
1782845440127152400,2.71915234375,0.16123682260513306,0.08088047057390213,-0.04218953102827072
1782845440137156400,2.72915625,0.14937031269073486,0.07488888502120972,-0.011846273206174374
1782845440147161300,2.739161376953125,0.1331932097673416,0.06088705360889435,0.003713511861860752
1782845440157166300,2.749166259765625,0.12117915600538254,0.04903438687324524,-0.00016192019393201917
1782845440167170300,2.75917041015625,0.11060667037963867,0.048353951424360275,-0.009594304487109184
1782845440177175300,2.76917529296875,0.10435330122709274,0.04463724419474602,-0.016874853521585464
1782845440187179300,2.77917919921875,0.09017676115036011,0.051422443240880966,-0.01948555000126362
1782845440197184300,2.789184326171875,0.08637537062168121,0.05435671657323837,-0.012466789223253727
1782845440207188500,2.7991884765625,0.08412499725818634,0.06602828204631805,0.013935523107647896
1782845440217193500,2.809193359375,0.077473483979702,0.0678112730383873,0.059358932077884674
1782845440227197400,2.819197509765625,0.08291112631559372,0.0764084905385971,0.10104326158761978
1782845440237202400,2.829202392578125,0.09375924617052078,0.09458109736442566,0.14074113965034485
1782845440247206400,2.839206298828125,0.11448503285646439,0.10675626993179321,0.1784387230873108
1782845440257211400,2.84921142578125,0.13618846237659454,0.1227022185921669,0.20467138290405273
1782845440267215400,2.85921533203125,0.14496704936027527,0.13641536235809326,0.20714466273784637
1782845440277220400,2.869220458984375,0.162433922290802,0.13715146481990814,0.17576436698436737
1782845440287224300,2.879224365234375,0.18663246929645538,0.14371322095394135,0.0915142074227333
1782845440297229300,2.889229248046875,0.20360638201236725,0.13582201302051544,0.007255249656736851
1782845440307233300,2.8992333984375,0.22593140602111816,0.11494283378124237,-0.05287972465157509
1782845440317238300,2.90923828125,0.2372133433818817,0.09392010420560837,-0.08736393600702286
1782845440327242500,2.919242431640625,0.24254180490970612,0.07239244133234024,-0.09736250340938568
1782845440337247500,2.92924755859375,0.23983550071716309,0.061109960079193115,-0.09687700867652893
1782845440347251500,2.93925146484375,0.23643197119235992,0.05446963384747505,-0.09367216378450394
1782845440357256400,2.94925634765625,0.22713488340377808,0.046611443161964417,-0.09632813185453415
1782845440367260400,2.959260498046875,0.20706716179847717,0.03880625218153,-0.09409800171852112
1782845440377265400,2.969265380859375,0.17137254774570465,0.03405117616057396,-0.08148660510778427
1782845440387269400,2.979269287109375,0.12862801551818848,0.04100282862782478,-0.058873701840639114
1782845440397274400,2.9892744140625,0.08315906673669815,0.046602655202150345,-0.019360115751624107
1782845440407278300,2.9992783203125,0.03345463052392006,0.05032229423522949,0.03380962833762169
1782845440417283300,3.009283447265625,-0.0139594916254282,0.05650481954216957,0.09932631999254227
1782845440427287300,3.019287353515625,-0.03901158273220062,0.05468188598752022,0.17029237747192383
1782845440437292300,3.029292236328125,-0.052621133625507355,0.04416240006685257,0.23099380731582642
1782845440447296300,3.039296142578125,-0.05314631015062332,0.0526600144803524,0.28311267495155334
1782845440457301500,3.049301513671875,-0.04050960764288902,0.05902869999408722,0.3097599744796753
1782845440467305500,3.059305419921875,-0.026211097836494446,0.06151502579450607,0.330961674451828
1782845440477310500,3.069310546875,-0.004448810592293739,0.05162990465760231,0.3376920223236084
1782845440487314200,3.079314208984375,0.028127241879701614,0.050514839589595795,0.3218693733215332
1782845440497319200,3.089319091796875,0.07312054932117462,0.04989192634820938,0.28731220960617065
1782845440507323400,3.099323486328125,0.12955878674983978,0.028547221794724464,0.24496261775493622
1782845440517328400,3.109328369140625,0.2242509424686432,0.004548412747681141,0.18274079263210297
1782845440527332400,3.119332275390625,0.21573202311992645,0.0019824570044875145,0.12032108753919601
1782845440537337300,3.12933740234375,0.2356090545654297,-0.029677733778953552,0.03494839742779732
1782845440547341300,3.13934130859375,0.28322771191596985,-0.03429858386516571,-0.04460475221276283
1782845440557346300,3.14934619140625,0.3118588328361511,-0.034926291555166245,-0.13408616185188293
1782845440567350300,3.159350341796875,0.34738805890083313,-0.03783606365323067,-0.2277791053056717
1782845440577355300,3.169355224609375,0.36127084493637085,0.00038828887045383453,-0.3132742941379547
1782845440587359500,3.179359375,0.3573695719242096,0.02917306497693062,-0.40088003873825073
1782845440597364500,3.189364501953125,0.3326248228549957,0.03376728296279907,-0.4727041721343994
1782845440607368200,3.1993681640625,0.31452783942222595,0.024447552859783173,-0.5474013090133667
1782845440617373200,3.209373291015625,0.2943951487541199,0.012474779039621353,-0.6118133068084717
1782845440627377200,3.219377197265625,0.2708176374435425,-0.007471232209354639,-0.6350848078727722
1782845440637382100,3.229382080078125,0.22565309703350067,-0.04882266744971275,-0.6094732284545898
1782845440647386400,3.239386474609375,0.18865753710269928,-0.08891229331493378,-0.5423852205276489
1782845440657391400,3.249391357421875,0.14901398122310638,-0.10615573078393936,-0.4630802869796753
1782845440667395300,3.259395263671875,0.11105354875326157,-0.1076098158955574,-0.3764495253562927
1782845440677400300,3.269400390625,0.07608544826507568,-0.09707168489694595,-0.2894837558269501
1782845440687405300,3.2794052734375,0.03521604463458061,-0.0808197483420372,-0.18579277396202087
1782845440697409300,3.2894091796875,-0.0024897893890738487,-0.0808679535984993,-0.07325717061758041
1782845440707414300,3.299414306640625,-0.03398220241069794,-0.07788307964801788,0.02082831598818302
1782845440717418500,3.30941845703125,-0.05625155568122864,-0.0804586261510849,0.09325617551803589
1782845440727423500,3.319423583984375,-0.07175807654857635,-0.07947884500026703,0.15114638209342957
1782845440737427200,3.32942724609375,-0.07636561244726181,-0.08161310106515884,0.19182589650154114
1782845440747432200,3.33943212890625,-0.08364535868167877,-0.07940028607845306,0.2205592691898346
1782845440757436200,3.349436279296875,-0.10032553970813751,-0.08173294365406036,0.25194621086120605
1782845440767441200,3.359441162109375,-0.11465813964605331,-0.08397239446640015,0.27982258796691895
1782845440777445000,3.369445068359375,-0.1287688910961151,-0.07143130898475647,0.2931711673736572
1782845440787450000,3.3794501953125,-0.14069586992263794,-0.04717550054192543,0.29141321778297424
1782845440797454000,3.3894541015625,-0.14452175796031952,-0.02617967315018177,0.2919527590274811
1782845440807459000,3.399458984375,-0.15528333187103271,0.004688761197030544,0.2963874638080597
1782845440817463000,3.409463134765625,-0.15760107338428497,0.03900998458266258,0.3020879626274109
1782845440827468000,3.419468017578125,-0.13977867364883423,0.06563972681760788,0.2899085283279419
1782845440837472000,3.429471923828125,-0.11436305940151215,0.07735870033502579,0.2736930549144745
1782845440847477000,3.43947705078125,-0.09537339210510254,0.08180990815162659,0.25808852910995483
1782845440857481000,3.44948095703125,-0.08038271963596344,0.07976167649030685,0.244663804769516
1782845440867486000,3.45948583984375,-0.0731343999505043,0.0635579377412796,0.24896694719791412
1782845440877490000,3.469489990234375,-0.06999745965003967,0.035894885659217834,0.26191630959510803
1782845440887495200,3.4794951171875,-0.07249151170253754,0.01564207673072815,0.2802010178565979
1782845440897499100,3.4894990234375,-0.09767835587263107,0.005863215308636427,0.2893220782279968
1782845440907504000,3.499504150390625,-0.1155305877327919,0.005948969163000584,0.28426340222358704
1782845440917508000,3.509508056640625,-0.13074016571044922,0.003322825999930501,0.28289908170700073
1782845440927513000,3.51951318359375,-0.13323181867599487,0.003962783608585596,0.27153298258781433
1782845440937517000,3.52951708984375,-0.12821468710899353,0.009182047098875046,0.2063736766576767
1782845440947522000,3.53952197265625,-0.12463274598121643,0.0216528307646513,0.11359500139951706
1782845440957526000,3.549526123046875,-0.11455081403255463,0.02485022135078907,0.031921714544296265
1782845440967531000,3.559531005859375,-0.10520870983600616,0.02063656970858574,-0.026679014787077904
1782845440977535000,3.569534912109375,-0.09184789657592773,0.014065751805901527,-0.0648580938577652
1782845440987540000,3.5795400390625,-0.0854152962565422,0.017911355942487717,-0.10528301447629929
1782845440997544000,3.5895439453125,-0.08247410506010056,0.019779030233621597,-0.13494344055652618
1782845441007549000,3.599548828125,-0.07346808910369873,0.013616476207971573,-0.13654878735542297
1782845441017553200,3.60955322265625,-0.06733616441488266,-0.004199805203825235,-0.12994468212127686
1782845441027558100,3.61955810546875,-0.053094375878572464,-0.024715466424822807,-0.11806672066450119
1782845441037562000,3.62956201171875,-0.0345555804669857,-0.04446813091635704,-0.09099248796701431
1782845441047567000,3.639567138671875,-0.008729841560125351,-0.04939231649041176,-0.0593155212700367
1782845441057570800,3.64957080078125,0.015843944624066353,-0.058456916362047195,-0.039387885481119156
1782845441067575800,3.659575927734375,0.03694869577884674,-0.0615009106695652,-0.027333352714776993
1782845441077580000,3.669580078125,0.043590087443590164,-0.05017581954598427,-0.018567558377981186
1782845441087585000,3.6795849609375,0.03978735953569412,-0.03262052685022354,-0.02599191851913929
1782845441097589000,3.689589111328125,0.03545146808028221,-0.0008056062506511807,-0.01576298475265503
1782845441107594000,3.699593994140625,0.02100035734474659,0.01847434788942337,0.004664793144911528
1782845441117598000,3.709597900390625,0.016235163435339928,0.04020094871520996,0.03419951722025871
1782845441127603000,3.71960302734375,-0.0027334685437381268,0.06704694777727127,0.04721571505069733
1782845441137607200,3.729607177734375,-0.03532203659415245,0.0884276032447815,0.05517084524035454
1782845441147612200,3.739612060546875,-0.058284346014261246,0.0982634499669075,0.04909084737300873
1782845441157616000,3.7496162109375,-0.0833558738231659,0.10466249287128448,0.05233857035636902
1782845441167621000,3.75962109375,-0.10154473036527634,0.09692761301994324,0.05368666350841522
1782845441177624800,3.769624755859375,-0.10609607398509979,0.08724196255207062,0.04632169380784035
1782845441187629800,3.7796298828125,-0.12297013401985168,0.07412376254796982,0.04090216010808945
1782845441197634800,3.789634765625,-0.1461377739906311,0.0635313019156456,0.047875914722681046
1782845441207639000,3.79963916015625,-0.1674260050058365,0.05802761763334274,0.05163949355483055
1782845441217644000,3.80964404296875,-0.17258961498737335,0.06057706102728844,0.039204660803079605
1782845441227648000,3.81964794921875,-0.16172924637794495,0.06749408692121506,0.01980113610625267
1782845441237653000,3.829653076171875,-0.13939091563224792,0.0701117068529129,-0.003597398055717349
1782845441247657000,3.839656982421875,-0.11383122950792313,0.06841607391834259,-0.032822661101818085
1782845441257662000,3.849661865234375,-0.08760415017604828,0.0704086497426033,-0.051594752818346024
1782845441267666200,3.859666259765625,-0.056166864931583405,0.06805894523859024,-0.06115150451660156
1782845441277671200,3.869671142578125,-0.027642013505101204,0.05614795908331871,-0.05957784131169319
1782845441287675100,3.879675048828125,-0.016705211251974106,0.033237047493457794,-0.044850029051303864
1782845441297680100,3.88968017578125,-0.023437416180968285,0.0010077401529997587,-0.019832560792565346
1782845441307683800,3.899683837890625,-0.03436143696308136,-0.02876480296254158,-0.0010223875287920237
1782845441317688800,3.909688720703125,-0.044450823217630386,-0.05383953079581261,0.015468171797692776
1782845441327693000,3.919693115234375,-0.056282445788383484,-0.07501352578401566,0.03398007154464722
1782845441337698000,3.929697998046875,-0.05763533338904381,-0.09366150945425034,0.04477865621447563
1782845441347702000,3.939701904296875,-0.06740487366914749,-0.1174270287156105,0.053879741579294205
1782845441357707000,3.94970703125,-0.08262563496828079,-0.13358202576637268,0.059007395058870316
1782845441367711000,3.9597109375,-0.09646555036306381,-0.13709980249404907,0.05549415200948715
1782845441377716000,3.969716064453125,-0.118315190076828,-0.12840111553668976,0.043054260313510895
1782845441387720200,3.97972021484375,-0.1366119086742401,-0.11611595004796982,0.030956052243709564
1782845441397725200,3.98972509765625,-0.15743356943130493,-0.11816312372684479,0.015528892166912556
1782845441407729200,3.999729248046875,-0.1826947182416916,-0.11902199685573578,0.006101834587752819
1782845441417734100,4.009734130859375,-0.19424377381801605,-0.11522139608860016,0.0065077003091573715
1782845441427737900,4.01973779296875,-0.1955695003271103,-0.11218805611133575,0.009737049229443073
1782845441437742800,4.029742919921875,-0.17655453085899353,-0.11286689341068268,0.015094530768692493
1782845441447747000,4.0397470703125,-0.1548905074596405,-0.12660853564739227,0.01757846027612686
1782845441457752000,4.049751953125,-0.13529257476329803,-0.14073900878429413,0.005387841258198023
1782845441467756000,4.059756103515625,-0.11578571796417236,-0.15219806134700775,0.001784850494004786
1782845441477761000,4.069760986328125,-0.0959470346570015,-0.16046078503131866,-0.0009771138429641724
1782845441487765000,4.079764892578125,-0.10052527487277985,-0.16211752593517303,-0.017621604725718498
1782845441497770000,4.08977001953125,-0.12494300305843353,-0.16143229603767395,-0.05499880388379097
1782845441507774200,4.099774169921875,-0.1579076051712036,-0.1530609279870987,-0.10804897546768188
1782845441517779200,4.109779296875,-0.17161409556865692,-0.1509503722190857,-0.15875928103923798
1782845441527783200,4.119783203125,-0.1598551720380783,-0.15469184517860413,-0.18070267140865326
1782845441537788200,4.1297880859375,-0.13511334359645844,-0.16010791063308716,-0.1618110090494156
1782845441547792000,4.1397919921875,-0.09669911116361618,-0.17476621270179749,-0.09867837280035019
1782845441557796900,4.149796875,-0.06576942652463913,-0.19232869148254395,0.0017438378417864442
1782845441567801000,4.159801025390625,-0.04067925363779068,-0.1965482085943222,0.11969310790300369
1782845441577806000,4.16980615234375,-0.03225966915488243,-0.19034437835216522,0.23947037756443024
1782845441587810000,4.17981005859375,-0.0326937660574913,-0.1705208718776703,0.34967225790023804
1782845441597815000,4.18981494140625,-0.03947443887591362,-0.13912247121334076,0.42771247029304504
1782845441607819000,4.199819091796875,-0.06977801769971848,-0.10064777731895447,0.4450855851173401
1782845441617824000,4.209823974609375,-0.10058226436376572,-0.07004140317440033,0.4092935025691986
1782845441627828200,4.219828125,-0.13026505708694458,-0.04580423980951309,0.2969682812690735
1782845441637833200,4.229833251953125,-0.16369199752807617,-0.021015269681811333,0.11323254555463791
1782845441647837200,4.239837158203125,-0.21986179053783417,0.0012101404136046767,-0.11448237299919128
1782845441657842200,4.24984228515625,-0.281085729598999,-0.0010578075889497995,-0.3357580304145813
1782845441667846000,4.259845947265625,-0.3387413024902344,-0.037646979093551636,-0.5288223028182983
1782845441677851000,4.269850830078125,-0.38420891761779785,-0.07854460924863815,-0.6886809468269348
1782845441687855900,4.27985595703125,-0.3985167443752289,-0.1266181319952011,-0.7858873605728149
1782845441697860000,4.289860107421875,-0.3936527669429779,-0.16793841123580933,-0.8204083442687988
1782845441707865000,4.299864990234375,-0.3781971037387848,-0.18526919186115265,-0.7964721322059631
1782845441717869000,4.309869140625,-0.3538680672645569,-0.1813809722661972,-0.7020707726478577
1782845441727874000,4.3198740234375,-0.3310948312282562,-0.147063210606575,-0.5666820406913757
1782845441737878000,4.3298779296875,-0.30655166506767273,-0.10852541029453278,-0.3958807587623596
1782845441747883000,4.339883056640625,-0.2718203365802765,-0.06591057032346725,-0.2117985337972641
1782845441757887200,4.34988720703125,-0.23197969794273376,-0.032755281776189804,-0.023086676374077797
1782845441767892500,4.359892578125,-0.1924285739660263,-0.01098660472780466,0.1566266268491745
1782845441777896400,4.369896484375,-0.16210155189037323,-0.013828197494149208,0.31915003061294556
1782845441787901400,4.3799013671875,-0.15102919936180115,-0.00851545762270689,0.43999814987182617
1782845441797905200,4.3899052734375,-0.16025091707706451,-0.010456901974976063,0.515929639339447
1782845441807910100,4.39991015625,-0.1733536720275879,-0.0035334820859134197,0.563592791557312
1782845441817914400,4.409914306640625,-0.18373680114746094,0.018390458077192307,0.5632942318916321
1782845441827919400,4.41991943359375,-0.19165918231010437,0.04994519054889679,0.4996532201766968
1782845441837923300,4.42992333984375,-0.2032034546136856,0.0843614861369133,0.40560367703437805
1782845441847928300,4.43992822265625,-0.19843558967113495,0.10872089117765427,0.295097678899765
1782845441857932300,4.449932373046875,-0.17928719520568848,0.11907658725976944,0.2002183198928833
1782845441867937300,4.459937255859375,-0.1468706727027893,0.1041778028011322,0.1319953203201294
1782845441877941200,4.469941162109375,-0.10585266351699829,0.0794583410024643,0.07671448588371277
1782845441887946200,4.4799462890625,-0.0549444742500782,0.056776728481054306,0.027249997481703758
1782845441897950500,4.489950439453125,-0.010156497359275818,0.039315979927778244,-0.00854501873254776
1782845441907955500,4.49995556640625,0.026636937633156776,0.022482406347990036,-0.025316542014479637
1782845441917959200,4.509959228515625,0.053642190992832184,0.012297146022319794,-0.031429827213287354
1782845441927964200,4.519964111328125,0.07743673771619797,0.00878949649631977,-0.02991155907511711
1782845441937968000,4.529968017578125,0.10264541953802109,0.013265205547213554,-0.0253964364528656
1782845441947973400,4.539973388671875,0.1286008507013321,0.01287318766117096,-0.014391189441084862
1782845441957977300,4.549977294921875,0.1504044234752655,-0.003102582646533847,-0.012413259595632553
1782845441967982300,4.559982421875,0.1640091836452484,-0.029027657583355904,-0.01948555000126362
1782845441977986300,4.569986328125,0.16272127628326416,-0.05203577131032944,-0.04460155591368675
1782845441987991300,4.5799912109375,0.15663275122642517,-0.06774628907442093,-0.08522914350032806
1782845441997995300,4.589995361328125,0.13604305684566498,-0.07385877519845963,-0.11218885332345963
1782845442008000300,4.600000244140625,0.10774777084589005,-0.07728999108076096,-0.11839348822832108
1782845442018004200,4.610004150390625,0.07224516570568085,-0.0755821093916893,-0.11440087854862213
1782845442028009500,4.620009521484375,0.027398334816098213,-0.06519311666488647,-0.12533102929592133
1782845442038013200,4.63001318359375,-0.025235315784811974,-0.051427505910396576,-0.12729616463184357
1782845442048018200,4.64001806640625,-0.06523945927619934,-0.03858307749032974,-0.13781991600990295
1782845442058022100,4.650022216796875,-0.0928037092089653,-0.02677728608250618,-0.13110342621803284
1782845442068027100,4.660027099609375,-0.12357466667890549,-0.03412201628088951,-0.10945538431406021
1782845442078031400,4.67003125,-0.14348766207695007,-0.04062306135892868,-0.08968620747327805
1782845442088036400,4.680036376953125,-0.15870070457458496,-0.04103132337331772,-0.06926136463880539
1782845442098040300,4.690040283203125,-0.14031076431274414,-0.03195713460445404,-0.047628238797187805
1782845442108045300,4.70004541015625,-0.1168922632932663,-0.02520415559411049,-0.01374963391572237
1782845442118050300,4.71005029296875,-0.09512545168399811,-0.011942679062485695,0.021710621193051338
1782845442128054300,4.72005419921875,-0.0837167352437973,-0.0037087181117385626,0.06570790708065033
1782845442138059300,4.730059326171875,-0.07321935147047043,0.003029079409316182,0.10238655656576157
1782845442148063200,4.740063232421875,-0.07343586534261703,0.008408664725720882,0.12700535356998444
1782845442158068200,4.750068115234375,-0.07540421187877655,0.02220889925956726,0.13367976248264313
1782845442168072200,4.760072265625,-0.07621833682060242,0.04114983230829239,0.11447970569133759
1782845442178077200,4.7700771484375,-0.07330750674009323,0.055037420243024826,0.08415216207504272
1782845442188081200,4.7800810546875,-0.05972937494516373,0.06084204465150833,0.04736405238509178
1782845442198086100,4.790086181640625,-0.02959810569882393,0.06484344601631165,-0.005166266113519669
1782845442208090400,4.80009033203125,0.004449609667062759,0.05945080891251564,-0.05522970110177994
1782845442218095400,4.810095458984375,0.04701384902000427,0.053711697459220886,-0.11713434755802155
1782845442228099300,4.820099365234375,0.08439397811889648,0.0534813329577446,-0.17103911936283112
1782845442238104300,4.830104248046875,0.11876153945922852,0.044134702533483505,-0.21934114396572113
1782845442248108300,4.8401083984375,0.1473308652639389,0.04445454850792885,-0.2608041763305664
1782845442258113300,4.85011328125,0.17590764164924622,0.040771398693323135,-0.2995680570602417
1782845442268117200,4.8601171875,0.19844144582748413,0.04057618975639343,-0.31987467408180237
1782845442278122200,4.870122314453125,0.21676293015480042,0.0384664312005043,-0.31800779700279236
1782845442288126200,4.880126220703125,0.23677340149879456,0.029514215886592865,-0.28717344999313354
1782845442298131200,4.890131103515625,0.2586190402507782,0.01847754418849945,-0.22438623011112213
1782845442308135200,4.90013525390625,0.2636593282222748,-0.001222657272592187,-0.1559046506881714
1782845442318140200,4.91014013671875,0.2680932283401489,-0.014540859498083591,-0.08643156290054321
1782845442328144400,4.920144287109375,0.2569710612297058,-0.02480042167007923,-0.04284466803073883
1782845442338149400,4.9301494140625,0.23519520461559296,-0.02997547574341297,-0.02124190516769886
1782845442348153300,4.9401533203125,0.21329070627689362,-0.032887376844882965,0.0010543455136939883
1782845442358158300,4.950158447265625,0.17784589529037476,-0.03738092631101608,0.017477260902523994
1782845442368162300,4.960162353515625,0.13816159963607788,-0.02713627927005291,0.014692659489810467
1782845442378167300,4.970167236328125,0.09768395125865936,-0.012662265449762344,-0.00019973708549514413
1782845442388171300,4.980171142578125,0.057967960834503174,0.002299639629200101,-0.039081621915102005
1782845442398176300,4.99017626953125,0.028296086937189102,0.0157089214771986,-0.08459024876356125
1782845442408180200,5.00018017578125,0.013165869750082493,0.02154896780848503,-0.12417920678853989
1782845442418185200,5.010185302734375,0.01769377663731575,0.02948971465229988,-0.16265709698200226
1782845442428189200,5.020189208984375,0.032462336122989655,0.04433098062872887,-0.19705820083618164
1782845442438194200,5.030194091796875,0.05959169194102287,0.06175364553928375,-0.21627238392829895
1782845442448198400,5.040198486328125,0.08932215720415115,0.06699874252080917,-0.2278486043214798
1782845442458203400,5.050203369140625,0.11383948475122452,0.06083112582564354,-0.2442968189716339
1782845442468207400,5.060207275390625,0.1399131566286087,0.05269410461187363,-0.25267887115478516
1782845442478212400,5.07021240234375,0.16366323828697205,0.03419498726725578,-0.25358378887176514
1782845442488216300,5.08021630859375,0.1847701221704483,0.02149064466357231,-0.23679736256599426
1782845442498221300,5.09022119140625,0.21709902584552765,0.01242018397897482,-0.21109546720981598
1782845442508225300,5.100225341796875,0.23557071387767792,0.0010572749888524413,-0.18587718904018402
1782845442518230300,5.110230224609375,0.24971555173397064,-0.007250456139445305,-0.16676102578639984
1782845442528235300,5.1202353515625,0.25280696153640747,0.0007890945998951793,-0.1423984169960022
1782845442538239200,5.1302392578125,0.2464768886566162,0.015503858216106892,-0.11926780641078949
1782845442548244200,5.140244140625,0.22566641867160797,0.03634389117360115,-0.07430219650268555
1782845442558248200,5.150248291015625,0.20172086358070374,0.04784688353538513,-0.01817074790596962
1782845442568253200,5.160253173828125,0.18216633796691895,0.0659145712852478,0.03924647346138954
1782845442578257400,5.17025732421875,0.16606487333774567,0.07753819972276688,0.08731094002723694
1782845442588262400,5.180262451171875,0.14752261340618134,0.09764613211154938,0.12692226469516754
1782845442598266400,5.190266357421875,0.1309361755847931,0.11151400953531265,0.16682040691375732
1782845442608271400,5.200271240234375,0.11551860719919205,0.11750452220439911,0.18590621650218964
1782845442618275300,5.210275390625,0.1112479642033577,0.12852947413921356,0.19741587340831757
1782845442628280300,5.2202802734375,0.12023346871137619,0.12765702605247498,0.1930845081806183
1782845442638284300,5.2302841796875,0.15115463733673096,0.13234658539295197,0.16684384644031525
1782845442648289300,5.240289306640625,0.20003029704093933,0.13185817003250122,0.1251499354839325
1782845442658293200,5.250293212890625,0.25493109226226807,0.12581731379032135,0.10729076713323593
1782845442668298200,5.26029833984375,0.31153604388237,0.11057258397340775,0.10115324705839157
1782845442678302200,5.27030224609375,0.3663231432437897,0.10064085572957993,0.12640480697155
1782845442688307200,5.28030712890625,0.41646379232406616,0.10624334961175919,0.1724197119474411
1782845442698311400,5.2903115234375,0.4633186459541321,0.10927029699087143,0.21619461476802826
1782845442708316400,5.30031640625,0.5020117163658142,0.12655048072338104,0.2520495653152466
1782845442718320400,5.3103203125,0.5188096165657043,0.14246447384357452,0.260461688041687
1782845442728325400,5.320325439453125,0.5190479755401611,0.1499500870704651,0.2205187976360321
1782845442738329300,5.330329345703125,0.5071537494659424,0.1424649953842163,0.11305491626262665
1782845442748334300,5.340334228515625,0.48393765091896057,0.14387540519237518,-0.042986348271369934
1782845442758338300,5.35033837890625,0.45643332600593567,0.1397632211446762,-0.22794128954410553
1782845442768343300,5.36034326171875,0.44580569863319397,0.13586515188217163,-0.4050295054912567
1782845442778347300,5.37034716796875,0.449308305978775,0.13703136146068573,-0.5439879298210144
1782845442788352300,5.380352294921875,0.46909716725349426,0.09360665082931519,-0.619777262210846
1782845442798356000,5.39035595703125,0.4968470633029938,0.013813816010951996,-0.6289137601852417
1782845442808361200,5.400361328125,0.522794246673584,-0.093424491584301,-0.5672434568405151
1782845442818366200,5.4103662109375,0.5401750802993774,-0.1876354068517685,-0.4407568871974945
1782845442828370200,5.4203701171875,0.5474742650985718,-0.22870801389217377,-0.2774537205696106
1782845442838375200,5.430375244140625,0.5691460371017456,-0.2146041840314865,-0.10320654511451721
1782845442848379100,5.440379150390625,0.5983750224113464,-0.14352281391620636,0.06262849271297455
1782845442858384100,5.450384033203125,0.6151108741760254,-0.05836290866136551,0.22642993927001953
1782845442868388000,5.46038818359375,0.6112309098243713,0.002007490722462535,0.38821911811828613
1782845442878393000,5.47039306640625,0.5911634564399719,0.03660142049193382,0.5195395946502686
1782845442888397300,5.480397216796875,0.5481797456741333,0.0490996353328228,0.6049202680587769
1782845442898402300,5.49040234375,0.5004620552062988,0.038783613592386246,0.6448338627815247
1782845442908406300,5.50040625,0.4347626566886902,0.006432599388062954,0.65451979637146
1782845442918411300,5.510411376953125,0.36756789684295654,-0.026326945051550865,0.6448511481285095
1782845442928415000,5.5204150390625,0.2875995635986328,-0.04469875991344452,0.6199713945388794
1782845442938420000,5.530419921875,0.20454195141792297,-0.05342381075024605,0.5843119025230408
1782845442948424200,5.540424072265625,0.11606721580028534,-0.05275322496891022,0.531546413898468
1782845442958429200,5.55042919921875,0.009185242466628551,-0.0479414276778698,0.4615042507648468
1782845442968433200,5.56043310546875,-0.08253215998411179,-0.04012611508369446,0.39012566208839417
1782845442978438100,5.570438232421875,-0.15202948451042175,-0.033491380512714386,0.28867200016975403
1782845442988442000,5.580442138671875,-0.2009754478931427,-0.00785552617162466,0.183189257979393
1782845442998447000,5.590447021484375,-0.22813783586025238,0.01182230468839407,0.08528347313404083
1782845443008451300,5.600451416015625,-0.23517070710659027,0.03393905982375145,-0.005636846646666527
1782845443018456300,5.610456298828125,-0.23478348553180695,0.04669560119509697,-0.07564868777990341
1782845443028460300,5.620460205078125,-0.21733444929122925,0.054007839411497116,-0.10371813923120499
1782845443038465300,5.63046533203125,-0.19955332577228546,0.04908711835741997,-0.0963108241558075
1782845443048469000,5.640468994140625,-0.17513160407543182,0.037104226648807526,-0.07181666791439056
1782845443058474000,5.650473876953125,-0.15031440556049347,0.022287994623184204,-0.03292146325111389
1782845443068479000,5.66047900390625,-0.11198219656944275,-0.0021702100057154894,0.008563927374780178
1782845443078483200,5.670483154296875,-0.07409446686506271,-0.02340545691549778,0.024111993610858917
1782845443088488200,5.68048828125,-0.037280261516571045,-0.034327879548072815,0.027590082958340645
1782845443098492200,5.6904921875,-0.0037563887890428305,-0.030590400099754333,0.010517355985939503
1782845443108497200,5.7004970703125,0.028545623645186424,-0.02743695117533207,-0.007450459524989128
1782845443118501000,5.710501220703125,0.05890965461730957,-0.02888571098446846,-0.014216220006346703
1782845443128506000,5.720506103515625,0.0952114686369896,-0.026316026225686073,-0.023141272366046906
1782845443138510300,5.73051025390625,0.13957972824573517,-0.02347656339406967,-0.044259607791900635
1782845443148515300,5.740515380859375,0.1606818288564682,-0.02201928198337555,-0.06570497900247574
1782845443158519300,5.750519287109375,0.16790831089019775,-0.02810060977935791,-0.09134242683649063
1782845443168524300,5.760524169921875,0.17305806279182434,-0.035293541848659515,-0.10429311543703079
1782845443178528000,5.770528076171875,0.16159288585186005,-0.04181801900267601,-0.10841169208288193
1782845443188533000,5.780532958984375,0.13629792630672455,-0.049787797033786774,-0.09151872992515564
1782845443198537200,5.790537109375,0.09831857681274414,-0.06430654972791672,-0.06847679615020752
1782845443208542200,5.800542236328125,0.04376479238271713,-0.06376805901527405,-0.03458620607852936
1782845443218546200,5.810546142578125,-0.03069799207150936,-0.05098355561494827,0.00691889226436615
1782845443228551200,5.82055126953125,-0.10411868244409561,-0.03130678832530975,0.04181482642889023
1782845443238555100,5.83055517578125,-0.1803703010082245,-0.01429238636046648,0.07453388720750809
1782845443248560000,5.84056005859375,-0.24615144729614258,-0.008463792502880096,0.09386204928159714
1782845443258564400,5.850564453125,-0.30264347791671753,0.004021106753498316,0.09679072350263596
1782845443268569300,5.8605693359375,-0.3438572287559509,0.003826429834589362,0.08333350718021393
1782845443278574300,5.87057421875,-0.36552152037620544,0.007271495182067156,0.06696411967277527
1782845443288578300,5.880578369140625,-0.3705122768878937,0.0046389601193368435,0.04962294548749924
1782845443298583300,5.890583251953125,-0.36678972840309143,-0.0015733955660834908,0.0379449836909771
1782845443308587000,5.9005869140625,-0.3626897931098938,0.0019803266040980816,0.029166407883167267
1782845443318592000,5.910592041015625,-0.3329547941684723,0.018976088613271713,0.020015252754092216
1782845443328596200,5.92059619140625,-0.297567754983902,0.04832332208752632,0.025799639523029327
1782845443338601200,5.930601318359375,-0.2636699974536896,0.07892198115587234,0.027758926153182983
1782845443348605200,5.940605224609375,-0.2262597680091858,0.09797076880931854,0.034922029823064804
1782845443358610200,5.950610107421875,-0.18654698133468628,0.10658103972673416,0.026567695662379265
1782845443368614100,5.9606142578125,-0.14205008745193481,0.10893207788467407,-0.007881359197199345
1782845443378619100,5.970619140625,-0.10059824585914612,0.09324871748685837,-0.05192844569683075
1782845443388623400,5.980623291015625,-0.048838380724191666,0.05981166660785675,-0.09091232717037201
1782845443398628400,5.99062841796875,0.003210174385458231,0.0056986319832503796,-0.12068407237529755
1782845443408632300,6.00063232421875,0.040581248700618744,-0.046302516013383865,-0.15248194336891174
1782845443418637300,6.01063720703125,0.07372348755598068,-0.07658319175243378,-0.1772855669260025
1782845443428641000,6.02064111328125,0.09140128642320633,-0.0959467664361,-0.19063173234462738
1782845443438646000,6.03064599609375,0.10598502308130264,-0.10038705915212631,-0.1973000168800354
1782845443448650200,6.040650146484375,0.10403585433959961,-0.08879484981298447,-0.19523367285728455
1782845443458655200,6.0506552734375,0.09769992530345917,-0.0831281766295433,-0.19093772768974304
1782845443468660200,6.06066015625,0.08076834678649902,-0.07962691783905029,-0.17771273851394653
1782845443478664200,6.070664306640625,0.0616641640663147,-0.07056631147861481,-0.16415831446647644
1782845443488669200,6.080669189453125,0.036502085626125336,-0.0742446705698967,-0.1334022581577301
1782845443498673200,6.090673095703125,0.002511893631890416,-0.08076994866132736,-0.09841738641262054
1782845443508678100,6.10067822265625,-0.042944006621837616,-0.0778798833489418,-0.043524838984012604
1782845443518682400,6.110682373046875,-0.09705491364002228,-0.07081504911184311,0.008507201448082924
1782845443528687400,6.120687255859375,-0.1458786427974701,-0.07966526597738266,0.04506734386086464
1782845443538691300,6.13069140625,-0.1823844611644745,-0.07817736268043518,0.07690995931625366
1782845443548696300,6.1406962890625,-0.20167745649814606,-0.07487370818853378,0.10269894450902939
1782845443558700000,6.150699951171875,-0.2083585262298584,-0.06198533996939659,0.12941019237041473
1782845443568705000,6.160705078125,-0.20789779722690582,-0.04439302906394005,0.1375029981136322
1782845443578709200,6.170709228515625,-0.20043429732322693,-0.041494980454444885,0.13966070115566254
1782845443588714200,6.18071435546875,-0.19237317144870758,-0.043659329414367676,0.14142104983329773
1782845443598718200,6.19071826171875,-0.19795942306518555,-0.050453852862119675,0.1425883024930954
1782845443608723200,6.20072314453125,-0.21106936037540436,-0.044852159917354584,0.14415264129638672
1782845443618727200,6.21072705078125,-0.22693674266338348,-0.03153129294514656,0.1372784972190857
1782845443628732200,6.220732177734375,-0.23541198670864105,-0.0145286088809371,0.11561820656061172
1782845443638736100,6.230736083984375,-0.24047891795635223,-0.005591573193669319,0.08852560818195343
1782845443648741000,6.2407412109375,-0.238500714302063,0.013285445049405098,0.06263488531112671
1782845443658746400,6.250746337890625,-0.23756355047225952,0.004344947170466185,0.05289677157998085
1782845443668750300,6.260750244140625,-0.23538748919963837,-0.010538927279412746,0.04469742998480797
1782845443678755300,6.27075537109375,-0.22978073358535767,-0.028429243713617325,0.0288846455514431
1782845443688759000,6.280759033203125,-0.2191917449235916,-0.042092859745025635,0.0004980111261829734
1782845443698764000,6.290763916015625,-0.19534926116466522,-0.054482415318489075,-0.03410177677869797
1782845443708768300,6.300768310546875,-0.16901564598083496,-0.06209532916545868,-0.07411124557256699
1782845443718773200,6.310773193359375,-0.13840900361537933,-0.0638871043920517,-0.10754510015249252
1782845443728777200,6.320777099609375,-0.10429471731185913,-0.060918744653463364,-0.1215732991695404
1782845443738782200,6.3307822265625,-0.07112770527601242,-0.05693758651614189,-0.12803785502910614
1782845443748786200,6.3407861328125,-0.032823462039232254,-0.044982921332120895,-0.11127965152263641
1782845443758791200,6.350791259765625,0.0028389296494424343,-0.030122747644782066,-0.06284181028604507
1782845443768795400,6.36079541015625,0.03446822986006737,-0.025721075013279915,0.00800492987036705
1782845443778800400,6.37080029296875,0.05758686363697052,-0.02130182646214962,0.0953984260559082
1782845443788804600,6.3808046875,0.06847146898508072,-0.017581922933459282,0.17496195435523987
1782845443798809600,6.3908095703125,0.07002276182174683,-0.023497601971030235,0.23040737211704254
1782845443808814600,6.400814697265625,0.06505649536848068,-0.02022510953247547,0.24129171669483185
1782845443818818300,6.410818359375,0.05937650799751282,-0.01859232597053051,0.20511959493160248
1782845443828823300,6.4208232421875,0.031978704035282135,-0.0029646309558302164,0.11191748082637787
1782845443838827300,6.4308271484375,-0.01398878637701273,0.01152749266475439,-0.023244069889187813
1782845443848832300,6.440832275390625,-0.08026021718978882,0.015957394614815712,-0.1860838532447815
1782845443858836500,6.45083642578125,-0.16793520748615265,0.0073468624614179134,-0.36071157455444336
1782845443868841500,6.460841552734375,-0.25549569725990295,-0.009937851689755917,-0.5188069343566895
1782845443878845400,6.470845458984375,-0.3172631859779358,-0.039326634258031845,-0.6227458715438843
1782845443888850400,6.480850341796875,-0.3474953770637512,-0.08605153113603592,-0.6353511214256287
1782845443898854400,6.4908544921875,-0.3386630117893219,-0.12504740059375763,-0.5658032298088074
1782845443908859400,6.500859375,-0.3033321797847748,-0.14940892159938812,-0.456005334854126
1782845443918863600,6.510863525390625,-0.2543116509914398,-0.14999721944332123,-0.33751970529556274
1782845443928868600,6.52086865234375,-0.19791415333747864,-0.13427285850048065,-0.22203625738620758
1782845443938872300,6.530872314453125,-0.10717438906431198,-0.130944162607193,-0.0668456107378006
1782845443948877300,6.540877197265625,-0.00427091121673584,-0.13349094986915588,0.09213311970233917
1782845443958881300,6.55088134765625,0.08097340911626816,-0.11537293344736099,0.2035089135169983
1782845443968886300,6.56088623046875,0.1490403413772583,-0.08487707376480103,0.27750006318092346
1782845443978891300,6.570891357421875,0.20881925523281097,-0.05777887627482414,0.31203484535217285
1782845443988895500,6.5808955078125,0.2582451403141022,-0.03440830856561661,0.33146288990974426
1782845443998900500,6.590900390625,0.30127862095832825,-0.017258083447813988,0.33769121766090393
1782845444008904400,6.600904541015625,0.3165358603000641,-0.002171008847653866,0.3115568161010742
1782845444018909400,6.610909423828125,0.30445951223373413,0.011137872003018856,0.24597302079200745
1782845444028913400,6.620913330078125,0.2679651379585266,0.0317147858440876,0.17351186275482178
1782845444038918400,6.63091845703125,0.21679569780826569,0.04529983550310135,0.10587742924690247
1782845444048922600,6.640922607421875,0.15952467918395996,0.054965514689683914,0.05221180617809296
1782845444058927600,6.650927734375,0.10908813774585724,0.052189167588949203,0.020861338824033737
1782845444068931300,6.660931396484375,0.07048721611499786,0.045882269740104675,0.0032000544015318155
1782845444078936300,6.670936279296875,0.03622831031680107,0.03334597125649452,-0.01890072040259838
1782845444088940300,6.680940185546875,0.014682806096971035,0.014104100875556469,-0.040279779583215714
1782845444098945300,6.6909453125,-0.010588462464511395,-0.005827262531965971,-0.05450292304158211
1782845444108950300,6.7009501953125,-0.03479073569178581,-0.017357951030135155,-0.06078745052218437
1782845444118954500,6.71095458984375,-0.05403207615017891,-0.024085095152258873,-0.05335989594459534
1782845444128959500,6.72095947265625,-0.06397179514169693,-0.02791845053434372,-0.0346732921898365
1782845444138963500,6.73096337890625,-0.06850875169038773,-0.040460873395204544,0.0004926847759634256
1782845444148968400,6.740968505859375,-0.08998581767082214,-0.05086131766438484,0.044500354677438736
1782845444158972400,6.750972412109375,-0.09596727788448334,-0.03846989572048187,0.06000501289963722
1782845444168977400,6.760977294921875,-0.09066705405712128,-0.030350182205438614,0.07028880715370178
1782845444178981400,6.7709814453125,-0.0869213193655014,-0.0216528307646513,0.0907493457198143
1782845444188986600,6.780986572265625,-0.08006075024604797,-0.011197260580956936,0.11177580058574677
1782845444198990300,6.790990234375,-0.07516505569219589,-0.005407015793025494,0.12289529293775558
1782845444208995300,6.800995361328125,-0.0655132308602333,0.021339377388358116,0.12383006513118744
1782845444218999300,6.810999267578125,-0.05302007496356964,0.04818696901202202,0.11898098140954971
1782845444229004300,6.82100439453125,-0.04256210848689079,0.062365371733903885,0.11668773740530014
1782845444239009300,6.83100927734375,-0.04836913198232651,0.06744614988565445,0.1268753856420517
1782845444249013500,6.841013427734375,-0.05759138986468315,0.07091332226991653,0.13300438225269318
1782845444259018500,6.8510185546875,-0.058456651866436005,0.0623302198946476,0.13483957946300507
1782845444269022500,6.8610224609375,-0.05846810340881348,0.03852635249495506,0.10344836115837097
1782845444279027500,6.87102734375,-0.05609389394521713,0.006173740141093731,0.03585786744952202
1782845444289031400,6.881031494140625,-0.06476381421089172,-0.021877601742744446,-0.04868284985423088
1782845444299036400,6.891036376953125,-0.08806008100509644,-0.04392058774828911,-0.13631416857242584
1782845444309040400,6.901040283203125,-0.12968821823596954,-0.05547257885336876,-0.2306923270225525
1782845444319045400,6.91104541015625,-0.16511571407318115,-0.04711504653096199,-0.31728607416152954
1782845444329049300,6.92104931640625,-0.18855606019496918,-0.03893594816327095,-0.4012768566608429
1782845444339054300,6.931054443359375,-0.20805120468139648,-0.03172304108738899,-0.4632616639137268
1782845444349059300,6.941059326171875,-0.2178516387939453,-0.0278012715280056,-0.49709978699684143
1782845444359063300,6.951063232421875,-0.22421978414058685,-0.04429662600159645,-0.49561721086502075
1782845444369068300,6.961068359375,-0.21365396678447723,-0.0804346576333046,-0.4483996331691742
1782845444379072500,6.971072509765625,-0.18066751956939697,-0.1106889620423317,-0.3768990635871887
1782845444389077500,6.981077392578125,-0.14610235393047333,-0.11525361984968185,-0.289157509803772
1782845444399081500,6.99108154296875,-0.11405253410339355,-0.10936830192804337,-0.20557846128940582
1782845444409086500,7.00108642578125,-0.08052466809749603,-0.07646281272172928,-0.13177932798862457
1782845444419090400,7.01109033203125,-0.053824614733457565,-0.04068857431411743,-0.08078805357217789
1782845444429095400,7.021095458984375,-0.028738703578710556,-0.01088806800544262,-0.05072203278541565
1782845444439099400,7.031099365234375,-0.007992412894964218,0.03447169065475464,-0.032222118228673935
1782845444449104400,7.0411044921875,0.023749804124236107,0.0719199925661087,-0.025176459923386574
1782845444459108400,7.0511083984375,0.043163981288671494,0.05763506516814232,-0.01824052259325981
1782845444469113300,7.06111328125,0.05128289386630058,0.05571546033024788,-0.042518697679042816
1782845444479118300,7.071118408203125,0.07988710701465607,0.06334222108125687,-0.08879351615905762
1782845444489122300,7.081122314453125,0.10949879884719849,0.047572311013936996,-0.138527512550354
1782845444499127300,7.091127197265625,0.13705451786518097,0.03377341106534004,-0.18110081553459167
1782845444509131500,7.101131591796875,0.1503748595714569,0.030421821400523186,-0.21759463846683502
1782845444519136500,7.111136474609375,0.1661764532327652,0.011845740489661694,-0.24958373606204987
1782845444529140500,7.121140380859375,0.19226877391338348,0.009707221761345863,-0.27348747849464417
1782845444539145500,7.1311455078125,0.22431433200836182,0.015303322114050388,-0.29511579871177673
1782845444549149400,7.1411494140625,0.2550123333930969,0.0271325521171093,-0.30684807896614075
1782845444559154400,7.151154541015625,0.27577778697013855,0.02889423258602619,-0.31018075346946716
1782845444569158400,7.161158447265625,0.2972188889980316,0.0337505079805851,-0.3181726336479187
1782845444579163400,7.171163330078125,0.3157518208026886,0.042866505682468414,-0.3064102530479431
1782845444589168400,7.18116845703125,0.3319403827190399,0.05643824115395546,-0.28364449739456177
1782845444599172400,7.19117236328125,0.33482059836387634,0.06640059500932693,-0.24506089091300964
1782845444609177300,7.20117724609375,0.32496610283851624,0.08342884480953217,-0.19182643294334412
1782845444619181300,7.211181396484375,0.3060709834098816,0.09542132914066315,-0.13911688327789307
1782845444629186300,7.221186279296875,0.2829297184944153,0.11071053147315979,-0.08290953189134598
1782845444639190500,7.2311904296875,0.261735737323761,0.11137738823890686,-0.03999188914895058
1782845444649195500,7.241195556640625,0.246942937374115,0.11712422221899033,-0.03280534967780113
1782845444659199500,7.251199462890625,0.24152714014053345,0.11839695274829865,-0.03952024504542351
1782845444669204500,7.26120458984375,0.23578615486621857,0.10230959206819534,-0.055690426379442215
1782845444679208400,7.27120849609375,0.22654232382774353,0.0869079977273941,-0.0831148624420166
1782845444689213400,7.28121337890625,0.21752487123012543,0.08428638428449631,-0.10758797824382782
1782845444699218400,7.291218505859375,0.2102070301771164,0.087587371468544,-0.13712084293365479
1782845444709222400,7.301222412109375,0.2141655534505844,0.09887544810771942,-0.15369422733783722
1782845444719227400,7.311227294921875,0.21710781753063202,0.1151452288031578,-0.1564900130033493
1782845444729231400,7.3212314453125,0.2165469527244568,0.12441249936819077,-0.14325302839279175
1782845444739236400,7.331236328125,0.22478118538856506,0.13231410086154938,-0.12295015901327133
1782845444749240300,7.341240234375,0.24044562876224518,0.13163073360919952,-0.09951913356781006
1782845444759245300,7.351245361328125,0.25645947456359863,0.12174241244792938,-0.06705013662576675
1782845444769249500,7.36124951171875,0.2634049952030182,0.11857324838638306,-0.027299797162413597
1782845444779254500,7.371254638671875,0.2600259780883789,0.11423895508050919,0.007477623876184225
1782845444789259500,7.381259521484375,0.2517036199569702,0.11684992164373398,0.05002188682556152
1782845444799263500,7.391263427734375,0.2437753826379776,0.11516307294368744,0.0858861431479454
1782845444809268500,7.4012685546875,0.22872638702392578,0.11168072372674942,0.12965546548366547
1782845444819272400,7.4112724609375,0.21349097788333893,0.12004092335700989,0.17476993799209595
1782845444829277400,7.42127734375,0.1967807114124298,0.13307762145996094,0.21103288233280182
1782845444839281400,7.431281494140625,0.1997796893119812,0.14541125297546387,0.22487199306488037
1782845444849286400,7.441286376953125,0.21049146354198456,0.14898867905139923,0.22563739120960236
1782845444859290400,7.451290283203125,0.2265085130929947,0.1402370035648346,0.20384207367897034
1782845444869295400,7.46129541015625,0.2451343834400177,0.12823572754859924,0.1816835105419159
1782845444879299300,7.47129931640625,0.253817617893219,0.11534017324447632,0.1725187748670578
1782845444889304300,7.48130419921875,0.2591703236103058,0.11225783079862595,0.17589113116264343
1782845444899309300,7.491309326171875,0.26497894525527954,0.11378568410873413,0.19051428139209747
1782845444909313500,7.5013134765625,0.2776374816894531,0.10493440181016922,0.2173387110233307
1782845444919318500,7.511318603515625,0.2785557210445404,0.08923374116420746,0.23159487545490265
1782845444929322500,7.521322509765625,0.2607700824737549,0.07845805585384369,0.22140055894851685
1782845444939327500,7.531327392578125,0.22641876339912415,0.07924928516149521,0.1685037910938263
1782845444949331500,7.54133154296875,0.18682794272899628,0.0889972522854805,0.07142943888902664
1782845444959336400,7.55133642578125,0.14527277648448944,0.09061805158853531,-0.0580286830663681
1782845444969340400,7.56134033203125,0.11756151914596558,0.08087114989757538,-0.20301756262779236
1782845444979345400,7.571345458984375,0.10650727152824402,0.07211334258317947,-0.3293667137622833
1782845444989349400,7.581349365234375,0.10719116777181625,0.059300608932971954,-0.4101393222808838
1782845444999354400,7.591354248046875,0.12122895568609238,0.03284290060400963,-0.42669859528541565
1782845445009359400,7.601359375,0.14294783771038055,-0.003979827743023634,-0.38381636142730713
1782845445019363300,7.61136328125,0.17434915900230408,-0.061460431665182114,-0.3114638924598694
1782845445029368300,7.621368408203125,0.18723434209823608,-0.1286967247724533,-0.2222306728363037
1782845445039372500,7.63137255859375,0.20534303784370422,-0.1706998348236084,-0.12351927161216736
1782845445049377500,7.64137744140625,0.2344183623790741,-0.20573239028453827,-0.026212962344288826
1782845445059381500,7.651381591796875,0.2622651755809784,-0.23036636412143707,0.07135114818811417
1782845445069386500,7.661386474609375,0.285604327917099,-0.2364889681339264,0.1767987459897995
1782845445079390500,7.671390380859375,0.2985246479511261,-0.2173490971326828,0.261213481426239
1782845445089395500,7.6813955078125,0.3071942925453186,-0.19099391996860504,0.31227588653564453
1782845445099400400,7.691400390625,0.303384393453598,-0.1597214937210083,0.33298221230506897
1782845445109404400,7.701404296875,0.29008933901786804,-0.12913134694099426,0.32593974471092224
1782845445119409400,7.711409423828125,0.2608800530433655,-0.11413802206516266,0.31730392575263977
1782845445129413400,7.721413330078125,0.21562576293945312,-0.1119299978017807,0.30937862396240234
1782845445139418400,7.73141845703125,0.16330264508724213,-0.12008406221866608,0.29467716813087463
1782845445149422300,7.74142236328125,0.0994432345032692,-0.12668204307556152,0.28706079721450806
1782845445159427300,7.75142724609375,0.024444622918963432,-0.10588914901018143,0.25994157791137695
1782845445169431600,7.761431640625,-0.07133516669273376,-0.07015405595302582,0.22505176067352295
1782845445179436500,7.7714365234375,-0.17242476344108582,-0.03244476020336151,0.1942424476146698
1782845445189441500,7.781441650390625,-0.26462632417678833,0.0008684568456374109,0.17142315208911896
1782845445199445500,7.791445556640625,-0.34582823514938354,0.030099578201770782,0.16636234521865845
1782845445209450500,7.801450439453125,-0.42753908038139343,0.06793244183063507,0.17115549743175507
1782845445219454500,7.811454345703125,-0.4908674657344818,0.08097873628139496,0.20060206949710846
1782845445229459500,7.82145947265625,-0.5332671403884888,0.07073009759187698,0.23022760450839996
1782845445239463400,7.83146337890625,-0.5519289374351501,0.04920056834816933,0.25496038794517517
1782845445249468400,7.841468505859375,-0.5492988228797913,0.027419906109571457,0.26666098833084106
1782845445259472400,7.851472412109375,-0.5383105874061584,0.0013781858142465353,0.26875850558280945
1782845445269477400,7.861477294921875,-0.511732280254364,0.009356217458844185,0.24603240191936493
1782845445279481300,7.8714814453125,-0.44935622811317444,0.031123030930757523,0.21490006148815155
1782845445289486300,7.881486328125,-0.37994280457496643,0.05218197777867317,0.1678619682788849
1782845445299491300,7.8914912109375,-0.2920646071434021,0.0731317326426506,0.12271766364574432
1782845445309495600,7.90149560546875,-0.19361740350723267,0.09716782718896866,0.05868541821837425
1782845445319500500,7.91150048828125,-0.09702907502651215,0.11612021178007126,0.002150502521544695
1782845445329504500,7.92150439453125,-0.009110674262046814,0.11659399420022964,-0.0455070324242115
1782845445339509500,7.931509521484375,0.05859140679240227,0.0997505635023117,-0.06833751499652863
1782845445349513500,7.941513427734375,0.10676559805870056,0.07846444845199585,-0.08164000511169434
1782845445359518500,7.9515185546875,0.14273691177368164,0.050811514258384705,-0.08515377342700958
1782845445369522400,7.9615224609375,0.1689101904630661,0.021327925845980644,-0.07846764475107193
1782845445379527400,7.97152734375,0.17446714639663696,0.004622182343155146,-0.059062253683805466
1782845445389532400,7.981532470703125,0.18106219172477722,-0.0015251922886818647,-0.03759957477450371
1782845445399536400,7.991536376953125,0.1786016970872879,0.000604004948399961,-0.011604458093643188
1782845445409541400,8.001541259765625,0.1628967672586441,0.0070339408703148365,0.004412591457366943
1782845445419545300,8.01154541015625,0.14686907827854156,0.02647208794951439,0.00821132492274046
1782845445429550300,8.02155029296875,0.11963265389204025,0.04274213686585426,0.0062853265553712845
1782845445439554600,8.031554443359376,0.08440756052732468,0.06252463161945343,0.02155109867453575
1782845445449559600,8.0415595703125,0.0543479286134243,0.08635059744119644,0.03506317734718323
1782845445459563500,8.0515634765625,0.015517973341047764,0.09849115461111069,0.05980554223060608
1782845445469568500,8.061568603515624,-0.018390724435448647,0.10878746956586838,0.08083652704954147
1782845445479572500,8.071572509765625,-0.04993533715605736,0.1100868210196495,0.10335648059844971
1782845445489577500,8.081577392578126,-0.0838397741317749,0.09664984047412872,0.12640294432640076
1782845445499582500,8.09158251953125,-0.11779507249593735,0.07546412944793701,0.15803490579128265
1782845445509586400,8.10158642578125,-0.15389582514762878,0.051235757768154144,0.18083103001117706
1782845445519591400,8.11159130859375,-0.18808548152446747,0.023176159709692,0.19713783264160156
1782845445529595400,8.121595458984375,-0.2128203958272934,-0.007419566623866558,0.20898570120334625
1782845445539600400,8.131600341796876,-0.22614072263240814,-0.028242023661732674,0.2146952599287033
1782845445549604400,8.141604248046875,-0.23295468091964722,-0.027580760419368744,0.20716410875320435
1782845445559609300,8.151609375,-0.2212333232164383,-0.0011760519118979573,0.19056329131126404
1782845445569614300,8.1616142578125,-0.19521743059158325,0.01577390357851982,0.17837026715278625
1782845445579618600,8.17161865234375,-0.15770894289016724,0.03370017185807228,0.16458281874656677
1782845445589623600,8.18162353515625,-0.10986098647117615,0.05592132359743118,0.14786669611930847
1782845445599627500,8.19162744140625,-0.06970638036727905,0.07769586145877838,0.14450764656066895
1782845445609632500,8.201632568359376,-0.029625004157423973,0.08656658232212067,0.13472984731197357
1782845445619636500,8.211636474609374,-5.326322138898831e-7,0.07028774172067642,0.12514300644397736
1782845445629641500,8.221641357421875,0.035113245248794556,0.04198473319411278,0.10507049411535263
1782845445639645400,8.2316455078125,0.06334861367940903,0.014997324906289577,0.08104851096868515
1782845445649650400,8.241650390625,0.09525620937347412,-0.012748286128044128,0.044387705624103546
1782845445659655400,8.251655517578126,0.11850560456514359,-0.034995801746845245,0.007702927105128765
1782845445669659400,8.261659423828124,0.13716238737106323,-0.05649390071630478,-0.02076333574950695
1782845445679664400,8.271664306640625,0.14571033418178558,-0.08017952740192413,-0.030349649488925934
1782845445689668400,8.28166845703125,0.1381799727678299,-0.07996487617492676,-0.04038817062973976
1782845445699673300,8.29167333984375,0.12424764782190323,-0.0817987248301506,-0.04952866956591606
1782845445709677600,8.301677490234376,0.10969720035791397,-0.0757107362151146,-0.05458228662610054
1782845445719682600,8.3116826171875,0.08516202867031097,-0.078013576567173,-0.03399099037051201
1782845445729686500,8.3216865234375,0.05643930658698082,-0.07655443251132965,-0.015915317460894585
1782845445739691500,8.33169140625,0.014284662902355194,-0.07810705155134201,0.0054821171797811985
1782845445749696500,8.341696533203125,-0.028061196208000183,-0.07245901972055435,0.024148479104042053
1782845445759700500,8.351700439453126,-0.058460112661123276,-0.05980314686894417,0.037760429084300995
1782845445769705700,8.361705810546875,-0.07803434878587723,-0.046172820031642914,0.0786047950387001
1782845445779709700,8.371709716796875,-0.08284694701433182,-0.02941860817372799,0.12454645335674286
1782845445789714700,8.381714599609374,-0.07828442007303238,-0.016559801995754242,0.16185840964317322
1782845445799719000,8.391718994140625,-0.06837985664606094,0.004653341136872768,0.18870148062705994
1782845445809724000,8.401723876953126,-0.04616563022136688,0.018220016732811928,0.19474925100803375
1782845445819728000,8.411727783203125,-0.013459083624184132,0.01798059791326523,0.1863725334405899
1782845445829732900,8.42173291015625,0.02057291939854622,0.029834328219294548,0.16062882542610168
1782845445839737900,8.43173779296875,0.055696550756692886,0.04517227038741112,0.13051806390285492
1782845445849741800,8.441741943359375,0.08594819903373718,0.0447501614689827,0.10530991107225418
1782845445859746800,8.451746826171876,0.121798075735569,0.03530818969011307,0.08003198355436325
1782845445869750800,8.461750732421875,0.1575091928243637,0.03242851421236992,0.06863711774349213
1782845445879755800,8.471755859375,0.17130756378173828,0.04093172028660774,0.07422523200511932
1782845445889759700,8.481759765625,0.1668238788843155,0.051901012659072876,0.06553320586681366
1782845445899764700,8.4917646484375,0.15867246687412262,0.04108165577054024,0.035949479788541794
1782845445909768700,8.501768798828126,0.14871810376644135,0.01187982875853777,0.0015728629659861326
1782845445919773700,8.511773681640625,0.13902126252651215,0.002770220162346959,-0.04300951957702637
1782845445929778700,8.52177880859375,0.1226835772395134,0.012197277508676052,-0.07802636176347733
1782845445939783000,8.531782958984374,0.10043792426586151,0.021335115656256676,-0.10197190195322037
1782845445949788000,8.541787841796875,0.081833615899086,0.014970960095524788,-0.1204337328672409
1782845445959791900,8.5517919921875,0.07882397621870041,0.029892385005950928,-0.10344436764717102
1782845445969796900,8.561796875,0.06721898168325424,0.1152549535036087,0.008808405138552189
1782845445979800600,8.571800537109375,0.013118199072778225,0.16816744208335876,0.11231588572263718
1782845445989805800,8.581805908203124,-0.02455274760723114,0.1507096141576767,0.12112323194742203
1782845445999809800,8.591809814453125,-0.03677452728152275,0.06905123591423035,0.07516825199127197
1782845446009814800,8.601814697265626,-0.02966308780014515,-0.04869883134961128,0.01233522966504097
1782845446019819800,8.61181982421875,-0.016269518062472343,-0.1325780153274536,-0.04892626404762268
1782845446029823700,8.62182373046875,-0.011713647283613682,-0.16892004013061523,-0.07624576985836029
1782845446039828700,8.631828857421874,-0.007106112781912088,-0.12819285690784454,-0.006115150637924671
1782845446049832700,8.641832763671875,-0.012210593558847904,-0.09752389043569565,0.07964875549077988
