time,seconds_elapsed,z,y,x
1782846197571320000,0.062320068359375,-0.983184814453125,-0.0210113525390625,0.0052337646484375
1782846197581325000,0.072324951171875,-0.9868621826171875,-0.0220794677734375,0.0023956298828125
1782846197591330000,0.082330078125,-0.9970245361328125,-0.0213470458984375,0.00103759765625
1782846197601335000,0.0923349609375,-0.9929962158203125,-0.020477294921875,0.0015869140625
1782846197611340000,0.102340087890625,-0.9834747314453125,-0.0226287841796875,0.0048675537109375
1782846197621345000,0.112344970703125,-0.991119384765625,-0.021636962890625,0.004180908203125
1782846197631350000,0.12235009765625,-0.99615478515625,-0.0224151611328125,0.001495361328125
1782846197641355000,0.13235498046875,-0.98858642578125,-0.023529052734375,0.003753662109375
1782846197651360000,0.142360107421875,-0.986907958984375,-0.0226593017578125,0.0034332275390625
1782846197661365000,0.152364990234375,-0.9933929443359375,-0.02178955078125,0.0025177001953125
1782846197671370000,0.162369873046875,-0.9922332763671875,-0.0216522216796875,0.001708984375
1782846197681375000,0.172375,-0.986968994140625,-0.02178955078125,0.0031280517578125
1782846197691380000,0.1823798828125,-0.9896087646484375,-0.0221099853515625,0.0034332275390625
1782846197701385000,0.192385009765625,-0.9930877685546875,-0.0218658447265625,0.0035400390625
1782846197711390000,0.202389892578125,-0.9917144775390625,-0.02081298828125,0.003326416015625
1782846197721394200,0.212394287109375,-0.988067626953125,-0.020965576171875,0.00347900390625
1782846197731399200,0.222399169921875,-0.9915313720703125,-0.02203369140625,0.002197265625
1782846197741405000,0.232405029296875,-0.9914093017578125,-0.02069091796875,0.0034637451171875
1782846197751409200,0.2424091796875,-0.99090576171875,-0.0201263427734375,0.0018310546875
1782846197761414100,0.2524140625,-0.9892578125,-0.0211181640625,0.0036163330078125
1782846197771419100,0.262419189453125,-0.991302490234375,-0.0209808349609375,0.00286865234375
1782846197781424000,0.272424072265625,-0.9903106689453125,-0.021514892578125,0.0029754638671875
1782846197791429000,0.28242919921875,-0.9870758056640625,-0.020660400390625,0.0035552978515625
1782846197801434000,0.29243408203125,-0.9910736083984375,-0.0214691162109375,0.00311279296875
1782846197811439000,0.302439208984375,-0.992462158203125,-0.0219268798828125,0.004425048828125
1782846197821444000,0.312444091796875,-0.989837646484375,-0.0210418701171875,0.0044708251953125
1782846197831449000,0.322448974609375,-0.990264892578125,-0.0218353271484375,0.0043182373046875
1782846197841454000,0.3324541015625,-0.9890594482421875,-0.0228424072265625,0.00274658203125
1782846197851459000,0.342458984375,-0.9905853271484375,-0.0220184326171875,0.0035247802734375
1782846197861464000,0.352464111328125,-0.990325927734375,-0.0221710205078125,0.0032958984375
1782846197871469000,0.362468994140625,-0.98876953125,-0.0228729248046875,0.002960205078125
1782846197881474000,0.37247412109375,-0.9915313720703125,-0.0226898193359375,0.00335693359375
1782846197891479000,0.38247900390625,-0.99114990234375,-0.020782470703125,0.0029144287109375
1782846197901484000,0.392484130859375,-0.989532470703125,-0.0207672119140625,0.0025177001953125
1782846197911489000,0.402489013671875,-0.991241455078125,-0.0206451416015625,0.0041961669921875
1782846197921494000,0.412493896484375,-0.9895172119140625,-0.02081298828125,0.0039215087890625
1782846197931499000,0.4224990234375,-0.9904022216796875,-0.0211944580078125,0.0023956298828125
1782846197941504000,0.43250390625,-0.9899444580078125,-0.0207977294921875,0.0034942626953125
1782846197951509000,0.442509033203125,-0.9902191162109375,-0.0200347900390625,0.0017852783203125
1782846197961514000,0.452513916015625,-0.99224853515625,-0.0206451416015625,0.0006561279296875
1782846197971519000,0.46251904296875,-0.99005126953125,-0.022735595703125,0.002838134765625
1782846197981524000,0.47252392578125,-0.99053955078125,-0.0223236083984375,0.0030364990234375
1782846197991529000,0.482529052734375,-0.9906005859375,-0.0221099853515625,0.0032806396484375
1782846198001534000,0.492533935546875,-0.9895477294921875,-0.0228118896484375,0.00238037109375
1782846198011539000,0.5025390625,-0.9903106689453125,-0.0213165283203125,0.0023040771484375
1782846198021544000,0.5125439453125,-0.9895782470703125,-0.0207366943359375,0.0041046142578125
1782846198031549000,0.522548828125,-0.990142822265625,-0.0233612060546875,0.0045166015625
1782846198041554000,0.532553955078125,-0.9899749755859375,-0.0210113525390625,0.0022430419921875
1782846198051559000,0.542558837890625,-0.9903411865234375,-0.0220947265625,0.0024261474609375
1782846198061564000,0.55256396484375,-0.9926300048828125,-0.02276611328125,-0.000030517578125
1782846198071569000,0.56256884765625,-0.9904632568359375,-0.0218505859375,0.002410888671875
1782846198081574000,0.572573974609375,-0.99090576171875,-0.0216217041015625,0.00262451171875
1782846198091579000,0.582578857421875,-0.9920196533203125,-0.021392822265625,0.002044677734375
1782846198101584000,0.592583984375,-0.9892730712890625,-0.0219573974609375,0.001220703125
1782846198111588900,0.6025888671875,-0.989593505859375,-0.0220794677734375,0.0018157958984375
1782846198121593900,0.61259375,-0.9909820556640625,-0.021453857421875,0.00177001953125
1782846198131598800,0.622598876953125,-0.989501953125,-0.021636962890625,0.0014801025390625
1782846198141603800,0.632603759765625,-0.9917144775390625,-0.0214385986328125,0.0030364990234375
1782846198151608800,0.64260888671875,-0.9919586181640625,-0.0208892822265625,0.002197265625
1782846198161613800,0.65261376953125,-0.9895477294921875,-0.0219573974609375,0.001708984375
1782846198171618800,0.662618896484375,-0.98870849609375,-0.02203369140625,0.0023345947265625
1782846198181623800,0.672623779296875,-0.9888916015625,-0.0215911865234375,0.0020599365234375
1782846198191629000,0.682629150390625,-0.9889373779296875,-0.0211639404296875,0.002471923828125
1782846198201634000,0.692634033203125,-0.9885711669921875,-0.0213165283203125,0.00372314453125
1782846198211639000,0.70263916015625,-0.9906463623046875,-0.0216064453125,0.002288818359375
1782846198221644000,0.71264404296875,-0.991729736328125,-0.02301025390625,0.0017852783203125
1782846198231649000,0.72264892578125,-0.9892120361328125,-0.02142333984375,0.00225830078125
1782846198241654000,0.732654052734375,-0.9896087646484375,-0.0230560302734375,0.001953125
1782846198251659300,0.7426591796875,-0.99066162109375,-0.022064208984375,0.00360107421875
1782846198261664300,0.752664306640625,-0.99127197265625,-0.0207061767578125,0.002197265625
1782846198271669200,0.762669189453125,-0.9896392822265625,-0.02191162109375,0.0018768310546875
1782846198281674200,0.77267431640625,-0.9920806884765625,-0.0210418701171875,0.0024871826171875
1782846198291679200,0.78267919921875,-0.9906158447265625,-0.0214996337890625,0.0020904541015625
1782846198301684200,0.792684326171875,-0.990692138671875,-0.0204925537109375,0.002166748046875
1782846198311689200,0.802689208984375,-0.990966796875,-0.02001953125,0.0036773681640625
1782846198321694200,0.812694091796875,-0.9898681640625,-0.0201873779296875,0.0014495849609375
1782846198331699200,0.82269921875,-0.990509033203125,-0.0202484130859375,0.003631591796875
1782846198341704200,0.8327041015625,-0.9897918701171875,-0.0218963623046875,0.0028076171875
1782846198351709200,0.842709228515625,-0.991912841796875,-0.021484375,0.002655029296875
1782846198361714200,0.852714111328125,-0.9909210205078125,-0.02239990234375,0.0025482177734375
1782846198371719200,0.86271923828125,-0.9908599853515625,-0.022308349609375,0.0019989013671875
1782846198381724200,0.87272412109375,-0.9892425537109375,-0.02239990234375,0.003082275390625
1782846198391729200,0.882729248046875,-0.9896697998046875,-0.0222930908203125,0.0027618408203125
1782846198401734100,0.892734130859375,-0.990631103515625,-0.0214691162109375,0.0022735595703125
1782846198411739100,0.9027392578125,-0.9903717041015625,-0.0220489501953125,0.0015869140625
1782846198421744000,0.912744140625,-0.990142822265625,-0.022369384765625,0.0017242431640625
1782846198431749000,0.9227490234375,-0.9912567138671875,-0.0226593017578125,0.0013885498046875
1782846198441754000,0.932754150390625,-0.989593505859375,-0.021392822265625,0.0030059814453125
1782846198451759000,0.942759033203125,-0.9908294677734375,-0.0220794677734375,0.002716064453125
1782846198461764000,0.95276416015625,-0.9910888671875,-0.0217437744140625,0.00262451171875
1782846198471769000,0.96276904296875,-0.9904937744140625,-0.0224761962890625,0.0030670166015625
1782846198481774800,0.97277490234375,-0.989654541015625,-0.0218963623046875,0.0017852783203125
1782846198491779800,0.98277978515625,-0.991851806640625,-0.0216827392578125,0.00146484375
1782846198501784800,0.992784912109375,-0.9919586181640625,-0.0204925537109375,0.0011444091796875
1782846198511789800,1.002789794921875,-0.99017333984375,-0.020843505859375,0.0022735595703125
1782846198521794800,1.012794921875,-0.990081787109375,-0.02197265625,0.001922607421875
1782846198531799800,1.0227998046875,-0.99090576171875,-0.02081298828125,0.00103759765625
1782846198541804800,1.0328046875,-0.9902801513671875,-0.020263671875,0.0041961669921875
1782846198551809800,1.042809814453125,-0.9900054931640625,-0.020599365234375,0.0031280517578125
1782846198561814800,1.052814697265625,-0.991424560546875,-0.021820068359375,0.005218505859375
1782846198571819800,1.06281982421875,-0.9902191162109375,-0.021240234375,0.0030670166015625
1782846198581824800,1.07282470703125,-0.991241455078125,-0.0216064453125,0.0019073486328125
1782846198591829800,1.082829833984375,-0.990234375,-0.021728515625,0.0037384033203125
1782846198601834800,1.092834716796875,-0.9914703369140625,-0.0220947265625,0.00396728515625
1782846198611839700,1.10283984375,-0.990570068359375,-0.0222930908203125,0.0037994384765625
1782846198621844700,1.1128447265625,-0.9893951416015625,-0.022613525390625,0.0011138916015625
1782846198631849700,1.122849609375,-0.9909515380859375,-0.0222930908203125,0.0022430419921875
1782846198641854700,1.132854736328125,-0.9903411865234375,-0.0214080810546875,0.0017852783203125
1782846198651859700,1.142859619140625,-0.989837646484375,-0.021820068359375,0.0024261474609375
1782846198661864700,1.15286474609375,-0.99072265625,-0.020965576171875,0.0012664794921875
1782846198671869700,1.16286962890625,-0.990570068359375,-0.0209197998046875,0.0005950927734375
1782846198681874700,1.172874755859375,-0.9908599853515625,-0.02008056640625,0.002471923828125
1782846198691879700,1.182879638671875,-0.9910888671875,-0.0213623046875,0.001922607421875
1782846198701884700,1.192884765625,-0.990692138671875,-0.020050048828125,0.0025482177734375
1782846198711889700,1.2028896484375,-0.990997314453125,-0.02166748046875,0.0019073486328125
1782846198721894700,1.212894775390625,-0.9907989501953125,-0.0206756591796875,0.003021240234375
1782846198731899600,1.222899658203125,-0.9899749755859375,-0.021148681640625,0.001739501953125
1782846198741904600,1.232904541015625,-0.9889984130859375,-0.022064208984375,0.002838134765625
1782846198751909600,1.24290966796875,-0.98992919921875,-0.0223541259765625,0.0030670166015625
1782846198761914600,1.25291455078125,-0.9905548095703125,-0.023101806640625,0.0039215087890625
1782846198771919600,1.262919677734375,-0.989166259765625,-0.0215301513671875,0.0038604736328125
1782846198781924600,1.272924560546875,-0.989837646484375,-0.0220489501953125,0.0023651123046875
1782846198791929600,1.2829296875,-0.991241455078125,-0.0229034423828125,0.0032196044921875
1782846198801934600,1.2929345703125,-0.9907379150390625,-0.022552490234375,0.0019378662109375
1782846198811939800,1.30293994140625,-0.9900054931640625,-0.022735595703125,0.002532958984375
1782846198821944800,1.31294482421875,-0.9900054931640625,-0.02142333984375,0.00445556640625
1782846198831949800,1.32294970703125,-0.990081787109375,-0.021026611328125,0.0035247802734375
1782846198841954800,1.332954833984375,-0.991363525390625,-0.0208282470703125,0.002777099609375
1782846198851959800,1.342959716796875,-0.9901123046875,-0.021942138671875,0.001739501953125
1782846198861964800,1.35296484375,-0.9910430908203125,-0.0211029052734375,0.001800537109375
1782846198871969800,1.3629697265625,-0.9907684326171875,-0.0229034423828125,0.0044708251953125
1782846198881974800,1.372974853515625,-0.989837646484375,-0.022216796875,0.0020904541015625
1782846198891979800,1.382979736328125,-0.9898223876953125,-0.021697998046875,0.002716064453125
1782846198901984800,1.39298486328125,-0.9918670654296875,-0.0215606689453125,0.0023345947265625
1782846198911989800,1.40298974609375,-0.99066162109375,-0.0208587646484375,0.001922607421875
1782846198921994800,1.412994873046875,-0.9925384521484375,-0.0198211669921875,0.0042877197265625
1782846198931999700,1.422999755859375,-0.991058349609375,-0.0222015380859375,0.003448486328125
1782846198942004700,1.433004638671875,-0.989410400390625,-0.02166748046875,0.0028076171875
1782846198952009700,1.443009765625,-0.9898529052734375,-0.0216522216796875,0.003082275390625
1782846198962014700,1.4530146484375,-0.990814208984375,-0.0223388671875,0.0013580322265625
1782846198972019700,1.463019775390625,-0.991546630859375,-0.0229644775390625,0.0034942626953125
1782846198982024700,1.473024658203125,-0.9897918701171875,-0.02178955078125,0.0040130615234375
1782846198992029700,1.48302978515625,-0.991119384765625,-0.0211944580078125,0.0020294189453125
1782846199002035000,1.493034912109375,-0.99072265625,-0.021209716796875,0.0022430419921875
1782846199012040000,1.5030400390625,-0.9918670654296875,-0.0220184326171875,0.00335693359375
1782846199022045000,1.513044921875,-0.9907989501953125,-0.022003173828125,0.004364013671875
1782846199032050000,1.5230498046875,-0.9891204833984375,-0.0218505859375,0.002655029296875
1782846199042055000,1.533054931640625,-0.9899139404296875,-0.02093505859375,0.0026397705078125
1782846199052060000,1.543059814453125,-0.9905853271484375,-0.022613525390625,0.0019378662109375
1782846199062065000,1.55306494140625,-0.9908447265625,-0.021820068359375,0.0026702880859375
1782846199072070000,1.56306982421875,-0.989837646484375,-0.02008056640625,0.002960205078125
1782846199082075000,1.573074951171875,-0.9908447265625,-0.0209197998046875,0.00347900390625
1782846199092079900,1.583079833984375,-0.990447998046875,-0.0205841064453125,0.0017242431640625
1782846199102084900,1.5930849609375,-0.9901123046875,-0.0202484130859375,0.002655029296875
1782846199112089900,1.60308984375,-0.9896240234375,-0.0213470458984375,0.0032806396484375
1782846199122094800,1.6130947265625,-0.98907470703125,-0.021240234375,0.002105712890625
1782846199132099800,1.623099853515625,-0.99078369140625,-0.0229339599609375,0.0023345947265625
1782846199142104800,1.633104736328125,-0.9906158447265625,-0.0228118896484375,0.001800537109375
1782846199152109800,1.64310986328125,-0.9900360107421875,-0.0224456787109375,0.0019683837890625
1782846199162114800,1.65311474609375,-0.9906463623046875,-0.021392822265625,0.0007781982421875
1782846199172119800,1.663119873046875,-0.9914093017578125,-0.02252197265625,0.0030059814453125
1782846199182124800,1.673124755859375,-0.990234375,-0.0225982666015625,0.00250244140625
1782846199192129800,1.6831298828125,-0.9900360107421875,-0.0204925537109375,0.002532958984375
1782846199202134800,1.693134765625,-0.9891510009765625,-0.0224151611328125,0.0033111572265625
1782846199212139800,1.703139892578125,-0.9903106689453125,-0.0220489501953125,0.00360107421875
1782846199222144800,1.713144775390625,-0.99066162109375,-0.021453857421875,0.002410888671875
1782846199232149800,1.723149658203125,-0.991668701171875,-0.0200958251953125,0.00238037109375
1782846199242154800,1.73315478515625,-0.9905242919921875,-0.0211639404296875,0.0005035400390625
1782846199252159700,1.74315966796875,-0.99090576171875,-0.021697998046875,0.0013885498046875
1782846199262164700,1.753164794921875,-0.9914398193359375,-0.0209808349609375,0.0020904541015625
1782846199272169700,1.763169677734375,-0.990570068359375,-0.0206756591796875,0.00244140625
1782846199282174700,1.7731748046875,-0.990997314453125,-0.0203704833984375,0.002349853515625
1782846199292179700,1.7831796875,-0.99029541015625,-0.02154541015625,0.002410888671875
1782846199302184700,1.793184814453125,-0.9906463623046875,-0.02130126953125,0.002197265625
1782846199312189700,1.803189697265625,-0.9904327392578125,-0.0223236083984375,0.003387451171875
1782846199322194700,1.813194580078125,-0.9907989501953125,-0.0220184326171875,0.0044708251953125
1782846199332200000,1.823199951171875,-0.9913787841796875,-0.0219268798828125,0.004425048828125
1782846199342205000,1.833204833984375,-0.991241455078125,-0.0223846435546875,0.00274658203125
1782846199352210000,1.8432099609375,-0.9903106689453125,-0.0217437744140625,0.003692626953125
1782846199362215000,1.85321484375,-0.990814208984375,-0.02130126953125,0.004241943359375
1782846199372220000,1.863219970703125,-0.9914093017578125,-0.02056884765625,0.0028839111328125
1782846199382225000,1.873224853515625,-0.991058349609375,-0.0207977294921875,0.002960205078125
1782846199392230000,1.88322998046875,-0.990234375,-0.021728515625,0.0038299560546875
1782846199402235000,1.89323486328125,-0.9896697998046875,-0.02252197265625,0.00360107421875
1782846199412240000,1.903239990234375,-0.9900970458984375,-0.0211639404296875,0.004852294921875
1782846199422244900,1.913244873046875,-0.9917449951171875,-0.023040771484375,0.003143310546875
1782846199432249900,1.923249755859375,-0.99029541015625,-0.0228271484375,0.001739501953125
1782846199442254800,1.9332548828125,-0.9899139404296875,-0.0213470458984375,0.0037841796875
1782846199452259800,1.943259765625,-0.9907073974609375,-0.021728515625,0.003692626953125
1782846199462264800,1.953264892578125,-0.98992919921875,-0.020721435546875,0.0027923583984375
1782846199472269800,1.963269775390625,-0.9909820556640625,-0.0225677490234375,0.0019378662109375
1782846199482274300,1.9732744140625,-0.99273681640625,-0.0218505859375,0.00250244140625
1782846199492279600,1.983279541015625,-0.990570068359375,-0.0202484130859375,0.0038909912109375
1782846199502284500,1.993284423828125,-0.98992919921875,-0.0215301513671875,0.0033111572265625
1782846199512289500,2.00328955078125,-0.990020751953125,-0.021270751953125,0.004058837890625
1782846199522294500,2.01329443359375,-0.9902191162109375,-0.0204925537109375,0.0040283203125
1782846199532299500,2.023299560546875,-0.99151611328125,-0.02154541015625,0.0030059814453125
1782846199542304500,2.033304443359375,-0.9910125732421875,-0.022674560546875,0.00140380859375
1782846199552309500,2.0433095703125,-0.9909515380859375,-0.0218048095703125,0.0028839111328125
1782846199562314500,2.053314453125,-0.9918060302734375,-0.021392822265625,0.0032806396484375
1782846199572319500,2.063319580078125,-0.99102783203125,-0.020172119140625,0.002471923828125
1782846199582324500,2.073324462890625,-0.9900665283203125,-0.022125244140625,0.0021209716796875
1782846199592329500,2.08332958984375,-0.9901123046875,-0.0206756591796875,0.0023956298828125
1782846199602334500,2.09333447265625,-0.9904327392578125,-0.0210723876953125,0.0007171630859375
1782846199612339500,2.10333935546875,-0.991485595703125,-0.0211334228515625,0.001922607421875
1782846199622344400,2.113344482421875,-0.990814208984375,-0.0222015380859375,0.0002288818359375
1782846199632349400,2.123349365234375,-0.990936279296875,-0.022125244140625,0.0027618408203125
1782846199642354400,2.1333544921875,-0.9896087646484375,-0.02166748046875,0.002777099609375
1782846199652359400,2.143359375,-0.9907073974609375,-0.0209808349609375,0.0027313232421875
1782846199662364400,2.153364501953125,-0.99029541015625,-0.02099609375,0.003173828125
1782846199672369400,2.163369384765625,-0.9895782470703125,-0.022308349609375,0.0027008056640625
1782846199682374400,2.17337451171875,-0.9907073974609375,-0.021942138671875,0.002532958984375
1782846199692379400,2.18337939453125,-0.990875244140625,-0.0209808349609375,0.0037994384765625
1782846199702384400,2.19338427734375,-0.9915618896484375,-0.0223846435546875,0.002166748046875
1782846199712389400,2.203389404296875,-0.9912261962890625,-0.02294921875,0.00311279296875
1782846199722394400,2.213394287109375,-0.9910125732421875,-0.02099609375,0.0034332275390625
1782846199732399400,2.2233994140625,-0.991455078125,-0.02130126953125,0.003570556640625
1782846199742404400,2.233404296875,-0.98980712890625,-0.021148681640625,0.0028228759765625
1782846199752409300,2.243409423828125,-0.99127197265625,-0.02178955078125,0.004058837890625
1782846199762414300,2.253414306640625,-0.9901580810546875,-0.0214385986328125,0.0024261474609375
1782846199772419300,2.26341943359375,-0.989959716796875,-0.0203857421875,0.0043792724609375
1782846199782424600,2.273424560546875,-0.9898834228515625,-0.0208740234375,0.003082275390625
1782846199792429600,2.2834296875,-0.990966796875,-0.0206298828125,0.0035552978515625
1782846199802434600,2.2934345703125,-0.989166259765625,-0.0220947265625,0.0028228759765625
1782846199812439600,2.303439453125,-0.98992919921875,-0.0202789306640625,0.0020294189453125
1782846199822444500,2.313444580078125,-0.9916534423828125,-0.0218353271484375,0.00225830078125
1782846199832449500,2.323449462890625,-0.99102783203125,-0.0215301513671875,0.0024566650390625
1782846199842454500,2.33345458984375,-0.9892425537109375,-0.02142333984375,0.001678466796875
1782846199852459500,2.34345947265625,-0.989471435546875,-0.02203369140625,0.00177001953125
1782846199862464500,2.353464599609375,-0.9896697998046875,-0.0212554931640625,0.0030364990234375
1782846199872469500,2.363469482421875,-0.9908447265625,-0.022674560546875,0.0017547607421875
1782846199882474500,2.373474609375,-0.989776611328125,-0.0214080810546875,0.0030975341796875
1782846199892479500,2.3834794921875,-0.9907379150390625,-0.022186279296875,0.00421142578125
1782846199902484500,2.393484375,-0.99005126953125,-0.02239990234375,0.0031890869140625
1782846199912489500,2.403489501953125,-0.9892425537109375,-0.022369384765625,0.0040740966796875
1782846199922494500,2.413494384765625,-0.9911956787109375,-0.023101806640625,0.0035400390625
1782846199932499500,2.42349951171875,-0.990875244140625,-0.021331787109375,0.00250244140625
1782846199942504400,2.43350439453125,-0.9914093017578125,-0.0217437744140625,0.0037994384765625
1782846199952509400,2.443509521484375,-0.99212646484375,-0.02069091796875,0.0037078857421875
1782846199962514400,2.453514404296875,-0.9896087646484375,-0.0208892822265625,0.0019989013671875
1782846199972519400,2.46351953125,-0.9904327392578125,-0.02154541015625,0.004425048828125
1782846199982524400,2.4735244140625,-0.99041748046875,-0.0211944580078125,0.0026092529296875
1782846199992529400,2.483529296875,-0.991546630859375,-0.021484375,0.0034942626953125
1782846200002534400,2.493534423828125,-0.989471435546875,-0.021209716796875,0.00225830078125
1782846200012539400,2.503539306640625,-0.990234375,-0.02166748046875,0.001007080078125
1782846200022544400,2.51354443359375,-0.99053955078125,-0.02130126953125,0.00323486328125
1782846200032549400,2.52354931640625,-0.9901580810546875,-0.0218353271484375,0.0026092529296875
1782846200042554400,2.533554443359375,-0.9901885986328125,-0.0220947265625,0.001983642578125
1782846200052559400,2.543559326171875,-0.9905853271484375,-0.0221710205078125,0.0034027099609375
1782846200062564400,2.553564453125,-0.9904327392578125,-0.0219573974609375,0.00408935546875
1782846200072569300,2.5635693359375,-0.99029541015625,-0.02105712890625,0.0026702880859375
1782846200082574300,2.57357421875,-0.991424560546875,-0.021942138671875,0.00408935546875
1782846200092579300,2.583579345703125,-0.9905242919921875,-0.02191162109375,0.00244140625
1782846200102584300,2.593584228515625,-0.9893035888671875,-0.0212554931640625,0.001953125
1782846200112589300,2.60358935546875,-0.9904327392578125,-0.0219268798828125,0.00396728515625
1782846200122594300,2.61359423828125,-0.9893951416015625,-0.0222320556640625,0.0020599365234375
1782846200132599300,2.623599365234375,-0.9908447265625,-0.0214996337890625,0.002532958984375
1782846200142604300,2.633604248046875,-0.99041748046875,-0.021759033203125,0.00164794921875
1782846200152609300,2.643609375,-0.9898834228515625,-0.0209197998046875,0.001861572265625
1782846200162614300,2.6536142578125,-0.9910888671875,-0.0218963623046875,0.0022430419921875
1782846200172619300,2.663619384765625,-0.990570068359375,-0.021453857421875,0.001708984375
1782846200182624300,2.673624267578125,-0.990020751953125,-0.021697998046875,0.0019683837890625
1782846200192629200,2.683629150390625,-0.9911041259765625,-0.0214996337890625,0.0023651123046875
1782846200202634200,2.69363427734375,-0.9904022216796875,-0.0216217041015625,0.0025634765625
1782846200212639200,2.70363916015625,-0.98919677734375,-0.021087646484375,0.003387451171875
1782846200222644200,2.713644287109375,-0.990264892578125,-0.0215301513671875,0.0020751953125
1782846200232649200,2.723649169921875,-0.9906005859375,-0.0220947265625,0.0042572021484375
1782846200242654200,2.733654296875,-0.9896697998046875,-0.020721435546875,0.0027618408203125
1782846200252659200,2.7436591796875,-0.991241455078125,-0.02239990234375,0.0031585693359375
1782846200262664200,2.753664306640625,-0.99078369140625,-0.0229644775390625,0.00274658203125
1782846200272669400,2.76366943359375,-0.9912109375,-0.0210723876953125,0.0019683837890625
1782846200282674400,2.77367431640625,-0.990447998046875,-0.021514892578125,0.0016326904296875
1782846200292679400,2.783679443359375,-0.9906005859375,-0.0225067138671875,0.00341796875
1782846200302684400,2.793684326171875,-0.9897918701171875,-0.02069091796875,0.0036468505859375
1782846200312689400,2.803689453125,-0.9896392822265625,-0.0210418701171875,0.002655029296875
1782846200322694400,2.8136943359375,-0.9909210205078125,-0.0216064453125,0.0023651123046875
1782846200332699400,2.823699462890625,-0.9912567138671875,-0.022064208984375,0.002471923828125
1782846200342704400,2.833704345703125,-0.9904632568359375,-0.023040771484375,0.0023956298828125
1782846200352709400,2.84370947265625,-0.9888763427734375,-0.0216827392578125,0.0023345947265625
1782846200362714600,2.853714599609375,-0.9905242919921875,-0.020965576171875,0.002899169921875
1782846200372719600,2.8637197265625,-0.9906463623046875,-0.0208892822265625,0.0013580322265625
1782846200382724600,2.873724609375,-0.9909820556640625,-0.0208587646484375,0.00311279296875
1782846200392729600,2.8837294921875,-0.9903411865234375,-0.021942138671875,0.0026397705078125
1782846200402734600,2.893734619140625,-0.990692138671875,-0.020721435546875,0.00177001953125
1782846200412739600,2.903739501953125,-0.9907684326171875,-0.020294189453125,0.0031585693359375
1782846200422744600,2.91374462890625,-0.9915618896484375,-0.02166748046875,0.001708984375
1782846200432749600,2.92374951171875,-0.99053955078125,-0.0216217041015625,0.00146484375
1782846200442754600,2.933754638671875,-0.989532470703125,-0.02093505859375,0.002532958984375
1782846200452759600,2.943759521484375,-0.9905548095703125,-0.0227508544921875,0.0031585693359375
1782846200462764500,2.9537646484375,-0.9903717041015625,-0.0210723876953125,0.00238037109375
1782846200472769500,2.96376953125,-0.9906158447265625,-0.0214385986328125,0.002960205078125
1782846200482773500,2.9737734375,-0.9901885986328125,-0.0220184326171875,0.0031890869140625
1782846200492778500,2.983778564453125,-0.990142822265625,-0.02105712890625,0.002685546875
1782846200502783500,2.993783447265625,-0.9915008544921875,-0.02105712890625,0.0037689208984375
1782846200512788500,3.00378857421875,-0.989959716796875,-0.021392822265625,0.002532958984375
1782846200522793500,3.01379345703125,-0.9917449951171875,-0.0228118896484375,0.003662109375
1782846200532798500,3.023798583984375,-0.99139404296875,-0.02069091796875,0.00244140625
1782846200542803500,3.033803466796875,-0.9896392822265625,-0.020416259765625,0.002899169921875
1782846200552808400,3.043808349609375,-0.99072265625,-0.021331787109375,0.0042877197265625
1782846200562813400,3.0538134765625,-0.9910736083984375,-0.0214385986328125,0.002166748046875
1782846200572818400,3.063818359375,-0.9899139404296875,-0.02130126953125,0.0021514892578125
1782846200582823400,3.073823486328125,-0.99029541015625,-0.0213165283203125,0.003814697265625
1782846200592828400,3.083828369140625,-0.9906768798828125,-0.0207977294921875,0.0041351318359375
1782846200602833400,3.09383349609375,-0.991302490234375,-0.0217742919921875,0.00311279296875
1782846200612838400,3.10383837890625,-0.9926605224609375,-0.0219879150390625,0.0030670166015625
1782846200622843400,3.113843505859375,-0.990234375,-0.0230712890625,0.0019378662109375
1782846200632848400,3.123848388671875,-0.990325927734375,-0.021728515625,0.003692626953125
1782846200642853400,3.133853271484375,-0.99127197265625,-0.021026611328125,0.0037689208984375
1782846200652858400,3.1438583984375,-0.9901580810546875,-0.021392822265625,0.0023651123046875
1782846200662863600,3.153863525390625,-0.990936279296875,-0.0206756591796875,0.0016937255859375
1782846200672868600,3.16386865234375,-0.990997314453125,-0.021026611328125,0.002838134765625
1782846200682873600,3.17387353515625,-0.9896240234375,-0.0220184326171875,0.0026092529296875
1782846200692878600,3.183878662109375,-0.98907470703125,-0.02215576171875,0.001373291015625
1782846200702883600,3.193883544921875,-0.989501953125,-0.0216064453125,0.0029449462890625
1782846200712888600,3.203888671875,-0.99078369140625,-0.02081298828125,0.003814697265625
1782846200722893600,3.2138935546875,-0.99053955078125,-0.02203369140625,0.0019073486328125
1782846200732898600,3.223898681640625,-0.990081787109375,-0.0218658447265625,0.000762939453125
1782846200742903600,3.233903564453125,-0.990325927734375,-0.02008056640625,0.001220703125
1782846200752908500,3.243908447265625,-0.9890899658203125,-0.0212860107421875,0.00323486328125
1782846200762913500,3.25391357421875,-0.9909515380859375,-0.0213623046875,0.0014495849609375
1782846200772918500,3.26391845703125,-0.99029541015625,-0.0225982666015625,0.0003204345703125
1782846200782923500,3.273923583984375,-0.991729736328125,-0.02008056640625,0.0024261474609375
1782846200792928800,3.2839287109375,-0.991485595703125,-0.021270751953125,0.0021209716796875
1782846200802933800,3.293933837890625,-0.99114990234375,-0.0214080810546875,0.0032958984375
1782846200812938800,3.303938720703125,-0.9903564453125,-0.02215576171875,0.003143310546875
1782846200822943700,3.31394384765625,-0.9911041259765625,-0.0220184326171875,0.0022125244140625
1782846200832948700,3.32394873046875,-0.9900665283203125,-0.021514892578125,0.0028076171875
1782846200842953700,3.33395361328125,-0.9908447265625,-0.0211181640625,0.0026702880859375
1782846200852958700,3.343958740234375,-0.9882354736328125,-0.0218658447265625,0.0019073486328125
1782846200862963700,3.353963623046875,-0.99053955078125,-0.0225982666015625,0.002197265625
1782846200872968700,3.36396875,-0.9917755126953125,-0.0211944580078125,0.00189208984375
1782846200882973700,3.3739736328125,-0.991363525390625,-0.0208587646484375,0.0020751953125
1782846200892978700,3.383978759765625,-0.9902191162109375,-0.02154541015625,0.001739501953125
1782846200902983700,3.393983642578125,-0.9898834228515625,-0.021453857421875,0.00286865234375
1782846200912988700,3.40398876953125,-0.9900970458984375,-0.02197265625,0.003082275390625
1782846200922993700,3.41399365234375,-0.990997314453125,-0.02093505859375,0.0028533935546875
1782846200932998700,3.42399853515625,-0.9906768798828125,-0.0211944580078125,0.003204345703125
1782846200943003600,3.434003662109375,-0.98974609375,-0.0213623046875,0.0015869140625
1782846200953008600,3.444008544921875,-0.9909210205078125,-0.0205078125,0.002716064453125
1782846200963013600,3.454013671875,-0.99029541015625,-0.019378662109375,0.002777099609375
1782846200973018600,3.4640185546875,-0.99053955078125,-0.022796630859375,0.00299072265625
1782846200983023600,3.474023681640625,-0.9893951416015625,-0.022216796875,0.0029449462890625
1782846200993028600,3.484028564453125,-0.991851806640625,-0.0212554931640625,0.0004730224609375
1782846201003033600,3.49403369140625,-0.9903717041015625,-0.022369384765625,0.003692626953125
1782846201013038600,3.50403857421875,-0.9902801513671875,-0.02117919921875,0.0037078857421875
1782846201023043600,3.514043701171875,-0.9912109375,-0.022430419921875,0.0033111572265625
1782846201033048600,3.524048583984375,-0.9909820556640625,-0.0217437744140625,0.0050811767578125
1782846201043053600,3.534053466796875,-0.9906463623046875,-0.0223388671875,0.0032501220703125
1782846201053058600,3.54405859375,-0.9909820556640625,-0.02093505859375,0.0020294189453125
1782846201063063600,3.5540634765625,-0.9909515380859375,-0.0223236083984375,0.002685546875
1782846201073068500,3.564068603515625,-0.9907989501953125,-0.0213775634765625,0.0028076171875
1782846201083073500,3.574073486328125,-0.989837646484375,-0.0213165283203125,0.0029144287109375
1782846201093078500,3.58407861328125,-0.9891815185546875,-0.0201873779296875,0.00335693359375
1782846201103083500,3.59408349609375,-0.990020751953125,-0.021331787109375,0.0025177001953125
1782846201113088500,3.604088623046875,-0.9906463623046875,-0.0211334228515625,0.00146484375
1782846201123093500,3.614093505859375,-0.991455078125,-0.0220489501953125,0.0021820068359375
1782846201133098500,3.624098388671875,-0.991241455078125,-0.02081298828125,0.0005340576171875
1782846201143103500,3.634103515625,-0.989654541015625,-0.02294921875,0.0004425048828125
1782846201153108500,3.6441083984375,-0.9900360107421875,-0.0234222412109375,0.00115966796875
1782846201163113500,3.654113525390625,-0.990875244140625,-0.0221710205078125,0.003204345703125
1782846201173118500,3.664118408203125,-0.9899444580078125,-0.022003173828125,0.0041961669921875
1782846201183123700,3.674123779296875,-0.9912567138671875,-0.0216217041015625,0.0032196044921875
1782846201193128700,3.684128662109375,-0.99090576171875,-0.0203094482421875,0.0026702880859375
1782846201203133700,3.6941337890625,-0.990081787109375,-0.0208587646484375,0.0021514892578125
1782846201213138700,3.704138671875,-0.9924468994140625,-0.0210418701171875,0.004364013671875
1782846201223143700,3.714143798828125,-0.990447998046875,-0.0218353271484375,0.0035858154296875
1782846201233148700,3.724148681640625,-0.991302490234375,-0.020904541015625,0.00323486328125
1782846201243153700,3.734153564453125,-0.99090576171875,-0.0210418701171875,0.0036468505859375
1782846201253158700,3.74415869140625,-0.98931884765625,-0.0230255126953125,0.0028533935546875
1782846201263163600,3.75416357421875,-0.990386962890625,-0.022796630859375,0.00152587890625
1782846201273168600,3.764168701171875,-0.99005126953125,-0.0224609375,0.00250244140625
1782846201283173600,3.774173583984375,-0.98907470703125,-0.0208587646484375,0.00250244140625
1782846201293178600,3.7841787109375,-0.9907989501953125,-0.020599365234375,0.001068115234375
1782846201303183600,3.79418359375,-0.9898681640625,-0.020965576171875,0.0031585693359375
1782846201313188600,3.804188720703125,-0.988372802734375,-0.0213775634765625,0.00335693359375
1782846201323193600,3.814193603515625,-0.99029541015625,-0.0213165283203125,0.0038604736328125
1782846201333198600,3.824198486328125,-0.98956298828125,-0.0205535888671875,0.001251220703125
1782846201343203600,3.83420361328125,-0.989654541015625,-0.0204315185546875,0.002532958984375
1782846201353208600,3.84420849609375,-0.9900360107421875,-0.0204620361328125,0.003753662109375
1782846201363213600,3.854213623046875,-0.990447998046875,-0.0202484130859375,0.003936767578125
1782846201373218600,3.864218505859375,-0.990509033203125,-0.021942138671875,0.003570556640625
1782846201383223600,3.8742236328125,-0.99041748046875,-0.020477294921875,0.0038604736328125
1782846201393228500,3.884228515625,-0.992218017578125,-0.022705078125,0.0020599365234375
1782846201403233500,3.894233642578125,-0.9915924072265625,-0.021331787109375,0.003173828125
1782846201413238500,3.904238525390625,-0.989990234375,-0.0216064453125,0.0025634765625
1782846201423243500,3.914243408203125,-0.98980712890625,-0.022064208984375,0.00152587890625
1782846201433248500,3.92424853515625,-0.990203857421875,-0.022735595703125,0.0013885498046875
1782846201443253500,3.93425341796875,-0.9898834228515625,-0.021636962890625,0.0005645751953125
1782846201453258500,3.944258544921875,-0.991119384765625,-0.020538330078125,0.0020599365234375
1782846201463263500,3.954263427734375,-0.9917755126953125,-0.0225372314453125,0.0023345947265625
1782846201473268500,3.9642685546875,-0.992156982421875,-0.0207977294921875,0.002655029296875
1782846201483274500,3.9742744140625,-0.9903717041015625,-0.021026611328125,0.0037384033203125
1782846201493279500,3.984279541015625,-0.989166259765625,-0.0212249755859375,0.0030975341796875
1782846201503284500,3.994284423828125,-0.9904937744140625,-0.021453857421875,0.0024566650390625
1782846201513289500,4.00428955078125,-0.9920654296875,-0.02191162109375,0.0019073486328125
1782846201523294500,4.01429443359375,-0.990997314453125,-0.0213165283203125,0.000518798828125
1782846201533299500,4.024299560546875,-0.9902801513671875,-0.021270751953125,0.0027923583984375
1782846201543304400,4.034304443359375,-0.99017333984375,-0.0223388671875,0.004058837890625
1782846201553309400,4.044309326171875,-0.99066162109375,-0.021881103515625,0.0033721923828125
1782846201563314400,4.054314453125,-0.99017333984375,-0.02056884765625,0.0031585693359375
1782846201573319400,4.0643193359375,-0.9910736083984375,-0.0212860107421875,0.003326416015625
1782846201583324400,4.074324462890625,-0.9910125732421875,-0.01995849609375,0.0018310546875
1782846201593329400,4.084329345703125,-0.9899749755859375,-0.020751953125,0.001861572265625
1782846201603334400,4.09433447265625,-0.990753173828125,-0.020538330078125,0.0013427734375
1782846201613339400,4.10433935546875,-0.99041748046875,-0.0218658447265625,0.0023956298828125
1782846201623344400,4.114344482421875,-0.9903411865234375,-0.0218353271484375,0.0030670166015625
1782846201633349400,4.124349365234375,-0.9903717041015625,-0.0213623046875,0.0021820068359375
1782846201643354400,4.134354248046875,-0.991729736328125,-0.0208892822265625,0.00347900390625
1782846201653359400,4.144359375,-0.9898223876953125,-0.0217132568359375,0.0034332275390625
1782846201663364400,4.1543642578125,-0.9902191162109375,-0.021484375,0.00244140625
1782846201673369300,4.164369384765625,-0.98907470703125,-0.0220794677734375,0.002685546875
1782846201683374300,4.174374267578125,-0.9914093017578125,-0.021820068359375,0.0019683837890625
1782846201693379300,4.18437939453125,-0.9911041259765625,-0.020782470703125,0.002288818359375
1782846201703384300,4.19438427734375,-0.990509033203125,-0.02178955078125,0.00115966796875
1782846201713389300,4.204389404296875,-0.9914398193359375,-0.02264404296875,0.0031585693359375
1782846201723394300,4.214394287109375,-0.990875244140625,-0.0224151611328125,0.0035858154296875
1782846201733399300,4.2243994140625,-0.990020751953125,-0.0212249755859375,0.0032958984375
1782846201743404300,4.234404296875,-0.9899444580078125,-0.02056884765625,0.0023040771484375
1782846201753409300,4.2444091796875,-0.9891815185546875,-0.0211639404296875,0.001953125
1782846201763414300,4.254414306640625,-0.9911346435546875,-0.022003173828125,0.0032806396484375
1782846201773419300,4.264419189453125,-0.991424560546875,-0.022125244140625,0.0020599365234375
1782846201783424300,4.27442431640625,-0.9909210205078125,-0.020843505859375,0.003265380859375
1782846201793429200,4.28442919921875,-0.9904632568359375,-0.02166748046875,0.0035858154296875
1782846201803434500,4.2944345703125,-0.990478515625,-0.02056884765625,0.0037994384765625
1782846201813439500,4.304439453125,-0.9897613525390625,-0.0223236083984375,0.0028533935546875
1782846201823444500,4.314444580078125,-0.9901275634765625,-0.0219879150390625,0.002777099609375
1782846201833449500,4.324449462890625,-0.989471435546875,-0.0223846435546875,0.00262451171875
1782846201843454500,4.334454345703125,-0.9896240234375,-0.0220794677734375,0.0017852783203125
1782846201853459500,4.34445947265625,-0.9912109375,-0.0201416015625,0.0023345947265625
1782846201863464400,4.35446435546875,-0.9910888671875,-0.0194854736328125,0.002166748046875
1782846201873469400,4.364469482421875,-0.9904327392578125,-0.0214385986328125,0.0028228759765625
1782846201883474400,4.374474365234375,-0.9893646240234375,-0.0202789306640625,0.00177001953125
1782846201893479400,4.3844794921875,-0.99072265625,-0.0221405029296875,0.003082275390625
1782846201903484400,4.394484375,-0.990203857421875,-0.0228118896484375,0.0022430419921875
1782846201913489400,4.404489501953125,-0.9901885986328125,-0.0219573974609375,0.0022430419921875
1782846201923494400,4.414494384765625,-0.9923248291015625,-0.020721435546875,0.002777099609375
1782846201933499400,4.42449951171875,-0.9895172119140625,-0.02130126953125,0.00482177734375
1782846201943504400,4.43450439453125,-0.9907684326171875,-0.0223541259765625,0.003143310546875
1782846201953509400,4.44450927734375,-0.9905853271484375,-0.0208587646484375,0.0040740966796875
1782846201963514400,4.454514404296875,-0.98980712890625,-0.020599365234375,0.002105712890625
1782846201973519400,4.464519287109375,-0.9895782470703125,-0.0207977294921875,0.00311279296875
1782846201983524400,4.4745244140625,-0.9895477294921875,-0.0221099853515625,0.00201416015625
1782846201993529300,4.484529296875,-0.989044189453125,-0.021697998046875,0.0025177001953125
1782846202003534300,4.494534423828125,-0.991363525390625,-0.021209716796875,0.0027008056640625
1782846202013539300,4.504539306640625,-0.990692138671875,-0.0221405029296875,0.0041656494140625
1782846202023544300,4.51454443359375,-0.9913787841796875,-0.0223541259765625,0.0044403076171875
1782846202033549300,4.52454931640625,-0.9908599853515625,-0.021514892578125,0.001739501953125
1782846202043554300,4.53455419921875,-0.990997314453125,-0.0215301513671875,0.002716064453125
1782846202053559300,4.544559326171875,-0.990325927734375,-0.0220794677734375,0.002593994140625
1782846202063564300,4.554564208984375,-0.9900665283203125,-0.0200958251953125,0.001953125
1782846202073569300,4.5645693359375,-0.989898681640625,-0.020965576171875,0.00323486328125
1782846202083574300,4.57457421875,-0.990875244140625,-0.020416259765625,0.0028228759765625
1782846202093579300,4.584579345703125,-0.9906768798828125,-0.0202178955078125,0.0026092529296875
1782846202103584500,4.59458447265625,-0.9906768798828125,-0.0202789306640625,0.00274658203125
1782846202113589500,4.604589599609375,-0.9911956787109375,-0.0208892822265625,0.00299072265625
1782846202123594500,4.614594482421875,-0.9910888671875,-0.02117919921875,0.004302978515625
1782846202133599500,4.624599609375,-0.99139404296875,-0.02142333984375,0.0024261474609375
1782846202143604500,4.6346044921875,-0.9905548095703125,-0.0210113525390625,0.002166748046875
1782846202153609500,4.644609375,-0.9893035888671875,-0.021636962890625,0.0029754638671875
1782846202163613400,4.654613525390625,-0.9909210205078125,-0.0227813720703125,0.0035858154296875
1782846202173619500,4.664619384765625,-0.9919586181640625,-0.02239990234375,0.0010833740234375
1782846202183624400,4.67462451171875,-0.9896392822265625,-0.0217742919921875,0.0006256103515625
1782846202193628400,4.68462841796875,-0.9907379150390625,-0.021636962890625,0.0018310546875
1782846202203633400,4.69463330078125,-0.9915924072265625,-0.0225067138671875,0.0025177001953125
1782846202213638400,4.704638427734375,-0.9909210205078125,-0.0201873779296875,0.0030975341796875
1782846202223643400,4.714643310546875,-0.990631103515625,-0.0206146240234375,0.003448486328125
1782846202233649400,4.7246494140625,-0.989990234375,-0.021820068359375,0.00335693359375
1782846202243654400,4.734654296875,-0.991851806640625,-0.021453857421875,0.0031890869140625
1782846202253658400,4.744658447265625,-0.9888763427734375,-0.02166748046875,0.003631591796875
1782846202263663400,4.754663330078125,-0.9915313720703125,-0.0204620361328125,0.0021209716796875
1782846202273668600,4.764668701171875,-0.990570068359375,-0.0230712890625,0.0016326904296875
1782846202283673600,4.774673583984375,-0.98980712890625,-0.0211334228515625,0.00213623046875
1782846202293678600,4.7846787109375,-0.9897003173828125,-0.021942138671875,0.00286865234375
1782846202303683600,4.79468359375,-0.989990234375,-0.0209503173828125,0.00177001953125
1782846202313688600,4.8046884765625,-0.98980712890625,-0.0211029052734375,0.00244140625
1782846202323693600,4.814693603515625,-0.9909515380859375,-0.0212554931640625,0.003143310546875
1782846202333698600,4.824698486328125,-0.9906463623046875,-0.02081298828125,0.0014495849609375
1782846202343703600,4.83470361328125,-0.98956298828125,-0.0210723876953125,0.0015716552734375
1782846202353708500,4.84470849609375,-0.9903106689453125,-0.020965576171875,0.0030670166015625
1782846202363713500,4.854713623046875,-0.9912567138671875,-0.0216827392578125,0.0029449462890625
1782846202373718500,4.864718505859375,-0.990753173828125,-0.022796630859375,0.003662109375
1782846202383723500,4.8747236328125,-0.991790771484375,-0.0227813720703125,0.001953125
1782846202393728500,4.884728515625,-0.9909820556640625,-0.0219268798828125,0.00390625
1782846202403733500,4.8947333984375,-0.9926300048828125,-0.0224456787109375,0.00323486328125
1782846202413738500,4.904738525390625,-0.9906768798828125,-0.021240234375,0.002197265625
1782846202423743500,4.914743408203125,-0.9894561767578125,-0.02166748046875,0.0025634765625
1782846202433748500,4.92474853515625,-0.989501953125,-0.022430419921875,0.0023040771484375
1782846202443753500,4.93475341796875,-0.991363525390625,-0.021270751953125,0.002777099609375
1782846202453758500,4.944758544921875,-0.98956298828125,-0.0203399658203125,0.0015716552734375
1782846202463763500,4.954763427734375,-0.989776611328125,-0.021820068359375,0.0020294189453125
1782846202473768400,4.9647685546875,-0.989959716796875,-0.0216064453125,0.00323486328125
1782846202483773200,4.974773193359375,-0.989654541015625,-0.0208892822265625,0.0019073486328125
1782846202493778200,4.984778076171875,-0.990509033203125,-0.02166748046875,0.00372314453125
1782846202503783200,4.994783203125,-0.991943359375,-0.0215301513671875,0.001983642578125
1782846202513788200,5.0047880859375,-0.9911956787109375,-0.01971435546875,0.0034942626953125
1782846202523793200,5.014793212890625,-0.99114990234375,-0.0211181640625,0.00372314453125
1782846202533798100,5.024798095703125,-0.9896392822265625,-0.02081298828125,0.003143310546875
1782846202543803100,5.03480322265625,-0.989532470703125,-0.021026611328125,0.00311279296875
1782846202553808100,5.04480810546875,-0.990631103515625,-0.02166748046875,0.002471923828125
1782846202563813000,5.054813232421875,-0.9883575439453125,-0.02166748046875,0.0023651123046875
1782846202573818000,5.064818115234375,-0.9915008544921875,-0.0225372314453125,0.0018157958984375
1782846202583823000,5.074822998046875,-0.991363525390625,-0.0207672119140625,0.0020904541015625
1782846202593828000,5.084828125,-0.9917144775390625,-0.02166748046875,0.00341796875
1782846202603833000,5.0948330078125,-0.9900970458984375,-0.0213165283203125,0.0032196044921875
1782846202613838000,5.104838134765625,-0.9897918701171875,-0.0209808349609375,0.0043487548828125
1782846202623843000,5.114843017578125,-0.990142822265625,-0.0213775634765625,0.004241943359375
1782846202633848000,5.12484814453125,-0.989990234375,-0.0197906494140625,0.0023956298828125
1782846202643853300,5.134853271484375,-0.9912109375,-0.0202484130859375,0.0027008056640625
1782846202653858300,5.1448583984375,-0.990264892578125,-0.0209808349609375,0.002777099609375
1782846202663863300,5.15486328125,-0.99163818359375,-0.020233154296875,0.0030670166015625
1782846202673868300,5.164868408203125,-0.990234375,-0.0215911865234375,0.0016632080078125
1782846202683873300,5.174873291015625,-0.9904632568359375,-0.0220184326171875,0.00390625
1782846202693878300,5.184878173828125,-0.9916534423828125,-0.02252197265625,0.00213623046875
1782846202703883300,5.19488330078125,-0.991241455078125,-0.021087646484375,0.0016326904296875
1782846202713888300,5.20488818359375,-0.9904937744140625,-0.0216522216796875,0.002288818359375
1782846202723893200,5.214893310546875,-0.988433837890625,-0.0212860107421875,0.0036163330078125
1782846202733898200,5.224898193359375,-0.9913330078125,-0.020599365234375,0.0016937255859375
1782846202743903200,5.2349033203125,-0.9898529052734375,-0.0223846435546875,0.001678466796875
1782846202753908200,5.244908203125,-0.9900665283203125,-0.0216827392578125,0.00274658203125
1782846202763913200,5.254913330078125,-0.990081787109375,-0.0211944580078125,0.0022430419921875
1782846202773918200,5.264918212890625,-0.9897918701171875,-0.0211181640625,0.002166748046875
1782846202783923200,5.274923095703125,-0.99041748046875,-0.02203369140625,0.001953125
1782846202793928200,5.28492822265625,-0.9905242919921875,-0.0216827392578125,0.0037384033203125
1782846202803933200,5.29493310546875,-0.9900665283203125,-0.021728515625,0.001220703125
1782846202813938200,5.304938232421875,-0.9910430908203125,-0.0206451416015625,0.003692626953125
1782846202823943200,5.314943115234375,-0.99066162109375,-0.0216064453125,0.002044677734375
1782846202833948200,5.3249482421875,-0.990570068359375,-0.022216796875,0.001007080078125
1782846202843953200,5.334953125,-0.989166259765625,-0.0204925537109375,0.0022125244140625
1782846202853958100,5.344958251953125,-0.98870849609375,-0.022064208984375,0.0037841796875
1782846202863963100,5.354963134765625,-0.990570068359375,-0.0215606689453125,0.002838134765625
1782846202873968000,5.364968017578125,-0.989990234375,-0.021209716796875,0.0026092529296875
1782846202883973000,5.37497314453125,-0.9911346435546875,-0.0213470458984375,0.0035858154296875
1782846202893978000,5.38497802734375,-0.991729736328125,-0.0196075439453125,0.004791259765625
1782846202903983000,5.394983154296875,-0.9903717041015625,-0.0202789306640625,0.0027923583984375
1782846202913988000,5.404988037109375,-0.99114990234375,-0.0212554931640625,0.0019073486328125
1782846202923993000,5.4149931640625,-0.9895782470703125,-0.02117919921875,0.0024566650390625
1782846202933998000,5.424998046875,-0.9893341064453125,-0.021331787109375,0.0016021728515625
1782846202944003000,5.435003173828125,-0.988861083984375,-0.0197601318359375,0.0015869140625
1782846202954008000,5.445008056640625,-0.9899444580078125,-0.0216064453125,0.002838134765625
1782846202964013000,5.455012939453125,-0.9914703369140625,-0.021453857421875,0.0018463134765625
1782846202974018000,5.46501806640625,-0.9902191162109375,-0.0204925537109375,0.0028076171875
1782846202984023000,5.47502294921875,-0.9903106689453125,-0.0216522216796875,0.00341796875
1782846202994028000,5.485028076171875,-0.989105224609375,-0.021453857421875,0.0032501220703125
1782846203004033000,5.495032958984375,-0.9893798828125,-0.0217437744140625,0.002777099609375
1782846203014038000,5.5050380859375,-0.9897308349609375,-0.021697998046875,0.00244140625
1782846203024043000,5.51504296875,-0.99127197265625,-0.0225830078125,0.0025482177734375
1782846203034048000,5.525048095703125,-0.9915313720703125,-0.0221099853515625,0.0007781982421875
1782846203044053000,5.535052978515625,-0.991973876953125,-0.02032470703125,0.002532958984375
1782846203054058000,5.54505810546875,-0.9911041259765625,-0.0205230712890625,0.001983642578125
1782846203064063000,5.55506298828125,-0.9893341064453125,-0.020751953125,0.001434326171875
1782846203074068000,5.56506787109375,-0.99072265625,-0.0224761962890625,0.0038909912109375
1782846203084073000,5.575072998046875,-0.990936279296875,-0.02178955078125,0.0025177001953125
1782846203094078000,5.585077880859375,-0.992218017578125,-0.02044677734375,0.0013885498046875
1782846203104083000,5.5950830078125,-0.9914398193359375,-0.021240234375,0.00347900390625
1782846203114088000,5.605087890625,-0.9902191162109375,-0.0213165283203125,0.003021240234375
1782846203124093000,5.615093017578125,-0.9904327392578125,-0.02252197265625,0.0025482177734375
1782846203134098200,5.62509814453125,-0.9914093017578125,-0.0212249755859375,0.003814697265625
1782846203144103200,5.635103271484375,-0.991363525390625,-0.02032470703125,0.0031280517578125
1782846203154108200,5.645108154296875,-0.9898681640625,-0.021728515625,0.001007080078125
1782846203164113200,5.655113037109375,-0.9893798828125,-0.0203857421875,0.00238037109375
1782846203174118100,5.6651181640625,-0.9899749755859375,-0.02142333984375,0.002410888671875
1782846203184123400,5.675123291015625,-0.989410400390625,-0.0211181640625,0.003265380859375
1782846203194128400,5.68512841796875,-0.9918975830078125,-0.0210113525390625,0.0029144287109375
1782846203204133400,5.69513330078125,-0.9913787841796875,-0.021392822265625,0.0039520263671875
1782846203214138400,5.705138427734375,-0.9906005859375,-0.0216217041015625,0.003509521484375
1782846203224143400,5.715143310546875,-0.9896697998046875,-0.021636962890625,0.0027008056640625
1782846203234148400,5.7251484375,-0.9908294677734375,-0.021270751953125,0.0030975341796875
1782846203244153300,5.7351533203125,-0.9901123046875,-0.0229339599609375,0.0027923583984375
1782846203254158300,5.745158447265625,-0.989776611328125,-0.0218048095703125,0.0028076171875
1782846203264163300,5.755163330078125,-0.9897003173828125,-0.0224456787109375,0.002166748046875
1782846203274168300,5.765168212890625,-0.9909210205078125,-0.021514892578125,0.002655029296875
1782846203284173300,5.77517333984375,-0.991790771484375,-0.022064208984375,0.00335693359375
1782846203294178300,5.78517822265625,-0.9910736083984375,-0.0219268798828125,0.0014801025390625
1782846203304183300,5.795183349609375,-0.990814208984375,-0.0215911865234375,0.0017242431640625
1782846203314188300,5.805188232421875,-0.99090576171875,-0.0210723876953125,0.0009002685546875
1782846203324193300,5.815193359375,-0.989898681640625,-0.021484375,0.003143310546875
1782846203334198300,5.8251982421875,-0.9912261962890625,-0.0213623046875,0.00384521484375
1782846203344203300,5.835203369140625,-0.99114990234375,-0.022796630859375,0.0037384033203125
1782846203354208300,5.845208251953125,-0.9899749755859375,-0.0220184326171875,0.0026397705078125
1782846203364213200,5.855213134765625,-0.9898223876953125,-0.0206451416015625,0.0026397705078125
1782846203374218200,5.86521826171875,-0.9890899658203125,-0.021270751953125,0.001556396484375
1782846203384223200,5.87522314453125,-0.990203857421875,-0.0208740234375,0.003021240234375
1782846203394228200,5.885228271484375,-0.9909515380859375,-0.021270751953125,0.0028533935546875
1782846203404233200,5.895233154296875,-0.9920196533203125,-0.0233154296875,0.0041961669921875
1782846203414238200,5.90523828125,-0.9891204833984375,-0.0232086181640625,0.003631591796875
1782846203424243200,5.9152431640625,-0.9893951416015625,-0.021820068359375,0.0030364990234375
1782846203434248200,5.925248291015625,-0.9902191162109375,-0.0224609375,0.00323486328125
1782846203444253200,5.935253173828125,-0.991180419921875,-0.0211181640625,0.0034637451171875
1782846203454258200,5.945258056640625,-0.9897613525390625,-0.0218963623046875,0.002166748046875
1782846203464263200,5.95526318359375,-0.9907379150390625,-0.022979736328125,0.003936767578125
1782846203474268200,5.96526806640625,-0.990386962890625,-0.0212860107421875,0.0028076171875
1782846203484273200,5.975273193359375,-0.9901275634765625,-0.021759033203125,0.003082275390625
1782846203494278100,5.985278076171875,-0.99005126953125,-0.0233154296875,0.00341796875
1782846203504283100,5.995283203125,-0.989166259765625,-0.0222930908203125,0.0030364990234375
1782846203514288000,6.0052880859375,-0.990386962890625,-0.0225067138671875,0.003021240234375
1782846203524293000,6.015293212890625,-0.9904022216796875,-0.0211944580078125,0.0032196044921875
1782846203534298000,6.025298095703125,-0.9893035888671875,-0.0213470458984375,0.0028076171875
1782846203544303000,6.03530322265625,-0.9891357421875,-0.0205078125,0.0016021728515625
1782846203554308000,6.04530810546875,-0.9901123046875,-0.0229034423828125,0.001678466796875
1782846203564313000,6.05531298828125,-0.990325927734375,-0.02203369140625,0.0013885498046875
1782846203574318000,6.065318115234375,-0.989959716796875,-0.0211029052734375,0.0024871826171875
1782846203584323000,6.075322998046875,-0.990234375,-0.0206298828125,0.0032806396484375
1782846203594328300,6.085328369140625,-0.9914398193359375,-0.0217437744140625,0.003631591796875
1782846203604333300,6.095333251953125,-0.9900970458984375,-0.0220489501953125,0.0015716552734375
1782846203614338300,6.10533837890625,-0.990478515625,-0.021820068359375,0.0023040771484375
1782846203624343300,6.11534326171875,-0.990753173828125,-0.021270751953125,0.00244140625
1782846203634348300,6.125348388671875,-0.9900970458984375,-0.0202178955078125,0.000701904296875
1782846203644353300,6.135353271484375,-0.9894561767578125,-0.023101806640625,0.0020294189453125
1782846203654358300,6.145358154296875,-0.9912109375,-0.0207366943359375,0.0021209716796875
1782846203664363300,6.15536328125,-0.98992919921875,-0.022186279296875,0.00299072265625
1782846203674368300,6.1653681640625,-0.989593505859375,-0.021881103515625,0.004547119140625
1782846203684373500,6.17537353515625,-0.9895782470703125,-0.0213165283203125,0.003814697265625
1782846203694378500,6.18537841796875,-0.9894256591796875,-0.0215301513671875,0.0012664794921875
1782846203704383500,6.195383544921875,-0.9913177490234375,-0.0221710205078125,0.0003814697265625
1782846203714387200,6.20538720703125,-0.991546630859375,-0.0213165283203125,0.0020599365234375
1782846203724392200,6.21539208984375,-0.9899139404296875,-0.0211181640625,0.003265380859375
1782846203734397200,6.225397216796875,-0.989776611328125,-0.02166748046875,0.0008087158203125
1782846203744402200,6.235402099609375,-0.9911346435546875,-0.0214385986328125,0.0026702880859375
1782846203754407200,6.2454072265625,-0.9924774169921875,-0.02142333984375,0.0030975341796875
1782846203764412400,6.255412353515625,-0.990509033203125,-0.0224456787109375,0.00225830078125
1782846203774417400,6.26541748046875,-0.9907379150390625,-0.0223236083984375,0.002227783203125
1782846203784422400,6.27542236328125,-0.9906463623046875,-0.02239990234375,0.003814697265625
1782846203794427400,6.285427490234375,-0.9912872314453125,-0.0211029052734375,0.0022735595703125
1782846203804432400,6.295432373046875,-0.99017333984375,-0.0211181640625,0.003631591796875
1782846203814437400,6.305437255859375,-0.990936279296875,-0.0217132568359375,0.0034027099609375
1782846203824442400,6.3154423828125,-0.9895172119140625,-0.02069091796875,0.00238037109375
1782846203834447400,6.325447265625,-0.990509033203125,-0.0220489501953125,0.00372314453125
1782846203844452400,6.335452392578125,-0.990234375,-0.02203369140625,0.0025177001953125
1782846203854457300,6.345457275390625,-0.9915313720703125,-0.020843505859375,0.0025634765625
1782846203864462300,6.35546240234375,-0.9899444580078125,-0.0207672119140625,0.002532958984375
1782846203874467300,6.36546728515625,-0.9904327392578125,-0.0221405029296875,0.001312255859375
1782846203884472300,6.375472412109375,-0.990509033203125,-0.021148681640625,0.002349853515625
1782846203894477300,6.385477294921875,-0.9901885986328125,-0.020660400390625,0.0030059814453125
1782846203904482300,6.395482421875,-0.9906463623046875,-0.0221405029296875,0.003631591796875
1782846203914487300,6.4054873046875,-0.9907989501953125,-0.0223846435546875,0.00347900390625
1782846203924492300,6.4154921875,-0.98974609375,-0.0209503173828125,0.00311279296875
1782846203934497300,6.425497314453125,-0.9903717041015625,-0.0209503173828125,0.0022430419921875
1782846203944502300,6.435502197265625,-0.9911651611328125,-0.0221710205078125,0.00360107421875
1782846203954507300,6.44550732421875,-0.9910736083984375,-0.0209808349609375,0.0019073486328125
1782846203964512300,6.45551220703125,-0.989227294921875,-0.021392822265625,0.0019683837890625
1782846203974517200,6.465517333984375,-0.98980712890625,-0.0215606689453125,0.0025787353515625
1782846203984522200,6.475522216796875,-0.991943359375,-0.0215301513671875,0.0026092529296875
1782846203994527200,6.48552734375,-0.9915771484375,-0.0221405029296875,0.0020904541015625
1782846204004532200,6.4955322265625,-0.990875244140625,-0.02130126953125,0.0032958984375
1782846204014537200,6.505537109375,-0.989990234375,-0.022125244140625,0.0019683837890625
1782846204024542200,6.515542236328125,-0.990875244140625,-0.0218505859375,0.004150390625
1782846204034547500,6.52554736328125,-0.990570068359375,-0.0212860107421875,0.002655029296875
1782846204044552400,6.535552490234375,-0.9897003173828125,-0.0225982666015625,0.0015106201171875
1782846204054557400,6.545557373046875,-0.990966796875,-0.0226593017578125,0.003570556640625
1782846204064562400,6.5555625,-0.99005126953125,-0.02130126953125,0.0028228759765625
1782846204074567400,6.5655673828125,-0.989715576171875,-0.023193359375,0.0025177001953125
1782846204084572400,6.575572509765625,-0.990234375,-0.0211944580078125,0.00396728515625
1782846204094577400,6.585577392578125,-0.9895782470703125,-0.0209197998046875,0.002197265625
1782846204104582400,6.59558251953125,-0.9900360107421875,-0.02264404296875,0.0020751953125
1782846204114587400,6.60558740234375,-0.9900665283203125,-0.02069091796875,0.0014190673828125
1782846204124592400,6.61559228515625,-0.9902801513671875,-0.02081298828125,0.0024871826171875
1782846204134597400,6.625597412109375,-0.990142822265625,-0.02337646484375,0.0016632080078125
1782846204144602400,6.635602294921875,-0.991241455078125,-0.022003173828125,0.0024871826171875
1782846204154607400,6.645607421875,-0.9906158447265625,-0.0216827392578125,0.0030670166015625
1782846204164612400,6.6556123046875,-0.98956298828125,-0.0212860107421875,0.00341796875
1782846204174617300,6.665617431640625,-0.9906158447265625,-0.0219573974609375,0.0029296875
1782846204184622300,6.675622314453125,-0.9908599853515625,-0.0215911865234375,0.0022125244140625
1782846204194627300,6.68562744140625,-0.989715576171875,-0.021575927734375,0.002044677734375
1782846204204632300,6.69563232421875,-0.9902801513671875,-0.0212860107421875,0.002593994140625
1782846204214637300,6.70563720703125,-0.9898681640625,-0.021484375,0.002899169921875
1782846204224642300,6.715642333984375,-0.9922027587890625,-0.02001953125,0.0030975341796875
1782846204234647300,6.725647216796875,-0.9894866943359375,-0.0219268798828125,0.002655029296875
1782846204244652300,6.73565234375,-0.990447998046875,-0.02191162109375,0.004364013671875
1782846204254657300,6.7456572265625,-0.990081787109375,-0.0227813720703125,0.0032806396484375
1782846204264662300,6.755662353515625,-0.9901885986328125,-0.0223388671875,0.0021820068359375
1782846204274667300,6.765667236328125,-0.9906768798828125,-0.0216217041015625,0.0029754638671875
1782846204284672300,6.77567236328125,-0.9904022216796875,-0.0231475830078125,0.003997802734375
1782846204294677200,6.78567724609375,-0.990997314453125,-0.0220794677734375,0.001068115234375
1782846204304682200,6.79568212890625,-0.9920501708984375,-0.0217437744140625,0.000762939453125
1782846204314687200,6.805687255859375,-0.99102783203125,-0.0225830078125,0.003143310546875
1782846204324692200,6.815692138671875,-0.9910125732421875,-0.0224151611328125,0.0037841796875
1782846204334697200,6.825697265625,-0.9902801513671875,-0.0208282470703125,0.0028839111328125
1782846204344702200,6.8357021484375,-0.9914398193359375,-0.0220794677734375,0.0042572021484375
1782846204354707200,6.845707275390625,-0.9898529052734375,-0.021881103515625,0.003082275390625
1782846204364712200,6.855712158203125,-0.9902801513671875,-0.0223388671875,0.003448486328125
1782846204374717200,6.86571728515625,-0.989410400390625,-0.0219879150390625,0.0019073486328125
1782846204384722200,6.87572216796875,-0.9899444580078125,-0.020172119140625,0.0033111572265625
1782846204394727200,6.88572705078125,-0.9908294677734375,-0.020233154296875,0.0024871826171875
1782846204404732200,6.895732177734375,-0.99053955078125,-0.0211639404296875,0.00335693359375
1782846204414737200,6.905737060546875,-0.990997314453125,-0.0214691162109375,0.0034637451171875
1782846204424742100,6.9157421875,-0.991180419921875,-0.02117919921875,0.0024566650390625
1782846204434747100,6.9257470703125,-0.9910736083984375,-0.0221710205078125,0.0029296875
1782846204444752100,6.935752197265625,-0.9903564453125,-0.020965576171875,0.0030517578125
1782846204454757000,6.945757080078125,-0.9901275634765625,-0.02154541015625,0.0021820068359375
1782846204464762000,6.95576220703125,-0.9910125732421875,-0.0221405029296875,0.002349853515625
1782846204474767000,6.96576708984375,-0.991943359375,-0.0224609375,0.0028839111328125
1782846204484771800,6.975771728515625,-0.991302490234375,-0.0220794677734375,0.00323486328125
1782846204494777000,6.985777099609375,-0.9924468994140625,-0.021453857421875,0.002288818359375
1782846204504782000,6.995781982421875,-0.990325927734375,-0.0241546630859375,0.003570556640625
1782846204514787000,7.005787109375,-0.9903564453125,-0.0218505859375,0.004791259765625
1782846204524792000,7.0157919921875,-0.990570068359375,-0.02044677734375,0.004547119140625
1782846204534797000,7.025797119140625,-0.9913482666015625,-0.02264404296875,0.002471923828125
1782846204544802000,7.035802001953125,-0.990142822265625,-0.021331787109375,0.0020599365234375
1782846204554807000,7.04580712890625,-0.990570068359375,-0.022186279296875,0.0033416748046875
1782846204564812000,7.05581201171875,-0.99139404296875,-0.0203704833984375,0.0042724609375
1782846204574817000,7.065817138671875,-0.990325927734375,-0.0210113525390625,0.00177001953125
1782846204584822000,7.075822021484375,-0.98980712890625,-0.02227783203125,0.00439453125
1782846204594827000,7.085826904296875,-0.990570068359375,-0.0222625732421875,0.00286865234375
1782846204604832000,7.09583203125,-0.99224853515625,-0.021392822265625,0.00360107421875
1782846204614837000,7.1058369140625,-0.988861083984375,-0.021087646484375,0.0039825439453125
1782846204624842000,7.115842041015625,-0.9894866943359375,-0.0216827392578125,0.0023345947265625
1782846204634846000,7.125845947265625,-0.9910736083984375,-0.020843505859375,0.0033416748046875
1782846204644851000,7.135850830078125,-0.98992919921875,-0.0213165283203125,0.0033721923828125
1782846204654856000,7.14585595703125,-0.99127197265625,-0.0213623046875,0.0019073486328125
1782846204664861000,7.15586083984375,-0.9910736083984375,-0.020599365234375,0.0027618408203125
1782846204674866000,7.165865966796875,-0.9900360107421875,-0.0205841064453125,0.0030517578125
1782846204684871000,7.175870849609375,-0.99005126953125,-0.0227508544921875,0.00177001953125
1782846204694876000,7.1858759765625,-0.9904022216796875,-0.0215301513671875,0.0022125244140625
1782846204704881000,7.195880859375,-0.99151611328125,-0.0203704833984375,0.00164794921875
1782846204714886000,7.205885986328125,-0.9905853271484375,-0.021087646484375,0.00274658203125
1782846204724891000,7.215890869140625,-0.989990234375,-0.0211639404296875,0.002838134765625
1782846204734895900,7.225895751953125,-0.9908905029296875,-0.0214996337890625,0.002899169921875
1782846204744900900,7.23590087890625,-0.99029541015625,-0.021514892578125,0.0030059814453125
1782846204754905900,7.24590576171875,-0.9919586181640625,-0.02130126953125,0.00286865234375
1782846204764910800,7.255910888671875,-0.99114990234375,-0.021270751953125,0.002655029296875
1782846204774915800,7.265915771484375,-0.9897613525390625,-0.0217132568359375,0.0022125244140625
1782846204784920800,7.2759208984375,-0.9910430908203125,-0.0214385986328125,0.0012359619140625
1782846204794925800,7.28592578125,-0.98919677734375,-0.0213623046875,0.0020294189453125
1782846204804930800,7.295930908203125,-0.990509033203125,-0.01947021484375,0.003631591796875
1782846204814935800,7.305935791015625,-0.98980712890625,-0.0198974609375,0.003021240234375
1782846204824940800,7.31594091796875,-0.9908905029296875,-0.021087646484375,0.000946044921875
1782846204834945800,7.32594580078125,-0.9896087646484375,-0.0208892822265625,0.00189208984375
1782846204844951000,7.335950927734375,-0.9900360107421875,-0.021392822265625,0.0027313232421875
1782846204854956000,7.3459560546875,-0.9897613525390625,-0.0209503173828125,0.0028076171875
1782846204864961000,7.3559609375,-0.989166259765625,-0.021636962890625,0.002197265625
1782846204874966000,7.365966064453125,-0.99212646484375,-0.0209808349609375,0.0015869140625
1782846204884971000,7.375970947265625,-0.9911041259765625,-0.021209716796875,0.001983642578125
1782846204894976000,7.38597607421875,-0.9880218505859375,-0.0208740234375,0.0029296875
1782846204904981000,7.39598095703125,-0.99078369140625,-0.0213623046875,0.0030670166015625
1782846204914986000,7.405986083984375,-0.9900970458984375,-0.020721435546875,0.002838134765625
1782846204924991000,7.415990966796875,-0.9888763427734375,-0.020782470703125,0.002777099609375
1782846204934996000,7.425995849609375,-0.99053955078125,-0.0225830078125,0.001983642578125
1782846204945001000,7.4360009765625,-0.9907073974609375,-0.0208587646484375,0.002044677734375
1782846204955006000,7.446005859375,-0.9888763427734375,-0.021026611328125,0.0023040771484375
1782846204965011000,7.456010986328125,-0.9896087646484375,-0.020721435546875,0.0030975341796875
1782846204975016000,7.466015869140625,-0.9893951416015625,-0.0203704833984375,0.0023345947265625
1782846204985021000,7.47602099609375,-0.9911346435546875,-0.0214080810546875,0.003173828125
1782846204995026000,7.48602587890625,-0.9904632568359375,-0.021514892578125,0.0037994384765625
1782846205005031000,7.496031005859375,-0.9898529052734375,-0.0204620361328125,0.0019683837890625
1782846205015036000,7.506035888671875,-0.990264892578125,-0.0199432373046875,0.0030517578125
1782846205025041000,7.516041015625,-0.988006591796875,-0.0223236083984375,0.0028076171875
1782846205035046000,7.5260458984375,-0.9905242919921875,-0.0213623046875,0.003326416015625
1782846205045051000,7.53605078125,-0.9900054931640625,-0.022735595703125,0.0034637451171875
1782846205055056000,7.546055908203125,-0.989501953125,-0.021728515625,0.0018768310546875
1782846205065060900,7.556060791015625,-0.99053955078125,-0.021820068359375,0.00201416015625
1782846205075065900,7.56606591796875,-0.9903717041015625,-0.0221405029296875,0.0036468505859375
1782846205085070800,7.57607080078125,-0.9913482666015625,-0.02154541015625,0.002716064453125
1782846205095075800,7.586075927734375,-0.9915313720703125,-0.0218048095703125,0.0027008056640625
1782846205105080800,7.596080810546875,-0.9897613525390625,-0.0236968994140625,0.0035858154296875
1782846205115085800,7.6060859375,-0.99005126953125,-0.0230712890625,0.0030670166015625
1782846205125090800,7.6160908203125,-0.989715576171875,-0.0207061767578125,0.0028533935546875
1782846205135095800,7.626095703125,-0.9906158447265625,-0.02252197265625,0.0013275146484375
1782846205145100800,7.636100830078125,-0.988983154296875,-0.020660400390625,0.001556396484375
1782846205155105800,7.646105712890625,-0.9906768798828125,-0.021942138671875,0.0036163330078125
1782846205165110800,7.65611083984375,-0.9908447265625,-0.0212554931640625,0.0026397705078125
1782846205175115800,7.66611572265625,-0.990447998046875,-0.021881103515625,0.003631591796875
1782846205185120800,7.676120849609375,-0.9913787841796875,-0.022674560546875,0.0042572021484375
1782846205195125800,7.686125732421875,-0.989410400390625,-0.020477294921875,0.0022430419921875
1782846205205130800,7.696130859375,-0.9906005859375,-0.0201416015625,0.001617431640625
1782846205215135700,7.7061357421875,-0.9902801513671875,-0.02215576171875,0.00323486328125
1782846205225140700,7.716140625,-0.9882659912109375,-0.022064208984375,0.0018310546875
1782846205235145700,7.726145751953125,-0.9897308349609375,-0.021026611328125,0.003631591796875
1782846205245150700,7.736150634765625,-0.9911651611328125,-0.021728515625,0.003814697265625
1782846205255155700,7.74615576171875,-0.9911651611328125,-0.0220489501953125,0.003265380859375
1782846205265160700,7.75616064453125,-0.9905548095703125,-0.0214080810546875,0.0030364990234375
1782846205275165700,7.766165771484375,-0.9907073974609375,-0.020599365234375,0.0025787353515625
1782846205285170700,7.776170654296875,-0.989501953125,-0.021209716796875,0.00140380859375
1782846205295176000,7.786176025390625,-0.9894866943359375,-0.023193359375,0.0030364990234375
1782846205305181000,7.796180908203125,-0.9910125732421875,-0.0217437744140625,0.00201416015625
1782846205315186000,7.80618603515625,-0.99041748046875,-0.0205535888671875,0.0034637451171875
1782846205325191000,7.81619091796875,-0.99066162109375,-0.021209716796875,0.0014801025390625
1782846205335196000,7.82619580078125,-0.9904937744140625,-0.0219573974609375,0.002655029296875
1782846205345201000,7.836200927734375,-0.9894256591796875,-0.0208740234375,0.003143310546875
1782846205355206000,7.846205810546875,-0.988983154296875,-0.0212249755859375,0.0036163330078125
1782846205365211100,7.856211181640625,-0.9908599853515625,-0.02142333984375,0.00299072265625
1782846205375216000,7.866216064453125,-0.9909820556640625,-0.0212554931640625,0.002960205078125
1782846205385219800,7.8762197265625,-0.9903717041015625,-0.0203857421875,0.0037384033203125
1782846205395224800,7.886224853515625,-0.99114990234375,-0.02044677734375,0.003997802734375
1782846205405229800,7.896229736328125,-0.990692138671875,-0.022674560546875,0.0027313232421875
1782846205415234800,7.90623486328125,-0.9904937744140625,-0.02239990234375,0.0041961669921875
1782846205425239800,7.91623974609375,-0.9906463623046875,-0.0219879150390625,0.004150390625
1782846205435244800,7.926244873046875,-0.989532470703125,-0.0227203369140625,0.0020599365234375
1782846205445249800,7.936249755859375,-0.9913177490234375,-0.0220489501953125,0.001495361328125
1782846205455254800,7.9462548828125,-0.99029541015625,-0.0208587646484375,0.00262451171875
1782846205465260000,7.956260009765625,-0.9896392822265625,-0.0218048095703125,0.0024261474609375
1782846205475265000,7.96626513671875,-0.9902191162109375,-0.0218505859375,0.0020294189453125
1782846205485270300,7.976270263671875,-0.9912261962890625,-0.021697998046875,0.00274658203125
1782846205495275300,7.986275146484375,-0.989776611328125,-0.0212554931640625,0.003082275390625
1782846205505280300,7.9962802734375,-0.9913482666015625,-0.02105712890625,0.0019989013671875
1782846205515285200,8.00628515625,-0.9906158447265625,-0.0207061767578125,0.0030975341796875
1782846205525290200,8.016290283203125,-0.98968505859375,-0.02142333984375,0.002593994140625
1782846205535295200,8.026295166015625,-0.9913177490234375,-0.0213623046875,0.0025787353515625
1782846205545300200,8.03630029296875,-0.990264892578125,-0.022003173828125,0.00274658203125
1782846205555305200,8.04630517578125,-0.9909515380859375,-0.022491455078125,0.00299072265625
1782846205565310200,8.056310302734374,-0.990478515625,-0.0217132568359375,0.00262451171875
1782846205575315200,8.066315185546875,-0.9904632568359375,-0.0216064453125,0.003021240234375
1782846205585320200,8.0763203125,-0.9884490966796875,-0.021087646484375,0.001434326171875
1782846205595325200,8.0863251953125,-0.990966796875,-0.0214691162109375,0.00396728515625
1782846205605330200,8.096330078125,-0.9902496337890625,-0.02105712890625,0.001983642578125
1782846205615335200,8.106335205078125,-0.989776611328125,-0.0213470458984375,0.00225830078125
1782846205625340200,8.116340087890626,-0.9911956787109375,-0.021484375,0.0032196044921875
1782846205635345200,8.12634521484375,-0.99090576171875,-0.020843505859375,0.0037689208984375
1782846205645350100,8.13635009765625,-0.990386962890625,-0.02069091796875,0.0021820068359375
1782846205655355100,8.146355224609374,-0.989837646484375,-0.02044677734375,0.002227783203125
1782846205665360100,8.156360107421875,-0.989990234375,-0.0197296142578125,0.0025787353515625
1782846205675365000,8.166365234375,-0.9902191162109375,-0.0205078125,0.0025787353515625
1782846205685370400,8.176370361328125,-0.9915618896484375,-0.021392822265625,0.003448486328125
1782846205695375400,8.186375244140624,-0.989501953125,-0.021484375,0.00103759765625
1782846205705380400,8.19638037109375,-0.9905853271484375,-0.0214080810546875,0.003173828125
1782846205715385300,8.20638525390625,-0.98956298828125,-0.0226898193359375,0.0023193359375
1782846205725390300,8.216390380859375,-0.9896697998046875,-0.0226898193359375,0.00146484375
1782846205735395300,8.226395263671876,-0.989532470703125,-0.0208892822265625,0.0024566650390625
1782846205745400300,8.236400390625,-0.9902801513671875,-0.020355224609375,0.002899169921875
1782846205755405300,8.2464052734375,-0.9907073974609375,-0.0216064453125,0.0020294189453125
1782846205765410300,8.256410400390624,-0.9908599853515625,-0.02239990234375,0.0023345947265625
1782846205775415300,8.266415283203125,-0.9904937744140625,-0.02154541015625,0.003662109375
1782846205785420500,8.276420654296874,-0.99078369140625,-0.0218353271484375,0.0024261474609375
1782846205795425500,8.286425537109375,-0.9906158447265625,-0.021026611328125,0.002685546875
1782846205805430500,8.296430419921874,-0.9891815185546875,-0.0217742919921875,0.0028076171875
1782846205815435500,8.306435546875,-0.9901580810546875,-0.02105712890625,0.0022430419921875
1782846205825440500,8.3164404296875,-0.9907989501953125,-0.0227203369140625,0.004608154296875
1782846205835445500,8.326445556640625,-0.99139404296875,-0.02130126953125,0.003631591796875
1782846205845450500,8.336450439453126,-0.99017333984375,-0.0196685791015625,0.0033721923828125
1782846205855455500,8.34645556640625,-0.9912109375,-0.02081298828125,0.0029754638671875
1782846205865460500,8.35646044921875,-0.9908905029296875,-0.0212554931640625,0.0031890869140625
1782846205875465500,8.366465576171874,-0.9908599853515625,-0.0222625732421875,0.002655029296875
1782846205885470500,8.376470458984375,-0.98968505859375,-0.0220184326171875,0.002410888671875
1782846205895475500,8.386475341796874,-0.990814208984375,-0.020965576171875,0.002105712890625
1782846205905480400,8.39648046875,-0.9902801513671875,-0.0219573974609375,0.001312255859375
1782846205915485400,8.4064853515625,-0.991180419921875,-0.0212249755859375,0.002349853515625
1782846205925490400,8.416490478515625,-0.989959716796875,-0.020843505859375,0.0039215087890625
1782846205935495400,8.426495361328126,-0.991485595703125,-0.02166748046875,0.002288818359375
1782846205945500400,8.43650048828125,-0.989959716796875,-0.0216522216796875,0.0027008056640625
1782846205955505400,8.44650537109375,-0.9901580810546875,-0.0205841064453125,0.0034942626953125
1782846205965510400,8.456510498046875,-0.9909515380859375,-0.021820068359375,0.0035400390625
1782846205975515400,8.466515380859375,-0.990570068359375,-0.0236663818359375,0.0045928955078125
1782846205985520400,8.476520263671874,-0.989715576171875,-0.021728515625,0.002471923828125
1782846205995525400,8.486525390625,-0.9907379150390625,-0.021453857421875,0.004150390625
1782846206005529300,8.496529296875,-0.99102783203125,-0.021881103515625,0.0026092529296875
1782846206015534300,8.506534423828125,-0.9901123046875,-0.021331787109375,0.0035858154296875
1782846206025539300,8.516539306640626,-0.9897003173828125,-0.021942138671875,0.0017852783203125
1782846206035544300,8.52654443359375,-0.990570068359375,-0.020721435546875,0.0017852783203125
1782846206045549300,8.53654931640625,-0.9897918701171875,-0.0225830078125,0.0026397705078125
1782846206055554300,8.54655419921875,-0.9910736083984375,-0.0213165283203125,0.0039215087890625
1782846206065559300,8.556559326171875,-0.9918975830078125,-0.0214691162109375,0.0047607421875
1782846206075564300,8.566564208984374,-0.9915008544921875,-0.0220489501953125,0.004638671875
1782846206085569300,8.5765693359375,-0.990631103515625,-0.0209808349609375,0.0031585693359375
1782846206095574300,8.58657421875,-0.9896087646484375,-0.02154541015625,0.0037078857421875
1782846206105579300,8.596579345703125,-0.9893798828125,-0.0201873779296875,0.00457763671875
1782846206115584300,8.606584228515626,-1.0097503662109375,-0.019683837890625,-0.0001068115234375
1782846206125589200,8.61658935546875,-0.982421875,-0.02362060546875,-0.00030517578125
1782846206135594200,8.62659423828125,-0.971771240234375,-0.0242462158203125,0.0083160400390625
1782846206145599500,8.636599609375,-1.0014190673828125,-0.02215576171875,0.0034027099609375
1782846206155604500,8.6466044921875,-0.988037109375,-0.022552490234375,0.0013580322265625
1782846206165609500,8.656609375,-0.9825286865234375,-0.021453857421875,0.00518798828125
1782846206175614500,8.666614501953125,-0.9976654052734375,-0.018951416015625,0.0040740966796875
1782846206185619500,8.676619384765624,-0.9921417236328125,-0.0218048095703125,0.002593994140625
