time,seconds_elapsed,z,y,x
1782846197583825200,0.0748251953125,-0.0009172114077955484,0.00008934200741350651,-0.0013135066255927086
1782846197593830100,0.084830078125,-0.0007207704475149512,0.013067242689430714,0.0024203876964747906
1782846197603835100,0.094835205078125,0.0016465133521705866,-0.002268570475280285,-0.0013879328034818172
1782846197613840100,0.104840087890625,0.00018687895499169827,-0.006104518659412861,-0.0035870021674782038
1782846197623845000,0.11484521484375,-0.0011843827087432146,0.002668999135494232,0.003539350349456072
1782846197633850000,0.12485009765625,-0.0012960269814357162,0.0046424041502177715,0.0020230510272085667
1782846197643855000,0.134855224609375,0.0010273146908730268,-0.00553912715986371,0.000289066752884537
1782846197653860000,0.144860107421875,0.001924434443935752,-0.0015067839995026588,-0.0018996434519067407
1782846197663865000,0.154864990234375,-0.00046628527343273163,0.004001697991043329,0.0010130557930096984
1782846197673870000,0.1648701171875,-0.0009429031051695347,0.0008653136901557446,0.0017173263477161527
1782846197683875000,0.174875,-0.0019362621242180467,-0.0022236870136111975,-0.0017125587910413742
1782846197693880000,0.184880126953125,-0.00018093339167535305,0.000900662736967206,-0.0032446817494928837
1782846197703885000,0.194885009765625,0.00007286597974598408,0.000915842829272151,-0.0017056409269571304
1782846197713890000,0.20489013671875,-0.0020072355400770903,-0.00004592118784785271,-0.0008303378708660603
1782846197723894000,0.21489404296875,-0.0024192265700548887,-0.0017588664777576923,0.000009623123332858086
1782846197733899000,0.22489892578125,-0.0013416892616078258,0.00023000524379312992,0.0011259879684075713
1782846197743905000,0.234905029296875,-0.0018032151274383068,0.001416976097971201,0.0033619781024754047
1782846197753909000,0.244908935546875,-0.00003445986658334732,-0.002557114465162158,0.0005561881698668003
1782846197763914000,0.2549140625,0.002158653223887086,-0.00034189713187515736,-0.0006736596114933491
1782846197773919200,0.264919189453125,-0.0006667522247880697,0.00112950149923563,-0.00037634698674082756
1782846197783924200,0.27492431640625,-0.002057188656181097,-0.0006486910860985518,0.0009131556143984199
1782846197793929200,0.28492919921875,-0.0004278032574802637,0.000032786745578050613,0.0035155252553522587
1782846197803934200,0.294934326171875,-0.002047537826001644,-0.0023928203154355288,-0.00025497807655483484
1782846197813939200,0.304939208984375,-0.0007929977728053927,-0.00024994462728500366,-0.0012429328635334969
1782846197823944200,0.314944091796875,-0.00022973911836743355,-0.001863553887233138,-0.001722568180412054
1782846197833949200,0.32494921875,-0.0037502183113247156,-0.0007181030232459307,-0.00015602540224790573
1782846197843954200,0.3349541015625,-0.0011666858335956931,-0.00044566160067915916,0.0023785049561411142
1782846197853959200,0.344959228515625,-0.0028515628073364496,-0.001662266906350851,0.0019914372824132442
1782846197863964200,0.354964111328125,0.0008997658733278513,0.00242808205075562,-0.0002450853353366256
1782846197873969200,0.36496923828125,0.00007790862582623959,-0.00140636065043509,0.0020529883913695812
1782846197883974100,0.37497412109375,-0.0006371501367539167,-0.0017187490593641996,0.0033036088570952415
1782846197893979100,0.384979248046875,0.0003148645628243685,0.0009522545151412487,-0.00286582438275218
1782846197903984000,0.394984130859375,0.00026266672648489475,-0.0014701569452881813,-0.00021464726887643337
1782846197913989000,0.404989013671875,0.0015474664978682995,-0.0003605140373110771,0.0022843850310891867
1782846197923994000,0.414994140625,-0.0018800218822434545,-0.0005770290736109018,0.0012396269012242556
1782846197933999000,0.4249990234375,-0.0019082309445366263,0.0017804240342229605,-0.0023689891677349806
1782846197944004000,0.435004150390625,0.000025756657123565674,-0.0017842170782387257,-0.0012238298077136278
1782846197954009000,0.445009033203125,0.0010510690044611692,0.00012205075472593307,0.001550684217363596
1782846197964014000,0.45501416015625,-0.0028371461667120457,0.001285319565795362,0.0022036912851035595
1782846197974019000,0.46501904296875,-0.000939410412684083,-0.0010760573204606771,0.0010716203832998872
1782846197984024000,0.475024169921875,0.0020667656790465117,-0.001908295089378953,-0.0012930002994835377
1782846197994029000,0.485029052734375,-0.0021014672238379717,0.0011001562234014273,0.00027358788065612316
1782846198004034000,0.495033935546875,0.00009857001714408398,0.0005337020847946405,-0.0009575914591550827
1782846198014039000,0.5050390625,-0.0009607983520254493,0.002267082454636693,-0.0010747771011665463
1782846198024044000,0.5150439453125,-0.0008609297219663858,-0.0012924985494464636,-0.00039114360697567463
1782846198034049000,0.525049072265625,-0.003997442778199911,-0.0016369442455470562,0.00006460747681558132
1782846198044054000,0.535053955078125,-0.00042747543193399906,-0.000633731484413147,-0.0008392693707719445
1782846198054059000,0.54505908203125,-0.0007564807310700417,-0.0008965348824858665,-0.000826076720841229
1782846198064064000,0.55506396484375,-0.0015570269897580147,0.00011786329559981823,-0.001929956953972578
1782846198074069000,0.565069091796875,0.000950873363763094,0.002351699862629175,0.0025084991939365864
1782846198084074000,0.575073974609375,-0.0011479638051241636,-0.0011476939544081688,0.000989165622740984
1782846198094079000,0.585078857421875,0.0008115251548588276,0.00019635073840618134,0.00221663573756814
1782846198104084000,0.595083984375,-0.0013102153316140175,-0.0007157819345593452,-0.0014566623140126467
1782846198114089000,0.6050888671875,-0.0038829538971185684,0.0007410955149680376,-0.0004120486555621028
1782846198124094000,0.615093994140625,-0.00023495592176914215,0.0034045230131596327,-0.0006717068608850241
1782846198134099000,0.625098876953125,-0.0018307906575500965,-0.0014041147660464048,-0.00027252163272351027
1782846198144104000,0.63510400390625,-0.0003844278398901224,0.0016944732051342726,0.0012774381320923567
1782846198154109000,0.64510888671875,-0.00045735412277281284,-0.004339429084211588,-0.0010435613803565502
1782846198164114000,0.655114013671875,0.0009187010582536459,0.0012974176788702607,0.00030133494874462485
1782846198174119000,0.665118896484375,0.00321433343924582,-0.00027102045714855194,-0.0002674121642485261
1782846198184124000,0.6751240234375,-0.0017796260071918368,0.0007042291108518839,-0.0028815711848437786
1782846198194129000,0.68512890625,0.0006917596329003572,0.0009705792181193829,0.000025771907530725002
1782846198204134000,0.6951337890625,0.0007173260673880577,0.0003687047865241766,-0.001316461362875998
1782846198214139000,0.705138916015625,0.0020724227651953697,0.001910339342430234,-0.001546504907310009
1782846198224144000,0.715143798828125,0.0005504260770976543,0.000553725054487586,-0.0007353059481829405
1782846198234148900,0.72514892578125,-0.0016259344993159175,-0.0014671410899609327,0.00001361081376671791
1782846198244153900,0.73515380859375,0.00034586992114782333,-0.0012482290621846914,-0.0000923830084502697
1782846198254158800,0.745158935546875,0.000023467931896448135,0.002065095119178295,-0.0008448946755379438
1782846198264164000,0.7551640625,0.0007515763863921165,-0.001913934014737606,0.00029919930966570973
1782846198274169000,0.765169189453125,0.00008147093467414379,0.0008235108107328415,-0.002590564778074622
1782846198284174000,0.775174072265625,0.0001131624449044466,0.00023894687183201313,0.0018510553054511547
1782846198294179000,0.785178955078125,0.0015056245028972626,0.0011564060114324093,0.00026344036450609565
1782846198304184000,0.79518408203125,-0.0005527324974536896,-0.002027669455856085,0.0016613336047157645
1782846198314189000,0.80518896484375,0.0032293496187776327,0.0014310060068964958,0.0014200641307979822
1782846198324194000,0.815194091796875,-0.0004034684970974922,-0.0006806144956499338,-0.00015785882715135813
1782846198334199000,0.825198974609375,0.0028409562073647976,0.0025577335618436337,-0.00351800792850554
1782846198344204000,0.8352041015625,-0.00023313076235353947,0.0009172263089567423,-0.003970745950937271
1782846198354209000,0.845208984375,-0.0013252716744318604,0.00021542608737945557,0.0015204489463940263
1782846198364214000,0.855214111328125,0.00047609047032892704,-0.0006618192419409752,-0.0024668360128998756
1782846198374219000,0.865218994140625,-0.0014038707595318556,0.002113167429342866,0.0003202344523742795
1782846198384224000,0.87522412109375,-0.0009292954346165061,-0.0006344157736748457,-0.0005836423952132463
1782846198394229000,0.88522900390625,0.0014397881459444761,0.0013912379508838058,0.0009771541226655245
1782846198404234000,0.89523388671875,-0.001622580923140049,0.0012676672777161002,-0.0012455200776457787
1782846198414239000,0.905239013671875,-0.0018946112832054496,0.0023795259185135365,-0.0005136873805895448
1782846198424244000,0.915243896484375,0.00014616898261010647,-0.0010554194450378418,-0.00011953955981880426
1782846198434249000,0.9252490234375,0.0008732301648706198,-0.0021505977492779493,-0.0007784704212099314
1782846198444254000,0.93525390625,-0.0014578347327187657,-0.000504231546074152,-0.0005007026484236121
1782846198454259000,0.945259033203125,-0.0017827781848609447,0.0001474700402468443,0.0004864373477175832
1782846198464264200,0.95526416015625,0.0008974270895123482,0.001545096980407834,-0.0006131818518042564
1782846198474269200,0.965269287109375,-0.000031662872061133385,0.0010356835555285215,0.0019133278401568532
1782846198484275000,0.97527490234375,-0.0006716204807162285,0.0006311493925750256,-0.0005466339644044638
1782846198494280000,0.985280029296875,0.0007586947176605463,0.0010045715607702732,-0.001527490676380694
1782846198504285000,0.995284912109375,-0.0014056562213227153,-0.0008639022707939148,-0.00045077467802911997
1782846198514290000,1.0052900390625,-0.0017170560313388705,0.002247636904940009,-0.0009551973780617118
1782846198524295000,1.015294921875,0.0009389144834131002,-0.002132197842001915,-0.0002470627659931779
1782846198534300000,1.0252998046875,-0.0002814487088471651,-0.00016426085494458675,-0.0011336164316162467
1782846198544305000,1.035304931640625,-0.0006074195262044668,-0.0004076738841831684,0.001908778678625822
1782846198554310000,1.045309814453125,0.0008460518438369036,-0.0001012131106108427,0.0001223011058755219
1782846198564315000,1.05531494140625,0.0007515095639973879,-0.0016815327107906342,-0.001501694554463029
1782846198574319900,1.06531982421875,-0.0017414279282093048,-0.0012206961400806904,-0.0007829200476408005
1782846198584324900,1.075324951171875,0.0006405033636838198,0.002245940500870347,-0.000903827603906393
1782846198594329900,1.085329833984375,-0.001569175161421299,0.0001843986101448536,0.0006618241895921528
1782846198604334800,1.0953349609375,0.0007640202529728413,-0.0022289580665528774,-0.0015544584020972252
1782846198614339800,1.10533984375,0.00100686214864254,0.0011181419249624014,-0.00005796481855213642
1782846198624344800,1.1153447265625,-0.00007704459130764008,-0.00009679212234914303,-0.00006755220238119364
1782846198634349800,1.125349853515625,0.001112119061872363,-0.00031970487907528877,0.001591056352481246
1782846198644354800,1.135354736328125,-0.0011209413642063737,-0.002406291663646698,0.00006107031367719173
1782846198654359800,1.14535986328125,0.0001011586282402277,-0.0012948918156325817,0.0004977222997695208
1782846198664364800,1.15536474609375,-0.0011049869935959578,-0.0004535992629826069,-0.0003768597962334752
1782846198674369800,1.165369873046875,0.0009585069492459297,0.0006140170153230429,-0.002770904218778014
1782846198684374800,1.175374755859375,-0.000058021629229187965,-0.0020744442008435726,-0.0009956408757716417
1782846198694379800,1.1853798828125,0.001040787436068058,-0.0004932638257741928,-0.0005379063077270985
1782846198704384800,1.195384765625,0.00029217288829386234,0.0031467447988688946,-0.004439171403646469
1782846198714389800,1.2053896484375,-0.0007101615192368627,-0.00017481530085206032,-0.0011457978980615735
1782846198724394800,1.215394775390625,0.0011215605773031712,0.00003211223520338535,-0.0006634993478655815
1782846198734399700,1.225399658203125,0.00006747734732925892,0.00013445178046822548,0.0004620960680767894
1782846198744404700,1.23540478515625,0.0019620503298938274,0.0033235871233046055,-0.0005384535761550069
1782846198754409700,1.24540966796875,-0.003948432859033346,-0.0006414402741938829,-0.0010383212938904762
1782846198764414700,1.255414794921875,0.0008266149088740349,-0.001442519249394536,0.0003848720225505531
1782846198774419700,1.265419677734375,-0.00048176455311477184,-0.0005271220579743385,0.0006626667454838753
1782846198784424700,1.2754248046875,-0.0013827119255438447,0.0018537440337240696,-0.0020564207807183266
1782846198794429700,1.2854296875,0.00025791232474148273,-0.0015619844198226929,-0.0015058043645694852
1782846198804434700,1.2954345703125,-0.0016387910582125187,0.0002532261423766613,0.0007056845352053642
1782846198814439700,1.305439697265625,0.00005126860924065113,-0.0010163194965571165,0.0015017520636320114
1782846198824444700,1.315444580078125,-0.0016574155306443572,-0.00192498997785151,-0.0013150733429938555
1782846198834449700,1.32544970703125,-0.001108804834075272,-0.0005806717090308666,-0.0010700166458263993
1782846198844454700,1.33545458984375,-0.0005399537039920688,0.000049165915697813034,0.0020746439695358276
1782846198854459600,1.345459716796875,0.0023637297563254833,-0.0004581769462674856,-0.001597187016159296
1782846198864464600,1.355464599609375,-0.0019252910278737545,-0.0012845559976994991,0.00032055529300123453
1782846198874469600,1.3654697265625,-0.0012096191057935357,-0.0012052478268742561,-0.0018045752076432109
1782846198884475000,1.375474853515625,-0.0013781971065327525,-0.0005037712398916483,-0.00044556427747011185
1782846198894480000,1.38547998046875,0.0014531922060996294,-0.0005192870739847422,-0.0013303130399435759
1782846198904484900,1.39548486328125,-0.0008882588008418679,0.0005592929664999247,0.00016531813889741898
1782846198914489900,1.40548974609375,0.0009383035358041525,-0.00002813735045492649,-0.001331630046479404
1782846198924494800,1.415494873046875,-0.00018128938972949982,0.0007830613758414984,-0.001108989934436977
1782846198934499800,1.425499755859375,-0.000576107413507998,-0.00011240853928029537,0.0016778645804151893
1782846198944504800,1.4355048828125,0.0005264412611722946,0.0013272963697090745,-0.0006209759740158916
1782846198954509800,1.445509765625,-0.0011201220331713557,0.00004807533696293831,-0.0005607187049463391
1782846198964514800,1.455514892578125,-0.0012522147735580802,-0.0017074805218726397,-0.00021823612041771412
1782846198974519800,1.465519775390625,-0.0007373627740889788,0.0007977425120770931,-0.0015545296482741833
1782846198984524800,1.47552490234375,-0.0005522731225937605,-0.0016837907023727894,-0.0009902059100568295
1782846198994529800,1.48552978515625,0.0007366440258920193,-0.0004701435100287199,0.0001231360947713256
1782846199004534800,1.49553466796875,0.00041040685027837753,0.0020446793641895056,0.000043773907236754894
1782846199014539800,1.505539794921875,-0.000164140947163105,0.0015153614804148674,0.00016247062012553215
1782846199024544800,1.515544677734375,-0.000145765021443367,0.000007746042683720589,0.0005102794384583831
1782846199034549800,1.5255498046875,-0.0003141078632324934,0.0024820503313094378,0.0009500046726316214
1782846199044554800,1.5355546875,-0.00042249844409525394,0.000008506467565894127,0.0018155321013182402
1782846199054559700,1.545559814453125,0.0004437975585460663,0.0023211201187223196,0.00010805926285684109
1782846199064564700,1.555564697265625,0.0013407501392066479,-0.00015668501146137714,0.0013349775690585375
1782846199074569700,1.56556982421875,-0.0016776546835899353,0.0014039687812328339,-0.0008544349111616611
1782846199084574700,1.57557470703125,0.000668324064463377,0.0007267268374562263,-0.00001766975037753582
1782846199094579700,1.585579833984375,-0.001804349827580154,-0.0012612119317054749,-0.0030342470854520798
1782846199104584700,1.595584716796875,0.0009964967612177134,0.0017710630781948566,0.0010521074291318655
1782846199114589700,1.605589599609375,-0.00007201265543699265,0.0014285958604887128,0.00010461616329848766
1782846199124594700,1.6155947265625,-0.0006901322631165385,-0.00025052716955542564,0.0016130306757986546
1782846199134599700,1.625599609375,-0.00033001136034727097,-0.00042982539162039757,-0.0021791954059153795
1782846199144604700,1.635604736328125,-0.0000549068208783865,-0.002310283714905381,0.0006365646841004491
1782846199154609700,1.645609619140625,0.0012295665219426155,-0.001487858360633254,0.0027633802965283394
1782846199164614700,1.65561474609375,0.0002250222023576498,-0.0005011570174247026,0.0011106225429102778
1782846199174619600,1.66561962890625,0.00313026481308043,0.0006177565082907677,0.0012182502541691065
1782846199184624600,1.675624755859375,-0.0009808571776375175,-0.001475488068535924,0.004530157428234816
1782846199194629600,1.685629638671875,-0.0014761511702090502,0.000456938985735178,0.0006080616731196642
1782846199204635000,1.695634765625,0.00037953932769596577,-0.0009228447452187538,0.0015420322306454182
1782846199214639900,1.705639892578125,0.0009226601105183363,-0.00004129623994231224,-0.0000301852123811841
1782846199224644900,1.715644775390625,-0.00014313706196844578,0.001375239109620452,-0.0021141087636351585
1782846199234649900,1.72564990234375,-0.0008456495124846697,-0.0026384221855551004,0.0035707089118659496
1782846199244654800,1.73565478515625,0.0011961960699409246,0.0003789390902966261,0.00116187974344939
1782846199254659800,1.745659912109375,0.0006606429815292358,0.0018288979772478342,-0.0024530622176826
1782846199264664800,1.755664794921875,-0.0006384470034390688,0.002626248402521014,-0.0014285440556704998
1782846199274669800,1.765669921875,0.0019586964044719934,0.0014940774999558926,-0.002889771945774555
1782846199284674800,1.7756748046875,-0.0006376190576702356,0.0019635928329080343,-0.00069559330586344
1782846199294679800,1.7856796875,-0.00031235208734869957,-0.0014342477079480886,0.0006403780425898731
1782846199304684800,1.795684814453125,-0.00046095659490674734,0.001164464745670557,0.0010968438582494855
1782846199314689800,1.805689697265625,-0.0006427577463909984,0.0014286059886217117,-0.0012638936750590801
1782846199324694800,1.81569482421875,0.0012600708287209272,-0.0005091100465506315,0.0033953064121305943
1782846199334699800,1.82569970703125,-0.0002344015520066023,-0.0010785411577671766,-0.0008672976400703192
1782846199344704800,1.835704833984375,-0.00085278763435781,-0.00019463803619146347,0.0018515235278755426
1782846199354709800,1.845709716796875,-0.001199090387672186,-0.0018139395397156477,-0.000015492551028728485
1782846199364714800,1.85571484375,0.0014113399665802717,0.0011661378666758537,0.0000028832582756876945
1782846199374719700,1.8657197265625,-0.000499688321724534,0.0014254080597311258,0.001080059795640409
1782846199384724700,1.875724853515625,-0.0005444294074550271,0.0020520498510450125,-0.0006928065558895469
1782846199394729700,1.885729736328125,0.001453464850783348,0.0005520440172404051,-0.00039977754931896925
1782846199404735000,1.89573486328125,0.00012055272236466408,-0.001182739157229662,-0.002264522947371006
1782846199414740000,1.905739990234375,0.0014216650743037462,0.0007257091347128153,-0.001467616530135274
1782846199424745000,1.915744873046875,0.0008133989758789539,0.0008761778008192778,0.00031856546411290765
1782846199434750000,1.92575,0.0007344326004385948,-0.0005892380140721798,-0.000808308832347393
1782846199444755000,1.9357548828125,-0.0010690600611269474,-0.000032104551792144775,0.0006369886104948819
1782846199454760000,1.945760009765625,-0.002393308561295271,-0.00009495369158685207,0.0018632569117471576
1782846199464765000,1.955764892578125,0.0001326997298747301,0.0006989345420151949,0.0002019770909100771
1782846199474770000,1.96577001953125,0.0008942089043557644,0.0018237653421238065,-0.00030876288656145334
1782846199484774400,1.9757744140625,-0.0016325984615832567,0.0019992676097899675,0.0011573072988539934
1782846199494779400,1.985779296875,-0.0022287056781351566,-0.00030070869252085686,0.0008605587063357234
1782846199504784400,1.995784423828125,-0.0027251190040260553,-0.00047381408512592316,0.0001409726683050394
1782846199514789400,2.005789306640625,-0.0004453178262338042,-0.0003622700460255146,0.0015235282480716705
1782846199524794400,2.01579443359375,-0.0015497307758778334,-0.000892771640792489,-0.0007311039371415973
1782846199534799400,2.02579931640625,-0.0014543260913342237,0.0014636984560638666,-0.00009122875053435564
1782846199544804400,2.035804443359375,0.0008138881530612707,0.00002825469709932804,0.0015748448204249144
1782846199554809300,2.045809326171875,-0.00029861810617148876,-0.00013095536269247532,-0.0024425354786217213
1782846199564814300,2.055814453125,-0.0007707965560257435,0.0004903601948171854,-0.000055544194765388966
1782846199574819300,2.0658193359375,0.0001558645162731409,0.0007600497920066118,-0.001141439308412373
1782846199584824300,2.07582421875,-0.0006153868744149804,-0.00013184291310608387,-0.0036434787325561047
1782846199594829300,2.085829345703125,0.0009409736376255751,-0.0008552004583179951,-0.0003658655332401395
1782846199604834300,2.095834228515625,0.0006365743465721607,0.0012265925761312246,-0.0004942299565300345
1782846199614839300,2.10583935546875,-0.0007236851379275322,-0.0002940308768302202,-0.001609658938832581
1782846199624844300,2.11584423828125,0.0013282804284244776,0.00036163930781185627,-0.0010543897515162826
1782846199634849300,2.125849365234375,0.0009459550492465496,-0.0007863997016102076,-0.00333056366071105
1782846199644854300,2.135854248046875,-0.0011331747518852353,-0.000929943984374404,-0.0008162733865901828
1782846199654859300,2.145859375,0.0012389118783175945,-0.0013244240544736385,-0.0006981129990890622
1782846199664864300,2.1558642578125,0.0013363836333155632,-0.00023279432207345963,-0.0014283517375588417
1782846199674869200,2.165869140625,0.0013096558395773172,0.0016703582368791103,0.00001876091118901968
1782846199684874200,2.175874267578125,-0.00004962156526744366,-0.002171251457184553,-0.0004917670739814639
1782846199694879200,2.185879150390625,0.0024038946721702814,0.0014003458200022578,-0.0024495187681168318
1782846199704884500,2.195884521484375,0.0024238682817667723,-0.0008958315011113882,0.0017782493960112333
1782846199714889500,2.205889404296875,-0.0005896413931623101,-0.000397226307541132,0.002672339789569378
1782846199724894500,2.21589453125,-0.0012501053279265761,-0.0033836951479315758,0.0016984217800199986
1782846199734899500,2.2258994140625,-0.001222023507580161,-0.00147049012593925,0.001019258750602603
1782846199744904400,2.235904541015625,-0.0021211067214608192,-0.0002409089356660843,0.000641622522380203
1782846199754909400,2.245909423828125,0.0021620960906147957,-0.0014076135121285915,-0.0006687567802146077
1782846199764914400,2.25591455078125,-0.0014744503423571587,0.0005261078476905823,0.002258589956909418
1782846199774919400,2.26591943359375,-0.0010591017780825496,-0.0006496389396488667,0.000751280109398067
1782846199784924400,2.27592431640625,0.0004889937117695808,-0.0003084877971559763,-0.0003267674474045634
1782846199794929400,2.285929443359375,-0.00049653893802315,-0.0009677510242909193,0.002243763767182827
1782846199804934400,2.295934326171875,0.0018521028105169535,-0.002849806798622012,-0.0007629452738910913
1782846199814939400,2.305939453125,-0.000652704038657248,-0.00031486665830016136,0.0013941293582320213
1782846199824944400,2.3159443359375,-0.0010516454931348562,-0.0015785368159413338,0.0024484749883413315
1782846199834949400,2.325949462890625,-0.0028285502921789885,0.0006021950393915176,0.00038900302024558187
1782846199844954400,2.335954345703125,0.000385885126888752,-0.00022178702056407928,0.0010816912399604917
1782846199854959400,2.34595947265625,-0.00032433029264211655,-0.0021523411851376295,0.00017973047215491533
1782846199864964600,2.355964599609375,-0.0009397868998348713,-0.0008766872342675924,0.0010884010698646307
1782846199874969600,2.365969482421875,0.0008209745865315199,0.0009900007862597704,0.0008073616772890091
1782846199884974600,2.375974609375,0.0009267020504921675,0.000831542769446969,0.0032420235220342875
1782846199894979600,2.3859794921875,-0.0006625631358474493,-0.00010409858077764511,0.0012351593468338251
1782846199904984600,2.395984619140625,-0.0009762834524735808,-0.00010649533942341805,0.0025488967075943947
1782846199914989600,2.405989501953125,0.0011802518274635077,-0.0015547743532806635,-0.0017837337218225002
1782846199924994600,2.41599462890625,-0.0009803707944229245,-0.0023981973063200712,-0.0012186109088361263
1782846199934999600,2.42599951171875,-0.0017053955234587193,-0.0001405396033078432,0.0014852606691420078
1782846199945004500,2.436004638671875,0.0000988959800451994,0.0012682726373896003,0.00008816632907837629
1782846199955009500,2.446009521484375,0.0005636843852698803,-0.0025552604347467422,0.002349443268030882
1782846199965014500,2.4560146484375,0.0011493135243654251,-0.000027121510356664658,-0.0001824238570407033
1782846199975019500,2.46601953125,0.0002026478759944439,0.0003838213160634041,-0.0004440448246896267
1782846199985024500,2.4760244140625,0.00012088892981410027,0.0011289736721664667,0.0027517485432326794
1782846199995029500,2.486029541015625,0.0013584611006081104,0.0007132953032851219,0.0002116344985552132
1782846200005034500,2.496034423828125,-0.000011735362932085991,0.0012837444664910436,-0.0009026320185512304
1782846200015039500,2.50603955078125,0.0031750460620969534,0.0006560045294463634,0.00007129507139325142
1782846200025044500,2.51604443359375,0.0018266874831169844,-0.00028355885297060013,0.0016175264026969671
1782846200035049500,2.526049560546875,0.00010267342440783978,0.0008454211056232452,-0.001827900530770421
1782846200045054500,2.536054443359375,-0.00014579948037862778,0.00031358771957457066,0.000680530967656523
1782846200055059500,2.5460595703125,-0.00005820533260703087,-0.0010716898832470179,-0.0006549314130097628
1782846200065064400,2.556064453125,-0.0011378509225323796,-0.0003246732521802187,-0.0007798336446285248
1782846200075069400,2.5660693359375,-0.0016852852422744036,0.00016130623407661915,-0.0006779942195862532
1782846200085074400,2.576074462890625,0.0011073052883148193,-0.00017585000023245811,0.0005851430469192564
1782846200095079400,2.586079345703125,-0.0009304359555244446,0.0017828741110861301,-0.0013162018731236458
1782846200105084400,2.59608447265625,0.0005675922147929668,0.00045448937453329563,-0.00110847526229918
1782846200115089400,2.60608935546875,-0.002290051896125078,0.00052631925791502,-0.00012041733134537935
1782846200125094400,2.616094482421875,-0.0014452971518039703,0.0006181981880217791,0.00034856534330174327
1782846200135099400,2.626099365234375,0.00018050102517008781,0.0004402382764965296,-0.0006059407023712993
1782846200145104400,2.6361044921875,-0.0026722769252955914,-0.0010149129666388035,0.0004505352699197829
1782846200155109400,2.646109375,-0.0008678270969539881,0.0008056845981627703,-0.0006034694379195571
1782846200165114400,2.6561142578125,0.0006448484491556883,0.0001864996738731861,-0.0029494483023881912
1782846200175119400,2.666119384765625,-0.001322218799032271,0.0017979987896978855,-0.002855184255167842
1782846200185124400,2.676124267578125,0.0009459955617785454,-0.00025849416851997375,-0.0017161504365503788
1782846200195129300,2.68612939453125,-0.00039266725070774555,-0.002453246619552374,0.002732645021751523
1782846200205134300,2.69613427734375,-0.0001828102394938469,-0.0015557613223791122,-0.0014903295086696744
1782846200215139300,2.706139404296875,0.000026511261239647865,-0.001627122052013874,0.001006818376481533
1782846200225144300,2.716144287109375,0.0001471524592489004,0.0019431115360930562,-0.0005407445132732391
1782846200235149300,2.7261494140625,0.0011515840888023376,0.0026798974722623825,-0.0033400801476091146
1782846200245154300,2.736154296875,-0.0036556879058480263,-0.0008189633954316378,0.00040086236549541354
1782846200255159300,2.7461591796875,0.0010614015627652407,0.001580641372129321,-0.0011461107060313225
1782846200265164300,2.756164306640625,-0.0002366232220083475,-0.003014110494405031,0.0008323516231030226
1782846200275169300,2.766169189453125,-0.002053904812783003,-0.0001206232700496912,0.0008881919202394783
1782846200285174300,2.77617431640625,-0.0016336578410118818,-0.0002234212588518858,-0.002300410997122526
1782846200295179300,2.78617919921875,-0.0008581809233874083,0.0002345580141991377,-0.0032459325157105923
1782846200305184300,2.796184326171875,0.0016648981254547834,-0.002066945657134056,0.0011315054725855589
1782846200315189200,2.806189208984375,-0.0015207205433398485,-0.000031029339879751205,0.000892045849468559
1782846200325194200,2.8161943359375,0.002452715765684843,-0.0009098723530769348,0.00013118074275553226
1782846200335199200,2.82619921875,-0.0006106150103732944,0.0011487011797726154,-0.0009381495183333755
1782846200345204500,2.83620458984375,0.00045784516260027885,0.001477601588703692,0.00018117704894393682
1782846200355209500,2.84620947265625,-0.0009791351621970534,-0.0013413839042186737,0.00005707109812647104
1782846200365214500,2.85621435546875,-0.0005785956745967269,-0.0009035598486661911,0.0006331128533929586
1782846200375219500,2.866219482421875,-0.0012696355115622282,0.001065520802512765,0.0006192767177708447
1782846200385224400,2.876224365234375,-0.0004128966247662902,-0.0013273295480757952,-0.0013053896836936474
1782846200395229400,2.8862294921875,-0.0010059019550681114,0.0015221349895000458,0.0007661476265639067
1782846200405234400,2.896234375,-0.00024583563208580017,0.0007535465992987156,-0.0003526463406160474
1782846200415239400,2.906239501953125,0.0003559018950909376,-0.0028749112971127033,0.0033427011221647263
1782846200425244400,2.916244384765625,-0.0014462592080235481,0.0017059919191524386,0.0005101630231365561
1782846200435249400,2.92624951171875,0.00036583980545401573,-0.00029225856997072697,0.00023234059335663915
1782846200445254400,2.93625439453125,-0.00047305598855018616,0.0013415907742455602,-0.0008877848740667105
1782846200455259400,2.94625927734375,-0.0009097519796341658,0.0000628037378191948,-0.001831487170420587
1782846200465264400,2.956264404296875,-0.0012152165872976184,0.000168265076354146,-0.0010130979353561997
1782846200475269400,2.966269287109375,-0.0022929050028324127,0.0002624334301799536,0.0033226083032786846
1782846200485273600,2.976273681640625,0.00011805468238890171,-0.0014510443434119225,0.001130826654843986
1782846200495278600,2.986278564453125,-0.000014886492863297462,0.00032487534917891026,0.0012748460285365582
1782846200505283600,2.99628369140625,-0.0014734999276697636,-0.0012157633900642395,0.0020021554082632065
1782846200515288600,3.00628857421875,-0.0011366457911208272,0.0003558918833732605,0.0009519807063043118
1782846200525293600,3.01629345703125,0.001425581518560648,0.0027167843654751778,0.0008598353597335517
1782846200535298600,3.026298583984375,0.0005913085769861937,-0.0012988257221877575,0.0015353190246969461
1782846200545303600,3.036303466796875,-0.0023791813291609287,0.003647463396191597,-0.0012341022957116365
1782846200555308500,3.04630859375,0.0013461967464536428,0.000478099100291729,0.002047549234703183
1782846200565313500,3.0563134765625,-0.0011875347699970007,-0.0014502957928925753,0.0010171722387894988
1782846200575318500,3.066318603515625,0.001182378502562642,0.0006641077343374491,0.0013768840581178665
1782846200585323500,3.076323486328125,-0.0003356232773512602,0.0009445385076105595,-0.00021462095901370049
1782846200595328500,3.08632861328125,-0.001462393905967474,0.0002726973034441471,0.0025581931695342064
1782846200605333500,3.09633349609375,0.004107873886823654,0.00025831605307757854,0.00017066922737285495
1782846200615338500,3.10633837890625,0.0011265038046985865,0.0024513492826372385,-0.0006159256445243955
1782846200625343500,3.116343505859375,-0.0004484896780923009,-0.001454442972317338,-0.0025728163309395313
1782846200635348500,3.126348388671875,-0.0005351859144866467,0.003461418440565467,0.0008005123818293214
1782846200645353500,3.136353515625,-0.0009090936509892344,0.0005676276050508022,-0.0014373419107869267
1782846200655358500,3.1463583984375,0.0009011086076498032,-0.0012277374044060707,-0.0008037234656512737
1782846200665363500,3.156363525390625,0.0004153482150286436,0.00016616121865808964,0.00026686728233471513
1782846200675368400,3.166368408203125,-0.0010658459505066276,0.0015051495283842087,0.0027430409099906683
1782846200685373400,3.17637353515625,0.00218853703700006,0.0014654684346169233,-0.0016189506277441978
1782846200695378400,3.18637841796875,0.0001981239765882492,0.0004133228212594986,0.0008976171957328916
1782846200705383400,3.196383544921875,-0.0013840598985552788,0.0008559401612728834,-0.002400707919150591
1782846200715388400,3.206388427734375,0.0015835375525057316,0.00013072369620203972,0.002164793200790882
1782846200725393400,3.216393310546875,-0.0001070371363312006,0.0027185173239558935,-0.003349015489220619
1782846200735398700,3.226398681640625,0.001935820560902357,-0.002332169096916914,0.0002905605942942202
1782846200745403600,3.236403564453125,0.0014042535331100225,0.001601586351171136,0.0006397010292857885
1782846200755408600,3.24640869140625,-0.002288795541971922,-0.0010841810144484043,0.0017082283739000559
1782846200765413600,3.25641357421875,0.002360550919547677,0.001439696759916842,0.000840037944726646
1782846200775418600,3.266418701171875,-0.00038239138666540384,-0.00006762403063476086,-0.00030874297954142094
1782846200785423600,3.276423583984375,-0.0010061037028208375,0.0025840855669230223,0.0019661292899399996
1782846200795428600,3.2864287109375,-0.0010656742379069328,0.0004667679313570261,-0.0030695260502398014
1782846200805433600,3.29643359375,0.0014291750267148018,-0.002011036965996027,0.00033133086981251836
1782846200815438600,3.3064384765625,0.0004937106277793646,-0.0013896175660192966,-0.000835492042824626
1782846200825443600,3.316443603515625,0.0023528635501861572,-0.0009201020002365112,-0.0009537364821881056
1782846200835448600,3.326448486328125,-0.0008149760542437434,0.0018359737005084753,-0.00023029115982353687
1782846200845453600,3.33645361328125,-0.0001633006613701582,0.0014474184717983007,0.00117692316416651
1782846200855458600,3.34645849609375,-0.0003685893025249243,-0.00013008993119001389,-0.0019702427089214325
1782846200865463600,3.356463623046875,0.0010585987474769354,0.0011029536835849285,-0.0005489138420671225
1782846200875468500,3.366468505859375,-0.00022761872969567776,-0.0003915398847311735,0.001750194700434804
1782846200885473500,3.3764736328125,-0.001780774211511016,-0.0007028635591268539,0.0007384598720818758
1782846200895478500,3.386478515625,0.0013632061891257763,0.0015568005619570613,0.0012459586141631007
1782846200905483500,3.3964833984375,-0.0009841040009632707,-0.00025494792498648167,-0.0011048137675970793
1782846200915488500,3.406488525390625,-0.0005416427738964558,-0.0009507003705948591,-0.000594703946262598
1782846200925493500,3.416493408203125,-0.0010159517405554652,-0.0004031546413898468,0.0016807008069008589
1782846200935498500,3.42649853515625,-0.000633296906016767,0.00042251357808709145,0.00017940625548362732
1782846200945503500,3.43650341796875,0.0010197272058576345,0.0000203761737793684,0.0009669029386714101
1782846200955508500,3.446508544921875,0.000416426220908761,-0.0007398305460810661,-0.0013545588590204716
1782846200965513500,3.456513427734375,0.0004989842418581247,0.002458359347656369,0.0011120609706267715
1782846200975518500,3.4665185546875,0.00021554040722548962,0.0026355308946222067,-0.0009535419521853328
1782846200985523500,3.4765234375,0.0006613535806536674,-0.002260158071294427,0.0010046804090961814
1782846200995528400,3.486528564453125,-0.0010718978010118008,0.0009019137360155582,0.0001402620691806078
1782846201005533700,3.49653369140625,0.0001994953490793705,0.0014563838485628366,-0.0005755956517532468
1782846201015538700,3.50653857421875,-0.0002883411943912506,0.0005949621554464102,-0.0008715707808732986
1782846201025543700,3.516543701171875,0.0006440314464271069,-0.00054140854626894,0.00008663453627377748
1782846201035548700,3.526548583984375,0.0002869286108762026,0.0015119743766263127,0.0010753343813121319
1782846201045553700,3.5365537109375,-0.00042493431828916073,-0.0008659623563289642,0.0020449913572520018
1782846201055558700,3.54655859375,-0.0003866528859362006,0.0002762142103165388,0.0005496437661349773
1782846201065563600,3.556563720703125,-0.000875609228387475,0.0024765178095549345,-0.0011529151815921068
1782846201075568600,3.566568603515625,0.0004223957657814026,-0.0014043727423995733,0.002450356725603342
1782846201085573600,3.57657373046875,0.00006712996400892735,0.0005245546344667673,-0.002026683185249567
1782846201095578600,3.58657861328125,-0.0007954529719427228,0.0002787425182759762,-0.0013071517460048199
1782846201105583600,3.59658349609375,0.0008650280069559813,-0.0026315597351640463,0.00015545636415481567
1782846201115588600,3.606588623046875,-0.000172079773619771,0.0019411438843235373,0.0004200519761070609
1782846201125593600,3.616593505859375,-0.0003481146413832903,0.0022452769335359335,0.003384150331839919
1782846201135598600,3.6265986328125,0.0005689403042197227,-0.00002283044159412384,0.0020052918698638678
1782846201145603600,3.636603515625,-0.0009764919523149729,0.0006176598835736513,-0.001391570083796978
1782846201155608600,3.646608642578125,0.0010994551703333855,-0.0014789316337555647,0.0006640601786784828
1782846201165613600,3.656613525390625,0.001095726853236556,0.0019248547032475471,-0.0012462253216654062
1782846201175618600,3.66661865234375,0.0003850895445793867,-0.0023329381365329027,-0.000950356014072895
1782846201185623600,3.67662353515625,0.0006348940078169107,0.0005563255399465561,0.0013583381660282612
1782846201195628500,3.686628662109375,0.0010721678845584393,-0.0001378888264298439,0.002160830656066537
1782846201205633500,3.696633544921875,-0.0005425066919997334,0.00009087682701647282,0.0013959708157926798
1782846201215638500,3.706638427734375,0.0018117588479071856,0.0025119418278336525,-0.0010383403860032558
1782846201225643500,3.7166435546875,-0.0004716354887932539,0.0005057826638221741,-0.0020282373297959566
1782846201235648500,3.7266484375,0.0014896576758474112,-0.001570683205500245,0.00021051213843747973
1782846201245653500,3.736653564453125,-0.0008387441048398614,0.0007545226253569126,0.0005524620646610856
1782846201255658800,3.74665869140625,0.0007035050075501204,0.0007285699248313904,-0.0008799447678029537
1782846201265663700,3.756663818359375,0.0009322706609964371,-0.0007564090192317963,0.00036348513094708323
1782846201275668700,3.766668701171875,0.00002926494926214218,-0.0012261075899004936,0.003040795214474201
1782846201285673700,3.776673828125,-0.0004642187850549817,-0.00013341265730559826,-0.0011355738388374448
1782846201295678700,3.7866787109375,0.001721035223454237,-0.0006398891564458609,0.0008696142467670143
1782846201305683700,3.79668359375,-0.0014252231922000647,-0.0002854224294424057,0.002663519699126482
1782846201315688700,3.806688720703125,-0.00005891942419111729,0.0011606572661548853,-0.000591183197684586
1782846201325693700,3.816693603515625,-0.002107422798871994,-0.0003656002227216959,0.0022189845331013203
1782846201335698700,3.82669873046875,0.0015618910547345877,-0.001693278318271041,0.0001309976214542985
1782846201345703700,3.83670361328125,-0.0004605134017765522,-0.0007201593834906816,0.000995193375274539
1782846201355708700,3.846708740234375,0.0007492550648748875,-0.0004147845320403576,-0.00009515613783150911
1782846201365713700,3.856713623046875,0.0002464503049850464,0.0000555296428501606,0.0010036641033366323
1782846201375718700,3.86671875,-0.00016388623043894768,-0.0026277173310518265,0.001041842857375741
1782846201385723600,3.8767236328125,-0.00010343245230615139,-0.000146450474858284,0.0017339985352009535
1782846201395728600,3.886728759765625,-0.001743802917189896,0.000003890832886099815,-0.0010531686712056398
1782846201405733600,3.896733642578125,-0.00032114237546920776,-0.0007601701654493809,0.0012659118510782719
1782846201415738600,3.906738525390625,0.001019765855744481,0.0023713328409940004,-0.0018693944439291954
1782846201425743600,3.91674365234375,0.0010626427829265594,0.00009859120473265648,-0.00022569135762751102
1782846201435748600,3.92674853515625,0.0007270982023328543,-0.0013078367337584496,0.00314690126106143
1782846201445753600,3.936753662109375,-0.001342178089544177,-0.0008021024987101555,-0.0002923049032688141
1782846201455758600,3.946758544921875,-0.0011891901958733797,0.0032366313971579075,-0.0003192961448803544
1782846201465763600,3.956763671875,0.0022351022344082594,-0.0011128433980047703,0.0002474245266057551
1782846201475768600,3.9667685546875,0.0009560892358422279,-0.0017512189224362373,0.0009157074382528663
1782846201485774600,3.976774658203125,-0.00024046911858022213,-0.00001643574796617031,-0.0004978984361514449
1782846201495779600,3.986779541015625,-0.0015105464262887836,-0.0018769782036542892,-0.0010755602270364761
1782846201505784600,3.99678466796875,-0.0005068010650575161,0.0006378449033945799,-0.0011567866895347834
1782846201515789600,4.00678955078125,0.0006788994651287794,0.0002666932996362448,0.003603952005505562
1782846201525794600,4.016794677734375,-0.001770942471921444,-0.0011559671256691217,0.0021812913473695517
1782846201535799600,4.026799560546875,0.0012218323536217213,-0.00211667874827981,0.000020049395971000195
1782846201545804500,4.036804443359375,0.0016969405114650726,0.0010096060577780008,-0.00022868975065648556
1782846201555809500,4.0468095703125,0.001118256477639079,-0.00034268549643456936,-0.0009470835793763399
1782846201565814500,4.056814453125,-0.00024128728546202183,0.001996102277189493,0.0017136805690824986
1782846201575819500,4.066819580078125,0.0025897424202412367,-0.0022785807959735394,0.0007166628492996097
1782846201585824500,4.076824462890625,0.0009079563897103071,0.0015587679808959365,-0.0007605926366522908
1782846201595829500,4.08682958984375,0.0020315293222665787,0.00019067199900746346,-0.0005897656083106995
1782846201605834500,4.09683447265625,-0.000018838560208678246,0.0015392968198284507,0.0001367446966469288
1782846201615839500,4.106839599609375,0.001316859619691968,0.0005942364223301411,0.0020164139568805695
1782846201625844500,4.116844482421875,-0.0006472216919064522,-0.0029512299224734306,0.0009048106148838997
1782846201635849500,4.126849365234375,-0.0003436426632106304,-0.0001972937025129795,-0.003819321282207966
1782846201645854500,4.1368544921875,0.0014633121900260448,0.0025723937433212996,-0.0012368541210889816
1782846201655859500,4.146859375,0.0013646138831973076,-0.0005674988497048616,-0.00020739645697176456
1782846201665864400,4.156864501953125,0.0007962952367961407,-0.001161117572337389,-0.0003983450587838888
1782846201675869400,4.166869384765625,0.0011572185903787613,-0.0005134150851517916,-0.001546877552755177
1782846201685874400,4.17687451171875,0.0011971660424023867,0.0011278910096734762,0.00036846782313659787
1782846201695879400,4.18687939453125,-0.0011310699628666043,0.002147902036085725,0.0007321888697333634
1782846201705884400,4.196884521484375,0.00013126828707754612,0.0009739806409925222,0.0008744016522541642
1782846201715889400,4.206889404296875,0.0011776606552302837,0.0007925895042717457,0.000439519586507231
1782846201725894400,4.216894287109375,-0.00004100194200873375,-0.000057491473853588104,-0.00035516766365617514
1782846201735899400,4.2268994140625,-0.0011818184284493327,-0.0004007108509540558,0.0032661710865795612
1782846201745904400,4.236904296875,-0.002239359775558114,-0.00026968331076204777,0.002180400537326932
1782846201755909400,4.246909423828125,-0.0014794948510825634,-0.0015964575577527285,-0.0020297446753829718
1782846201765914400,4.256914306640625,0.0020172358490526676,0.0005852039903402328,0.00016709696501493454
1782846201775919400,4.26691943359375,-0.001395562430843711,0.0022934467997401953,0.0016203080303967
1782846201785924400,4.27692431640625,0.0013360418379306793,0.0005706478841602802,-0.0006122199120000005
1782846201795929300,4.286929443359375,-0.0016645463183522224,-0.00027017691172659397,0.00022461451590061188
1782846201805934300,4.296934326171875,-0.0014086165465414524,0.000673381146043539,0.0007007877575233579
1782846201815939300,4.306939208984375,0.0014631676021963358,-0.0008404385298490524,0.0024017419200390577
1782846201825944300,4.3169443359375,-0.000966434134170413,-0.0018417867831885815,0.00269442331045866
1782846201835949300,4.32694921875,0.0001308852806687355,-0.000013977289199829102,-0.0019150092266499996
1782846201845954300,4.336954345703125,-0.001996980281546712,0.002292053773999214,0.0020304638892412186
1782846201855959300,4.346959228515625,0.0005853062029927969,0.00043827714398503304,0.002184026874601841
1782846201865964300,4.35696435546875,0.0008010223973542452,0.0016920933267101645,0.0008109009359031916
1782846201875969500,4.366969482421875,-0.00015120068565011024,0.00029552215710282326,0.001479499856941402
1782846201885974500,4.376974609375,0.00024081673473119736,-0.0006160777993500233,-0.000683253281749785
1782846201895979500,4.3869794921875,-0.0002244857605546713,0.00017514335922896862,-0.0006860046414658427
1782846201905984500,4.396984619140625,-0.0027419717516750097,-0.0009955824352800846,-0.0004026442766189575
1782846201915989500,4.406989501953125,-0.0003573704743757844,0.0019662166014313698,-0.001715575228445232
1782846201925994500,4.416994384765625,-0.001707326853647828,0.0004684547893702984,0.0005920537514612079
1782846201935999500,4.42699951171875,0.0023616503458470106,-0.00266074831597507,0.0014745225198566914
1782846201946004500,4.43700439453125,0.0007371220272034407,-0.0016077340114861727,0.0017823840025812387
1782846201956009500,4.447009521484375,0.00118631636723876,0.0010400700848549604,-0.0010919481283053756
1782846201966014500,4.457014404296875,0.0010960351210087538,-0.0008369258139282465,0.0019373976392671466
1782846201976019500,4.46701953125,-0.0016704899026080966,0.00035341735929250717,0.0006084896158427
1782846201986024400,4.4770244140625,0.0004144988488405943,-0.0012290328741073608,0.000050557428039610386
1782846201996029400,4.487029541015625,-0.000030592549592256546,0.00018504285253584385,-0.0007158709922805429
1782846202006034400,4.497034423828125,-0.0005669532110914588,-0.002514071064069867,-0.00068364676553756
1782846202016039400,4.507039306640625,-0.000498810550197959,-0.0007695723325014114,0.002374866511672735
1782846202026044400,4.51704443359375,-0.0015515581471845508,-0.0011402845848351717,0.001665666582994163
1782846202036049400,4.52704931640625,-0.00078737479634583,0.00038748583756387234,0.0026948670856654644
1782846202046054400,4.537054443359375,-0.0013248007744550705,-0.0001520705409348011,0.0016322657465934753
1782846202056059400,4.547059326171875,-0.0014251612592488527,0.0011293890420347452,0.00007783394539728761
1782846202066064400,4.557064453125,0.000004956265911459923,0.0011775923194363713,-0.0008212492102757096
1782846202076069400,4.5670693359375,-0.0009106640936806798,-0.0013068679254502058,0.00027594290440902114
1782846202086074400,4.577074462890625,0.0010161329992115498,-0.0003830175846815109,-0.0012569725513458252
1782846202096079400,4.587079345703125,-0.0015280377119779587,0.00043020816519856453,0.002122958656400442
1782846202106084400,4.59708447265625,0.00045122369192540646,0.0009945319034159184,-0.0004355403361842036
1782846202116089300,4.60708935546875,0.0012729610316455364,0.001485085696913302,-0.0007543906103819609
1782846202126094300,4.61709423828125,0.0005959854461252689,0.0015221036737784743,0.0017865314148366451
1782846202136099300,4.627099365234375,-0.0027092352975159883,-0.0006093527190387249,0.0011215144768357277
1782846202146104300,4.637104248046875,0.0008436879143118858,0.0010620472021400928,0.0025303266011178493
1782846202156109300,4.647109375,-0.00008940626867115498,0.0013755400432273746,0.00023795029846951365
1782846202166113300,4.65711328125,0.00033137318678200245,-0.00048787379637360573,-0.0010502208024263382
1782846202176119300,4.667119384765625,0.00069565256126225,-0.000063382089138031,-0.000033792806789278984
1782846202186124300,4.677124267578125,0.0021840932313352823,-0.002200835384428501,0.0008620946318842471
1782846202196128300,4.687128173828125,0.0011735318694263697,0.001857278635725379,0.0011224038898944855
1782846202206133200,4.69713330078125,-0.0010025370866060257,-0.002002973575145006,0.0009628804982639849
1782846202216138200,4.70713818359375,-0.0027949269860982895,-0.00020534801296889782,-0.003175090067088604
1782846202226143500,4.7171435546875,-0.0015901129227131605,-0.000566206406801939,0.0015943651087582111
1782846202236149200,4.727149169921875,-0.000553133781068027,-0.0005105349700897932,-0.001261342316865921
1782846202246154200,4.737154296875,0.00020799762569367886,-0.001083380775526166,0.0019850509706884623
1782846202256158500,4.747158447265625,0.001287743216380477,-0.0018401634879410267,0.0008097421377897263
1782846202266163500,4.75716357421875,0.000299177598208189,-0.0007032600697129965,0.0012227983679622412
1782846202276168400,4.76716845703125,-0.00008635991252958775,-0.0009679081849753857,0.0025511798448860645
1782846202286173400,4.77717333984375,-0.001678663888014853,0.001792191993445158,-0.0015117386355996132
1782846202296178400,4.787178466796875,0.001086097676306963,-0.002579129533842206,0.0009302928810939193
1782846202306183400,4.797183349609375,0.00034014624543488026,-0.0008930822368711233,-0.0007506944239139557
1782846202316188400,4.8071884765625,-0.0006431817309930921,0.0019715619273483753,-0.0004354117554612458
1782846202326193400,4.817193359375,-0.0018165705259889364,-0.00040451018139719963,0.0015100273303687572
1782846202336198400,4.827198486328125,-0.00029100500978529453,0.00047155842185020447,0.0005870648892596364
1782846202346203400,4.837203369140625,-0.0001964629627764225,0.00044625834561884403,-0.0011423919349908829
1782846202356208400,4.84720849609375,0.0005451610777527094,0.0033668982796370983,-0.002678179182112217
1782846202366213400,4.85721337890625,0.00047165784053504467,0.0010062723886221647,0.0007804679917171597
1782846202376218400,4.86721826171875,0.00018451828509569168,0.00029339035972952843,0.00339126237668097
1782846202386223400,4.877223388671875,-0.00032467814162373543,0.0001804723870009184,0.001850091153755784
1782846202396228400,4.887228271484375,0.0005822789389640093,0.0010228073224425316,-0.0034558787010610104
1782846202406233300,4.8972333984375,-0.0005572875961661339,-0.0004973248578608036,-0.0013176267966628075
1782846202416238300,4.90723828125,-0.00044673262163996696,0.0007375562563538551,-0.002489130012691021
1782846202426243300,4.917243408203125,0.0005317127797752619,-0.00019055558368563652,0.0029024395626038313
1782846202436248300,4.927248291015625,0.0013454360887408257,-0.0010037526953965425,0.0008213666151277721
1782846202446253300,4.93725341796875,-0.00006896862760186195,0.0022809901274740696,0.0006013895035721362
1782846202456258300,4.94725830078125,-0.00024449313059449196,0.00033078412525355816,-0.0013709692284464836
1782846202466263300,4.95726318359375,-0.0009025601902976632,-0.0012785641010850668,-0.0026255843695253134
1782846202476268500,4.9672685546875,-0.00003755930811166763,0.0009500458836555481,-0.0014741885242983699
1782846202486273000,4.97727294921875,-0.0007108064601197839,-0.0011977932881563902,-0.0007269056513905525
1782846202496278000,4.987278076171875,0.0005452430341392756,-0.00039380043745040894,-0.0013039810582995415
1782846202506283000,4.997282958984375,0.001353512518107891,0.0015271375887095928,-0.002778307069092989
1782846202516288000,5.0072880859375,-0.000022373627871274948,0.0020310680847615004,-0.0005027797888033092
1782846202526293200,5.017293212890625,0.000951011897996068,0.00011066277511417866,-0.000683608406689018
1782846202536298200,5.02729833984375,0.0014145479071885347,-0.00038703461177647114,0.0008797960472293198
1782846202546303200,5.03730322265625,0.0005008173175156116,0.0012180524645373225,-0.00037615076871588826
1782846202556308200,5.04730810546875,0.0013161045499145985,-0.0022790313232690096,0.0018508494831621647
1782846202566313200,5.057313232421875,-0.0011510479962453246,-0.00012320256792008877,-0.002358542988076806
1782846202576318200,5.067318115234375,0.000838269479572773,-0.0029244115576148033,0.0010701380670070648
1782846202586323200,5.0773232421875,0.0012784900609403849,-0.000880169216543436,0.0022824089974164963
1782846202596328200,5.087328125,0.00042859697714447975,-0.00019490043632686138,-0.0004879406187683344
1782846202606333200,5.097333251953125,-0.00092775106895715,0.0029106116853654385,-0.0006450670771300793
1782846202616338200,5.107338134765625,0.0013825655914843082,0.0012207950931042433,-0.0020460071973502636
1782846202626343200,5.11734326171875,0.000793208135291934,-0.0015832469798624516,-0.0003381220158189535
1782846202636348200,5.12734814453125,0.001443754881620407,-0.000623474596068263,0.0010731287766247988
1782846202646353200,5.137353271484375,-0.001144571346230805,0.001825568382628262,-0.0005721721099689603
1782846202656358100,5.147358154296875,-0.0013051610440015793,0.002049353439360857,-0.00024515780387446284
1782846202666363100,5.157363037109375,0.0010437469463795424,0.001091148005798459,0.00006723095430061221
1782846202676368100,5.1673681640625,0.0013796461280435324,-0.00041174329817295074,0.000558568281121552
1782846202686373000,5.177373046875,-0.0007791123352944851,0.00013793306425213814,0.00229654717259109
1782846202696378000,5.187378173828125,0.00008986750617623329,-0.0017708286177366972,0.0020665344782173634
1782846202706383000,5.197383056640625,0.0010470075067132711,-0.0011620295699685812,0.00034480076283216476
1782846202716388400,5.207388427734375,-0.0019998117350041866,-0.00007403409108519554,-0.0017472734907642007
1782846202726393300,5.217393310546875,0.0014361985959112644,0.0010652663186192513,0.0006921820458956063
1782846202736398300,5.2273984375,-0.0017899380763992667,-0.0012793783098459244,0.0012709537986665964
1782846202746403300,5.2374033203125,0.00012407568283379078,0.0014080173568800092,0.000787590048275888
1782846202756408300,5.247408203125,-0.00024182884953916073,-0.00038238149136304855,-0.00045724824303761125
1782846202766413300,5.257413330078125,0.001081762369722128,0.0011425446718931198,0.002548129064962268
1782846202776418300,5.267418212890625,0.00027693132869899273,-0.00008285162039101124,0.000035857607144862413
1782846202786423300,5.27742333984375,0.0009840007405728102,-0.0003403790760785341,-0.0005574946408160031
1782846202796428300,5.28742822265625,0.0000757377129048109,-0.00141385686583817,0.0004283665621187538
1782846202806433300,5.297433349609375,-0.00042493653018027544,-0.0016135938931256533,-0.0004701840225607157
1782846202816438300,5.307438232421875,-0.0017417857889086008,0.0013330637011677027,0.0036885759327560663
1782846202826443300,5.317443359375,-0.00006825546734035015,-0.0021796454675495625,-0.0005498448736034334
1782846202836448300,5.3274482421875,-0.0018928921781480312,0.00041006109677255154,0.000998099334537983
1782846202846453200,5.337453369140625,0.0010661461856216192,-0.00009514065459370613,-0.0011097927344962955
1782846202856458200,5.347458251953125,-0.0010985122062265873,-0.0016146977432072163,0.00028947385726496577
1782846202866463200,5.357463134765625,0.001187278889119625,-0.0016008494421839714,-0.0008215969428420067
1782846202876468200,5.36746826171875,-0.0006735133938491344,-0.00029879924841225147,0.002162057440727949
1782846202886473200,5.37747314453125,-0.0020335898734629154,0.00031319516710937023,0.0005218166625127196
1782846202896478200,5.387478271484375,0.000052462564781308174,-0.000051632290706038475,0.00046761237899772823
1782846202906483200,5.397483154296875,-0.000784302712418139,0.0018336194334551692,0.0008567001787014306
1782846202916488200,5.40748828125,0.0008234640117734671,0.0004965856205672026,-0.00020389101700857282
1782846202926493200,5.4174931640625,-0.0016319705173373222,0.000254238024353981,0.0011737621389329433
1782846202936498200,5.427498291015625,-0.00009798817336559296,0.0007288686465471983,0.0012658615596592426
1782846202946503200,5.437503173828125,-0.0005810855654999614,-0.00026768632233142853,-0.0017144819721579552
1782846202956508200,5.447508056640625,0.002534884959459305,-0.0005230880342423916,-0.0014072288759052753
1782846202966513200,5.45751318359375,0.00016653607599437237,0.002402660669758916,-0.0009196040919050574
1782846202976518100,5.46751806640625,-0.0008905676659196615,0.0011938351672142744,0.00009475531987845898
1782846202986523100,5.477523193359375,0.001250613946467638,0.00003482750616967678,-0.0028576250188052654
1782846202996528000,5.487528076171875,0.0008376522455364466,0.0018722075037658215,0.0002966997562907636
1782846203006533000,5.497533203125,0.004184979014098644,0.0006594040896743536,0.0006754012429155409
1782846203016538000,5.5075380859375,0.0008878188673406839,-0.001584813930094242,-0.0006967002991586924
1782846203026543000,5.517543212890625,-0.00006213085725903511,-0.001583215780556202,0.000595731777139008
1782846203036548000,5.527548095703125,-0.0003506103530526161,0.0014583161100745201,0.001241767080500722
1782846203046553000,5.537552978515625,0.002125596860423684,0.0011912011541426182,0.0013690661871805787
1782846203056558000,5.54755810546875,-0.001668016891926527,-0.000981710385531187,0.0020874813199043274
1782846203066563000,5.55756298828125,0.001378106651827693,0.00013761618174612522,0.004240913316607475
1782846203076568000,5.567568115234375,0.00245685875415802,0.0021968968212604523,-0.0023807520046830177
1782846203086573000,5.577572998046875,-0.0017085917061194777,-0.00017544697038829327,0.0016123917885124683
1782846203096578000,5.587578125,-0.00009457813575863838,0.00008355220779776573,-0.0016265856102108955
1782846203106583000,5.5975830078125,0.0008503114804625511,0.0006843612063676119,0.0016405803617089987
1782846203116588000,5.607588134765625,0.0007380694150924683,-0.0008199245203286409,-0.0005224118358455598
1782846203126593000,5.617593017578125,0.0000379243865609169,0.00023655151017010212,0.00019397848518565297
1782846203136598000,5.627597900390625,-0.002204149728640914,-0.0015037350822240114,-0.0006607325049117208
1782846203146603000,5.63760302734375,-0.00005231564864516258,-0.001092276768758893,-0.0026122969575226307
1782846203156608000,5.64760791015625,-0.0005771229043602943,0.0010731653310358524,0.0015055169351398945
1782846203166613000,5.657613037109375,-0.0008631463861092925,-0.0026041273958981037,0.000058355159126222134
1782846203176618000,5.667617919921875,-0.00030183675698935986,-0.0003852234221994877,-0.001959650544449687
1782846203186623000,5.677623046875,0.0006944516208022833,0.001720804488286376,0.0014542555436491966
1782846203196628000,5.6876279296875,0.001713255187496543,0.0002040807157754898,-0.0022568947169929743
1782846203206633200,5.69763330078125,0.0034203415270894766,0.0003188629634678364,-0.0024984434712678194
1782846203216638200,5.70763818359375,0.0009592082351446152,0.00353803439065814,-0.0004836945445276797
1782846203226643200,5.717643310546875,0.00016878219321370125,0.00006740284152328968,-0.001603287411853671
1782846203236648200,5.727648193359375,-0.0002967261243611574,0.00016866810619831085,0.0012123830383643508
1782846203246653200,5.737653076171875,0.00015361420810222626,-0.00147636653855443,0.003003625199198723
1782846203256658200,5.747658203125,0.00005958694964647293,0.0001233911607414484,-0.0004844286013394594
1782846203266663200,5.7576630859375,0.00128277693875134,0.000006211921572685242,0.0007419571047648787
1782846203276668200,5.767668212890625,0.00012850575149059296,-0.00039681047201156616,0.0018774702912196517
1782846203286673200,5.777673095703125,-0.0005221045576035976,-0.0010181257966905832,0.0022519107442349195
1782846203296678100,5.78767822265625,0.0007502543739974499,-0.000985817052423954,0.0005612385575659573
1782846203306683100,5.79768310546875,0.0008940650150179863,0.0009135492146015167,-0.0005543595761992037
1782846203316688100,5.807688232421875,0.0018786191940307617,-0.00018004770390689373,0.0007033058791421354
1782846203326693000,5.817693115234375,-0.00008998950943350792,0.0029310572426766157,-0.002582502318546176
1782846203336698000,5.827697998046875,0.00015849154442548752,0.000148457707837224,-0.0020478139631450176
1782846203346703000,5.837703125,-0.00046495452988892794,0.00039373477920889854,-0.0007742901798337698
1782846203356708000,5.8477080078125,-0.00040602602530270815,-0.0012048468925058842,0.0009545839275233448
1782846203366713000,5.857713134765625,0.0029833789449185133,-0.002005126792937517,0.0011742947390303016
1782846203376718000,5.867718017578125,-0.002604743931442499,-0.00123036396689713,-0.0005839445511810482
1782846203386723300,5.877723388671875,0.0012195552699267864,-0.0013115901965647936,-0.0010377471335232258
1782846203396728300,5.887728271484375,-0.0005499974358826876,-0.001304924488067627,-0.00044282095041126013
1782846203406733300,5.8977333984375,-0.0016064734663814306,0.0013292080257087946,0.0012855705572292209
1782846203416738300,5.90773828125,-0.00043266627471894026,0.0001496670302003622,0.0009461479494348168
1782846203426743300,5.917743408203125,-0.0008758163312450051,-0.0022234758362174034,0.0015352391637861729
1782846203436748300,5.927748291015625,0.0006799555849283934,0.00014718458987772465,0.0010615993523970246
1782846203446753300,5.937753173828125,0.0011617215350270271,-0.001681608147919178,-0.0019235379295423627
1782846203456758300,5.94775830078125,-0.0020306718070060015,-0.0032397019676864147,0.0014688337687402964
1782846203466763300,5.95776318359375,0.0007283631712198257,0.00009031454101204872,0.0024270392023026943
1782846203476768300,5.967768310546875,0.00007345480844378471,0.00035960739478468895,0.0014023194089531898
1782846203486773200,5.977773193359375,-0.0009220348438248038,0.00020567653700709343,0.0013543824898079038
1782846203496778200,5.9877783203125,0.0008282349444925785,-0.0015818204265087843,0.0022345250472426414
1782846203506783200,5.997783203125,-0.0006391667993739247,-0.001112571218982339,0.001551690511405468
1782846203516788200,6.007788330078125,-0.00110151048284024,0.0018112139077857137,-0.0019359039142727852
1782846203526793200,6.017793212890625,0.00008279713802039623,-0.0013962974771857262,0.002455382375046611
1782846203536798200,6.027798095703125,-0.0019177170470356941,-0.0022102282382547855,0.0017791169229894876
1782846203546803200,6.03780322265625,-0.0014077216619625688,-0.00018569338135421276,-0.0016936451429501176
1782846203556808200,6.04780810546875,-0.00022889603860676289,-0.0002004513517022133,0.0007442455971613526
1782846203566813200,6.057813232421875,0.0007820399478077888,0.0010965082328766584,-0.0012842841679230332
1782846203576818200,6.067818115234375,-0.0007773583056405187,-0.0011514495126903057,0.0013425401411950588
1782846203586823200,6.0778232421875,-0.0003978578606620431,0.0012507218634709716,0.0007462583016604185
1782846203596828200,6.087828125,-0.0005312733119353652,0.0013692474458366632,0.0006816810346208513
1782846203606833200,6.097833251953125,-0.0001813338603824377,-0.0009626161772757769,0.001888625556603074
1782846203616838100,6.107838134765625,-0.0006636747857555747,0.00021468871273100376,0.00014412682503461838
1782846203626843100,6.117843017578125,-0.00034196488559246063,-0.0008692177943885326,0.0008346844697371125
1782846203636848000,6.12784814453125,-0.000651311594992876,0.0008205571211874485,-0.00036078563425689936
1782846203646853000,6.13785302734375,0.0005764055531471968,-0.0009698858484625816,-0.0005932796048000455
1782846203656858000,6.147858154296875,-0.0015919379657134414,-0.0018898833077400923,0.0013750926591455936
1782846203666863000,6.157863037109375,-0.0018742330139502883,0.001128809992223978,-0.0015045832842588425
1782846203676868000,6.1678681640625,-0.0006880935980007052,-0.0011609492357820272,0.001093577011488378
1782846203686873000,6.177873046875,0.0007872977294027805,-0.0003494839183986187,0.00228960276581347
1782846203696878000,6.187878173828125,0.000827328534796834,0.0016786028863862157,-0.0002616728888824582
1782846203706883000,6.197883056640625,-0.004674762487411499,-0.002034376375377178,0.0006027892231941223
1782846203716887300,6.20788720703125,-0.00042672117706388235,-0.0020328459795564413,0.0002582774613983929
1782846203726892300,6.217892333984375,0.00018713739700615406,0.0003685262054204941,-0.000419763324316591
1782846203736897300,6.227897216796875,0.00009508244693279266,0.00017655780538916588,0.0004906912799924612
1782846203746902300,6.23790234375,-0.00023008952848613262,-0.0007009536493569613,-0.00024008011678233743
1782846203756907300,6.2479072265625,0.0011476040817797184,0.000786518445238471,-0.0008940271800383925
1782846203766912300,6.257912353515625,-0.0012676167534664273,-0.0006635726895183325,-0.00027590745594352484
1782846203776917200,6.267917236328125,0.0010298332199454308,0.0006172931753098965,0.0008189112995751202
1782846203786922200,6.277922119140625,0.0005928084719926119,-0.00020189513452351093,-0.0013374502304941416
1782846203796927200,6.28792724609375,-0.0018028455087915063,-0.0005571329966187477,-0.0008585931500419974
1782846203806932200,6.29793212890625,0.0003753539640456438,-0.000237287487834692,-0.002129453467205167
1782846203816937200,6.307937255859375,-0.0014996816171333194,0.001076974207535386,-0.0012534258421510458
1782846203826942200,6.317942138671875,-0.0005838205106556416,-0.0013523614034056664,-0.0015205407980829477
1782846203836947200,6.327947265625,-0.0010033986764028668,-0.0011213053949177265,0.0037352866493165493
1782846203846952200,6.3379521484375,-0.0008816922781988978,0.0023807515390217304,-0.003507712623104453
1782846203856957200,6.347957275390625,0.0012575313448905945,-0.000174062792211771,-0.000030628638342022896
1782846203866962200,6.357962158203125,0.00003274367190897465,-0.0006414474919438362,-0.0018093539401888847
1782846203876967200,6.36796728515625,-0.0010045013623312116,0.0022030151449143887,0.0014016620116308331
1782846203886972200,6.37797216796875,-0.0007389842066913843,-0.00015681167133152485,-0.0008788027917034924
1782846203896977200,6.38797705078125,-0.002100409008562565,-0.0018960493616759777,0.0018866253085434437
1782846203906982100,6.397982177734375,0.00014463579282164574,-0.0011900453828275204,-0.0005139480344951153
1782846203916987100,6.407987060546875,-0.0011049213353544474,-0.001519273268058896,0.0008436515927314758
1782846203926992100,6.4179921875,-0.0004375331336632371,0.0008003402035683393,0.0017491263570263982
1782846203936997000,6.4279970703125,-0.0025502571370452642,-0.0027780618984252214,-0.001851073233410716
1782846203947002000,6.438002197265625,0.0010655166115611792,-0.0005897425580769777,-0.0010678375838324428
1782846203957007000,6.448007080078125,0.0010947484988719225,0.0010390172246843576,-0.002731815678998828
1782846203967012000,6.45801220703125,-0.0006136693991720676,-0.00007072184234857559,0.0015926252817735076
1782846203977017300,6.468017333984375,-0.0003961034817621112,0.0006984241772443056,-0.0007906597456894815
1782846203987022300,6.478022216796875,-0.0037767202593386173,0.000617197947576642,0.0031881029717624187
1782846203997027300,6.48802734375,0.0010231060441583395,0.00014148070476949215,0.0011950996704399586
1782846204007032300,6.4980322265625,0.001659867586567998,-0.002574144396930933,-0.004486221820116043
1782846204017037300,6.508037353515625,-0.0011633323738351464,-0.0012601413764059544,-0.000042142695747315884
1782846204027042300,6.518042236328125,-0.0004956778138875961,-0.0018883808515965939,0.0008952900534495711
1782846204037047300,6.52804736328125,-0.00026085530407726765,0.0009067861828953028,-0.0003443410969339311
1782846204047052300,6.53805224609375,0.0011772518046200275,-0.0003456985577940941,-0.00045992230297997594
1782846204057057300,6.548057373046875,0.00017997785471379757,0.00023263669572770596,0.0013158634537830949
1782846204067062300,6.558062255859375,-0.00009139836765825748,0.0024830077309161425,-0.003959858790040016
1782846204077067300,6.5680673828125,-0.0012073792750015855,-0.0002835316117852926,-0.0052863676100969315
1782846204087072300,6.578072265625,-0.0014878101646900177,0.0008677530568093061,0.0007603392587043345
1782846204097077200,6.5880771484375,-0.0010087311966344714,0.001058096531778574,7.621711120009422e-7
1782846204107082200,6.598082275390625,0.0008560142014175653,-0.0012567229568958282,0.0011009139707311988
1782846204117087500,6.60808740234375,0.0004757605493068695,-0.00006186473183333874,0.00019777187844738364
1782846204127092500,6.618092529296875,0.0007926765829324722,0.0005815550684928894,-0.0017580536659806967
1782846204137097500,6.628097412109375,-0.0019246124429628253,0.000635410426184535,0.0012969496892765164
1782846204147102500,6.6381025390625,-0.0017403217498213053,-0.0005994974635541439,-0.001798175973817706
1782846204157107500,6.648107421875,0.0007456105668097734,-0.0013044944498687983,-0.00002378947101533413
1782846204167112400,6.658112548828125,-0.0006466900231316686,0.000046793604269623756,0.0012092541437596083
1782846204177117400,6.668117431640625,-0.0003291500033810735,-0.0002654145937412977,0.0006371863419190049
1782846204187122400,6.678122314453125,-0.00029319734312593937,0.0010533826425671577,-0.0013551244046539068
1782846204197127400,6.68812744140625,0.0012520765885710716,-0.0005322720389813185,0.0007668488542549312
1782846204207132400,6.69813232421875,0.0013080029748380184,-0.0005855353083461523,-0.0001846986124292016
1782846204217137400,6.708137451171875,0.0007487800903618336,-0.0004923096857964993,-0.0008393108728341758
1782846204227142400,6.718142333984375,-0.0021902844309806824,-0.0012624957598745823,-0.002386074746027589
1782846204237147400,6.7281474609375,0.0010446775704622269,0.0015705913538113236,-0.002511661034077406
1782846204247152400,6.73815234375,0.0005975328385829926,0.0025700756814330816,-0.0003036344423890114
1782846204257157400,6.748157470703125,0.0005816943012177944,0.0013870716793462634,-0.0003654130850918591
1782846204267162400,6.758162353515625,-0.0006247176788747311,0.0014738907339051366,-0.00045968900667503476
1782846204277167400,6.76816748046875,0.001560368575155735,-0.0005186090711504221,-0.00027594430139288306
1782846204287172400,6.77817236328125,0.0005861842073500156,-0.0007393851410597563,0.0012867986224591732
1782846204297177300,6.78817724609375,0.0023015253245830536,-0.0008730210829526186,0.0006006432231515646
1782846204307182300,6.798182373046875,-0.0016553992172703147,-0.000505771255120635,0.00009357737144455314
1782846204317187300,6.808187255859375,0.0009411070495843887,-0.0009679158683866262,0.001134112011641264
1782846204327192300,6.8181923828125,-0.0024672066792845726,0.0003993511199951172,0.0006435576942749321
1782846204337197300,6.828197265625,0.0002866983413696289,0.000013292301446199417,0.000614822143688798
1782846204347202300,6.838202392578125,0.0003769795875996351,-0.0015156283043324947,0.0007343980832956731
1782846204357207300,6.848207275390625,0.0015236791223287582,0.00001715659163892269,0.00010135734919458628
1782846204367212300,6.85821240234375,-0.0013565296540036798,0.00031489809043705463,-0.001134615857154131
1782846204377217300,6.86821728515625,0.0012966920621693134,-0.0014519230462610722,-0.0013824750203639269
1782846204387222300,6.87822216796875,-0.0008154610404744744,-0.00007879710756242275,-0.0005166813498362899
1782846204397227300,6.888227294921875,-0.0005388194695115089,-0.0008281224872916937,-0.001519718673080206
1782846204407232300,6.898232177734375,-0.0002999339485540986,0.002563146874308586,0.0003053456312045455
1782846204417237200,6.9082373046875,-0.0006285530980676413,-0.0002076486125588417,0.0003213993040844798
1782846204427242200,6.9182421875,-0.0015816984232515097,0.0023332734126597643,-0.0005952607607468963
1782846204437247200,6.928247314453125,0.000569379422813654,0.002060856204479933,-0.0010706344619393349
1782846204447252200,6.938252197265625,0.0004982731770724058,0.000784935662522912,-0.00045544427121058106
1782846204457257200,6.94825732421875,-0.00032913126051425934,-0.0006852957885712385,-0.00020957255037501454
1782846204467262200,6.95826220703125,0.0018812925554811954,0.0008843715768307447,-0.0013374211266636848
1782846204477267200,6.96826708984375,0.00028279656544327736,-0.00038215145468711853,0.000244040391407907
1782846204487272000,6.97827197265625,0.00038053467869758606,0.0012149461545050144,0.00040995533345267177
1782846204497277000,6.98827685546875,0.001523706130683422,-0.0004092263989150524,-0.0017585891764611006
1782846204507282000,6.998281982421875,-0.0003721982939168811,-0.0010497167240828276,-0.0018118522129952908
1782846204517287000,7.008286865234375,0.001491352217271924,0.0023191121872514486,-0.0012105482164770365
1782846204527292000,7.0182919921875,-0.0014959154650568962,0.002555334474891424,0.00006750290049239993
1782846204537297000,7.028296875,-0.00007296563126146793,0.0010153674520552158,0.0006943222251720726
1782846204547302000,7.038302001953125,0.0024176223669201136,0.0009935295674949884,0.0015417400281876326
1782846204557307000,7.048306884765625,0.002313117031008005,0.0013002483174204826,-0.0029154743533581495
1782846204567312100,7.05831201171875,0.0010316038969904184,0.0008475109934806824,-0.000444327131845057
1782846204577317000,7.068317138671875,-0.00008370284922420979,0.002993989270180464,0.0019072582945227623
1782846204587322000,7.078322021484375,-0.00042192440014332533,0.0006698486395180225,0.0006225494435057044
1782846204597327000,7.0883271484375,0.0010605431161820889,-0.0008750383276492357,-0.00025459349853917956
1782846204607332000,7.09833203125,0.001474931137636304,0.0001430879347026348,0.0009773847414180636
1782846204617337000,7.108337158203125,-0.0004898683400824666,-0.0012719191145151854,-0.0006030850927345455
1782846204627342000,7.118342041015625,-0.00039559253491461277,0.00011984887532889843,-0.0016710124909877777
1782846204637346000,7.128345947265625,-0.00046354043297469616,0.0015527871437370777,0.00016152410535141826
1782846204647351000,7.13835107421875,-0.0005919048562645912,0.0023133859504014254,-0.0028869963716715574
1782846204657356000,7.14835595703125,-0.000661335070617497,-0.00003329012542963028,-0.0002283869544044137
1782846204667361000,7.158361083984375,0.0020601493306457996,-0.0024463802110403776,0.00022861146135255694
1782846204677366000,7.168365966796875,-0.0021614476572722197,-0.0009070297237485647,0.0008870188030414283
1782846204687371000,7.17837109375,0.0007163642439991236,0.0011068526655435562,-0.0012890500947833061
1782846204697376000,7.1883759765625,0.00004789978265762329,-0.00009622983634471893,0.0017523333663120866
1782846204707381000,7.198381103515625,0.0004926477558910847,0.003228194313123822,-0.0006200105417519808
1782846204717386000,7.208385986328125,0.0015045390464365482,-0.0012331544421613216,0.0006953865522518754
1782846204727391000,7.218390869140625,-0.000057937344536185265,-0.002960214391350746,-0.0016157045029103756
1782846204737396000,7.22839599609375,-0.0006593499565497041,0.00017840485088527203,-0.000597234582528472
1782846204747401000,7.23840087890625,-0.0009941093157976866,0.00030916626565158367,-0.0007197399390861392
1782846204757406000,7.248406005859375,-0.001458556391298771,0.0014538114191964269,-0.0002694097929634154
1782846204767411000,7.258410888671875,0.0023039577063173056,-0.0024714216124266386,0.0014310185797512531
1782846204777416000,7.268416015625,-0.0030756171327084303,-0.0008302328642457724,0.003484033979475498
1782846204787421000,7.2784208984375,0.0019524309318512678,-0.0015700587537139654,0.003377507673576474
1782846204797426000,7.288426025390625,-0.0011646818602457643,-0.001226902473717928,0.0007003318751230836
1782846204807431000,7.298430908203125,0.00023800507187843323,0.00047086295671761036,0.00037569255800917745
1782846204817436000,7.308435791015625,-0.0006687267450615764,0.0002246072981506586,0.000993883004412055
1782846204827441000,7.31844091796875,-0.0007185278227552772,-0.0004987071733921766,-0.0002772437874227762
1782846204837446000,7.32844580078125,0.0005519874393939972,-0.0003939117304980755,-0.0020622280426323414
1782846204847451000,7.338450927734375,-0.0007718699052929878,-0.000049564987421035767,-0.0009857781697064638
1782846204857455900,7.348455810546875,0.00016050972044467926,0.0002054071519523859,0.000024713808670639992
1782846204867460900,7.3584609375,-0.0026485926937311888,-0.0017237868160009384,0.00030887313187122345
1782846204877465900,7.3684658203125,0.0015388296451419592,0.0012131105177104473,0.00045814135228283703
1782846204887470800,7.378470947265625,0.00012735440395772457,0.0004748823121190071,-0.0034822719171643257
1782846204897475800,7.388475830078125,-0.001513911527581513,-0.0007014269940555096,-0.0002528545446693897
1782846204907480800,7.398480712890625,0.0023237033747136593,-0.0007685385644435883,-0.0008587236516177654
1782846204917486000,7.408486083984375,-0.00018452131189405918,0.00026098848320543766,0.00029208051273599267
1782846204927491000,7.418490966796875,0.00022960035130381584,-0.00009907083585858345,0.0013440290931612253
1782846204937496000,7.42849609375,0.0010116330813616514,0.002249556127935648,-0.00045263906940817833
1782846204947501000,7.4385009765625,0.0021538627333939075,0.00018214411102235317,0.0003686797572299838
1782846204957506000,7.448506103515625,-0.0007460361812263727,-0.0013441392220556736,0.00010490446584299207
1782846204967511000,7.458510986328125,0.0012824935838580132,0.001365627278573811,-0.000008013565093278885
1782846204977516000,7.46851611328125,0.0026585988234728575,0.0005174740217626095,0.00039525178726762533
1782846204987521000,7.47852099609375,-0.0006977829616516829,0.0002705988008528948,0.0013321518199518323
1782846204997526000,7.488526123046875,0.0012718490324914455,-0.0020346231758594513,0.00049778469838202
1782846205007531000,7.498531005859375,0.001273446949198842,-0.0007155595812946558,0.0011444002157077193
1782846205017536000,7.508535888671875,0.0018883782904595137,0.0010946590919047594,-0.0019785375334322453
1782846205027541000,7.518541015625,-0.00012497161515057087,0.000031791627407073975,-0.0009095447021536529
1782846205037546000,7.5285458984375,-0.0008576081600040197,-0.0005135422106832266,0.0012402525171637535
1782846205047551000,7.538551025390625,0.0016707968898117542,-0.0014131581410765648,0.0008953731739893556
1782846205057556000,7.548555908203125,0.0011977842077612877,0.0005055917426943779,-0.0003846525796689093
1782846205067561000,7.55856103515625,-0.0009676320478320122,-0.0009165361989289522,-0.0035538142547011375
1782846205077566000,7.56856591796875,-0.0006249028956517577,0.0012760458048433065,0.0022861487232148647
1782846205087571000,7.578571044921875,-0.0004659121623262763,-0.0026510516181588173,-0.00006275932537391782
1782846205097576000,7.588575927734375,0.00082356296479702,0.000743550481274724,-0.0009392622159793973
1782846205107581000,7.598580810546875,0.001331960316747427,0.0003757679369300604,0.00020003813551738858
1782846205117586000,7.6085859375,-0.0021335214842110872,0.0002866222057491541,0.0023025337141007185
1782846205127591000,7.6185908203125,-0.0002906140871345997,-0.000879309605807066,0.0007991793099790812
1782846205137596000,7.628595947265625,-0.0015809385804459453,0.000236965948715806,-0.00048679509200155735
1782846205147601000,7.638600830078125,0.0014492061454802752,0.0011328533291816711,-0.002868460025638342
1782846205157606000,7.64860595703125,-0.0000037315767258405685,0.00015139044262468815,-0.00042961875442415476
1782846205167611000,7.65861083984375,0.002123335376381874,-0.00057432078756392,-0.000617904239334166
1782846205177616000,7.668615966796875,0.00040154624730348587,-0.0013228398747742176,-0.0023799382615834475
1782846205187620900,7.678620849609375,-0.0014027454890310764,-0.0018504122272133827,0.0007101275841705501
1782846205197625900,7.6886259765625,-0.0004546879790723324,0.0008722452912479639,0.002277663443237543
1782846205207630800,7.698630859375,0.0020678583532571793,0.00023628235794603825,-0.001580990618094802
1782846205217635800,7.7086357421875,-0.0007644211873412132,0.001406260416842997,0.0006613305304199457
1782846205227640800,7.718640869140625,-0.00039930175989866257,0.0004674962256103754,-0.0004412181442603469
1782846205237645800,7.728645751953125,0.0014360342174768448,-0.00011182227171957493,0.0007479001651518047
1782846205247650800,7.73865087890625,0.00008048512972891331,-0.0013573826290667057,-0.0005722287460230291
1782846205257655800,7.74865576171875,0.00036138156428933144,0.0004071344155818224,0.0003939321031793952
1782846205267660800,7.758660888671875,0.0010186496656388044,-0.000536423409357667,0.0005428027943708003
1782846205277665800,7.768665771484375,-0.000262643676251173,0.000247288029640913,0.0017803879454731941
1782846205287670800,7.7786708984375,-0.0007681116694584489,0.0006241253577172756,-0.002025801921263337
1782846205297675800,7.78867578125,-0.0006507032085210085,-0.00045239226892590523,0.00004050019197165966
1782846205307680800,7.7986806640625,0.0005280119366943836,0.0025865407660603523,0.0016003136988729239
1782846205317685800,7.808685791015625,0.0014252585824579,-0.0007406910881400108,0.0002990898792631924
1782846205327690800,7.818690673828125,-0.000055991578847169876,-0.0004416180308908224,0.001351038459688425
1782846205337695700,7.82869580078125,-0.001704995520412922,0.0005505781155079603,0.00019914552103728056
1782846205347700700,7.83870068359375,0.00013072136789560318,-0.0005817979108542204,-0.0002533255610615015
1782846205357705700,7.848705810546875,-0.0009575336007401347,-0.0002086253371089697,0.002434738213196397
1782846205367710700,7.858710693359375,-0.0004403477068990469,-0.0013942646328359842,-0.00019779650028795004
1782846205377715700,7.8687158203125,0.0006576296873390675,0.0008899036329239607,-0.0003542831400409341
1782846205387720000,7.878719970703125,0.0007891899440437555,-0.0014454221818596125,0.00045478512765839696
1782846205397725000,7.888724853515625,0.001094947336241603,-0.0002143867313861847,0.00034637871431186795
1782846205407730000,7.89872998046875,0.0003218315541744232,0.0006356942467391491,0.0013922021025791764
1782846205417735000,7.90873486328125,-0.0011484023416414857,-0.0012120399624109268,-0.002060812897980213
1782846205427740000,7.918739990234375,0.0008516316302120686,0.0019597846549004316,0.0001496108015999198
1782846205437745000,7.928744873046875,-0.000242630485445261,0.00018187286332249641,-0.0000824162270873785
1782846205447750000,7.93875,-0.00015980610623955727,0.0009715000633150339,0.000012658594641834497
1782846205457755000,7.9487548828125,0.0005650520324707031,-0.0000641967635601759,-0.0012351335026323795
1782846205467759900,7.958759765625,0.0003456077538430691,0.0021057468838989735,0.0010429344838485122
1782846205477764900,7.968764892578125,-0.0004619504325091839,0.0007140783127397299,0.00003747787559404969
1782846205487770400,7.978770263671875,0.0011298209428787231,-0.0018766450230032206,-0.00032870681025087833
1782846205497775400,7.988775390625,0.00011825049296021461,-0.00026605394668877125,-0.0016953983576968312
1782846205507780400,7.9987802734375,-0.00018748058937489986,0.0012138646561652422,-0.0014676981372758746
1782846205517785300,8.008785400390625,-0.0019028489477932453,-0.0010875503066927195,-0.00015154050197452307
1782846205527790300,8.018790283203124,-0.0024258936755359173,-0.0008654429111629725,-0.0011875100899487734
1782846205537795300,8.02879541015625,-0.0009485527407377958,0.0006884194444864988,0.00017065752763301134
1782846205547800300,8.03880029296875,-0.0017360494239255786,-0.002767564496025443,0.00034482829505577683
1782846205557805300,8.048805419921875,0.00021668407134711742,0.00006666569970548153,-0.0037294351495802402
1782846205567810300,8.058810302734376,0.002028166316449642,0.0015130285173654556,-0.0022503153886646032
1782846205577815300,8.068815185546875,-0.0011628801003098488,0.0033103839959949255,-0.00046469958033412695
1782846205587820300,8.0788203125,0.0019828458316624165,-0.00026783905923366547,-0.0016617905348539352
1782846205597825300,8.0888251953125,-0.0015882552834227681,0.0005612035747617483,-0.00002909940667450428
1782846205607830300,8.098830322265625,0.002188373589888215,-0.0008057968225330114,-0.0024485811591148376
1782846205617835300,8.108835205078124,-0.001559818396344781,0.0013173911720514297,0.0004751679371111095
1782846205627840300,8.11884033203125,-0.0007552774623036385,-0.0014139467384666204,-0.00035706989001482725
1782846205637845200,8.12884521484375,-0.0010070024291053414,0.00047871354036033154,-0.00023118755780160427
1782846205647850200,8.138850341796875,-0.0017889065202325583,-0.001680044922977686,-0.001084464485757053
1782846205657855200,8.148855224609376,0.0023029414005577564,-0.00025554304011166096,0.00024757691426202655
1782846205667860200,8.158860107421875,0.0010882734786719084,0.00023820693604648113,-0.001589471590705216
1782846205677865200,8.168865234375,-0.000015382422134280205,-0.0024509935174137354,0.00003569887485355139
1782846205687870200,8.1788701171875,0.0000021944288164377213,-0.002361777937039733,0.0023393332958221436
1782846205697875200,8.188875244140625,0.002083896193653345,-0.0015041527803987265,0.0012864487944170833
1782846205707880200,8.198880126953124,0.0004085015971213579,-0.0005824328400194645,0.0013799257576465607
1782846205717885200,8.20888525390625,-0.0010819535236805677,0.0014260273892432451,0.0003763407003134489
1782846205727890200,8.21889013671875,-0.0014028644654899836,0.0012744935229420662,0.002241618698462844
1782846205737895200,8.228895263671875,0.0007744964677840471,0.0014899520901963115,0.0019775533583015203
1782846205747900200,8.238900146484376,-0.001448177732527256,-0.0012717458885163069,0.0008622215827926993
1782846205757905200,8.2489052734375,-0.0007747249910607934,-0.0011480743996798992,0.0004892406286671758
1782846205767910100,8.25891015625,0.00296568451449275,0.002102314028888941,0.0022463942877948284
1782846205777915100,8.2689150390625,0.0026214171666651964,0.0019381374586373568,-0.0017894175834953785
1782846205787920100,8.278920166015626,0.00002749823033809662,0.0011897892691195011,-0.0015454718377441168
1782846205797925000,8.288925048828125,-0.0004842046182602644,0.00022931210696697235,-0.0006218672497197986
1782846205807930000,8.29893017578125,-0.00079233234282583,-0.0014149234630167484,-0.0038128667511045933
1782846205817935000,8.30893505859375,0.0010884348303079605,0.0007630076725035906,-0.0005558535922318697
1782846205827940400,8.3189404296875,0.001084706513211131,-0.00024979235604405403,-0.0007537264609709382
1782846205837945300,8.3289453125,-0.0017672935500741005,0.00006638327613472939,0.001937028137035668
1782846205847950300,8.338950439453125,0.0001275455579161644,-0.000056921038776636124,-0.0015410601627081633
1782846205857955300,8.348955322265626,-0.00040495418943464756,-0.0014164021704345942,0.0013440728653222322
1782846205867960300,8.358960205078125,0.0008067842572927475,-0.003128282492980361,-0.0023377472534775734
1782846205877965300,8.36896533203125,0.0012622675858438015,0.00030917394906282425,-0.002085787709802389
1782846205887970300,8.37897021484375,-0.0017305929213762283,0.0025853775441646576,-0.002487392397597432
1782846205897975600,8.3889755859375,0.00008395104669034481,0.0022686554584652185,-0.002202354371547699
1782846205907980500,8.39898046875,0.0013034124858677387,0.00012347917072474957,-0.0009200425120070577
1782846205917985500,8.408985595703125,0.0009944040793925524,0.0034186290577054024,0.0004409527755342424
1782846205927990500,8.418990478515624,-0.00019815959967672825,0.0005397519562393427,0.001291033811867237
1782846205937995500,8.42899560546875,-0.001264362595975399,0.0016307884361594915,0.00017598166596144438
1782846205948000500,8.43900048828125,0.00062515027821064,0.000058191828429698944,-0.0000019174767658114433
1782846205958005500,8.449005615234375,0.0010430910624563694,0.001209441339597106,0.0002911341143772006
1782846205968010500,8.459010498046876,0.0006063326727598906,0.0014126404421404004,0.001916727633215487
1782846205978015500,8.469015380859375,-0.0006286648567765951,-0.0008486441802233458,-0.0009929877705872059
1782846205988020500,8.4790205078125,-0.0015213564038276672,-0.000263547757640481,-0.002147201681509614
1782846205998025500,8.489025390625,0.0006109003443270922,0.00007564201951026917,0.0005835834890604019
1782846206008029200,8.499029296875,-0.0014703599736094475,0.001182185485959053,0.0035673892125487328
1782846206018034200,8.5090341796875,-0.0014256297145038843,-0.00042168982326984406,-0.00025699182879179716
1782846206028039200,8.5190390625,-0.0007342731114476919,0.0001689994242042303,-0.0008498114766553044
1782846206038044200,8.529044189453124,-0.0007333729881793261,0.000482392031699419,0.002227921038866043
1782846206048049200,8.539049072265625,-0.000739231938496232,-0.0014366819523274899,-0.00032019137870520353
1782846206058054100,8.54905419921875,0.00110153341665864,-0.003415446961298585,0.002380251418799162
1782846206068059400,8.559059326171875,-0.0017682890174910426,0.001517526456154883,0.001472379663027823
1782846206078064400,8.569064453125,-0.0013255290687084198,-0.003510064212605357,-0.00145281373988837
1782846206088069400,8.5790693359375,-0.0012525584315881133,0.000696931267157197,0.0015174096915870905
1782846206098074400,8.589074462890625,0.0012047721538692713,-0.00033065141178667545,0.0006115562282502651
1782846206108079400,8.599079345703124,-0.0016389512456953526,0.01887446828186512,0.01323547214269638
1782846206118084400,8.60908447265625,-0.008645386435091496,0.03424449265003204,0.0018122574547305703
1782846206128089300,8.61908935546875,0.0033859764225780964,-0.01854628510773182,0.0036927154287695885
1782846206138094300,8.62909423828125,0.0034149796701967716,0.004330339375883341,-0.001362487906590104
1782846206148099300,8.639099365234374,-0.004511120729148388,-0.0009485783521085978,-0.005797982215881348
1782846206158104300,8.649104248046875,-0.0017815163591876626,-0.01609758287668228,-0.0038262957241386175
1782846206168109300,8.659109375,0.004106998909264803,-0.006959211081266403,-0.0016339817084372044
1782846206178114300,8.6691142578125,0.0002227681688964367,-0.007930489256978035,-0.0010896014282479882
1782846206188119300,8.679119384765626,-0.0005391620798036456,-0.002382325241342187,0.0011623675236478448
