time,seconds_elapsed,z,y,x
1782845387286990300,0.082990234375,0.03542611816823482,-0.34077450812160964,-0.3849541338488459
1782845387296995300,0.092995361328125,0.14753098686933516,-0.29869696924015876,-0.33050774645544584
1782845387306999300,0.102999267578125,0.22970073603391647,-0.3104239396519959,-0.21465886892043054
1782845387317004300,0.11300439453125,0.3361842577219009,-0.3962136328794062,-0.10527641092054545
1782845387327008300,0.12300830078125,0.4560083224982023,-0.45182592224702234,0.02610737794190645
1782845387337013200,0.13301318359375,0.5427905338943004,-0.5037243056580424,0.10157558364123105
1782845387347017200,0.143017333984375,0.5632961463063955,-0.5373527267545462,0.1790984568480402
1782845387357022200,0.153022216796875,0.5893523785829544,-0.5581723735518753,0.2868161965060979
1782845387367026400,0.1630263671875,0.5667284588426351,-0.6010445699423551,0.3408847635630518
1782845387377031400,0.173031494140625,0.49547231788039203,-0.6440114588789642,0.3293126183867454
1782845387387035400,0.183035400390625,0.4045125285387039,-0.6213552443042397,0.3466175350613892
1782845387397040400,0.193040283203125,0.4437807090878486,-0.681186028149724,0.2767843395743519
1782845387407044400,0.20304443359375,0.5052560452699661,-0.7682341970056294,0.25912768685258925
1782845387417049300,0.21304931640625,0.5277303274065256,-0.8634840847566724,0.22332849758826195
1782845387427053300,0.22305322265625,0.5254401706427335,-0.9531620175942778,0.1593170670572668
1782845387437058300,0.233058349609375,0.46786768711805343,-0.9890677359730005,0.12374160354621708
1782845387447062300,0.243062255859375,0.39844519132375716,-0.9428720942482351,-0.006556874297559261
1782845387457067300,0.2530673828125,0.3210673526108265,-0.8584365921087562,-0.1746509028546512
1782845387467071200,0.2630712890625,0.34786125151216984,-0.8221480118922889,-0.3310601927064359
1782845387477076200,0.273076171875,0.41681379170715804,-0.8089588599734008,-0.44282823066860433
1782845387487080400,0.28308056640625,0.41401159376800056,-0.8941868276648223,-0.5226354154203087
1782845387497085400,0.29308544921875,0.3751327047973871,-1.0589825453288852,-0.5822384549245238
1782845387507089400,0.30308935546875,0.3658832304149866,-1.1586597480028866,-0.6239820856764913
1782845387517094400,0.313094482421875,0.3394868063986301,-1.1584892137415705,-0.6143370361052454
1782845387527098400,0.323098388671875,0.28328911835849285,-1.1817901559606194,-0.5786850002266466
1782845387537103400,0.333103271484375,0.18793956962525843,-1.215220278006047,-0.5068945331919938
1782845387547107300,0.343107421875,0.09875146613121032,-1.163835543205589,-0.39541473758667706
1782845387557112300,0.3531123046875,0.0805488699644804,-1.0891025199130178,-0.33713571322783825
1782845387567116300,0.3631162109375,0.11107727921903132,-1.037525185149908,-0.33170243613272904
1782845387577121300,0.373121337890625,0.1359574534535408,-1.0348714557707308,-0.33523338673785325
1782845387587125200,0.383125244140625,0.07014671841561794,-1.0848793492600322,-0.28837672382108864
1782845387597130200,0.393130126953125,0.02590308754146099,-1.048548975728452,-0.21836320333108306
1782845387607134500,0.403134521484375,-0.08798574196696281,-1.0473422302871942,-0.2157699719674885
1782845387617139500,0.413139404296875,-0.310547712162137,-1.0946008250683545,-0.19692177137359976
1782845387627143400,0.423143310546875,-0.5624883370548487,-1.0789055355474353,-0.14828187830187378
1782845387637148400,0.4331484375,-0.6898001272380352,-1.0666977958813308,-0.16677571250014006
1782845387647152000,0.443152099609375,-0.7413613876491785,-1.1059978328734636,-0.20265578498095274
1782845387657157400,0.453157470703125,-0.7514379605054855,-1.0731545708052814,-0.2561644531328231
1782845387667161300,0.463161376953125,-0.704526571726799,-1.0031656732998788,-0.38577531403861937
1782845387677166300,0.473166259765625,-0.6715723966300488,-0.9568781155079603,-0.49043264321275054
1782845387687170300,0.48317041015625,-0.5508768097162247,-0.8821290178634226,-0.6102887105625122
1782845387697175300,0.49317529296875,-0.3906038301736116,-0.8542604754678904,-0.742131641369313
1782845387707179300,0.50317919921875,-0.2766764222204685,-0.8259173012979328,-0.7403720112856477
1782845387717183700,0.513183837890625,-0.20801497392654417,-0.8116141967877745,-0.7952666539032012
1782845387727188000,0.52318798828125,-0.07993512198030948,-0.770550511123985,-0.8676978299941867
1782845387737193000,0.53319287109375,-0.020644728621840476,-0.6904042306110263,-0.9359071506064385
1782845387747197000,0.543197021484375,-0.027402970710396764,-0.45116804286018014,-0.9467886101048439
1782845387757202000,0.553201904296875,-0.08126549380123614,-0.19699805148020386,-0.962156275106594
1782845387767205600,0.56320556640625,-0.2264659918963909,-0.04281330581009388,-0.9421158690534531
1782845387777210600,0.573210693359375,-0.4693330834954977,0.0902120397143066,-0.7862332334242761
1782845387787214800,0.58321484375,-0.6690232966691255,0.13614011654406785,-0.6474483745250851
1782845387797219800,0.5932197265625,-0.8900748623013496,0.15954831852987408,-0.5748602543067187
1782845387807223800,0.603223876953125,-1.0489134251266716,0.10061638322025537,-0.5671478532984853
1782845387817228800,0.613228759765625,-1.0887012456357479,0.05297054268717766,-0.5190979620091617
1782845387827232800,0.623232666015625,-0.9793383691191673,0.12488587821051478,-0.4730915592461824
1782845387837237800,0.63323779296875,-0.75635320507586,0.20618322845473885,-0.49177346336245537
1782845387847242000,0.643241943359375,-0.516944144976139,0.23725275884866714,-0.5345268556788564
1782845387857245700,0.65324560546875,-0.3573129704684019,0.31507907198145985,-0.5292503765806555
1782845387867251000,0.6632509765625,-0.287382525151968,0.48565512661263344,-0.5058614272845908
1782845387877254700,0.673254638671875,-0.2782809348076582,0.7110247015744448,-0.46103342065121977
1782845387887259600,0.683259765625,-0.2186930198073387,0.8289476089045404,-0.3418865610167384
1782845387897263900,0.693263916015625,-0.11652560775279998,0.8216856550775468,-0.19397906898520886
1782845387907268900,0.703268798828125,0.10805296296179294,0.817489080170542,-0.002968932808190584
1782845387917272800,0.71327294921875,0.39354865145385265,0.7865554511159658,0.20085257148388772
1782845387927277800,0.72327783203125,0.6445885281145572,0.6913106779314577,0.40025585747491566
1782845387937281800,0.73328173828125,0.7679600562393665,0.6495432279124855,0.6394425435282289
1782845387947286800,0.743286865234375,0.7856120327860117,0.5800929673284292,0.8773096348829567
1782845387957291000,0.753291015625,0.7100871284633874,0.49957376184985036,1.061600765003264
1782845387967296000,0.7632958984375,0.7415712310075759,0.32785993536040187,1.0853516429468988
1782845387977299700,0.7732998046875,0.630543636149168,0.26822803508788345,1.1698078956134617
1782845387987304700,0.7833046875,0.43960546922981736,0.22142580577209592,1.1971334171734749
1782845387997308700,0.79330859375,0.15850655439198016,0.18745821584910152,1.2241354058675467
1782845388007313700,0.803313720703125,-0.16333412067890166,0.2836013991780579,1.352956431569904
1782845388017318000,0.81331787109375,-0.3449205218851566,0.31720643939897414,1.465228619661927
1782845388027323000,0.823322998046875,-0.48149055427908893,0.21945698991715906,1.4885279544457792
1782845388037326800,0.833326904296875,-0.5223959806412458,0.04192921645194292,1.3532804028272627
1782845388047331800,0.843331787109375,-0.4505652546614408,0.020885990031808615,1.1941970714606345
1782845388057335800,0.853335693359375,-0.31057109303772445,0.009628829088807106,1.067998795477301
1782845388067340800,0.8633408203125,-0.17441490214169025,-0.053757163020223375,0.8894327650055289
1782845388077344800,0.8733447265625,-0.09366028047204017,0.007634732662141323,0.6846914059221744
1782845388087350000,0.88335009765625,-0.039141339299082756,0.08569017837569116,0.47826293400209396
1782845388097353700,0.893353759765625,-0.011601590466499327,0.1556695774003863,0.35916444355398414
1782845388107358700,0.903358642578125,0.037922026637196536,0.22013196656927464,0.28315339968223124
1782845388117362700,0.91336279296875,0.13468319573402404,0.24312676544860004,0.22160645956862718
1782845388127367700,0.92336767578125,0.26104922949969767,0.3027374768026173,0.16066146740354598
1782845388137372000,0.933371826171875,0.3595663023531437,0.3116422294005751,0.12303659708201885
1782845388147377000,0.943376953125,0.5189420407950878,0.2937932689771056,0.11632226720042527
1782845388157380900,0.953380859375,0.7045557978212833,0.2705895035222173,0.16271704822648317
1782845388167385900,0.9633857421875,0.9742617965072393,0.14989859278351067,0.18863233766239135
1782845388177389800,0.973389892578125,1.065679266488552,0.07177665770500898,0.2722873934812844
1782845388187394800,0.983394775390625,1.0198854835629463,0.040782092243432995,0.3247062936350703
1782845388197398800,0.993398681640625,0.9492974511206149,-0.016935937231779098,0.3459147570868954
1782845388207403800,1.00340380859375,0.8943091388702392,-0.13644450631812213,0.36639256817661225
1782845388217407700,1.01340771484375,0.9326882616251706,-0.22037162054404616,0.3449231887662783
1782845388227412700,1.023412841796875,0.9493442128717898,-0.1970367760553956,0.33976365057863295
1782845388237416700,1.033416748046875,0.8975555734455585,-0.2310753853879869,0.3511348298227414
1782845388247421700,1.043421630859375,0.8376426642745732,-0.23935236147642133,0.34329591635800893
1782845388257425700,1.05342578125,0.8068997354865074,-0.31918300016894935,0.31346381880454716
1782845388267430700,1.0634306640625,0.808030785343051,-0.3285886880263686,0.33282778690084813
1782845388277435000,1.073434814453125,0.7981529499292374,-0.3799675776079297,0.31075039512738584
1782845388287440000,1.08343994140625,0.7375298466622829,-0.4309834790959954,0.2658078952688724
1782845388297443800,1.09344384765625,0.6978507472246885,-0.42877573991864915,0.20771314143575725
1782845388307448800,1.10344873046875,0.6310737975031138,-0.46069969518482684,0.15391973805837333
1782845388317452800,1.113452880859375,0.5761252327412366,-0.4384789494179189,0.11983290566988289
1782845388327457800,1.123457763671875,0.4705640865951776,-0.389692122156173,0.06987988417297601
1782845388337461800,1.133461669921875,0.31456396206617354,-0.4293691757671535,-0.025759733548015355
1782845388347466800,1.143466796875,0.22735329612493513,-0.5499405517794191,-0.1344493139129132
1782845388357470700,1.153470703125,0.1646878733754158,-0.6953826035454869,-0.21976810169294475
1782845388367475700,1.163475830078125,0.14171440954506395,-0.7760615296304225,-0.239358133630082
1782845388377479700,1.173479736328125,0.16376958948671816,-0.8376127075277269,-0.2614939045272767
1782845388387484700,1.183484619140625,0.20966332565546034,-0.8269830308333039,-0.32564094413667916
1782845388397489000,1.193489013671875,0.22106150250434875,-0.7679334604933857,-0.44225101530253885
1782845388407494000,1.203493896484375,0.29542613087594505,-0.8187837961561978,-0.5902117718912661
1782845388417497900,1.213497802734375,0.42379473663568495,-0.8897712031796574,-0.6734416245680303
1782845388427502800,1.2235029296875,0.547211272946,-0.9016589171111583,-0.6964320395331829
1782845388437506800,1.2335068359375,0.6574620382130145,-1.0213567251592874,-0.7006615668617189
1782845388447511800,1.24351171875,0.7330284435898066,-1.1079352306768298,-0.639333749391511
1782845388457515800,1.253515869140625,0.6543769316792488,-1.1511587247230113,-0.5039932587925344
1782845388467519700,1.263519775390625,0.4851210197359323,-1.1763057332001625,-0.31871815913617607
1782845388477524700,1.273524658203125,0.310077756562829,-1.2167435420505701,-0.1835762598492205
1782845388487528700,1.28352880859375,0.20772914272248744,-1.3234485975347459,-0.04769442891515791
1782845388497533700,1.29353369140625,0.2272983510673046,-1.4229833229981361,0.04576842928864062
1782845388507538000,1.303537841796875,0.31379180864989753,-1.362564802392572,0.09522139230892061
1782845388517543000,1.31354296875,0.4288800770759582,-1.2695574328713117,0.09391067503653466
1782845388527547000,1.323546875,0.6070248133957385,-1.2792572813697158,0.014889745291694997
1782845388537552000,1.3335517578125,0.7781015110254287,-1.3558753877565264,0.0021312398750334975
1782845388547555600,1.3435556640625,0.8074088540524244,-1.425427939671278,0.01737754351943731
1782845388557560800,1.353560791015625,0.6199275495886802,-1.4541045835793018,0.048203985872492194
1782845388567564800,1.363564697265625,0.3726946639955044,-1.3103949085637927,0.09761910110041498
1782845388577569800,1.37356982421875,0.11066109963357448,-1.1326838874861598,0.11262852724902331
1782845388587573800,1.38357373046875,-0.06685702922046184,-1.202623100630939,0.16634937684684992
1782845388597578800,1.393578857421875,-0.16728139699995517,-1.3209187867961822,0.32295462766215205
1782845388607582700,1.403582763671875,-0.30935704107284545,-1.0293297498650849,0.5363027793101967
1782845388617587700,1.413587646484375,-0.5219266095638275,-0.5074914031066,0.6673760409187525
1782845388627592000,1.423592041015625,-0.6124515146195888,-0.29256767270490525,0.5671053293310105
1782845388637597000,1.433596923828125,-0.5691366890281438,0.010291969172656535,0.7598578521959484
1782845388647601000,1.443600830078125,-0.5560480748742819,0.41764395892098544,1.1560555568538606
1782845388657606000,1.45360595703125,-0.5704337431013584,0.5475969112627208,1.4083951179362832
1782845388667609600,1.463609619140625,-0.5005325238794088,0.5114401407323778,1.388742030700296
1782845388677614600,1.473614501953125,-0.46124037793278694,0.49370633112117646,1.3623916377827525
1782845388687618800,1.483618896484375,-0.4519944106817245,0.5968228605940937,1.383044695841521
1782845388697623800,1.493623779296875,-0.4262725249260664,0.6999249231502414,1.3834640902973712
1782845388707627800,1.503627685546875,-0.48709904181063174,0.7666774690829217,1.3580834191948175
1782845388717633000,1.513633056640625,-0.6247779122292995,0.7632220679320395,1.2861822583273053
1782845388727636700,1.52363671875,-0.6424632065236568,0.6936014192171395,1.1695159269295632
1782845388737641700,1.533641845703125,-0.5969967558562755,0.561178423500061,1.0262501962892712
1782845388747646000,1.54364599609375,-0.6513666439473629,0.4016797893308103,0.8841223836377262
1782845388757651000,1.55365087890625,-0.7894640320390462,0.3527582297734916,0.8271702970337123
1782845388767655000,1.563655029296875,-0.9550035538077354,0.3751693835459649,0.7788431962382047
1782845388777660000,1.573659912109375,-1.0895739368170498,0.38258068271577356,0.7378586402252316
1782845388787664000,1.583663818359375,-1.1204910531282424,0.42896658631563184,0.7167653641182928
1782845388797668900,1.5936689453125,-1.1601619692593812,0.5976351998902857,0.7073887562248855
1782845388807673000,1.603673095703125,-1.1546060886979101,0.7613194491811096,0.6272867532450705
1782845388817678000,1.613677978515625,-0.8705681977987288,0.936325302953273,0.47774917579367754
1782845388827682000,1.62368212890625,-0.4588374084442854,1.083735293791443,0.31219876730479296
1782845388837687000,1.63368701171875,-0.05595277336835861,1.2547861263275146,0.19742424100302158
1782845388847690800,1.643690673828125,0.2355675822407007,1.3500422976888715,0.09394910735078156
1782845388857695700,1.65369580078125,0.43960079305469985,1.4553307643733917,-0.03369856372326612
1782845388867700000,1.663699951171875,0.5998264263242483,1.620294970472157,-0.08886420530192553
1782845388877705000,1.673705078125,0.7385211957871913,1.7090607569009064,-0.0493874965686351
1782845388887709000,1.683708984375,0.8098194223254919,1.6770659283556044,-0.0589676642101258
1782845388897714000,1.6937138671875,0.90894790507555,1.6764941198170185,-0.0879978707961738
1782845388907718000,1.7037177734375,0.9870826996356248,1.643860408846289,-0.08254618126153945
1782845388917723000,1.713722900390625,1.086807979235053,1.5984285911008715,-0.09433649923317133
1782845388927727000,1.72372705078125,1.125706157428026,1.4892708817675708,-0.11638093858510255
1782845388937732000,1.733732177734375,1.0032073204845189,1.3976900379180908,-0.09587240356355906
1782845388947736000,1.743736083984375,0.6880109057337045,1.350038644427061,-0.08754786200635134
1782845388957741000,1.753740966796875,0.34191315676271916,1.3178148294314742,-0.04065817360281944
1782845388967744800,1.763744873046875,0.12007365562319755,1.206026479333639,-0.02910319875702262
1782845388977749800,1.773749755859375,-0.03946808703541756,1.0923010236933828,-0.03294336144179105
1782845388987754000,1.78375390625,-0.15631225921809672,0.8921386629633605,-0.08597937058061361
1782845388997759000,1.793759033203125,-0.20187632504105565,0.6644079118281603,-0.14457264852039514
1782845389007763000,1.803762939453125,-0.1713327182173729,0.6055450962319969,-0.15981617568582296
1782845389017768000,1.813767822265625,-0.10223697015941142,0.6223072843320667,-0.19595994060412047
1782845389027772000,1.82377197265625,0.024604279902577398,0.6203583422213792,-0.2571766989152878
1782845389037777000,1.83377685546875,0.1374076522618532,0.6391871074624359,-0.32320180735625326
1782845389047780900,1.84378076171875,0.19382453601062297,0.6638182753719389,-0.3625308512471616
1782845389057786000,1.8537861328125,0.22715222059488296,0.7331891871094703,-0.37493586705103515
1782845389067790000,1.8637900390625,0.24604805972278115,0.7513068814717233,-0.45925526853017506
1782845389077795000,1.873795166015625,0.3117939128309488,0.6921420141890645,-0.5499468353897333
1782845389087798800,1.883798828125,0.38031682943701745,0.6759576259769499,-0.6640121905088424
1782845389097803800,1.8938037109375,0.4389619106292724,0.6176622350051999,-0.7301303109955042
1782845389107808000,1.90380810546875,0.46453357425928116,0.5857084691226482,-0.7675475299157202
1782845389117813000,1.91381298828125,0.42738428556025027,0.6306023805990815,-0.7796328122459352
1782845389127817000,1.92381689453125,0.26223171728253364,0.6404276090428233,-0.8084516411036252
1782845389137821000,1.933821044921875,0.1590676954060793,0.5628659381955862,-0.7962503311783075
1782845389147826000,1.943825927734375,0.07626257094740867,0.4405246299013495,-0.7060444289438426
1782845389157830000,1.953829833984375,-0.04516659093797207,0.35112186074331403,-0.5815097387911752
1782845389167835000,1.9638349609375,-0.17084698052704334,0.36640535459294915,-0.514279346213676
1782845389177839000,1.973839111328125,-0.2517734516322613,0.39642566819489,-0.48350225942768155
1782845389187844000,1.983843994140625,-0.2768734060972929,0.37577246400564907,-0.44271424890011546
1782845389197847800,1.993847900390625,-0.23511691586375236,0.30243191798478364,-0.3362611223503947
1782845389207852800,2.003852783203125,-0.21629764910340307,0.2309263323061168,-0.21281188934687523
1782845389217856800,2.013856689453125,-0.1781768850237131,0.19067659337371587,-0.08355188770536333
1782845389227861800,2.02386181640625,-0.11000877320468425,0.21701894911527633,0.01784643967282027
1782845389237866000,2.033865966796875,-0.059932198393344877,0.25215894381850956,0.04122731526028365
1782845389247871000,2.04387109375,-0.03701426414251327,0.17545403593108058,0.06155114136468619
1782845389257875000,2.053875,-0.03769757023155689,0.1165486963674426,0.1303812242237851
1782845389267880000,2.0638798828125,-0.01862286740541458,0.07528948813155294,0.21341445834990588
1782845389277884000,2.0738837890625,0.027168577432632443,-0.03870850083976984,0.20601006384491918
1782845389287889000,2.083888916015625,0.06559153932929039,-0.19313640761598944,0.16271445441059768
1782845389297892900,2.093892822265625,0.04864858783483505,-0.22717662438377736,0.19953359783980995
1782845389307898000,2.103898193359375,-0.045397477084398265,-0.25796879914104937,0.1698637781759724
1782845389317901800,2.11390185546875,-0.056532034561038016,-0.2786658424720168,0.06468644371572882
1782845389327906800,2.12390673828125,0.0022568390160799027,-0.22928762518838047,-0.033385186925157906
1782845389337910800,2.133910888671875,0.03244739461839199,-0.19526012177169322,-0.1591171240383759
1782845389347915800,2.143915771484375,0.1063075805991888,-0.1954354783385992,-0.21027890027053653
1782845389357920000,2.153919921875,0.20598492940366267,-0.18570128917917608,-0.3075650796221569
1782845389367925000,2.163925048828125,0.23149697180092332,-0.2296449141934514,-0.42269704105947165
1782845389377929000,2.173928955078125,0.2710650120794773,-0.26872604773789643,-0.45084904003888365
1782845389387934000,2.183933837890625,0.32806583319604393,-0.29327450580000874,-0.41868382336273785
1782845389397938000,2.19393798828125,0.3322580241888761,-0.27938495052680373,-0.438945470951125
1782845389407943000,2.20394287109375,0.2752612947255373,-0.32952845309451223,-0.4884464378315955
1782845389417947000,2.21394677734375,0.20031857420504093,-0.2801997740410268,-0.5204866398885846
1782845389427951900,2.223951904296875,0.1447796423345804,-0.23654344153553247,-0.5290968299867586
1782845389437955800,2.233955810546875,0.1449018074095249,-0.1447511468924582,-0.5624298118006438
1782845389447960800,2.2439609375,0.07661503764688968,-0.07523498146533966,-0.5234261274065822
1782845389457964800,2.25396484375,-0.12605915977358817,-0.08165800025016069,-0.4494111892554909
1782845389467969800,2.2639697265625,-0.19592355411648749,-0.10432692817598581,-0.35667222487945105
1782845389477974000,2.27397412109375,-0.13834288728535174,-0.14464417938664556,-0.33064017719607797
1782845389487979000,2.28397900390625,-0.07161503740251064,-0.16744725508615374,-0.32085933588333426
1782845389497983000,2.29398291015625,-0.013479659298062325,-0.2209545349985361,-0.2889503224579617
1782845389507988000,2.303988037109375,0.0026952304333448408,-0.17816314875930547,-0.2739003085706383
1782845389517992000,2.313991943359375,0.06806757405400275,-0.08855798889696598,-0.2828437126785517
1782845389527997000,2.323996826171875,0.15197686036229133,-0.04633841119632125,-0.33473763911016285
1782845389538001000,2.3340009765625,0.2279910095065832,-0.025985066736489534,-0.3811888630311936
1782845389548006000,2.344005859375,0.21891864525675772,-0.016053163047879935,-0.3818448792545125
1782845389558009900,2.354009765625,0.23534487940073012,-0.023587796336412427,-0.41495519476104525
1782845389568014800,2.364014892578125,0.2020791541367769,-0.03690115915685892,-0.4204733736606315
1782845389578018800,2.374018798828125,0.1982405988872051,-0.12721753602847455,-0.299996690194495
1782845389588023800,2.38402392578125,0.35228549769520756,-0.22755934009104967,-0.2774895287016407
1782845389598028000,2.394028076171875,0.501503999260068,-0.35762262093946334,-0.35046255658436565
1782845389608033000,2.404032958984375,0.5346253476172685,-0.6049475687302649,-0.32465580555684864
1782845389618037000,2.414037109375,0.43064357961714267,-0.8454489541113376,-0.2986269362112507
1782845389628042000,2.4240419921875,0.3463327267706394,-0.934400472370535,-0.36590949736740436
1782845389638046000,2.4340458984375,0.20882161413431166,-0.8356497368916869,-0.439322195309028
1782845389648051000,2.444051025390625,-0.005263619616627693,-0.8356402384109795,-0.43404531435202803
1782845389658055000,2.454054931640625,-0.14620762931108475,-0.8452372110567986,-0.3768521490011364
1782845389668060000,2.464059814453125,-0.1639297484844923,-0.9462482926830649,-0.3181073702940717
1782845389678063900,2.47406396484375,-0.33393151035904883,-1.0789257015526295,-0.32450218589771535
1782845389688068900,2.48406884765625,-0.5805635074496269,-1.1250471089974046,-0.14529230456445366
1782845389698072800,2.49407275390625,-0.7474912687063217,-1.0539354910723864,-0.017732604034803808
1782845389708077800,2.504077880859375,-0.8530074066668748,-0.9268075330235064,-0.38325445379149164
1782845389718082000,2.51408203125,-0.48119829333424563,-1.123285652282834,-0.861996841873601
1782845389728087000,2.524087158203125,-0.3955974006772041,-0.960261912727356,-0.5986546060658992
1782845389738091000,2.534091064453125,-0.7128004790753125,-0.5392841332085431,-0.7474288709945976
1782845389748096000,2.544095947265625,-0.617581863245368,-0.5735454453811049,-0.7735976237349211
1782845389758100000,2.554099853515625,-0.5423106414228678,-0.6654834321051836,-0.7540685282047838
1782845389768105000,2.56410498046875,-0.3014899609595537,-0.5643250509627163,-0.7023796228259801
1782845389778109200,2.574109130859375,-0.03726970020830631,-0.35336014118939635,-0.687193159610033
1782845389788113200,2.584113037109375,0.35402912649214263,-0.39810266149640083,-0.7907686118315905
1782845389798118100,2.5941181640625,0.22268296622633932,0.18470862488001583,-0.8371981353774667
1782845389808122000,2.6041220703125,0.4261234718441963,0.4165088174112141,-0.7946384390022605
1782845389818127000,2.614127197265625,0.7672393407493829,0.20781039126515388,-0.850247732695192
1782845389828131000,2.624131103515625,1.13849257376492,-0.18938421547561882,-0.6818382084481418
1782845389838136000,2.634135986328125,1.3686936605364084,-0.41858723112046714,-0.36745994167979806
1782845389848140000,2.64414013671875,1.2333482015013695,-0.43890112035274503,-0.05813194403834641
1782845389858145000,2.65414501953125,0.6173603294491767,-0.41655455624908205,0.3066302099248394
1782845389868149000,2.66414892578125,-0.2987894698292017,-0.37740693333968517,0.49809258338138457
1782845389878154000,2.674154052734375,-1.168663255622983,-0.13736191342398524,0.5067210032559931
1782845389888158200,2.684158203125,-1.9736001666039227,0.15394070778116584,0.46142684041559695
1782845389898163200,2.6941630859375,-2.3710440719306467,0.5347505814321338,0.3048208589479327
1782845389908167200,2.704167236328125,-2.325982694932818,0.778440533721447,-0.0020269027177244425
1782845389918172200,2.714172119140625,-1.9409762463748454,0.7523030529022217,-0.19311372086014597
1782845389928176000,2.724176025390625,-1.474761002638936,0.8707203196205199,-0.43964174611959606
1782845389938181000,2.73418115234375,-1.0445979000151158,0.9249031607069075,-0.7759280394438653
1782845389948185000,2.74418505859375,-0.6685474958509207,0.9241742619104683,-1.0004073145024477
1782845389958190000,2.754190185546875,-0.2510533206641674,0.9926612304203212,-1.2243948605213313
1782845389968194000,2.764194091796875,0.3464683358490467,1.0642913192614913,-1.337021780335158
1782845389978199000,2.774198974609375,0.9746697927862406,1.0301172469809652,-1.36840592963621
1782845389988203000,2.784203125,1.6589567095607518,0.8067652954518795,-1.2757089412383735
1782845389998208000,2.7942080078125,2.3095517846137286,0.7326128485262393,-1.1645026288121938
1782845390008212000,2.8042119140625,2.674301042562723,0.7428595172524451,-1.0863902652796358
1782845390018217000,2.814217041015625,2.817415966555476,0.6976014486387372,-1.1405790246501564
1782845390028221200,2.82422119140625,2.645690449628234,0.659311173211038,-1.1134078168690205
1782845390038226200,2.83422607421875,2.2019646855980155,0.6870411839187145,-0.9274604439742863
1782845390048230100,2.844230224609375,1.5999556545376776,0.6564937777027487,-0.7908771137073636
1782845390058235100,2.854235107421875,0.952126537066698,0.5790642088025808,-0.6011296909425408
1782845390068238800,2.86423876953125,0.4049702091783285,0.5061652690693735,-0.40139395812675355
1782845390078244000,2.874244140625,-0.10437164410054683,0.5136930342257022,-0.1287761088483967
1782845390088248000,2.884248046875,-0.5435562575697899,0.5559438838474452,0.16629006614135577
1782845390098253000,2.894253173828125,-0.8342401623547077,0.5748971522510051,0.3944214157003909
1782845390108257000,2.904257080078125,-1.0608517002016304,0.547996578104794,0.4906013508431613
1782845390118262000,2.914261962890625,-1.1817770042181015,0.49227396023049946,0.49930776785742487
1782845390128266000,2.924265869140625,-1.2083604752391577,0.42454146334975956,0.5513002227600664
1782845390138271000,2.93427099609375,-1.1150444781601427,0.4046076594762504,0.6411879258908331
1782845390148275200,2.944275146484375,-0.9463274953991174,0.42732554111033677,0.7815347734097391
1782845390158280200,2.9542802734375,-0.6931921077638864,0.457012238843739,0.8974721329458057
1782845390168284000,2.964283935546875,-0.46245150728821754,0.38035014718472954,0.9299509456157684
1782845390178289000,2.974288818359375,-0.36089901226162907,0.2789418829344213,0.9003519261658192
1782845390188292900,2.98429296875,-0.39485973405241964,0.26467370360717174,0.8926219164356589
1782845390198297900,2.9942978515625,-0.5397621259838342,0.21671602064594625,0.9417600413531064
1782845390208302000,3.004302001953125,-0.6879799260735512,0.04347147745788097,0.9763381643898784
1782845390218307000,3.01430712890625,-0.8276876719713211,0.00846986831203103,1.0205829643078148
1782845390228311000,3.02431103515625,-0.8884101439595222,0.09470452882796525,1.002763376109302
1782845390238316000,3.03431591796875,-0.8697095351427793,0.20658347981870173,0.9250712107501924
1782845390248320000,3.044320068359375,-0.7630202617496251,0.2571121823117137,0.8033889508865774
1782845390258325000,3.054324951171875,-0.504724714872241,0.2608290108777582,0.6760944040991366
1782845390268329200,3.0643291015625,-0.2504021632790565,0.276563609495759,0.592297090265341
1782845390278334200,3.074334228515625,-0.06116495505869388,0.27077450470030306,0.545375143560022
1782845390288338000,3.084337890625,0.11838263379633426,0.2845074081070721,0.5147163859240711
1782845390298343000,3.094343017578125,0.23115151936411857,0.35588147636055945,0.5530595605827867
1782845390308347000,3.104346923828125,0.3709966279059648,0.358591173710674,0.5410522753922269
1782845390318352000,3.114351806640625,0.46367432708144185,0.3093444738522172,0.5494433793796226
1782845390328356000,3.124356201171875,0.5170271470844745,0.34640053130984305,0.5200828083280473
1782845390338361000,3.134361083984375,0.5010954184591769,0.4053244294434786,0.5050337442887947
1782845390348365000,3.144364990234375,0.4543962111264467,0.4462565976820886,0.46651163286659864
1782845390358370000,3.1543701171875,0.507397148951888,0.4671541320212185,0.45076052150521423
1782845390368374000,3.1643740234375,0.5759831939220428,0.4690266478948295,0.43169878775849935
1782845390378379000,3.17437890625,0.6194564249455928,0.4919743927620351,0.442995513526909
1782845390388383200,3.18438330078125,0.6813309895783662,0.45273719187304373,0.48935613655503835
1782845390398388200,3.19438818359375,0.7597749962180852,0.44129634492620823,0.6473937217283994
1782845390408392000,3.204391845703125,0.8074906871169805,0.38429377024397254,0.7067182365521788
1782845390418397000,3.21439697265625,0.7789397154152393,0.25998788387849925,0.7564673329748213
1782845390428401000,3.22440087890625,0.7228776364535093,0.16518164824172854,0.8512556676287204
1782845390438405000,3.234405029296875,0.7147521976649761,0.12127587101981042,0.9552888004899024
1782845390448410000,3.24441015625,0.6712573393315077,0.000021627309918403625,0.9610488253213465
1782845390458415000,3.2544150390625,0.560230913516879,-0.04064414507746696,0.9156284788180142
1782845390468419000,3.264419189453125,0.49777708769142626,-0.04245893941447138,0.8912721092619001
1782845390478424000,3.274424072265625,0.5309469513654709,-0.0713204383701086,0.8109464535940438
1782845390488428000,3.284427978515625,0.5437690235376358,-0.11816738361045717,0.7241293900802731
1782845390498432300,3.294432373046875,0.562998624664545,-0.1944654642626643,0.5965862753592431
1782845390508437200,3.304437255859375,0.5452262366086245,-0.27051190824136134,0.4987259859140962
1782845390518441000,3.31444091796875,0.4805962357878685,-0.2989436374776065,0.41368294633552427
1782845390528446000,3.324446044921875,0.36260698522329327,-0.2837674033947289,0.32666568407453594
1782845390538450000,3.334449951171875,0.2102449249356985,-0.2855192154981196,0.24566709758117794
1782845390548455000,3.344454833984375,0.051661213654279704,-0.2771788187846541,0.15332330653518436
1782845390558459100,3.354459228515625,-0.049776715081930156,-0.27732144212573767,0.046328401258960365
1782845390568464100,3.364464111328125,-0.08863046961128711,-0.28328561122715473,-0.0003246288444846868
1782845390578468000,3.374468017578125,-0.02277589543163776,-0.3203272017680108,-0.019972455383464694
1782845390588473000,3.38447314453125,0.08494330553114414,-0.4592252387180924,-0.04725245730131864
1782845390598477000,3.39447705078125,0.24611820234954357,-0.5695761033587158,-0.10549714099913834
1782845390608482000,3.40448193359375,0.37857378516197204,-0.6287159823305905,-0.1531641704507172
1782845390618486300,3.414486328125,0.453388495388627,-0.6696626174859702,-0.1609700949613005
1782845390628491300,3.4244912109375,0.4966974757611751,-0.6961407284364104,-0.14600743056386709
1782845390638495000,3.434494873046875,0.5157160644859076,-0.7115541322760284,-0.09005538784787058
1782845390648500000,3.4445,0.5032604875385761,-0.7269121526665985,-0.06784070649556816
1782845390658504000,3.45450390625,0.46942134630084037,-0.7411623579457401,-0.0480184001725167
1782845390668509000,3.464509033203125,0.39496027181744575,-0.71771952303797,0.01597198757044971
1782845390678513200,3.47451318359375,0.3921072204738855,-0.7328488492392004,0.059673766652867194
1782845390688518100,3.48451806640625,0.47114685491919517,-0.787621911303699,0.07044701653644442
1782845390698522000,3.494522216796875,0.6798422123253345,-0.8723813847005367,0.019646219103783367
1782845390708527000,3.504527099609375,0.8840040179550647,-0.9670052495077252,-0.05698489289507269
1782845390718531000,3.514531005859375,1.000443116468191,-1.006777726317197,-0.08393442074954509
1782845390728536000,3.5245361328125,1.0293711047887801,-1.0171217179380356,-0.09321173298694192
1782845390738540300,3.534540283203125,0.8681552914381027,-1.0048225005961955,-0.11114457230158149
1782845390748545300,3.544545166015625,0.7218465398401022,-0.9458249527044593,-0.07667268611826002
1782845390758549200,3.55454931640625,0.6006804128050803,-0.8989762538984417,-0.13231500529795884
1782845390768554200,3.56455419921875,0.48911096615493294,-0.8493950613886118,-0.1594524569399655
1782845390778558200,3.57455810546875,0.31516777317821976,-0.8475393505193293,-0.17567659264057875
1782845390788563200,3.584563232421875,0.11193944900631904,-0.8508682026810943,-0.11756634897738695
1782845390798567200,3.594567138671875,-0.09519348138868808,-0.9211080062076449,-0.0958882587198168
1782845390808572400,3.604572509765625,-0.2319073061674833,-1.051184292668104,-0.17507504655085504
1782845390818576100,3.614576171875,-0.4172434152960777,-1.0804058571077884,-0.29398996059298516
1782845390828581000,3.6245810546875,-0.5937281094491481,-1.1169219624698161,-0.39156010798513885
1782845390838585000,3.634585205078125,-0.6227636497974396,-1.2496866112314164,-0.5234165558606386
1782845390848590000,3.644590087890625,-0.4565168565422296,-1.3743136923752723,-0.6010137364126742
1782845390858594300,3.65459423828125,-0.2615174315333366,-1.4987982963085174,-0.6804114635806531
1782845390868599300,3.664599365234375,-0.08981997165679931,-1.5577636954963205,-0.7232298839572817
1782845390878603300,3.674603271484375,0.0011111761122941971,-1.354944682777673,-0.7149800150714815
1782845390888608300,3.684608154296875,-0.051609775727987285,-1.0446145588889717,-0.6538080457501113
1782845390898612200,3.6946123046875,-0.18972060782313346,-0.8558329854816198,-0.569898138387315
1782845390908617200,3.7046171875,-0.33960429529845715,-0.7315713766492903,-0.4343397307213396
1782845390918621200,3.71462109375,-0.5235527494609356,-0.434026938445121,-0.1805652779975906
1782845390928626200,3.724626220703125,-0.7613789242833853,-0.17072233123406766,0.18551738397963344
1782845390938630100,3.734630126953125,-0.9894792393833398,-0.15494155538678167,0.5210829252813011
1782845390948635100,3.74463525390625,-1.2500211038827895,-0.12615472910255193,0.7707889960549771
1782845390958639000,3.75463916015625,-1.599389837348461,-0.09908289004266262,0.9896278540737926
1782845390968644000,3.76464404296875,-1.7293828294396398,-0.019821137279272077,1.1520336809266358
1782845390978648000,3.77464794921875,-1.6359966897338627,0.07211144261732697,1.1918762272976338
1782845390988653000,3.784653076171875,-1.4647382057964802,0.15855243936032057,1.165504280135408
1782845390998657300,3.7946572265625,-1.225019933617115,0.20171762734800577,1.1593749105349183
1782845391008662300,3.804662353515625,-0.8805757970720529,0.22003625110983846,1.1227836941100657
1782845391018666200,3.814666259765625,-0.5779781671315432,0.1099963521145284,1.0224749885994942
1782845391028671200,3.824671142578125,-0.19567104066014288,-0.02850172573253512,0.8225060315497219
1782845391038675000,3.834675048828125,0.18412264168560505,-0.20293343287855387,0.6576631137430667
1782845391048680200,3.84468017578125,0.4168003477036953,-0.20709186773225663,0.596308627461642
1782845391058684200,3.85468408203125,0.4645820895761251,-0.07472600902989507,0.5248500227298587
1782845391068688100,3.864688232421875,0.5292705425858497,0.07282105219140649,0.39208190336953846
1782845391078693000,3.874693115234375,0.7406301507651806,0.20550021462664006,0.22230134649761019
1782845391088697000,3.884697021484375,0.9652087214797734,0.4951097681783139,0.11074450360070913
1782845391098702000,3.8947021484375,1.1418605888932942,0.7905017045237124,0.08746738064866512
1782845391108706300,3.904706298828125,1.2142372583180665,0.9190553114615381,0.08454035075344145
1782845391118711300,3.914711181640625,1.278430036765337,1.0082422459118068,0.12638280223738402
1782845391128715300,3.92471533203125,1.2785440185338257,1.103066309466213,0.21621318569034337
1782845391138720300,3.93472021484375,1.304642920908332,1.3079802486374974,0.2927448193700984
1782845391148724000,3.944723876953125,1.3181278409034014,1.3987391085796057,0.33803412337228655
1782845391158729000,3.95472900390625,1.0965361770451068,1.4075769334211945,0.42651104638967663
1782845391168733200,3.964733154296875,0.910846432173252,1.5191194920644162,0.43949316796176136
1782845391178738200,3.97473828125,0.7044318791806697,1.6015353249445556,0.42517961512282487
1782845391188742100,3.9847421875,0.4891793552160263,1.676401765358448,0.45545043288711456
1782845391198747100,3.9947470703125,0.26501579504311085,1.7457675625294446,0.5252034027447924
1782845391208751000,4.004751220703125,0.1304495036870241,1.6461223624289034,0.5702498379018157
1782845391218756000,4.014756103515625,0.11800970883071422,1.5430775830179453,0.6103580129390582
1782845391228760300,4.02476025390625,0.11711480581760406,1.4213120287850498,0.6075958182167261
1782845391238765300,4.034765380859375,0.14743454075753687,1.3082652030587196,0.5558732297640293
1782845391248769300,4.044769287109375,0.14155308150351048,1.1689843042708932,0.48429498070795085
1782845391258774300,4.054774169921875,0.06814531546533108,0.999251568596065,0.4456476354708895
1782845391268778000,4.064778076171875,-0.06655073975026607,0.8721431920304894,0.4943548216251656
1782845391278783000,4.074782958984375,-0.2872252887636423,0.7453434430226683,0.5436546033777296
1782845391288787200,4.084787109375,-0.6267828223109245,0.6702880559079348,0.5876850664252415
1782845391298792200,4.094792236328125,-0.9080050712674855,0.6840054694846273,0.587747975593619
1782845391308796200,4.104796142578125,-1.100094161787629,0.6812262140296399,0.4612058180760592
1782845391318801200,4.11480126953125,-1.2426724946856498,0.7404908884249627,0.28190551851298656
1782845391328805000,4.12480517578125,-1.219282851269841,0.7993827839851378,0.08127093716133385
1782845391338810000,4.13481005859375,-0.9679822778463363,0.8280996137730777,-0.062355918408930296
1782845391348814300,4.144814453125,-0.6277057823747396,0.814434076514095,-0.057364868655987084
1782845391358819300,4.1548193359375,-0.19813012425005436,0.8637032804653048,-0.03981280881986022
1782845391368823300,4.1648232421875,0.39212709421813485,0.9767436764508485,-0.05806059583518654
1782845391378828300,4.174828369140625,0.8819394866406917,0.9977395565979182,-0.04080835919585079
1782845391388832000,4.18483203125,1.2701485306322573,0.9905895387127995,0.018562223259359596
1782845391398837000,4.1948369140625,1.420763454991579,0.9919263402745128,0.10486888956557959
1782845391408841200,4.20484130859375,1.3835779259353875,0.9027849985316395,0.09373517233915626
1782845391418846200,4.21484619140625,1.1483131260335444,0.784698571202904,0.12606087680663913
1782845391428850200,4.22485009765625,0.7745709988117218,0.6958487597525119,0.16567973395697771
1782845391438855200,4.234855224609375,0.393482600480318,0.6172375798523426,0.19282080232817678
1782845391448859100,4.244859130859375,0.002841360905766487,0.5496889151059091,0.2772012132795527
1782845391458864000,4.254864013671875,-0.25469723012447354,0.47535716609060763,0.3160743666291237
1782845391468868400,4.264868408203125,-0.5104273104280234,0.37462797014564275,0.22423647927865384
1782845391478873300,4.274873291015625,-0.6420359210222959,0.2884862486101687,0.08346388062834739
1782845391488877000,4.284876953125,-0.7234083823293447,0.17840762503966687,-0.15569259294979274
1782845391498882300,4.29488232421875,-0.7585176896333694,0.039920506978034974,-0.3118713619813323
1782845391508886000,4.304885986328125,-0.7649825017333031,-0.06214958218187094,-0.46021691663656383
1782845391518891000,4.31489111328125,-0.6711649848729372,-0.11271905507668852,-0.5777666798053309
1782845391528895200,4.324895263671875,-0.5583294638097286,-0.051624534905701874,-0.6638020548895001
1782845391538900200,4.334900146484375,-0.44299102001488205,-0.017140666023641823,-0.7304870885439216
1782845391548904200,4.344904296875,-0.2737210795462131,0.027505262041091917,-0.747239047510922
1782845391558909200,4.3549091796875,-0.07256546999514102,0.09970277550667524,-0.7164135550059377
1782845391568913200,4.3649130859375,0.1166249764740467,0.10239055328592657,-0.6529870847560465
1782845391578918100,4.374918212890625,0.36323125460147854,0.05677694923281669,-0.5597878824571147
1782845391588922400,4.38492236328125,0.5472340692996979,0.002975216418504715,-0.4561069605670869
1782845391598927400,4.39492724609375,0.642537440803647,-0.025395138019323346,-0.33002200876511634
1782845391608931000,4.40493115234375,0.6499035856574773,-0.061411038774251935,-0.2163382368421182
1782845391618936000,4.41493603515625,0.6486240672409535,-0.10235182871073484,-0.18728019240107385
1782845391628940000,4.42493994140625,0.5812620111078024,-0.15859569398015735,-0.13382409468665718
1782845391638944300,4.4349443359375,0.46905368203222747,-0.18981661554351448,-0.11573449390772729
1782845391648949200,4.44494921875,0.3222013250768184,-0.18608400488644838,-0.04993040780629963
1782845391658953200,4.454953125,0.1377168643414974,-0.1803755641117692,-0.012758761144988239
1782845391668958200,4.464958251953125,0.007646715360879897,-0.23055998321175575,-0.029353045332245527
1782845391678962200,4.474962158203125,-0.12660802582800387,-0.2971872953295708,-0.0056109352169558405
1782845391688967200,4.48496728515625,-0.25478023223280905,-0.30183731309249995,0.008439801967330277
1782845391698971400,4.494971435546875,-0.23360417321324348,-0.30536461043581364,-0.04046403927020728
1782845391708976400,4.504976318359375,-0.18117197518646716,-0.27617504856958985,-0.13579448144417255
1782845391718980000,4.51497998046875,-0.12499299184679984,-0.25244170628264545,-0.30933760572001334
1782845391728985000,4.524985107421875,-0.10575988358855247,-0.2613296538762748,-0.4845387263359502
1782845391738989000,4.534989013671875,-0.06247896026670932,-0.2751227630376816,-0.6101348351750523
1782845391748994000,4.544994140625,0.009572714987397193,-0.3165788090199232,-0.7212995004165917
1782845391758998300,4.554998291015625,0.14206862981021404,-0.34478520506769417,-0.8043374837830662
1782845391769003300,4.565003173828125,0.22292788089811802,-0.3629311026111245,-0.8163738124050199
1782845391779007200,4.57500732421875,0.23009762639701364,-0.4156761659793555,-0.7868936700943857
1782845391789012200,4.58501220703125,0.16684709723591803,-0.42207083545252677,-0.7466455385971814
1782845391799016200,4.59501611328125,0.13731763589084148,-0.439689201990515,-0.6910103798106312
1782845391809021200,4.605021240234375,0.227808638677001,-0.5037110077850521,-0.608405344501324
1782845391819025200,4.615025146484375,0.3059218059271574,-0.5937983982063829,-0.5194393958579748
1782845391829030400,4.625030517578125,0.39394378825128074,-0.6596002192854881,-0.40074451777469366
1782845391839034000,4.6350341796875,0.48105800808072086,-0.6726686674341559,-0.2760531392229721
1782845391849039000,4.6450390625,0.5540367350518703,-0.6918707960322499,-0.1913106534935534
1782845391859043000,4.65504296875,0.5710527517825364,-0.7203630232840776,-0.15243742707874625
1782845391869048000,4.665048095703125,0.5862655184835195,-0.6621013884514569,-0.08263795119822025
1782845391879052300,4.67505224609375,0.5684130509287119,-0.5985398936450481,-0.03733052701745182
1782845391889057300,4.685057373046875,0.43989656113088127,-0.586264641700685,-0.062416672152839595
1782845391899061200,4.695061279296875,0.2504500940740108,-0.6086094522386789,-0.08471457480918615
1782845391909066200,4.705066162109375,0.1515606807768345,-0.6828036924794316,-0.13007171988319605
1782845391919070200,4.7150703125,0.1690618506759405,-0.6742857472419739,-0.23465992934387175
1782845391929075200,4.7250751953125,0.11479016226232051,-0.5921903784878552,-0.42953397440742697
1782845391939079200,4.7350791015625,0.03912029651105404,-0.473880225405842,-0.6858245016053318
1782845391949084200,4.745084228515625,-0.02758534153997898,-0.3423842814058065,-0.8978282529070973
1782845391959088000,4.755088134765625,-0.06564531534314155,-0.2261702238202095,-1.0737843931414186
1782845391969093000,4.765093017578125,-0.10496668738424778,-0.16423369986712932,-1.169560204462707
1782845391979097000,4.77509716796875,-0.20399346332550047,-0.044296530105173586,-1.1511128397546708
1782845391989102000,4.78510205078125,-0.41240532761514187,0.08422302843257784,-1.0612998823605477
1782845391999106000,4.79510595703125,-0.7158283024638891,0.22149141835421324,-0.8923376196015625
1782845392009111000,4.805111083984375,-1.1000900701344012,0.27217458075657486,-0.6885396788481623
1782845392019115300,4.815115234375,-1.4181623325824737,0.2948322566360235,-0.4363770817678421
1782845392029120300,4.825120361328125,-1.5108727649837732,0.2610546363271773,-0.32473449681624766
1782845392039124200,4.835124267578125,-1.3554472254723309,0.26637422391474247,-0.3474785358048975
1782845392049129200,4.845129150390625,-1.106211767885089,0.2600730779439211,-0.41634179028123613
1782845392059133200,4.85513330078125,-0.781387108567357,0.13439035026729107,-0.5440406800858676
1782845392069138200,4.86513818359375,-0.38331191959977146,0.061560822508484124,-0.6858773277711123
1782845392079142100,4.87514208984375,-0.04287877226173877,0.016937544666975737,-0.7965989984855055
1782845392089147100,4.885147216796875,0.09284604147970676,-0.04757715921103954,-0.8960998947445302
1782845392099151000,4.895151123046875,0.055633624416589735,-0.046040012771636246,-0.8842436719298362
1782845392109156000,4.905156005859375,-0.036433833906054494,-0.11076894392222165,-0.807831171117723
1782845392119160000,4.91516015625,-0.007338087803125381,-0.20672128085419533,-0.7716046963520348
1782845392129165000,4.9251650390625,0.010714286237955093,-0.23538462688922882,-0.6932682417400181
1782845392139169300,4.935169189453125,-0.038463878428936005,-0.15840060979947446,-0.5853835845498367
1782845392149174300,4.94517431640625,-0.10314590169787406,-0.08474149934872985,-0.4540071387436241
1782845392159178200,4.95517822265625,-0.20669278541207312,-0.019230331779271363,-0.37786735392566767
1782845392169182000,4.965181884765625,-0.2218734034091234,0.07725465072467923,-0.2841762399239465
1782845392179187000,4.97518701171875,-0.15596096156239508,0.13019056048989294,-0.21986041961889713
1782845392189191200,4.985191162109375,-0.03706277945935726,0.08584609958976507,-0.1780797813247889
1782845392199196200,4.995196044921875,0.02252279745340347,0.0949377530619502,-0.07821502018943428
1782845392209200000,5.0052001953125,0.09661854575574398,0.19599618096128105,0.01760415534954518
1782845392219205000,5.015205078125,0.04655541494786739,0.3006742606624961,0.15345935400500893
1782845392229209000,5.025208984375,-0.15829437294602394,0.32917773996070027,0.2670721795836463
1782845392239214000,5.035214111328125,-0.30728257288634775,0.40017011542022224,0.37332854145225136
1782845392249218300,5.04521826171875,-0.27244857539236544,0.5036100316286086,0.467941373408772
1782845392259223300,5.055223388671875,-0.1152700547337532,0.5896044536478817,0.572974330962263
1782845392269227300,5.065227294921875,0.03225742500424385,0.6855899621970951,0.7270543376162648
1782845392279232300,5.075232177734375,0.21924539299309254,0.7765162876605987,0.8266812714077532
1782845392289236000,5.085236083984375,0.4673141448885202,0.8149152841597795,0.838147179730609
1782845392299241000,5.095240966796875,0.6859580648571253,0.8124313583895564,0.8566213593803346
1782845392309245200,5.1052451171875,0.8507873925298451,0.795156398461759,0.8646883459798991
1782845392319250200,5.115250244140625,0.9298591756790876,0.7306991238594055,0.8681975231446325
1782845392329254100,5.125254150390625,0.9246744665175676,0.642940176385641,0.8783991836853324
1782845392339259100,5.135259033203125,0.8954594779491424,0.48387569584995505,0.9282324512600898
1782845392349263000,5.14526318359375,0.8745008610725402,0.29657091699689625,0.963227922926098
1782845392359268000,5.15526806640625,0.7892670481622218,0.1109217963963747,1.0184938830740748
1782845392369272300,5.165272216796875,0.6801958480685949,-0.07644377273321151,1.0798800796680152
1782845392379277300,5.17527734375,0.541338581520319,-0.20421470486074686,1.0377744837358593
1782845392389281300,5.18528125,0.42413375933170316,-0.36208383813202377,1.005416374836117
1782845392399286300,5.195286376953125,0.18519699291884897,-0.47600730056241153,0.9325609819836914
1782845392409290000,5.2052900390625,-0.0221294142216444,-0.528557718141377,0.8446972589612006
1782845392419295000,5.215294921875,-0.20150632268488405,-0.527373184531927,0.7208794483736157
1782845392429299200,5.22529931640625,-0.3886696472406387,-0.42414501137807964,0.6598870734028518
1782845392439304200,5.23530419921875,-0.5195341614693403,-0.43740079879239196,0.5476096611464396
1782845392449308200,5.24530810546875,-0.6617699645400047,-0.442204984203726,0.47911757807005195
1782845392459313200,5.255313232421875,-0.7919593559861182,-0.33265564520433544,0.4205182357156649
1782845392469317000,5.265317138671875,-0.8531003456473351,-0.20181626541689038,0.301518127608113
1782845392479322000,5.275322021484375,-0.7390437583565711,0.012639409081637859,0.261620490049012
1782845392489326300,5.285326416015625,-0.47128714017271994,0.15141484256535767,0.22342015792708841
1782845392499331300,5.295331298828125,-0.18922317969501018,0.17387275808900593,0.18779066267386077
1782845392509335300,5.305335205078125,0.17020926714539528,0.17881722875386474,0.24565358051247893
1782845392519340300,5.31534033203125,0.6162298641145229,0.17970687106996774,0.21947152989916502
1782845392529344000,5.325343994140625,0.9706886141955852,0.13807283817231655,0.17690386941321193
1782845392539349000,5.335348876953125,1.1966887421458958,0.2292681898355484,0.2293957617379725
1782845392549353200,5.345353271484375,1.2779068896740675,0.22832404085323213,0.24211017228458076
1782845392559358200,5.355358154296875,1.2260861015439033,0.19270108493864535,0.22655556987598538
1782845392569362200,5.365362060546875,1.1335697304099797,0.2444017538204789,0.19945048613362013
1782845392579367200,5.3753671875,0.9848585938453673,0.24039324883148072,0.17631949365399777
1782845392589371100,5.38537109375,0.8250041319757699,0.18553543109297752,0.14394764848984776
1782845392599376100,5.395376220703125,0.6611264059394598,0.060634209182858466,0.1848326531184837
1782845392609380400,5.40538037109375,0.5003016377329826,-0.04263268854618072,0.18751491447240112
1782845392619385300,5.41538525390625,0.4068471089661121,-0.14084493323415517,0.24055691496059298
1782845392629389300,5.425389404296875,0.31514322325885297,-0.227211841827631,0.2661913416285068
1782845392639394300,5.435394287109375,0.2554705525845289,-0.32966990739181634,0.26357867491208015
1782845392649398000,5.44539794921875,0.2530804425776005,-0.48280105235576626,0.20293482111804187
1782845392659402200,5.45540234375,0.30225743820071216,-0.5134960503488779,0.1822388737656176
1782845392669407200,5.4654072265625,0.3645815001666546,-0.5847131744749844,0.13166918167509137
1782845392679412200,5.475412109375,0.42209085532724855,-0.647409869145602,0.09759279761537909
1782845392689416200,5.485416259765625,0.3987649247974157,-0.6343972428373992,0.1033750342786312
1782845392699420200,5.495420166015625,0.34364041894674296,-0.6672929657451808,0.07851780252829194
1782845392709425200,5.505425048828125,0.34954525907635686,-0.6748512721702457,0.04501877996511757
1782845392719429400,5.515429443359375,0.4103922342270612,-0.6732729169376194,-0.022274448715522883
1782845392729434400,5.525434326171875,0.43970892960429186,-0.6654176733925938,-0.10545052537843584
1782845392739438600,5.5354384765625,0.462896328446269,-0.655032034587115,-0.2143507528193295
1782845392749443600,5.545443603515625,0.5240472549796105,-0.6884300079286098,-0.3346541255451739
1782845392759447600,5.555447509765625,0.5662883138597011,-0.7436338626258074,-0.39781522285714743
1782845392769452500,5.56545263671875,0.5939654253363609,-0.7591327527917922,-0.39387496079877016
1782845392779456500,5.57545654296875,0.5632306798547506,-0.7784636223360896,-0.362981882950291
1782845392789461500,5.58546142578125,0.6277677416950463,-0.7665548656165599,-0.32594650295451283
1782845392799465700,5.5954658203125,0.7145949612766503,-0.7726359390959143,-0.2745508083686232
1782845392809470700,5.605470703125,0.7351882519721984,-0.8180340007022022,-0.2274528109766543
1782845392819474700,5.615474609375,0.7554249843150377,-0.8373745148576796,-0.17073358328044413
1782845392829479700,5.625479736328125,0.8072042713910341,-0.8663840439818798,-0.15249145882092416
1782845392839483400,5.6354833984375,0.8640034324556589,-0.921423794158548,-0.13066796874329448
1782845392849488400,5.64548828125,0.8392746493905783,-0.9988500020578504,-0.04648359182067215
1782845392859492600,5.65549267578125,0.8020499573677777,-1.0634707966588437,-0.0395277813334018
1782845392869497600,5.66549755859375,0.6848007115155458,-1.0920493870198726,-0.03270794525071978
1782845392879501600,5.67550146484375,0.5505430477172136,-1.1362965250253676,-0.034690570435300466
1782845392889506600,5.685506591796875,0.4174392301291227,-1.215672551818192,-0.05968107317648828
1782845392899510500,5.695510498046875,0.20752631362676618,-1.2658347590863703,-0.10039981786012649
1782845392909515500,5.705515625,0.10007833082079887,-1.3238983871288597,-0.08063055689856409
1782845392919519700,5.715519775390625,0.041807343637943264,-1.356373254276067,-0.07412018862385303
1782845392929524700,5.725524658203125,-0.006547229686379432,-1.4298128767572342,-0.09931779477708041
1782845392939528700,5.73552880859375,-0.14354980827867983,-1.4946620732866227,-0.10288107674922793
1782845392949533700,5.74553369140625,-0.4041092084348202,-1.5559209902390836,-0.06408657812643796
1782845392959537400,5.755537353515625,-0.6939093161225318,-1.6174819588780402,0.0291152545209974
1782845392969542400,5.76554248046875,-0.9765426009207964,-1.5849536079779267,0.12742208215724676
1782845392979546600,5.775546630859375,-1.1667933700978754,-1.5160818779341876,0.1699110879164189
1782845392989551600,5.785551513671875,-1.191205342298746,-1.5039171006269751,0.1768139626400545
1782845392999555600,5.7955556640625,-1.0783037702620029,-1.3791684389300645,0.18090079356227068
1782845393009560600,5.805560546875,-0.8555401400148868,-1.0593275593742728,0.21619842651262877
1782845393019564500,5.815564453125,-0.5229916084468365,-1.0335096658982337,0.100422175822407
1782845393029569500,5.825569580078125,-0.1507224763870239,-0.9192249689400196,0.07263816990517079
1782845393039573800,5.83557373046875,-0.03353577437698841,-0.4775314413897693,0.21595157561209052
1782845393049578800,5.845578857421875,-0.15133505532741545,-0.1316829910047352,0.42294747215658424
1782845393059582700,5.855582763671875,-0.3221732680261135,-0.030303952848911284,0.6542061051569878
1782845393069587700,5.865587646484375,-0.5356085134357214,0.04579641327410936,1.0051977636493743
1782845393079591400,5.87559130859375,-0.9294178616523742,0.3007492255948484,1.4655112359955906
1782845393089596400,5.885596435546875,-1.422456814906001,0.3659237085558474,1.6693316808417438
1782845393099600600,5.8956005859375,-1.7346043634802102,0.331920755058527,1.7194953494146465
1782845393109605600,5.905605712890625,-1.7038205181598662,0.3300014774337411,1.7461784814178942
1782845393119609600,5.915609619140625,-1.4773673857450484,0.17103958048969506,1.6115772648788989
1782845393129614600,5.925614501953125,-1.152446864837408,0.0313632526434958,1.400054136700928
1782845393139618600,5.93561865234375,-0.7478250307053327,0.03384630163088441,1.1934862928427754
1782845393149623600,5.94562353515625,-0.31674656680226326,-0.04232245355322957,0.9926989320822059
1782845393159627800,5.955627685546875,0.012374328404664993,-0.08863412287309766,0.7680699463546276
1782845393169632800,5.9656328125,0.2882698293805122,0.11695727716833353,0.5768508070694283
1782845393179636500,5.975636474609375,0.6600415333122015,0.27919731900021433,0.37479938118979333
1782845393189641500,5.985641357421875,0.9966104064375162,0.4252897974990308,0.20722280063554643
1782845393199645400,5.9956455078125,1.2893944983720778,0.6176273098222911,0.08086429258920252
1782845393209649700,6.005649658203125,1.5042787735462189,0.7849982848018408,0.0013366188986226916
1782845393219654700,6.015654541015625,1.4305805001288652,0.9074037443734705,0.07327946348339319
1782845393229658600,6.02565869140625,1.3126385958373545,1.0263806908011437,0.13399283884968607
1782845393239663600,6.03566357421875,1.1213134754270315,1.1083569632202386,0.16320464908033608
1782845393249667600,6.04566748046875,0.8071925809532403,1.059930347573012,0.18988051109258083
1782845393259672600,6.055672607421875,0.5105272636711597,1.0495317031554876,0.27840456118732687
1782845393269676800,6.0656767578125,0.36787060483992096,1.017661085511744,0.3850355285219848
1782845393279681800,6.075681884765625,0.2422691257059574,1.1048328807473182,0.4311147407928481
1782845393289685500,6.085685546875,0.10685293952226638,1.1897051668688654,0.3975928488107398
1782845393299690500,6.0956904296875,0.0056254386663436885,1.1170534798949956,0.3494367206679657
1782845393309694500,6.105694580078125,-0.09289046514332294,1.1572140792392194,0.3471117848517373
1782845393319699500,6.115699462890625,-0.16066694729626177,1.238221214365214,0.28212518914565443
1782845393329703700,6.12570361328125,-0.24180852245688436,1.3200482875719666,0.19353622058853506
1782845393339708700,6.135708740234375,-0.2596270877420902,1.3615848514445126,0.0818477872012183
1782845393349712600,6.145712646484375,-0.20855156502127647,1.417680686545372,-0.004683152847550809
1782845393359717600,6.155717529296875,-0.11235855120122432,1.4831411468409001,-0.07832184156477451
1782845393369721600,6.1657216796875,-0.02358253563940525,1.4995847705110907,-0.127205553329736
1782845393379726600,6.1757265625,0.06440262180566787,1.4930204435594379,-0.1436683200918138
1782845393389730800,6.185730712890625,0.13706044625937938,1.4619840847827494,-0.12828954917415974
1782845393399735800,6.19573583984375,0.19683540826439858,1.4160809962637722,-0.1137348810557276
1782845393409739500,6.205739501953125,0.18445874177217483,1.4087073987558483,-0.10337021197304129
1782845393419744500,6.21574462890625,0.14579378781318664,1.400279031497985,-0.09370514252707361
1782845393429748500,6.22574853515625,0.10950725342333316,1.3263831896819174,-0.03034099692367017
1782845393439753500,6.23575341796875,0.1267898121356964,1.247941521129757,0.02021912362091243
1782845393449757700,6.2457578125,0.16386895820796488,1.1695718949005007,0.056885524173825974
1782845393459762700,6.2557626953125,0.1666477752715349,1.0548298095636068,0.09337802946455775
1782845393469766700,6.2657666015625,0.14481003747284413,0.9969656496159732,0.07897416799366473
1782845393479771600,6.275771728515625,0.11904781970679759,0.986926778421551,0.07838833092972636
1782845393489775600,6.285775634765625,0.035657004314661025,0.9028456426776945,0.041756490233540534
1782845393499780600,6.295780517578125,-0.025956863555312154,0.828401227068156,-0.011312032935395837
1782845393509784600,6.30578466796875,-0.010271218645572662,0.7891323158666491,-0.08470511286109686
1782845393519789600,6.31578955078125,-0.09050152418017386,0.7266773209974169,-0.09393106023743748
1782845393529793500,6.32579345703125,-0.12866203574836255,0.6979325802892447,-0.05328362722434103
1782845393539798500,6.335798583984375,-0.15180910257995128,0.7240667001076042,-0.05687003434374928
1782845393549802500,6.345802490234375,-0.22356500975787638,0.7649981376938522,-0.10345599056035279
1782845393559807500,6.355807373046875,-0.22976152631044386,0.7242050856649875,-0.17881291790492831
1782845393569811500,6.3658115234375,-0.13747604132294655,0.6983833927966654,-0.21304558850489555
1782845393579816700,6.375816650390625,0.024891280150413513,0.6615037148192524,-0.23898513559922574
1782845393589820700,6.385820556640625,0.18362930521070955,0.588537116677314,-0.29927118893153964
1782845393599825700,6.39582568359375,0.3463724742591381,0.5983056464977562,-0.32431773270890113
1782845393609829600,6.40582958984375,0.4458399797052145,0.6191894445724785,-0.3679376056615263
1782845393619834600,6.415834716796875,0.5203975003004074,0.5735318552471697,-0.3692673198953271
1782845393629838600,6.425838623046875,0.4923480483800173,0.5338404808498919,-0.2866634170971811
1782845393639843600,6.435843505859375,0.42138124575316904,0.5176597458995879,-0.2239141885217279
1782845393649847600,6.44584765625,0.32202187685668465,0.4795188158147037,-0.19399105168394742
1782845393659852500,6.4558525390625,0.22856793261170386,0.44956952162235975,-0.13997246124856172
1782845393669856500,6.4658564453125,0.17796236549019812,0.38375235684365033,-0.07090287054516374
1782845393679860500,6.475860595703125,0.18224807998538017,0.2785784564495086,-0.06731061820685863
1782845393689865500,6.485865478515625,0.15596563773751257,0.13807517625987528,-0.05285108102597296
1782845393699869700,6.49586962890625,0.10403379044830799,0.022614713520556686,-0.060034781984984874
1782845393709874700,6.505874755859375,0.08571078277230262,-0.051076107242703436,-0.06995075745210051
1782845393719878100,6.515878173828125,-0.006134557232260703,-0.08876987808197737,-0.06045476096272468
1782845393729883100,6.525883056640625,-0.11434651014804839,-0.11088146438598633,-0.04513341932073235
1782845393739887400,6.535887451171875,-0.19230361005365848,-0.16185688773319123,-0.031326793090626595
1782845393749892400,6.545892333984375,-0.2475806761175394,-0.1406548174895346,-0.04133410010300576
1782845393759896300,6.555896240234375,-0.3391162195205688,-0.1794420826539397,-0.021189210762083528
1782845393769901300,6.5659013671875,-0.39337387940883634,-0.13402517021670937,-0.04841178340427577
1782845393779905000,6.575905029296875,-0.41885377310216426,-0.10386237940415739,-0.030434374295547604
1782845393789910000,6.585909912109375,-0.33968671288490293,-0.14995178427547215,0.022019889432564378
1782845393799914200,6.595914306640625,-0.25733400836884973,-0.16845380178019403,0.04550393313355744
1782845393809919200,6.605919189453125,-0.23248948996961116,-0.11644859699383377,0.10196370617598295
1782845393819923200,6.615923095703125,-0.2068681419789791,-0.11062573605924844,0.11968567921891808
1782845393829928200,6.62592822265625,-0.13718670298755167,-0.11850158400088548,0.0789070941068232
1782845393839932200,6.63593212890625,-0.039003976655006406,-0.07477700856477022,0.06376607746779918
1782845393849937200,6.645937255859375,0.07819909196794032,-0.04450944220349192,0.07637465301975607
1782845393859941000,6.655941162109375,0.2354717206507921,-0.03467062362581491,0.11741356956847011
1782845393869946400,6.6659462890625,0.34159926850795747,-0.021714842071384192,0.15681421739086507
1782845393879950300,6.675950439453125,0.38209377598166466,0.00011836568266153335,0.14696648485437036
1782845393889955300,6.685955322265625,0.42972120407521724,-0.02165522083863616,0.1277334496613592
1782845393899959000,6.695958984375,0.41809155655801294,-0.025845950526744127,0.07791311463341116
1782845393909964000,6.705964111328125,0.38308337154090405,-0.033633097271621226,0.018466069408506154
1782845393919968300,6.71596826171875,0.31016251223683355,-0.06044672378674149,-0.0693606095392257
1782845393929973200,6.72597314453125,0.2502379126280546,-0.14941899257302282,-0.09577164660282432
1782845393939977200,6.735977294921875,0.1771539717167616,-0.189941557097435,-0.08166399159952997
1782845393949982200,6.745982177734375,0.09200900613367557,-0.1710236522682011,-0.11633527281247079
1782845393959986200,6.755986083984375,0.00540624295771122,-0.14395225159972905,-0.20934848755262792
1782845393969991200,6.7659912109375,-0.08583177880346775,-0.10411518512144684,-0.29358671355433763
1782845393979995100,6.7759951171875,-0.07042378179132938,-0.09273556684255599,-0.38185638702921565
1782845393990000000,6.786000244140625,-0.07215572015047073,-0.1317145551867783,-0.42475554449185726
1782845394000004400,6.79600439453125,-0.09064707013070583,-0.2483956457622349,-0.45160862623453135
1782845394010009300,6.80600927734375,-0.06716214964687824,-0.3005177549265325,-0.44156062188558276
1782845394020013000,6.816012939453125,-0.013071078497171401,-0.3272762902535498,-0.4695120933242142
1782845394030018000,6.82601806640625,0.03550502862334251,-0.38141704576387997,-0.5628328396435827
1782845394040022000,6.83602197265625,0.03668868544995785,-0.42248380016759035,-0.6609602555923163
1782845394050027000,6.846027099609375,0.07888298257887363,-0.41121670235246416,-0.8135041752528399
1782845394060031200,6.85603125,0.07390577868819237,-0.42132776200026273,-0.9555788694776594
1782845394070036200,6.8660361328125,0.06428221029639243,-0.38951778850257396,-1.0378927032880485
1782845394080040200,6.876040283203125,0.11341302869021892,-0.35871743043884635,-1.1524460611198097
1782845394090045200,6.886045166015625,0.1984936968654394,-0.3180846835382283,-1.2518491960927842
1782845394100049200,6.896049072265625,0.2902186253607273,-0.35405849871709943,-1.301300332482159
1782845394110054100,6.90605419921875,0.43620238278806206,-0.38833442393690343,-1.3443994694963097
1782845394120058000,6.91605810546875,0.6098176589846611,-0.4146450693659484,-1.3444988382175564
1782845394130062000,6.92606201171875,0.6839402952939272,-0.4615589423626661,-1.3437623406365513
1782845394140067000,6.936067138671875,0.6349322264969348,-0.519070343349874,-1.3993521259114146
1782845394150071000,6.946071044921875,0.397844887343049,-0.5058269770257174,-1.439325093729049
1782845394160076000,6.956075927734375,0.052040568360686296,-0.4862422788508236,-1.5115240684993565
1782845394170080300,6.966080322265625,-0.24236206468641758,-0.45097836550697684,-1.5592834524095058
1782845394180085200,6.976085205078125,-0.4057137210220098,-0.3248791659839451,-1.5099714322298765
1782845394190089200,6.986089111328125,-0.5254705657809973,-0.2598955294199288,-1.4967127222061156
1782845394200094200,6.99609423828125,-0.5563748226106167,-0.13688114416971803,-1.488420840809494
1782845394210098200,7.00609814453125,-0.6021633448392153,-0.03875950037464499,-1.418418207039684
1782845394220103200,7.016103271484375,-0.6491583202481269,-0.005340045853704214,-1.2741373080074787
1782845394230107100,7.026107177734375,-0.8207932362824678,0.10923267426565289,-1.0031638466689734
1782845394240112000,7.036112060546875,-0.9731640643984079,0.16613719540089367,-0.642949894062057
1782845394250116000,7.0461162109375,-1.1290817713409662,0.260515268753469,-0.2535596774619073
1782845394260121000,7.05612109375,-1.227466742247343,0.3307185396619141,0.012424816482886672
1782845394270125000,7.066125,-1.22728612498343,0.3271135009072721,0.1309462011627853
1782845394280130000,7.076130126953125,-1.1561018802136183,0.25114742868840695,0.21262736309282482
1782845394290134300,7.08613427734375,-1.0481506240606306,0.17250512299761175,0.3336464098073542
1782845394300139300,7.09613916015625,-0.8300894724160433,0.09702624977380037,0.4848234980940819
1782845394310143200,7.106143310546875,-0.5924672957330942,-0.02331979304999113,0.560589627294056
1782845394320148200,7.116148193359375,-0.40032618276476856,-0.08509718091860413,0.6158830234382301
1782845394330152200,7.126152099609375,-0.2673404385983944,-0.06979162136763334,0.5818208140343427
1782845394340157200,7.1361572265625,-0.17135960622429847,-0.06524637915343046,0.41527098271194846
1782845394350161200,7.1461611328125,-0.09639408935010432,-0.008020224848389625,0.2698558189528063
1782845394360166100,7.156166259765625,0.01066343283355236,0.05713496889024972,0.22764796822257338
1782845394370170000,7.166170166015625,0.16044658254384994,0.0402690281547606,0.21970340242628006
1782845394380175000,7.176175048828125,0.31353169640898704,0.0010838497139513492,0.21769947872534393
1782845394390179000,7.186178955078125,0.43557577532231806,0.09949921575859189,0.24940990083869546
1782845394400184000,7.19618408203125,0.502661937123537,0.19483502822741866,0.2636882362337783
1782845394410188300,7.206188232421875,0.511162638965249,0.3016615181341767,0.21130126558821646
1782845394420193300,7.216193359375,0.5004249718517064,0.4277085490785539,0.14336309006754308
1782845394430197200,7.226197265625,0.5343775103360414,0.44958764180094,0.10967449974901973
1782845394440202200,7.2362021484375,0.646703912833333,0.41962884912788867,0.09759572022482753
1782845394450206200,7.246206298828125,0.7991933988928794,0.43483182508721946,0.14414273267053068
1782845394460211200,7.256211181640625,0.9744213709831238,0.4631251687660813,0.17399934361074118
1782845394470215200,7.266215087890625,1.0740104569822548,0.515848604824394,0.17355236702822147
1782845394480220200,7.27622021484375,1.0113567246705293,0.5813508584350348,0.27736721749622373
1782845394490224000,7.28622412109375,0.8708768253564834,0.6308639541447162,0.47734611141812056
1782845394500229000,7.29622900390625,0.7187316226899624,0.5893155537039041,0.5537075030975044
1782845394510233000,7.306233154296875,0.49226504627168177,0.5303238510310649,0.61987202000916
1782845394520238000,7.316238037109375,0.21952245636880396,0.44909342854321,0.6922630102202296
1782845394530242300,7.3262421875,0.014471008422970772,0.38144963285923,0.7430887959636747
1782845394540247300,7.336247314453125,-0.07865268095433711,0.32377807287424804,0.74591379025653
1782845394550251300,7.346251220703125,-0.09440905301272869,0.14421557871103285,0.8077100289560853
1782845394560256300,7.35625634765625,-0.017920856615900992,-0.08106646409779787,0.8801113944306969
1782845394570260200,7.36626025390625,0.0726882195919752,-0.25061025307178497,0.9764979580614715
1782845394580265200,7.37626513671875,0.16476912191808224,-0.40039837121814487,1.0722967849321663
1782845394590269200,7.386269287109375,0.19612521416842937,-0.5336670239791274,1.088216750054434
1782845394600274200,7.396274169921875,0.09441372918784618,-0.4878564360491931,1.1364457973029465
1782845394610278100,7.406278076171875,-0.055826516640186306,-0.3080477120399475,1.1503156980276108
1782845394620282000,7.4162822265625,-0.18263561799824238,-0.3232251151666045,1.0188707535624504
1782845394630287000,7.426287109375,-0.34331016407907006,-0.32682708518132564,0.9169398536775261
1782845394640291300,7.436291259765625,-0.48897827968597407,-0.22243922059834,0.84292674215734
1782845394650296300,7.44629638671875,-0.6075953067600727,-0.07749503535181283,0.6796573572777211
1782845394660300300,7.45630029296875,-0.5916255842119456,0.035215982548892494,0.4657411234181374
1782845394670305300,7.46630517578125,-0.5003057293862104,0.08848506979122757,0.3283629895117134
1782845394680309200,7.476309326171875,-0.33868308880031106,0.1451312322512269,0.23844375873152165
1782845394690314200,7.486314208984375,0.05621814630627632,0.08653656607195734,0.1409512066202238
1782845394700318200,7.496318115234375,0.478646270763874,0.08777399891242385,0.14466511257681994
1782845394710323200,7.5063232421875,0.8009089706391096,0.12492562569901347,0.17222152028325943
1782845394720327200,7.5163271484375,1.0108861845493315,0.002937953148037195,0.1694189570179209
1782845394730332200,7.526332275390625,1.154016890633106,-0.029601795928925274,0.20176285472922026
1782845394740335900,7.5363359375,1.1906734273791313,0.09918722719997167,0.21067582716625183
1782845394750340900,7.5463408203125,1.1508248165935278,-0.015001169776916503,0.15582173575479535
1782845394760345000,7.556344970703125,1.0267577074199914,-0.08244228249564767,0.15603344227671623
1782845394770350000,7.56635009765625,0.8380290332436561,0.005471271017938852,0.2558325908299535
1782845394780354000,7.57635400390625,0.6577285801947117,-0.01044146064594388,0.3598831132173538
1782845394790359000,7.586359130859375,0.531039890345931,-0.11354439998492598,0.39218846901655197
1782845394800363000,7.596363037109375,0.39237025532424447,-0.316395415277034,0.4124293660778552
1782845394810368000,7.606367919921875,0.24204466930031776,-0.42444969341307875,0.40340179081782696
1782845394820372200,7.616372314453125,0.09981471144855023,-0.47500893717482684,0.4184212999690324
1782845394830377200,7.626377197265625,0.07396306183338165,-0.49791561937928197,0.38830190990678964
1782845394840381200,7.636381103515625,0.16254501612782477,-0.3594381459288299,0.3381079923260957
1782845394850386200,7.64638623046875,0.3070288903862238,-0.38342531684637066,0.2390630962062627
1782845394860390000,7.656389892578125,0.5199889194995164,-0.40690599954649803,0.1629605381261557
1782845394870395000,7.666394775390625,0.6662544164776801,-0.3464825105048716,0.12304704541079699
1782845394880399000,7.676399169921875,0.75398472237885,-0.39870778778269883,0.0014633505508303642
1782845394890404000,7.686404052734375,0.7966425453662872,-0.49734790249392385,-0.07370192667916417
1782845394900408000,7.696407958984375,0.7820739217877387,-0.5598346076756715,-0.035204949698224665
1782845394910413000,7.7064130859375,0.7640028430461883,-0.6284590849600732,-0.028640988072752952
1782845394920417000,7.7164169921875,0.7202613164752721,-0.7410076057754457,-0.07302943424507975
1782845394930422000,7.726422119140625,0.7103595156639814,-0.8447972122043371,-0.13315021401308477
1782845394940426000,7.736426025390625,0.6484399428457022,-0.7281167061507702,-0.13852745007202028
1782845394950431200,7.74643115234375,0.6335819809317589,-0.685507106219232,-0.21167123141176997
1782845394960435200,7.756435302734375,0.5391290887773037,-0.7687716648831963,-0.299847673645243
1782845394970440200,7.766440185546875,0.38169220944344995,-0.6863084857299924,-0.3195741183783859
1782845394980444000,7.77644384765625,0.2828413745909929,-0.6199772339493036,-0.36240620195418594
1782845394990449000,7.786448974609375,0.20554186181128023,-0.6499389492318034,-0.3586079056497663
1782845395000453000,7.796453125,0.12520458877086638,-0.6439914390042424,-0.35078188819922507
1782845395010458000,7.8064580078125,0.0777560243755579,-0.5989302081368864,-0.37029797811731696
1782845395020462000,7.816462158203125,0.12302607568800449,-0.5785607893250883,-0.3968002005957067
1782845395030467000,7.826467041015625,0.2858703670233488,-0.6117825293168425,-0.423966293810308
1782845395040471000,7.836470947265625,0.44566813026964663,-0.6103264852896333,-0.38037652373500164
1782845395050476000,7.84647607421875,0.5746545756667852,-0.5744270505212247,-0.2856103278476745
1782845395060480000,7.85647998046875,0.710533703187108,-0.5709460765376687,-0.24022950963713227
1782845395070485000,7.866485107421875,0.848885358300805,-0.576674683317542,-0.25465558293983337
1782845395080489200,7.8764892578125,0.953407809048891,-0.6195131235688924,-0.2372802313774824
1782845395090494200,7.886494140625,0.9564233574777841,-0.681954382173717,-0.19688516569025813
1782845395100498000,7.896497802734375,0.9316741161465645,-0.7625209339253604,-0.19085534747410565
1782845395110502000,7.906501953125,0.9294675460129975,-0.8795850324690342,-0.1629820558382198
1782845395120507000,7.9165068359375,0.9048422233223915,-1.0347833390958607,-0.12792678027637303
1782845395130511000,7.926510986328125,0.832704623350501,-1.1551315738767385,-0.06351115285865962
1782845395140516000,7.93651611328125,0.7150877132296561,-1.223530717972666,0.00046666766367852683
1782845395150520000,7.94652001953125,0.5247235468059778,-1.2765436384968458,0.09337265916969627
1782845395160525000,7.956525146484375,0.31460780120790005,-1.3231409928902982,0.13777085955105722
1782845395170529000,7.966529052734375,0.20063070889413356,-1.3572132122315466,0.1368439539644867
1782845395180534000,7.976533935546875,0.0967044704735279,-1.3941601102262735,0.15597488048989325
1782845395190538200,7.986538330078125,-0.1465320389598608,-1.435940858118236,0.2577912871496752
1782845395200543200,7.996543212890625,-0.38516953016519545,-1.4677080153875053,0.26815087819844485
1782845395210547000,8.006546875,-0.5193862774312495,-1.496230783908069,0.22476466787122187
1782845395220552000,8.016552001953125,-0.5922609595060349,-1.5573802491366862,0.15707736183907836
1782845395230556000,8.026555908203125,-0.6357640011459589,-1.6675456742078065,-0.011238638905622064
1782845395240561000,8.036560791015624,-0.6665542762070894,-1.7471883891128002,-0.1065729170044884
1782845395250565000,8.046565185546875,-0.7961918789893389,-1.8042146369315684,-0.08631945272255688
1782845395260570000,8.056570068359376,-0.933265769252181,-1.7550407100483774,-0.040427159592229873
1782845395270574000,8.066573974609375,-0.9616220951646566,-1.7808286467775702,-0.06122185461139306
1782845395280579000,8.0765791015625,-0.9223907394945621,-1.7264441456392405,-0.07666388175729662
1782845395290583000,8.0865830078125,-0.8072837663680315,-1.470506852325797,-0.15851687485659494
1782845395300588000,8.096588134765625,-0.5374924274861812,-1.0169153817109764,-0.3043585203994997
1782845395310592000,8.106592041015626,-0.34350656343400476,-0.34774946170076726,-0.2598287843266502
1782845395320597000,8.116596923828125,-0.130485159522295,-0.1015691539004445,-0.11165613855291158
1782845395330601000,8.12660107421875,-0.03551087384223938,-0.1412717803440988,0.167993545590993
1782845395340606000,8.13660595703125,-0.12675415630042552,0.07251666241735219,0.6854743729934096
1782845395350610000,8.14660986328125,-0.6015916824311017,0.3504460073083639,1.247989013533294
1782845395360615000,8.156614990234376,-1.2706208243191242,0.41059345588758583,1.5616535425417124
1782845395370619100,8.166619140625,-1.8421768494486808,0.3593006371542811,1.8145546830296515
1782845395380624100,8.1766240234375,-2.0521564014464615,0.36584158323034643,1.903410193568468
1782845395390628000,8.186628173828124,-1.9050667286038399,0.5431573213800788,1.8666195090487598
1782845395400633000,8.196633056640625,-1.7692483913600443,0.7001639926031231,1.6618702589198946
1782845395410637000,8.206636962890625,-1.6343173583447932,0.6682903062194585,1.3865335608705878
1782845395420642000,8.21664208984375,-1.2757967656522988,0.5246729856625199,1.118582004636526
1782845395430646000,8.22664599609375,-0.8575479727059602,0.4052383585952222,0.8682267492391168
1782845395440651000,8.236651123046874,-0.3745727328270674,0.36061274266615506,0.6465433154441416
1782845395450655000,8.246655029296875,0.11240414390861987,0.305884250395745,0.5389055091544985
1782845395460660000,8.256659912109376,0.5241057071685791,0.19522198171839117,0.4509331015931442
1782845395470664000,8.266663818359374,0.9227104729682206,0.2788504052586853,0.3963549045136198
1782845395480669000,8.2766689453125,1.20785252571702,0.35292525690346954,0.40649142739623784
1782845395490673200,8.286673095703126,1.4479174193769693,0.5309397909723222,0.3269051553862169
1782845395500678100,8.29667822265625,1.6368898391813038,0.7350869835548103,0.37116339930761605
1782845395510682000,8.30668212890625,1.7536679603904484,0.8643972540788352,0.38932263125665484
1782845395520687000,8.31668701171875,1.8226146553665399,1.0548483681336045,0.36572011227514595
1782845395530691000,8.326691162109375,1.8128490481555461,1.28721744659394,0.32132980293929575
1782845395540696000,8.336696044921876,1.7398504474401473,1.4974411826111376,0.3419770523117855
1782845395550700000,8.346699951171875,1.5415385368824004,1.5832948809854686,0.43856158620007335
1782845395560705000,8.356705078125,1.1931249121844767,1.6467833105556666,0.5538461809158325
1782845395570709000,8.366708984375,0.8009037099421024,1.7127274627149105,0.6634579906921834
1782845395580713000,8.376712890625,0.46507717961668965,1.785190202987939,0.7113752685777842
1782845395590718000,8.386718017578126,0.22248948948085306,1.8499964371584354,0.6405364031795412
1782845395600722200,8.39672216796875,0.10264262835085392,1.888718674262613,0.5395170651815832
1782845395610727200,8.40672705078125,0.05175824428796768,1.8707579240277408,0.4691759567050263
1782845395620731100,8.416731201171874,-0.12447276736497878,1.7944088438406585,0.4051349347533658
1782845395630736100,8.426736083984375,-0.49509296317398543,1.6676324757084249,0.3780241884551942
1782845395640740000,8.436739990234376,-0.7930681940108537,1.5149538968175649,0.2822187857132405
1782845395650745000,8.4467451171875,-0.9178425746709108,1.3288216688752175,0.16540508173406124
1782845395660749000,8.4567490234375,-0.9345382734060287,1.117734594026953,0.10117286632554605
1782845395670754000,8.466754150390624,-0.9175690184265375,0.96700554176867,0.07227774822809734
1782845395680758000,8.476758056640625,-0.8553034086495638,0.874126474802196,0.11778297826959751
1782845395690763000,8.486762939453126,-0.7285135965138674,0.7322390467777847,0.07509954591686836
1782845395700767000,8.49676708984375,-0.48048809923827646,0.5845327033415436,-0.066442758464301
1782845395710772000,8.50677197265625,-0.5186807595103978,0.6420557947665453,-0.2657668143398128
1782845395720776200,8.516776123046874,-0.04648702588677406,0.6692610509477556,-0.2645392270399257
1782845395730781400,8.526781494140625,-0.07407704360187053,0.6602987229436635,-0.030822743425471706
1782845395740785400,8.536785400390626,-0.3627893560528755,0.5186980029061437,-0.015904055167082695
1782845395750790400,8.546790283203125,-0.37358898248672484,0.5320188183806837,-0.01888127174642868
1782845395760794400,8.55679443359375,-0.38593993001580235,0.5200596466481685,-0.15234847015365957
1782845395770799400,8.56679931640625,0.06193827751874923,0.6318399595700204,-0.4228993952311575
