time,seconds_elapsed,z,y,x
1782845387269484300,0.065484375,-0.2288598120212555,-0.04879310727119446,-0.10433492809534073
1782845387279488300,0.07548828125,-0.24265098571777344,-0.0139608234167099,-0.07271894812583923
1782845387289493200,0.0854931640625,-0.2615607678890228,0.027951207011938095,-0.05296095088124275
1782845387299497500,0.09549755859375,-0.2755274474620819,0.06662003695964813,-0.026738403365015984
1782845387309502500,0.10550244140625,-0.29261907935142517,0.09531214088201523,-0.005107410252094269
1782845387319506400,0.11550634765625,-0.29150107502937317,0.11124636232852936,-0.0011749867117032409
1782845387329511400,0.125511474609375,-0.2795799672603607,0.11408769339323044,-0.009371663443744183
1782845387339515100,0.13551513671875,-0.25176405906677246,0.10307285189628601,-0.028538433834910393
1782845387349520100,0.14552001953125,-0.2149549126625061,0.07948577404022217,-0.04096021503210068
1782845387359524400,0.1555244140625,-0.15924717485904694,0.049136120826005936,-0.05217185616493225
1782845387369529300,0.165529296875,-0.09968531131744385,0.0345502533018589,-0.058693140745162964
1782845387379533300,0.175533203125,-0.03537796437740326,0.047810398042201996,-0.06568287312984467
1782845387389538300,0.185538330078125,0.02413356490433216,0.06573747098445892,-0.07787802070379257
1782845387399542300,0.195542236328125,0.08877301216125488,0.09017197042703629,-0.08522328734397888
1782845387409547300,0.20554736328125,0.15189658105373383,0.12424524873495102,-0.09615263342857361
1782845387419551500,0.215551513671875,0.2215196043252945,0.15374961495399475,-0.10696453601121902
1782845387429556500,0.225556396484375,0.2974441945552826,0.1667410433292389,-0.10930199176073074
1782845387439560400,0.235560546875,0.3727453351020813,0.16553623974323273,-0.1070055440068245
1782845387449565400,0.2455654296875,0.43137961626052856,0.15927088260650635,-0.10263769328594208
1782845387459569200,0.255569091796875,0.4645591676235199,0.14240135252475739,-0.10366221517324448
1782845387469574100,0.26557421875,0.4785551428794861,0.12224815040826797,-0.10871769487857819
1782845387479578400,0.275578369140625,0.46896907687187195,0.1043037697672844,-0.11455720663070679
1782845387489583400,0.285583251953125,0.4451012909412384,0.10174819827079773,-0.11911334097385406
1782845387499587300,0.29558740234375,0.4090021550655365,0.10514666140079498,-0.12372247129678726
1782845387509591300,0.30559130859375,0.36655962467193604,0.11169963330030441,-0.12416189908981323
1782845387519596300,0.31559619140625,0.3227090835571289,0.11406851559877396,-0.1172637790441513
1782845387529600300,0.325600341796875,0.2924979031085968,0.10855896770954132,-0.109311044216156
1782845387539605500,0.33560546875,0.280643105506897,0.10259748250246048,-0.1094236969947815
1782845387549609200,0.345609130859375,0.2961307168006897,0.0915600135922432,-0.1128314733505249
1782845387559614500,0.355614501953125,0.3190336525440216,0.07029786705970764,-0.11595296859741211
1782845387569618200,0.3656181640625,0.3475518524646759,0.05209276080131531,-0.11900787800550461
1782845387579623200,0.375623046875,0.3796064555644989,0.03985074162483215,-0.12264496088027954
1782845387589627400,0.38562744140625,0.40954864025115967,0.025176459923386574,-0.12220314145088196
1782845387599632400,0.39563232421875,0.4359498918056488,0.026262762024998665,-0.12994708120822906
1782845387609636400,0.40563623046875,0.45235520601272583,0.03183755651116371,-0.13007810711860657
1782845387619641300,0.415641357421875,0.46298283338546753,0.03412974253296852,-0.1067647933959961
1782845387629645300,0.425645263671875,0.4706556499004364,0.023360716179013252,-0.06520536541938782
1782845387639650300,0.435650390625,0.4862111806869507,0.006669087801128626,-0.021579060703516006
1782845387649654300,0.445654296875,0.5010188817977905,-0.0032120386604219675,0.03148788586258888
1782845387659659300,0.4556591796875,0.5164596438407898,-0.009820139966905117,0.08382458984851837
1782845387669663200,0.465663330078125,0.5323246121406555,-0.0144724166020751,0.14206312596797943
1782845387679668200,0.475668212890625,0.5460891723632812,-0.020669326186180115,0.18122625350952148
1782845387689672200,0.485672119140625,0.5604020357131958,-0.027634823694825172,0.219053253531456
1782845387699677200,0.49567724609375,0.5840154886245728,-0.025783659890294075,0.24358363449573517
1782845387709681000,0.505680908203125,0.598720133304596,-0.007423827890306711,0.2541305422782898
1782845387719686000,0.515685791015625,0.6120567321777344,0.019232816994190216,0.22494016587734222
1782845387729689900,0.52568994140625,0.6182706952095032,0.05366748943924904,0.16040991246700287
1782845387739694800,0.53569482421875,0.6123321056365967,0.06575237959623337,0.08321712911128998
1782845387749698800,0.54569873046875,0.6009287238121033,0.0633278414607048,0.008629174903035164
1782845387759703800,0.555703857421875,0.5903325080871582,0.06160450726747513,-0.06700539588928223
1782845387769708000,0.5657080078125,0.5859755873680115,0.05272978916764259,-0.12371528148651123
1782845387779713000,0.575713134765625,0.5851297974586487,0.035053592175245285,-0.1580205261707306
1782845387789716700,0.585716796875,0.5814988017082214,0.0028578380588442087,-0.1664731353521347
1782845387799721700,0.5957216796875,0.56978839635849,-0.036004338413476944,-0.154909148812294
1782845387809725700,0.6057255859375,0.5508615374565125,-0.07825884968042374,-0.12803439795970917
1782845387819730700,0.615730712890625,0.5339129567146301,-0.1185210570693016,-0.07971373945474625
1782845387829735000,0.62573486328125,0.5001179575920105,-0.14908349514007568,-0.027003919705748558
1782845387839740000,0.635739990234375,0.4500787556171417,-0.1545376479625702,0.02700818143785
1782845387849744000,0.645743896484375,0.4065065085887909,-0.14258164167404175,0.08792852610349655
1782845387859748900,0.655748779296875,0.353334903717041,-0.12559600174427032,0.15151788294315338
1782845387869752800,0.6657529296875,0.2976231575012207,-0.11189351230859756,0.2244807779788971
1782845387879757800,0.6757578125,0.23464180529117584,-0.10063046962022781,0.2959989011287689
1782845387889761800,0.68576171875,0.16412369906902313,-0.09304312616586685,0.34909355640411377
1782845387899766800,0.695766845703125,0.09318826347589493,-0.08086448907852173,0.38526859879493713
1782845387909770800,0.705770751953125,0.02556554786860943,-0.06523839384317398,0.38037076592445374
1782845387919775700,0.715775634765625,-0.032167524099349976,-0.03957697004079819,0.31931647658348083
1782845387929779700,0.72577978515625,-0.052325520664453506,-0.010893394239246845,0.23442049324512482
1782845387939784700,0.73578466796875,-0.036742303520441055,0.012191152200102806,0.16347308456897736
1782845387949789000,0.745788818359375,-0.017496967688202858,0.017717745155096054,0.11820440739393234
1782845387959794000,0.7557939453125,-0.006061354652047157,0.02683853916823864,0.03995886817574501
1782845387969798000,0.7657978515625,0.015361113473773003,0.04007790982723236,-0.05517217516899109
1782845387979803000,0.775802978515625,0.02532666176557541,0.04219086468219757,-0.15503352880477905
1782845387989806800,0.785806884765625,0.03725868836045265,0.045574408024549484,-0.23585247993469238
1782845387999811800,0.795811767578125,0.07839440554380417,0.03762460872530937,-0.2656090259552002
1782845388009815800,0.80581591796875,0.14825284481048584,0.014445784501731396,-0.272531121969223
1782845388019820800,0.81582080078125,0.23772387206554413,-0.003989681601524353,-0.25019678473472595
1782845388029824800,0.82582470703125,0.30494260787963867,-0.014433267526328564,-0.21610885858535767
1782845388039829800,0.835829833984375,0.344255656003952,-0.03327300027012825,-0.1802762895822525
1782845388049833700,0.845833740234375,0.37104037404060364,-0.04844396561384201,-0.15623994171619415
1782845388059838700,0.855838623046875,0.38161686062812805,-0.05536046251654625,-0.1392468363046646
1782845388069842700,0.8658427734375,0.37859976291656494,-0.0580047145485878,-0.11301976442337036
1782845388079848000,0.875847900390625,0.3535146713256836,-0.05446270853281021,-0.07408008724451065
1782845388089852000,0.885851806640625,0.3219332993030548,-0.04043157771229744,-0.017654627561569214
1782845388099857000,0.89585693359375,0.29804712533950806,-0.021282652392983437,0.040102411061525345
1782845388109860900,0.90586083984375,0.2694879174232483,0.002525209216400981,0.09015998989343643
1782845388119865900,0.915865966796875,0.2324361652135849,0.028318990021944046,0.1304570734500885
1782845388129869800,0.925869873046875,0.19352659583091736,0.053634997457265854,0.1690007448196411
1782845388139874800,0.935874755859375,0.14597025513648987,0.07786151021718979,0.19384856522083282
1782845388149878800,0.945878662109375,0.09912631660699844,0.09549616277217865,0.20367296040058136
1782845388159883800,0.9558837890625,0.06329881399869919,0.11502192914485931,0.18418875336647034
1782845388169887700,0.9658876953125,0.032350748777389526,0.14005404710769653,0.1636965274810791
1782845388179891700,0.9758916015625,0.00437956815585494,0.15378370881080627,0.14096245169639587
1782845388189896700,0.985896728515625,-0.014418354257941246,0.16066505014896393,0.1241493821144104
1782845388199901000,0.99590087890625,-0.033476732671260834,0.1658174693584442,0.1142224445939064
1782845388209906000,1.005906005859375,-0.04534723982214928,0.16629736125469208,0.0993252545595169
1782845388219910000,1.015909912109375,-0.0530291311442852,0.15860535204410553,0.07048002630472183
1782845388229915000,1.025914794921875,-0.060561615973711014,0.13876640796661377,0.055214252322912216
1782845388239918600,1.035918701171875,-0.06547674536705017,0.12244655191898346,0.039978574961423874
1782845388249923600,1.045923583984375,-0.06464770436286926,0.11339712888002396,0.020834442228078842
1782845388259927800,1.055927734375,-0.05585101619362831,0.10756108164787292,-0.015268168412148952
1782845388269932800,1.065932861328125,-0.041484858840703964,0.1147521510720253,-0.04903918132185936
1782845388279936800,1.075936767578125,-0.024418257176876068,0.12429425120353699,-0.07695256918668747
1782845388289941800,1.085941650390625,0.0015286544803529978,0.13549816608428955,-0.11574523895978928
1782845388299945700,1.09594580078125,0.02550935372710228,0.14397341012954712,-0.15032611787319183
1782845388309950700,1.10595068359375,0.06046121194958687,0.13491493463516235,-0.18296316266059875
1782845388319955000,1.115954833984375,0.0911371037364006,0.12320955097675323,-0.20006145536899567
1782845388329960000,1.1259599609375,0.0973912701010704,0.10708597302436829,-0.1969841718673706
1782845388339964000,1.1359638671875,0.09659577906131744,0.09357708692550659,-0.19333963096141815
1782845388349969000,1.145968994140625,0.08750241994857788,0.0728643536567688,-0.18375171720981598
1782845388359972600,1.15597265625,0.08728856593370438,0.052566006779670715,-0.1694396287202835
1782845388369977600,1.1659775390625,0.0819752961397171,0.028680646792054176,-0.15335173904895782
1782845388379981800,1.17598193359375,0.06708316504955292,-0.0015472965314984322,-0.13053297996520996
1782845388389986800,1.18598681640625,0.030053239315748215,-0.03068041428923607,-0.0878763273358345
1782845388399990800,1.19599072265625,-0.027171432971954346,-0.0493859238922596,-0.049018941819667816
1782845388409995800,1.205995849609375,-0.08653648942708969,-0.057003896683454514,-0.015572302043437958
1782845388419999700,1.215999755859375,-0.14771169424057007,-0.05624649301171303,0.004453870467841625
1782845388430004700,1.226004638671875,-0.20122233033180237,-0.047323837876319885,0.0030178942251950502
1782845388440009000,1.236009033203125,-0.2373473048210144,-0.027219370007514954,-0.014734204858541489
1782845388450014000,1.246013916015625,-0.25477904081344604,-0.0069489860907197,-0.025972478091716766
1782845388460018000,1.256017822265625,-0.25625547766685486,0.0010423612548038363,-0.020372383296489716
1782845388470023000,1.26602294921875,-0.24470455944538116,-0.0036938043776899576,0.0020216056145727634
1782845388480026600,1.276026611328125,-0.22604431211948395,-0.023619841784238815,0.026158899068832397
1782845388490031600,1.286031494140625,-0.20087531208992004,-0.04896834120154381,0.0460180900990963
1782845388500035800,1.296035888671875,-0.1772565394639969,-0.07782715559005737,0.05901032313704491
1782845388510040800,1.306040771484375,-0.16690322756767273,-0.10881596058607101,0.07898163050413132
1782845388520044800,1.316044921875,-0.1760847419500351,-0.14515160024166107,0.09640882909297943
1782845388530049800,1.3260498046875,-0.1975271850824356,-0.17566795647144318,0.1071229875087738
1782845388540053800,1.3360537109375,-0.22645391523838043,-0.18732674419879913,0.11009481549263
1782845388550058800,1.346058837890625,-0.2590637803077698,-0.18048615753650665,0.12106863409280777
1782845388560063000,1.35606298828125,-0.2872448265552521,-0.1698007583618164,0.15018603205680847
1782845388570068000,1.36606787109375,-0.3325079083442688,-0.15696404874324799,0.18842637538909912
1782845388580071700,1.37607177734375,-0.38815465569496155,-0.1380276381969452,0.21240919828414917
1782845388590076700,1.38607666015625,-0.43395838141441345,-0.10661592334508896,0.1981959044933319
1782845388600080600,1.39608056640625,-0.44781693816185,-0.08444244414567947,0.16593676805496216
1782845388610085600,1.406085693359375,-0.4740391969680786,-0.060810886323451996,0.13833710551261902
1782845388620089900,1.41608984375,-0.5312066078186035,-0.03816096857190132,0.10706599801778793
1782845388630094800,1.4260947265625,-0.5677118897438049,-0.02442624792456627,0.07117004692554474
1782845388640098800,1.436098876953125,-0.5847641229629517,-0.04237275570631027,0.05357108265161514
1782845388650103800,1.446103759765625,-0.5759416222572327,-0.06815481930971146,0.05001576244831085
1782845388660107800,1.456107666015625,-0.5340314507484436,-0.0733591690659523,0.040339432656764984
1782845388670112800,1.46611279296875,-0.4587699770927429,-0.048117995262145996,0.009943177923560143
1782845388680117000,1.476116943359375,-0.36702460050582886,-0.01679336093366146,-0.028813539072871208
1782845388690122000,1.4861220703125,-0.2800191342830658,-0.0016168050933629274,-0.0679263174533844
1782845388700125700,1.496125732421875,-0.20057198405265808,0.013230584561824799,-0.10646199434995651
1782845388710131000,1.506130859375,-0.13424275815486908,0.007032343186438084,-0.1332632452249527
1782845388720135000,1.516135009765625,-0.09354805946350098,-0.00022929816623218358,-0.1523493230342865
1782845388730140000,1.526139892578125,-0.07165607810020447,-0.005086371209472418,-0.17052406072616577
1782845388740144000,1.53614404296875,-0.06395341455936432,0.0065284729935228825,-0.18650969862937927
1782845388750149000,1.546149169921875,-0.07067949324846268,0.010230266489088535,-0.19773411750793457
1782845388760152800,1.55615283203125,-0.08127967268228531,0.01726340875029564,-0.1925249695777893
1782845388770157800,1.56615771484375,-0.09252806752920151,0.025347167626023293,-0.1607675701379776
1782845388780161800,1.576161865234375,-0.09381464123725891,0.021683191880583763,-0.11720038950443268
1782845388790166800,1.586166748046875,-0.08962681889533997,0.014004232361912727,-0.05301474779844284
1782845388800171000,1.5961708984375,-0.07359805703163147,0.010869958437979221,0.04776033014059067
1782845388810175000,1.606175048828125,-0.04518825188279152,0.009310411289334297,0.12797261774539948
1782845388820180000,1.616179931640625,-0.017725734040141106,0.0169715266674757,0.17719288170337677
1782845388830184000,1.626183837890625,0.009217200800776482,0.02965749427676201,0.204631969332695
1782845388840189000,1.63618896484375,0.030941138043999672,0.04358929023146629,0.22553299367427826
1782845388850193000,1.64619287109375,0.03857242688536644,0.052148155868053436,0.22810640931129456
1782845388860198100,1.6561982421875,0.04321325197815895,0.055208660662174225,0.217351496219635
1782845388870201900,1.666201904296875,0.05949608236551285,0.06245645508170128,0.19096648693084717
1782845388880206800,1.676206787109375,0.07759279757738113,0.06266551464796066,0.1661445051431656
1782845388890210800,1.6862109375,0.0906718447804451,0.05995041877031326,0.13597062230110168
1782845388900215800,1.6962158203125,0.09292621165513992,0.048652492463588715,0.10327951610088348
1782845388910220000,1.706219970703125,0.08449917286634445,0.03906511142849922,0.04740213602781296
1782845388920225000,1.71622509765625,0.07293279469013214,0.033910028636455536,-0.029280390590429306
1782845388930229000,1.72622900390625,0.0658104419708252,0.03178349509835243,-0.11510767787694931
1782845388940234000,1.73623388671875,0.06196429952979088,0.031647939234972,-0.17559152841567993
1782845388950238000,1.746238037109375,0.06597315520048141,0.025538116693496704,-0.19516204297542572
1782845388960243000,1.756242919921875,0.06930077821016312,0.015752598643302917,-0.1822502315044403
1782845388970247000,1.766246826171875,0.07786683738231659,0.003710848744958639,-0.1413334310054779
1782845388980252000,1.776251953125,0.08281392604112625,-0.004445614758878946,-0.09621228277683258
1782845388990255900,1.786255859375,0.0898079201579094,-0.012764797545969486,-0.05668538436293602
1782845389000260900,1.7962607421875,0.09833429008722305,-0.034160368144512177,-0.022897591814398766
1782845389010264800,1.806264892578125,0.10335514694452286,-0.04699999839067459,-0.00866273045539856
1782845389020269800,1.816269775390625,0.12054558843374252,-0.06096348538994789,-0.016504941508173943
1782845389030273800,1.826273681640625,0.13950036466121674,-0.08107780665159225,-0.03201146051287651
1782845389040278800,1.83627880859375,0.1669999063014984,-0.10612750053405762,-0.04031200334429741
1782845389050283000,1.846282958984375,0.19153080880641937,-0.12055890262126923,-0.04544577747583389
1782845389060288000,1.8562880859375,0.20864881575107574,-0.12902483344078064,-0.04481540992856026
1782845389070292000,1.8662919921875,0.2187698930501938,-0.12645886838436127,-0.05119554325938225
1782845389080297000,1.876296875,0.21888653934001923,-0.1154048889875412,-0.06902913749217987
1782845389090301000,1.886301025390625,0.21601884067058563,-0.09629777073860168,-0.09373847395181656
1782845389100306000,1.896305908203125,0.20894575119018555,-0.08968275040388107,-0.12599627673625946
1782845389110310000,1.906309814453125,0.19954107701778412,-0.0760449692606926,-0.16074520349502563
1782845389120315000,1.91631494140625,0.17290626466274261,-0.07719998061656952,-0.1824188083410263
1782845389130318800,1.92631884765625,0.13867053389549255,-0.09501732885837555,-0.19836582243442535
1782845389140323800,1.93632373046875,0.09505540877580643,-0.11976049095392227,-0.21210986375808716
1782845389150327800,1.946327880859375,0.03999908268451691,-0.13080647587776184,-0.23107396066188812
1782845389160332800,1.956332763671875,-0.01185373030602932,-0.1459502875804901,-0.22953492403030396
1782845389170337000,1.9663369140625,-0.06816067546606064,-0.1603659689426422,-0.21000036597251892
1782845389180342000,1.976342041015625,-0.11208818852901459,-0.18272188305854797,-0.1861451119184494
1782845389190346000,1.986345947265625,-0.14741528034210205,-0.19898474216461182,-0.15818484127521515
1782845389200351000,1.99635107421875,-0.1653846949338913,-0.19161923229694366,-0.1402873396873474
1782845389210355000,2.00635498046875,-0.17122794687747955,-0.17646078765392303,-0.12303564697504044
1782845389220360000,2.01635986328125,-0.16691069304943085,-0.16236920654773712,-0.1058497354388237
1782845389230364000,2.026364013671875,-0.15197567641735077,-0.14229296147823334,-0.08977143466472626
1782845389240369000,2.036368896484375,-0.1295958161354065,-0.12141457945108414,-0.0760369747877121
1782845389250372900,2.046372802734375,-0.09471984952688217,-0.1145649254322052,-0.05632798746228218
1782845389260377900,2.0563779296875,-0.0618513822555542,-0.11049455404281616,-0.04356452077627182
1782845389270381800,2.0663818359375,-0.022372417151927948,-0.0942830890417099,-0.04736032336950302
1782845389280386800,2.07638671875,0.017421867698431015,-0.08480383455753326,-0.06407352536916733
1782845389290391000,2.08639111328125,0.0588446743786335,-0.08107061684131622,-0.0785462036728859
1782845389300396000,2.09639599609375,0.10210426151752472,-0.08563687652349472,-0.07791876792907715
1782845389310400000,2.10639990234375,0.1312490999698639,-0.09478510171175003,-0.06675000488758087
1782845389320405000,2.116405029296875,0.15176209807395935,-0.09983791410923004,-0.0415775366127491
1782845389330408700,2.12640869140625,0.16893868148326874,-0.0945129245519638,-0.017191503196954727
1782845389340413700,2.13641357421875,0.1778818517923355,-0.0787414163351059,-0.00014887070574332029
1782845389350418000,2.14641796875,0.18019267916679382,-0.06553107500076294,0.008784702979028225
1782845389360423000,2.1564228515625,0.1741827130317688,-0.04273467883467674,0.014539794065058231
1782845389370427000,2.166427001953125,0.1612517386674881,-0.022887738421559334,0.01290381420403719
1782845389380432000,2.176431884765625,0.15397465229034424,-0.008903213776648045,-0.003940679598599672
1782845389390435800,2.186435791015625,0.14764298498630524,0.006310360040515661,-0.017471134662628174
1782845389400440800,2.19644091796875,0.14255528151988983,0.02106054313480854,-0.02508591115474701
1782845389410445000,2.206445068359375,0.13499510288238525,0.02166161872446537,-0.020195282995700836
1782845389420450000,2.216449951171875,0.12687724828720093,0.018992599099874496,-0.009222527034580708
1782845389430454000,2.2264541015625,0.11089242994785309,0.01835131086409092,0.01041455753147602
1782845389440459000,2.236458984375,0.10021235048770905,0.020241089165210724,0.02298068255186081
1782845389450462700,2.246462646484375,0.08472766727209091,0.019156383350491524,0.05037475749850273
1782845389460467700,2.2564677734375,0.0837891697883606,0.013412478379905224,0.07491125911474228
1782845389470472000,2.266471923828125,0.08550238609313965,0.019906863570213318,0.08067620545625687
1782845389480476000,2.276475830078125,0.09747089445590973,0.042460907250642776,0.06336299329996109
1782845389490481000,2.28648095703125,0.11085594445466995,0.06656944006681442,0.03429032862186432
1782845389500484900,2.29648486328125,0.12023479491472244,0.0832967534661293,0.015996543690562248
1782845389510489900,2.30648974609375,0.12521730363368988,0.09315524250268936,0.007193464320152998
1782845389520494000,2.316494140625,0.13038410246372223,0.09970502555370331,0.0007249124464578927
1782845389530499000,2.3264990234375,0.1274982988834381,0.10341879725456238,-0.013105415739119053
1782845389540503000,2.3365029296875,0.11801638454198837,0.09889142960309982,-0.024707477539777756
1782845389550508000,2.346508056640625,0.10627450793981552,0.0880180075764656,-0.03502562642097473
1782845389560511700,2.35651171875,0.09869036078453064,0.08012626320123672,-0.04026326537132263
1782845389570516700,2.366516845703125,0.09065639972686768,0.06274780631065369,-0.03702486306428909
1782845389580521000,2.37652099609375,0.08744276314973831,0.04969644919037819,-0.05968223884701729
1782845389590526000,2.38652587890625,0.07827456295490265,0.041613489389419556,-0.09529030323028564
1782845389600530000,2.396530029296875,0.08017846196889877,0.04556402191519737,-0.13850754499435425
1782845389610535000,2.406534912109375,0.0925738736987114,0.060031380504369736,-0.18134476244449615
1782845389620539000,2.416538818359375,0.10061182826757431,0.07194396108388901,-0.23201937973499298
1782845389630544000,2.4265439453125,0.1199897900223732,0.07449660450220108,-0.2565353810787201
1782845389640548000,2.436548095703125,0.1365266889333725,0.07644763588905334,-0.24313461780548096
1782845389650553000,2.446552978515625,0.1720212996006012,0.06712550669908524,-0.20206788182258606
1782845389660557000,2.45655712890625,0.20909835398197174,0.07693472504615784,-0.15280206501483917
1782845389670562000,2.46656201171875,0.25367993116378784,0.11311563849449158,-0.08982256054878235
1782845389680565800,2.476565673828125,0.31983524560928345,0.14816710352897644,-0.007448062766343355
1782845389690570800,2.48657080078125,0.3984017074108124,0.1529618501663208,0.08238302171230316
1782845389700575000,2.496574951171875,0.4340462386608124,0.14100772142410278,0.19870829582214355
1782845389710580000,2.506580078125,0.4440957009792328,0.10004696995019913,0.27833041548728943
1782845389720584200,2.516584228515625,0.46514371037483215,0.08086501806974411,0.3593437969684601
1782845389730589200,2.526589111328125,0.4712391495704651,0.08850296586751938,0.4590999484062195
1782845389740593000,2.536593017578125,0.4697195589542389,0.06911968439817429,0.5555503368377686
1782845389750598000,2.546597900390625,0.4607553482055664,0.056950900703668594,0.6416500210762024
1782845389760602000,2.55660205078125,0.44401419162750244,0.052018459886312485,0.7042614817619324
1782845389770607000,2.566607177734375,0.42163458466529846,0.031378429383039474,0.7477130889892578
1782845389780611000,2.576611083984375,0.38891711831092834,0.020440826192498207,0.7547497153282166
1782845389790616000,2.586615966796875,0.35599857568740845,0.04711824283003807,0.7658963799476624
1782845389800620000,2.5966201171875,0.3002847135066986,0.05142723768949509,0.7390128374099731
1782845389810625000,2.606625,0.22690212726593018,0.0594625286757946,0.6521479487419128
1782845389820629000,2.61662890625,0.17778784036636353,0.06996577233076096,0.466233491897583
1782845389830634200,2.62663427734375,0.16059847176074982,0.08762972056865692,0.2103676199913025
1782845389840638200,2.63663818359375,0.16624942421913147,0.0886281356215477,-0.04795953631401062
1782845389850643200,2.646643310546875,0.20250649750232697,0.0795142650604248,-0.2572816014289856
1782845389860647000,2.65664697265625,0.25911304354667664,0.0667012631893158,-0.388084352016449
1782845389870652000,2.66665185546875,0.33143413066864014,0.028078239411115646,-0.4497043192386627
1782845389880656100,2.67665625,0.3985404670238495,-0.060395434498786926,-0.41859886050224304
1782845389890661000,2.6866611328125,0.45388227701187134,-0.18262813985347748,-0.31133419275283813
1782845389900665000,2.6966650390625,0.48786553740501404,-0.28296804428100586,-0.17234833538532257
1782845389910670000,2.706670166015625,0.4927694797515869,-0.3437959849834442,-0.030571224167943
1782845389920674000,2.716674072265625,0.4776960015296936,-0.3314402401447296,0.09652387350797653
1782845389930679000,2.726678955078125,0.4506444036960602,-0.2754528820514679,0.21521270275115967
1782845389940683000,2.73668310546875,0.419723242521286,-0.17661365866661072,0.32516372203826904
1782845389950688000,2.74668798828125,0.36845818161964417,-0.0775134339928627,0.4152587056159973
1782845389960692200,2.756692138671875,0.2984793782234192,-0.009018528275191784,0.484279066324234
1782845389970697200,2.766697265625,0.21606571972370148,0.020538032054901123,0.525263786315918
1782845389980701000,2.776700927734375,0.14345969259738922,0.02569551020860672,0.523476243019104
1782845389990706000,2.786705810546875,0.07997739315032959,0.020979849621653557,0.4527275264263153
1782845390000710000,2.7967099609375,0.011116833426058292,-0.0018096179701387882,0.3407765030860901
1782845390010715000,2.80671484375,-0.07454294711351395,-0.026798058301210403,0.19678497314453125
1782845390020719000,2.816718994140625,-0.17690446972846985,-0.058888617902994156,0.05487869307398796
1782845390030724000,2.82672412109375,-0.2716621458530426,-0.09497711062431335,-0.08134039491415024
1782845390040728000,2.83672802734375,-0.3623283803462982,-0.1287638396024704,-0.19586670398712158
1782845390050733000,2.846733154296875,-0.4537786841392517,-0.15337570011615753,-0.27800071239471436
1782845390060737000,2.856737060546875,-0.5266571640968323,-0.1557062417268753,-0.3313582241535187
1782845390070742000,2.866741943359375,-0.5701841115951538,-0.15547986328601837,-0.3602801561355591
1782845390080746000,2.87674609375,-0.5918934345245361,-0.14260375499725342,-0.3687250316143036
1782845390090751200,2.886751220703125,-0.5921786427497864,-0.12102416157722473,-0.3625180125236511
1782845390100755000,2.8967548828125,-0.5939443111419678,-0.09825732558965683,-0.3337627947330475
1782845390110759000,2.906759033203125,-0.6065088510513306,-0.07775711268186569,-0.27747875452041626
1782845390120764000,2.916763916015625,-0.6168839931488037,-0.06191742792725563,-0.2073870152235031
1782845390130768100,2.92676806640625,-0.6153976917266846,-0.061837002635002136,-0.1344403624534607
1782845390140773000,2.936773193359375,-0.5894044041633606,-0.07338366657495499,-0.07765937596559525
1782845390150777000,2.946777099609375,-0.5585429072380066,-0.10797200351953506,-0.04392564669251442
1782845390160782000,2.956781982421875,-0.5302990078926086,-0.1343809813261032,-0.04590890184044838
1782845390170786000,2.9667861328125,-0.5139394998550415,-0.1481042504310608,-0.07057003676891327
1782845390180791000,2.976791015625,-0.5050978064537048,-0.153339222073555,-0.0860680416226387
1782845390190795000,2.986794921875,-0.48528093099594116,-0.15551821887493134,-0.08401314169168472
1782845390200800000,2.996800048828125,-0.459436297416687,-0.1443752944469452,-0.06673535704612732
1782845390210804000,3.006803955078125,-0.4263092279434204,-0.11996075510978699,-0.03484879434108734
1782845390220809000,3.01680908203125,-0.3890039324760437,-0.09510840475559235,0.004532699938863516
1782845390230813000,3.02681298828125,-0.3600516617298126,-0.07384786009788513,0.04596775770187378
1782845390240818000,3.03681787109375,-0.35346245765686035,-0.045696649700403214,0.09257334470748901
1782845390250822100,3.046822265625,-0.3556089699268341,-0.03039172850549221,0.13047918677330017
1782845390260827100,3.0568271484375,-0.3573029935359955,-0.015980031341314316,0.17051555216312408
1782845390270831000,3.0668310546875,-0.3661809265613556,0.004599012900143862,0.20295630395412445
1782845390280836000,3.076836181640625,-0.38606807589530945,0.017355553805828094,0.22361764311790466
1782845390290840000,3.086840087890625,-0.4058513641357422,0.02798289805650711,0.22659346461296082
1782845390300845000,3.096844970703125,-0.42699500918388367,0.028675319626927376,0.21207071840763092
1782845390310849000,3.10684912109375,-0.45525673031806946,0.017905231565237045,0.17649275064468384
1782845390320854000,3.11685400390625,-0.4840593636035919,0.00043356261448934674,0.1283704936504364
1782845390330858000,3.12685791015625,-0.5083990693092346,-0.007003847509622574,0.09535688161849976
1782845390340863000,3.136863037109375,-0.5381271243095398,-0.02484596148133278,0.08180325478315353
1782845390350867000,3.146866943359375,-0.5655800700187683,-0.03407807648181915,0.07121532410383224
1782845390360872000,3.156871826171875,-0.5914084315299988,-0.0196077898144722,0.07113543152809143
1782845390370876200,3.166876220703125,-0.620303213596344,-0.004038417246192694,0.07802529633045197
1782845390380881200,3.176881103515625,-0.6409038305282593,0.018999790772795677,0.08761533349752426
1782845390390885000,3.186885009765625,-0.6494035720825195,0.03774897754192352,0.07719731330871582
1782845390400890000,3.19689013671875,-0.637714147567749,0.057799115777015686,0.05248371511697769
1782845390410894000,3.20689404296875,-0.6157776713371277,0.07622019946575165,0.018213890492916107
1782845390420899000,3.216899169921875,-0.5809462070465088,0.09549962729215622,-0.025956764817237854
1782845390430903000,3.226903076171875,-0.531385064125061,0.10202277451753616,-0.06717371195554733
1782845390440908000,3.236907958984375,-0.4797026813030243,0.10869798064231873,-0.10283370316028595
1782845390450912000,3.246912109375,-0.4203815758228302,0.10766947269439697,-0.12930285930633545
1782845390460917000,3.2569169921875,-0.3668786585330963,0.10259827971458435,-0.14067961275577545
1782845390470921000,3.2669208984375,-0.3108406960964203,0.08372419327497482,-0.14422987401485443
1782845390480926000,3.276926025390625,-0.2620111107826233,0.07311122864484787,-0.15085236728191376
1782845390490930200,3.28693017578125,-0.2228328138589859,0.07348912954330444,-0.16020911931991577
1782845390500935200,3.29693505859375,-0.19516496360301971,0.07142943888902664,-0.16249117255210876
1782845390510939100,3.306939208984375,-0.1664169430732727,0.07520047575235367,-0.17175577580928802
1782845390520944000,3.316944091796875,-0.1421550065279007,0.07080812752246857,-0.17355234920978546
1782845390530948000,3.326947998046875,-0.127506822347641,0.06429829448461533,-0.15869377553462982
1782845390540953000,3.336953125,-0.11811225861310959,0.05789579078555107,-0.13004322350025177
1782845390550957000,3.34695703125,-0.10955338925123215,0.04851800203323364,-0.08831814676523209
1782845390560962000,3.356962158203125,-0.10674082487821579,0.02660125121474266,-0.036860812455415726
1782845390570966000,3.366966064453125,-0.11052598059177399,0.004575044382363558,0.013068131171166897
1782845390580971000,3.376970947265625,-0.11712928861379623,-0.005366802215576172,0.04986795783042908
1782845390590975000,3.38697509765625,-0.1187594085931778,-0.004593686666339636,0.06679847091436386
1782845390600980000,3.39697998046875,-0.1220976784825325,0.005626726895570755,0.07413734495639801
1782845390610984200,3.406984130859375,-0.11909683048725128,0.02034149132668972,0.07532644271850586
1782845390620989200,3.4169892578125,-0.11605816334486008,0.027424700558185577,0.06728902459144592
1782845390630993200,3.4269931640625,-0.11601421982049942,0.03007853962481022,0.06138106808066368
1782845390640998100,3.436998046875,-0.1205248162150383,0.023389479145407677,0.06362105160951614
1782845390651002000,3.447002197265625,-0.11841905117034912,0.017132913693785667,0.0775267481803894
1782845390661007000,3.457007080078125,-0.11103490740060806,0.008582835085690022,0.10136603564023972
1782845390671011000,3.467010986328125,-0.09769939631223679,-0.005007541738450527,0.13171355426311493
1782845390681016000,3.47701611328125,-0.08387812227010727,-0.016690563410520554,0.1607513278722763
1782845390691020000,3.48702001953125,-0.07731449604034424,-0.020716730505228043,0.1734418272972107
1782845390701025000,3.49702490234375,-0.07055938988924026,-0.022639531642198563,0.1557653546333313
1782845390711029000,3.507029052734375,-0.0645345151424408,-0.012722985818982124,0.11907472461462021
1782845390721034200,3.5170341796875,-0.04595816880464554,0.005662679206579924,0.0715053454041481
1782845390731038200,3.5270380859375,-0.0222025066614151,0.024841433390975,0.03766908124089241
1782845390741042200,3.537042236328125,0.010820955969393253,0.032101478427648544,0.008586297743022442
1782845390751047200,3.547047119140625,0.04412618279457092,0.023576699197292328,-0.011037204414606094
1782845390761051100,3.557051025390625,0.0845274031162262,0.01840963400900364,-0.03544187918305397
1782845390771056000,3.56705615234375,0.13130609691143036,-0.0004444815858732909,-0.05266321077942848
1782845390781060000,3.57706005859375,0.18030159175395966,-0.03210946545004845,-0.05267439782619476
1782845390791065300,3.5870654296875,0.2362213283777237,-0.058276090770959854,-0.047324638813734055
1782845390801069300,3.5970693359375,0.2858293652534485,-0.06445328891277313,-0.025477662682533264
1782845390811074300,3.60707421875,0.331710547208786,-0.05657299980521202,0.011094196699559689
1782845390821078000,3.617078125,0.36713168025016785,-0.06331771612167358,0.07684630900621414
1782845390831083000,3.6270830078125,0.392607718706131,-0.07766443490982056,0.15321698784828186
1782845390841087000,3.6370869140625,0.410574734210968,-0.08542808145284653,0.2024678885936737
1782845390851092200,3.64709228515625,0.4115625023841858,-0.08055076748132706,0.20709459483623505
1782845390861096200,3.65709619140625,0.38944709300994873,-0.05554981157183647,0.14709649980068207
1782845390871101200,3.66710107421875,0.33632609248161316,-0.01275920495390892,0.023900538682937622
1782845390881105200,3.677105224609375,0.24978506565093994,0.028417259454727173,-0.14502616226673126
1782845390891110100,3.687110107421875,0.14112170040607452,0.050581686198711395,-0.3384137451648712
1782845390901114000,3.697114013671875,0.013381319120526314,0.036920998245477676,-0.5329827070236206
1782845390911119000,3.707119140625,-0.09935401380062103,-0.0008942894637584686,-0.7096937894821167
1782845390921123300,3.717123291015625,-0.18684391677379608,-0.05528589338064194,-0.8302868008613586
1782845390931128300,3.72712841796875,-0.23274695873260498,-0.1374819576740265,-0.8759027719497681
1782845390941132000,3.737132080078125,-0.24270212650299072,-0.22648321092128754,-0.8277525305747986
1782845390951137000,3.747136962890625,-0.22003675997257233,-0.2793027460575104,-0.7053861618041992
1782845390961141000,3.75714111328125,-0.17600512504577637,-0.2795677185058594,-0.5356770157814026
1782845390971146000,3.76714599609375,-0.1229056790471077,-0.236892968416214,-0.3749874532222748
1782845390981150200,3.777150146484375,-0.06763017922639847,-0.16979463398456573,-0.2054423689842224
1782845390991155200,3.7871552734375,0.008831574581563473,-0.10272451490163803,-0.0153190353885293
1782845391001159200,3.7971591796875,0.10371600836515427,-0.0708475410938263,0.19383604824543
1782845391011164200,3.8071640625,0.19137555360794067,-0.03845205157995224,0.3685556650161743
1782845391021168000,3.817168212890625,0.27163365483283997,-0.010377805680036545,0.48651719093322754
1782845391031173000,3.827173095703125,0.33078163862228394,0.006792392116039991,0.5426340103149414
1782845391041177300,3.83717724609375,0.375190407037735,-0.0060238041914999485,0.5756643414497375
1782845391051182300,3.847182373046875,0.4048899710178375,-0.03110145963728428,0.6018344759941101
1782845391061186000,3.85718603515625,0.3990187644958496,-0.047020237892866135,0.606480598449707
1782845391071191000,3.86719091796875,0.3723008632659912,-0.04581436142325401,0.5723040103912354
1782845391081195000,3.877195068359375,0.3460756540298462,-0.030762705951929092,0.5054466724395752
1782845391091200000,3.887199951171875,0.318669855594635,-0.007112504448741674,0.42475420236587524
1782845391101204200,3.897204345703125,0.30244696140289307,0.008843558840453625,0.33984944224357605
1782845391111209200,3.907209228515625,0.29746630787849426,0.00914502888917923,0.272497296333313
1782845391121213200,3.917213134765625,0.2806846499443054,0.011961854062974453,0.22275690734386444
1782845391131218200,3.92721826171875,0.24583134055137634,0.0041705104522407055,0.1862095594406128
1782845391141222100,3.93722216796875,0.2083849012851715,-0.007246993947774172,0.1456754505634308
1782845391151227100,3.94722705078125,0.1745299994945526,-0.009843043051660061,0.10836562514305115
1782845391161231400,3.9572314453125,0.1400175541639328,-0.012341887690126896,0.06985684484243393
1782845391171236400,3.967236328125,0.0865149199962616,-0.021807294338941574,0.04075834900140762
1782845391181240000,3.977239990234375,0.030378146097064018,-0.03623709827661514,0.017763284966349602
1782845391191245000,3.9872451171875,-0.022831812500953674,-0.04719387739896774,0.0025957829784601927
1782845391201249000,3.9972490234375,-0.07852143794298172,-0.05817542225122452,-0.014475611969828606
1782845391211254000,4.00725390625,-0.11067032068967819,-0.06823258101940155,-0.04297809302806854
1782845391221258200,4.01725830078125,-0.12393392622470856,-0.06820062547922134,-0.09730950742959976
1782845391231263200,4.02726318359375,-0.12789884209632874,-0.05584755167365074,-0.1684792935848236
1782845391241267200,4.03726708984375,-0.12618589401245117,-0.03466556966304779,-0.23799552023410797
1782845391251272200,4.047272216796875,-0.11166740953922272,-0.02004721201956272,-0.3000037670135498
1782845391261276200,4.057276123046875,-0.07214263826608658,-0.009464342147111893,-0.3378254473209381
1782845391271281200,4.06728125,-0.01846795715391636,-0.012737100012600422,-0.34324389696121216
1782845391281285400,4.077285400390625,0.038736741989851,-0.022817697376012802,-0.3081650137901306
1782845391291290400,4.087290283203125,0.09447031468153,-0.023243803530931473,-0.2503211498260498
1782845391301294000,4.097294189453125,0.12868207693099976,-0.011662248522043228,-0.17010702192783356
1782845391311299000,4.107299072265625,0.14436250925064087,0.00956660695374012,-0.07640130072832108
1782845391321303000,4.117302978515625,0.13223659992218018,0.03304663300514221,0.0226198248565197
1782845391331307300,4.127307373046875,0.10942742228507996,0.04815501347184181,0.10390935093164444
1782845391341312300,4.137312255859375,0.07554109394550323,0.05166558921337128,0.17403438687324524
1782845391351316200,4.147316162109375,0.04084117338061333,0.06355074793100357,0.21928708255290985
1782845391361321200,4.1573212890625,0.0072962623089551926,0.0764407142996788,0.20880328118801117
1782845391371325200,4.1673251953125,-0.013851633295416832,0.08409436792135239,0.15330247581005096
1782845391381330200,4.177330078125,-0.02815334126353264,0.08547655493021011,0.053578805178403854
1782845391391334400,4.18733447265625,-0.018388329073786736,0.09176986664533615,-0.05651627108454704
1782845391401339400,4.19733935546875,-0.00893756840378046,0.08725500851869583,-0.17677849531173706
1782845391411343000,4.207343017578125,-0.004573446698486805,0.0831657275557518,-0.28323251008987427
1782845391421348000,4.21734814453125,0.01203748770058155,0.0702560544013977,-0.36706483364105225
1782845391431352000,4.22735205078125,0.03828746825456619,0.04772624373435974,-0.41174522042274475
1782845391441357000,4.237357177734375,0.09229237586259842,0.019536416977643967,-0.412739634513855
1782845391451361300,4.247361328125,0.17070649564266205,-0.005528189707547426,-0.3959074020385742
1782845391461366300,4.2573662109375,0.24185097217559814,-0.012169580906629562,-0.3524587154388428
1782845391471370200,4.267370361328125,0.30147942900657654,-0.010722951963543892,-0.30288025736808777
1782845391481375200,4.277375244140625,0.33746272325515747,0.0015789881581440568,-0.2528229355812073
1782845391491379200,4.287379150390625,0.3545146882534027,0.02124057337641716,-0.2193901389837265
1782845391501384200,4.29738427734375,0.3552289307117462,0.03236619383096695,-0.17208601534366608
1782845391511388200,4.30738818359375,0.33756259083747864,0.04105902090668678,-0.12574248015880585
1782845391521393200,4.31739306640625,0.30820176005363464,0.05455698445439339,-0.07675337046384811
1782845391531397000,4.327397216796875,0.26288729906082153,0.06528978794813156,-0.035469312220811844
1782845391541402000,4.337402099609375,0.20920568704605103,0.06434489786624908,0.0009475527331233025
1782845391551406000,4.347406005859375,0.1496526151895523,0.05920127034187317,0.026145316660404205
1782845391561411000,4.3574111328125,0.08768138289451599,0.046008236706256866,0.04294640198349953
1782845391571415300,4.367415283203125,0.035963062196969986,0.029767217114567757,0.03521338105201721
1782845391581420300,4.377420166015625,0.0006964165950194001,0.02677036076784134,0.012593023478984833
1782845391591424300,4.38742431640625,-0.022526880726218224,0.020436299964785576,-0.01985466480255127
1782845391601429200,4.39742919921875,-0.033180590718984604,0.01944613642990589,-0.05084613710641861
1782845391611433200,4.40743310546875,-0.042222555726766586,0.025589516386389732,-0.08175265043973923
1782845391621438200,4.417438232421875,-0.036309536546468735,0.02803829312324524,-0.11339233815670013
1782845391631442200,4.427442138671875,-0.02587420679628849,0.03442934527993202,-0.13461506366729736
1782845391641447200,4.437447265625,0.006459763273596764,0.0354304276406765,-0.1446208357810974
1782845391651451100,4.447451171875,0.042461708188056946,0.04042758420109749,-0.1405366063117981
1782845391661456100,4.4574560546875,0.07921972125768661,0.0421714223921299,-0.12277864664793015
1782845391671460000,4.467460205078125,0.11868457496166229,0.04767617583274841,-0.10001900792121887
1782845391681465000,4.477465087890625,0.1609068661928177,0.04969778284430504,-0.07532192021608353
1782845391691469300,4.48746923828125,0.20510441064834595,0.05023893713951111,-0.05872989073395729
1782845391701474300,4.497474365234375,0.24170424044132233,0.05145307257771492,-0.04746392369270325
1782845391711478300,4.507478271484375,0.27215561270713806,0.052980393171310425,-0.03828800097107887
1782845391721483300,4.517483154296875,0.28350600600242615,0.052808620035648346,-0.016957411542534828
1782845391731487200,4.5274873046875,0.2805832028388977,0.051784366369247437,0.014676680788397789
1782845391741492200,4.5374921875,0.26278156042099,0.059395682066679,0.044449757784605026
1782845391751496200,4.54749609375,0.23175546526908875,0.05735596641898155,0.07027655839920044
1782845391761501200,4.557501220703125,0.1918938010931015,0.06783656775951385,0.08683955669403076
1782845391771505200,4.567505126953125,0.14307700097560883,0.07955314964056015,0.09720990806818008
1782845391781510100,4.57751025390625,0.09175202250480652,0.07703619450330734,0.12526710331439972
1782845391791514000,4.58751416015625,0.044790640473365784,0.07357914745807648,0.15289367735385895
1782845391801519000,4.59751904296875,0.00541314110159874,0.0817478597164154,0.17285406589508057
1782845391811523000,4.607523193359375,-0.018134262412786484,0.10488593578338623,0.1830419898033142
1782845391821528300,4.6175283203125,-0.01569693721830845,0.1306152641773224,0.1744793951511383
1782845391831532300,4.6275322265625,0.0026610305067151785,0.14730849862098694,0.15900562703609467
1782845391841537300,4.637537353515625,0.023850204423069954,0.15188486874103546,0.15427425503730774
1782845391851541200,4.647541259765625,0.0521169975399971,0.15646710991859436,0.15032798051834106
1782845391861546200,4.657546142578125,0.08459557592868805,0.15311551094055176,0.1451694369316101
1782845391871550200,4.66755029296875,0.13259612023830414,0.1404324769973755,0.1306016892194748
1782845391881555200,4.67755517578125,0.18119695782661438,0.11529649794101715,0.12298984080553055
1782845391891559200,4.68755908203125,0.23525460064411163,0.09070513397455215,0.12939554452896118
1782845391901563100,4.697563232421875,0.29537224769592285,0.06671138852834702,0.14183303713798523
1782845391911568100,4.707568115234375,0.3543437123298645,0.05624782666563988,0.14335529506206512
1782845391921572000,4.717572021484375,0.40473708510398865,0.05880232900381088,0.14388446509838104
1782845391931577000,4.7275771484375,0.4334254562854767,0.07857417315244675,0.1517447829246521
1782845391941581300,4.737581298828125,0.4356129765510559,0.09934203326702118,0.17661072313785553
1782845391951586300,4.74758642578125,0.40944477915763855,0.12379571050405502,0.18504761159420013
1782845391961590300,4.75759033203125,0.36706188321113586,0.1582988202571869,0.162380650639534
1782845391971595300,4.76759521484375,0.309626042842865,0.1985676884651184,0.1049751490354538
1782845391981599000,4.777598876953125,0.2554794251918793,0.23689083755016327,0.027530161663889885
1782845391991604000,4.78760400390625,0.2060471773147583,0.2540586292743683,-0.028964007273316383
1782845392001608200,4.797608154296875,0.17423464357852936,0.23302899301052094,-0.03650341555476189
1782845392011613200,4.80761328125,0.1676129698753357,0.1746269315481186,-0.004969192203134298
1782845392021617200,4.8176171875,0.18430086970329285,0.09819634258747101,0.03478647768497467
1782845392031622100,4.8276220703125,0.19541104137897491,0.02238653227686882,0.06857932358980179
1782845392041626000,4.837626220703125,0.19812241196632385,-0.04614991694688797,0.09375711530447006
1782845392051631000,4.847631103515625,0.19339609146118164,-0.08586297929286957,0.09565941244363785
1782845392061635300,4.85763525390625,0.1744314581155777,-0.09637021273374557,0.07083103060722351
1782845392071640300,4.867640380859375,0.14374518394470215,-0.08643129467964172,0.034997399896383286
1782845392081644000,4.87764404296875,0.09651029109954834,-0.0669500082731247,0.004550276789814234
1782845392091649300,4.887649169921875,0.06509697437286377,-0.044423658400774,-0.02805027738213539
1782845392101653000,4.897653076171875,0.051184624433517456,-0.02275271713733673,-0.04788869619369507
1782845392111658000,4.907657958984375,0.04400847107172012,-0.016035158187150955,-0.0719575434923172
1782845392121662200,4.917662109375,0.02942819520831108,-0.01732679270207882,-0.10000036656856537
1782845392131667200,4.927667236328125,0.022130336612462997,-0.029218871146440506,-0.12472515553236008
1782845392141671200,4.937671142578125,0.012921657413244247,-0.053037919104099274,-0.1320752054452896
1782845392151676200,4.94767626953125,0.004545483272522688,-0.08261125534772873,-0.11955888569355011
1782845392161680100,4.95768017578125,-0.001044491771608591,-0.11697348952293396,-0.08976370841264725
1782845392171685000,4.96768505859375,-0.01733504794538021,-0.13490454852581024,-0.05850352346897125
1782845392181689300,4.977689453125,-0.04036020487546921,-0.12774011492729187,-0.030782945454120636
1782845392191694300,4.9876943359375,-0.06607036292552948,-0.1133478656411171,-0.0024887239560484886
1782845392201698000,4.997697998046875,-0.0904044657945633,-0.08835756033658981,0.013807425275444984
1782845392211703000,5.007703125,-0.1067139282822609,-0.051482632756233215,0.02978905476629734
1782845392221707000,5.01770703125,-0.11652740836143494,-0.019518839195370674,0.07159136235713959
1782845392231712000,5.0277119140625,-0.11938285082578659,-0.0010271812789142132,0.12227024883031845
1782845392241716200,5.03771630859375,-0.1141878217458725,0.011277155950665474,0.1712830662727356
1782845392251721200,5.04772119140625,-0.09864455461502075,0.01588176190853119,0.20668765902519226
1782845392261725200,5.05772509765625,-0.07099960744380951,0.015912121161818504,0.23677419126033783
1782845392271730200,5.067730224609375,-0.043465983122587204,0.013576528988778591,0.25892823934555054
1782845392281734100,5.077734130859375,-0.0202805045992136,0.005976133514195681,0.27310290932655334
1782845392291739100,5.0877392578125,-0.0025861957110464573,0.004338023252785206,0.26800376176834106
1782845392301743400,5.097743408203125,0.009045160375535488,0.011494736187160015,0.2582264840602875
1782845392311748400,5.107748291015625,0.011581555008888245,0.020678646862506866,0.2441045492887497
1782845392321752000,5.117751953125,0.009433715604245663,0.036130040884017944,0.21641725301742554
1782845392331757000,5.127757080078125,0.002581668319180608,0.043052129447460175,0.1724463403224945
1782845392341761000,5.137760986328125,-0.010262491181492805,0.04122120514512062,0.09675690531730652
1782845392351766000,5.14776611328125,-0.030099045485258102,0.02389308251440525,0.01980646140873432
1782845392361770200,5.157770263671875,-0.043474506586790085,-0.011468104086816311,-0.03560832887887955
1782845392371775200,5.167775146484375,-0.04494483768939972,-0.02088610641658306,-0.08422593027353287
1782845392381779200,5.177779296875,-0.039380427449941635,-0.033672742545604706,-0.13672669231891632
1782845392391784200,5.1877841796875,-0.03389112278819084,-0.033602166920900345,-0.16959862411022186
1782845392401788200,5.1977880859375,-0.031384289264678955,-0.03014618344604969,-0.20426179468631744
1782845392411793200,5.207793212890625,-0.028419923037290573,-0.022067219018936157,-0.22260192036628723
1782845392421797400,5.21779736328125,-0.02731923945248127,-0.003966245800256729,-0.22717802226543427
1782845392431801000,5.227801025390625,-0.027292074635624886,0.012348012998700142,-0.21152715384960175
1782845392441806000,5.23780615234375,-0.02213353104889393,0.022010227665305138,-0.1803402155637741
1782845392451810000,5.24781005859375,-0.011205516755580902,0.026694461703300476,-0.11560942232608795
1782845392461815000,5.25781494140625,-0.018389126285910606,0.029355492442846298,-0.03774604573845863
1782845392471819300,5.2678193359375,-0.038788676261901855,0.02563612163066864,0.039745282381772995
1782845392481824300,5.27782421875,-0.06380560994148254,0.020379839465022087,0.10566597431898117
1782845392491828200,5.287828125,-0.08331965655088425,0.0043713124468922615,0.16230875253677368
1782845392501833200,5.297833251953125,-0.10055297613143921,-0.010870224796235561,0.18932785093784332
1782845392511837200,5.307837158203125,-0.11997301131486893,-0.02556421607732773,0.17858412861824036
1782845392521842200,5.31784228515625,-0.14279603958129883,-0.038365766406059265,0.14237526059150696
1782845392531846400,5.327846435546875,-0.16109886765480042,-0.04012318328022957,0.08453139662742615
1782845392541851400,5.337851318359375,-0.1774461567401886,-0.03879932686686516,0.025226792320609093
1782845392551855000,5.347855224609375,-0.19645020365715027,-0.03110412321984768,-0.018160095438361168
1782845392561860000,5.357860107421875,-0.21313171088695526,-0.023965520784258842,-0.06065269559621811
1782845392571864000,5.367864013671875,-0.2259574979543686,-0.004953479394316673,-0.09425725787878036
1782845392581869000,5.377869140625,-0.2386661022901535,0.012735502794384956,-0.12112829089164734
1782845392591873300,5.387873291015625,-0.25526559352874756,0.028014857321977615,-0.1335522085428238
1782845392601878300,5.397878173828125,-0.26201003789901733,0.03954873979091644,-0.140373095870018
1782845392611882200,5.40788232421875,-0.2637549340724945,0.044297955930233,-0.13816319406032562
1782845392621887200,5.41788720703125,-0.2632012665271759,0.04207981005311012,-0.12984907627105713
1782845392631891200,5.42789111328125,-0.2594235837459564,0.037224601954221725,-0.11938205361366272
1782845392641896200,5.437896240234375,-0.252549946308136,0.0423399992287159,-0.11176355183124542
1782845392651900400,5.447900390625,-0.24148505926132202,0.05053401365876198,-0.11237873882055283
1782845392661905400,5.457905517578125,-0.22763103246688843,0.05523955449461937,-0.1154341846704483
1782845392671909000,5.4679091796875,-0.20684611797332764,0.05443447828292847,-0.11747603118419647
1782845392681914000,5.4779140625,-0.1846177875995636,0.034749992191791534,-0.11194703727960587
1782845392691918000,5.48791796875,-0.1548343151807785,0.012883041985332966,-0.09990609437227249
1782845392701923000,5.497923095703125,-0.1321612298488617,-0.015019163489341736,-0.08072759956121445
1782845392711927300,5.50792724609375,-0.11481313407421112,-0.04071866720914841,-0.052446696907281876
1782845392721932500,5.5179326171875,-0.10413039475679398,-0.0608857199549675,-0.01932096667587757
1782845392731936800,5.527936767578125,-0.10602337121963501,-0.07270216941833496,0.008071774616837502
1782845392741941800,5.537941650390625,-0.12381408363580704,-0.0786101222038269,0.033014941960573196
1782845392751945500,5.547945556640625,-0.14644482731819153,-0.06948107481002808,0.0503113754093647
1782845392761950500,5.557950439453125,-0.16446217894554138,-0.059720855206251144,0.05500359833240509
1782845392771954400,5.567954345703125,-0.1761944741010666,-0.04337223991751671,0.05913336202502251
1782845392781959400,5.57795947265625,-0.17898333072662354,-0.028113126754760742,0.06338589638471603
1782845392791963600,5.587963623046875,-0.1774331033229828,-0.020494356751441956,0.06641683727502823
1782845392801968600,5.59796875,-0.16897304356098175,-0.018425878137350082,0.07257326692342758
1782845392811972600,5.60797265625,-0.15540637075901031,-0.02526833862066269,0.07414080947637558
1782845392821977600,5.6179775390625,-0.14109188318252563,-0.046306513249874115,0.06445249170064926
1782845392831981600,5.627981689453125,-0.12095784395933151,-0.06111901253461838,0.03930852189660072
1782845392841986600,5.637986572265625,-0.0987665206193924,-0.08191856741905212,0.00814980547875166
1782845392851990800,5.64799072265625,-0.0765075609087944,-0.10650859773159027,-0.027341609820723534
1782845392861995800,5.657995849609375,-0.05673997849225998,-0.12307053059339523,-0.059482235461473465
1782845392871999500,5.66799951171875,-0.04861467331647873,-0.13916374742984772,-0.07982932031154633
1782845392882004500,5.67800439453125,-0.04213493689894676,-0.1529751718044281,-0.08877673745155334
1782845392892008400,5.688008544921875,-0.03924700617790222,-0.1662619411945343,-0.0782998651266098
1782845392902013400,5.698013427734375,-0.03910639137029648,-0.17920224368572235,-0.06456167995929718
1782845392912017700,5.708017578125,-0.0305163636803627,-0.18366757035255432,-0.06334462016820908
1782845392922021600,5.718021728515625,-0.022373482584953308,-0.17836254835128784,-0.06409456580877304
1782845392932026600,5.728026611328125,-0.010490990243852139,-0.17062845826148987,-0.05679057911038399
1782845392942031600,5.738031494140625,0.0035292210523039103,-0.16243338584899902,-0.024322383105754852
1782845392952035600,5.74803564453125,0.026928020641207695,-0.14538942277431488,0.02576235495507717
1782845392962039800,5.758039794921875,0.0566190704703331,-0.13865667581558228,0.1036989614367485
1782845392972044800,5.768044921875,0.06978680193424225,-0.13153138756752014,0.1930464208126068
1782845392982048500,5.778048583984375,0.057852379977703094,-0.12828339636325836,0.2749447524547577
1782845392992053500,5.788053466796875,0.029224464669823647,-0.11406398564577103,0.3113267123699188
1782845393002057500,5.798057373046875,0.004070907831192017,-0.08489038795232773,0.3091304302215576
1782845393012062500,5.8080625,-0.03723924607038498,-0.03605067729949951,0.23570173978805542
1782845393022066700,5.818066650390625,-0.070943683385849,0.028600219637155533,0.0824115201830864
1782845393032071700,5.82807177734375,-0.10589127987623215,0.08101335912942886,-0.10439591109752655
1782845393042075600,5.83807568359375,-0.16377481818199158,0.10906869918107986,-0.2828700542449951
1782845393052080600,5.84808056640625,-0.22560888528823853,0.09031125158071518,-0.4316515326499939
1782845393062084600,5.858084716796875,-0.2694533169269562,0.04036340117454529,-0.5386525392532349
1782845393072089600,5.868089599609375,-0.27497485280036926,-0.05070259049534798,-0.5320175290107727
1782845393082093600,5.878093505859375,-0.2673454284667969,-0.11234091967344284,-0.4250916540622711
1782845393092098800,5.888098876953125,-0.22418543696403503,-0.11660837382078171,-0.2707521319389343
1782845393102102500,5.8981025390625,-0.15159457921981812,-0.10777253657579422,-0.11199124902486801
1782845393112107500,5.908107421875,-0.07346729189157486,-0.09384819865226746,0.029375199228525162
1782845393122111500,5.918111572265625,0.010239854454994202,-0.06144232302904129,0.14395184814929962
1782845393132116500,5.928116455078125,0.09867251664400101,-0.026667030528187752,0.24528566002845764
1782845393142120700,5.93812060546875,0.18443934619426727,-0.002261290093883872,0.33502858877182007
1782845393152125700,5.948125732421875,0.24733363091945648,0.01679016463458538,0.40941280126571655
1782845393162129700,5.958129638671875,0.28137069940567017,0.022344453260302544,0.4702008068561554
1782845393172134700,5.968134765625,0.28687891364097595,0.01733504794538021,0.4739830195903778
1782845393182138600,5.978138671875,0.26402100920677185,0.02562733180820942,0.42496007680892944
1782845393192143600,5.9881435546875,0.2229827493429184,0.05144374817609787,0.33103519678115845
1782845393202147600,5.998147705078125,0.1743110865354538,0.09419334679841995,0.2109367400407791
1782845393212152600,6.008152587890625,0.13283874094486237,0.12603916227817535,0.08653489500284195
1782845393222156500,6.018156494140625,0.09860913455486298,0.15315519273281097,-0.025307221338152885
1782845393232161500,6.02816162109375,0.06919504702091217,0.15273414552211761,-0.09925201535224915
1782845393242165500,6.03816552734375,0.05112443491816521,0.14323225617408752,-0.14728373289108276
1782845393252170500,6.04817041015625,0.0492682121694088,0.12835584580898285,-0.16041576862335205
1782845393262174700,6.0581748046875,0.047758202999830246,0.10393625497817993,-0.15104863047599792
1782845393272179700,6.0681796875,0.044618867337703705,0.08452260494232178,-0.1385861039161682
1782845393282183700,6.07818359375,0.03802301734685898,0.06205485016107559,-0.10561271011829376
1782845393292188700,6.088188720703125,0.02857758291065693,0.05348959192633629,-0.07634057849645615
1782845393302192600,6.098192626953125,0.02431466057896614,0.04583912715315819,-0.047747548669576645
1782845393312197600,6.10819775390625,0.026156237348914146,0.040761545300483704,-0.02599404938519001
1782845393322201600,6.11820166015625,0.018193384632468224,0.037095170468091965,0.0011153318919241428
1782845393332206600,6.12820654296875,0.008361793123185635,0.03307406231760979,0.018603244796395302
1782845393342210600,6.13821044921875,-0.0015712650492787361,0.02936827577650547,0.034090325236320496
1782845393352215600,6.148215576171875,-0.010625746101140976,0.029505161568522453,0.03967444226145744
1782845393362219500,6.158219482421875,-0.023013707250356674,0.03224661946296692,0.05180247873067856
1782845393372224500,6.168224609375,-0.03424718603491783,0.03774125501513481,0.056299757212400436
1782845393382228700,6.178228759765625,-0.04110642522573471,0.05156918615102768,0.059786099940538406
1782845393392233700,6.188233642578125,-0.04315412789583206,0.06588207930326462,0.04969431832432747
1782845393402237700,6.19823779296875,-0.05130899325013161,0.07667294144630432,0.03772394359111786
1782845393412241700,6.20824169921875,-0.060260411351919174,0.07496212422847748,0.024218253791332245
1782845393422246700,6.21824658203125,-0.06281518191099167,0.06168041005730629,0.015630625188350677
1782845393432250600,6.228250732421875,-0.06366340070962906,0.04397624731063843,0.0065316688269376755
1782845393442255600,6.238255615234375,-0.061828479170799255,0.03200959786772728,-0.01130698248744011
1782845393452259600,6.248259521484375,-0.05228184536099434,0.025165541097521782,-0.031241275370121002
1782845393462264600,6.2582646484375,-0.039799876511096954,0.02520655281841755,-0.05764145776629448
1782845393472268500,6.2682685546875,-0.025853434577584267,0.021615546196699142,-0.08443605154752731
1782845393482273500,6.2782734375,-0.0219724103808403,0.01594993844628334,-0.10002513229846954
1782845393492277500,6.288277587890625,-0.026629479601979256,0.01191152073442936,-0.10453946143388748
1782845393502282500,6.298282470703125,-0.03063886985182762,0.003216299694031477,-0.10624974220991135
1782845393512286700,6.30828662109375,-0.02881513722240925,-0.015841014683246613,-0.10117188841104507
1782845393522291700,6.318291748046875,-0.02352210320532322,-0.032946497201919556,-0.0927983820438385
1782845393532295700,6.328295654296875,-0.016102537512779236,-0.03641127049922943,-0.08301951736211777
1782845393542300700,6.33830078125,-0.011406319215893745,-0.03494839742779732,-0.06179545819759369
1782845393552304400,6.348304443359375,-0.011969044804573059,-0.03509673476219177,-0.028668396174907684
1782845393562309400,6.358309326171875,-0.015202920883893967,-0.02804042212665081,-0.0008157262345775962
1782845393572313600,6.368313720703125,-0.018913770094513893,-0.017947308719158173,0.009023589082062244
1782845393582318600,6.378318603515625,-0.023933028802275658,-0.011742143891751766,0.004452272783964872
1782845393592322600,6.388322509765625,-0.034436002373695374,-0.01149686612188816,-0.011432950384914875
1782845393602327600,6.39832763671875,-0.04520769044756889,-0.01787806674838066,-0.027934961020946503
1782845393612331500,6.40833154296875,-0.059008460491895676,-0.028015656396746635,-0.051166780292987823
1782845393622336500,6.41833642578125,-0.0626268982887268,-0.03244049847126007,-0.06966403126716614
1782845393632340700,6.4283408203125,-0.0690765380859375,-0.027582358568906784,-0.09791910648345947
1782845393642345700,6.438345703125,-0.06935936957597733,-0.027570907026529312,-0.1317649483680725
1782845393652349700,6.448349609375,-0.07288938760757446,-0.02924150787293911,-0.15338635444641113
1782845393662354700,6.458354736328125,-0.07451657950878143,-0.034934014081954956,-0.1722061187028885
1782845393672358400,6.4683583984375,-0.08220858871936798,-0.043104059994220734,-0.181563138961792
1782845393682363400,6.47836328125,-0.08554259687662125,-0.04313229024410248,-0.1929446905851364
1782845393692367600,6.48836767578125,-0.08959965407848358,-0.049302566796541214,-0.1932690590620041
1782845393702372600,6.49837255859375,-0.08832719922065735,-0.051587559282779694,-0.18937605619430542
1782845393712376600,6.50837646484375,-0.0864185094833374,-0.047506265342235565,-0.1843879520893097
1782845393722381000,6.518381103515625,-0.07843062281608582,-0.04481594264507294,-0.1728506088256836
1782845393732385300,6.52838525390625,-0.06995857506990433,-0.047315049916505814,-0.14958789944648743
1782845393742390300,6.538390380859375,-0.059059057384729385,-0.04321218654513359,-0.13295458257198334
1782845393752394200,6.548394287109375,-0.05487150326371193,-0.02707715705037117,-0.09987573325634003
1782845393762399200,6.558399169921875,-0.04462951794266701,-0.015022625215351582,-0.06495077162981033
1782845393772403200,6.5684033203125,-0.041554100811481476,-0.00646642129868269,-0.040036365389823914
1782845393782408200,6.578408203125,-0.03106071427464485,-0.002587793627753854,-0.01944320648908615
1782845393792412200,6.588412109375,-0.016830112785100937,0.010118148289620876,-0.0101991081610322
1782845393802417200,6.598417236328125,0.0032895365729928017,0.02257215417921543,0.0018953717080876231
1782845393812421000,6.608421142578125,0.01853959634900093,0.037510357797145844,0.014926751144230366
1782845393822426000,6.618426025390625,0.030296919867396355,0.045994389802217484,0.03798360005021095
1782845393832430000,6.62843017578125,0.03777560964226723,0.04863970726728439,0.05787528306245804
1782845393842435000,6.63843505859375,0.04917473718523979,0.04712143912911415,0.06258641928434372
1782845393852439000,6.64843896484375,0.06378696858882904,0.047149401158094406,0.05515806004405022
1782845393862444300,6.6584443359375,0.08566243946552277,0.04410967230796814,0.038624357432127
1782845393872448300,6.6684482421875,0.10701806098222733,0.03429379314184189,0.021164940670132637
1782845393882452200,6.6784521484375,0.13166534900665283,0.02925003133714199,0.00708720413967967
1782845393892457200,6.688457275390625,0.14841130375862122,0.028539232909679413,0.0020149475894868374
1782845393902461200,6.698461181640625,0.16454660892486572,0.029939522966742516,-0.0035931370221078396
1782845393912466200,6.708466064453125,0.1801535189151764,0.03464559465646744,-0.010930146090686321
1782845393922470100,6.71847021484375,0.18967992067337036,0.04154345020651817,-0.012666260823607445
1782845393932475100,6.72847509765625,0.2073041796684265,0.06099357828497887,-0.013528858311474323
1782845393942479000,6.73847900390625,0.22497107088565826,0.07564735412597656,-0.01139806304126978
1782845393952484000,6.748484130859375,0.23338159918785095,0.09499122947454453,-0.0011699266033247113
1782845393962488000,6.758488037109375,0.23762480914592743,0.103035569190979,0.012966398149728775
1782845393972493000,6.7684931640625,0.23675449192523956,0.11579956859350204,0.033541712909936905
1782845393982497300,6.778497314453125,0.24135908484458923,0.12912921607494354,0.05366615951061249
1782845393992502300,6.788502197265625,0.2466486692428589,0.1394287347793579,0.07344146072864532
1782845394002506200,6.79850634765625,0.265691876411438,0.1434173434972763,0.0852736160159111
1782845394012511200,6.80851123046875,0.28064844012260437,0.14515160024166107,0.08929179608821869
1782845394022515000,6.818514892578125,0.29945462942123413,0.14412441849708557,0.08997835963964462
1782845394032520200,6.828520263671875,0.31282421946525574,0.14092250168323517,0.0996759906411171
1782845394042524200,6.838524169921875,0.32143980264663696,0.1361951231956482,0.11793196201324463
1782845394052529200,6.848529052734375,0.32430189847946167,0.13732962310314178,0.1342124044895172
1782845394062533000,6.858533203125,0.32208508253097534,0.13972914218902588,0.1571507304906845
1782845394072538000,6.8685380859375,0.3148905634880066,0.13978320360183716,0.1702292561531067
1782845394082542000,6.8785419921875,0.30170738697052,0.13662974536418915,0.1785886585712433
1782845394092547000,6.888547119140625,0.28498032689094543,0.11946994066238403,0.18070054054260254
1782845394102551300,6.89855126953125,0.26997795701026917,0.08996663987636566,0.16261234879493713
1782845394112556300,6.908556396484375,0.26050376892089844,0.0433402843773365,0.12865304946899414
1782845394122560300,6.918560302734375,0.25522589683532715,0.0018679412314668298,0.0780109092593193
1782845394132565200,6.928565185546875,0.2512338161468506,-0.026523219421505928,0.037148166447877884
1782845394142569000,6.93856884765625,0.246455579996109,-0.049133989959955215,-0.00020532972121145576
1782845394152574000,6.948573974609375,0.22837990522384644,-0.06272170692682266,-0.0011906992876902223
1782845394162578200,6.958578125,0.19848938286304474,-0.07509981095790863,0.02641190029680729
1782845394172583200,6.968583251953125,0.16184589266777039,-0.09276482462882996,0.05329597741365433
1782845394182587100,6.978587158203125,0.11735405772924423,-0.09540455043315887,0.07056258618831635
1782845394192592100,6.988592041015625,0.06854870170354843,-0.10110983997583389,0.0742446705698967
1782845394202596000,6.99859619140625,0.028857214376330376,-0.09120980650186539,0.04676857218146324
1782845394212601000,7.00860107421875,-0.0034815503749996424,-0.07924262434244156,0.009489375166594982
1782845394222605300,7.018605224609375,-0.00854182243347168,-0.05854133889079094,-0.023065637797117233
1782845394232610300,7.0286103515625,0.005403553601354361,-0.048831988126039505,-0.04885062947869301
1782845394242614300,7.0386142578125,0.02954510971903801,-0.03404052555561066,-0.08629041165113449
1782845394252619300,7.048619384765625,0.06513106822967529,-0.025562085211277008,-0.12185293436050415
1782845394262623000,7.058623046875,0.08962389081716537,-0.029641514644026756,-0.15194106101989746
1782845394272628000,7.0686279296875,0.09695770591497421,-0.03742460533976555,-0.17496435344219208
1782845394282632200,7.078632080078125,0.10461296141147614,-0.05471277981996536,-0.18693633377552032
1782845394292637200,7.08863720703125,0.1369924694299698,-0.07147391885519028,-0.19355587661266327
1782845394302641200,7.09864111328125,0.18039055168628693,-0.08471115678548813,-0.18201054632663727
1782845394312646100,7.108646240234375,0.23673371970653534,-0.08468053489923477,-0.151862233877182
1782845394322650000,7.118650146484375,0.2925381362438202,-0.06667303293943405,-0.10955072939395905
1782845394332655000,7.128655029296875,0.3447440564632416,-0.04843038320541382,-0.05505446344614029
1782845394342659300,7.138659423828125,0.37895718216896057,-0.04192454740405083,0.005029379855841398
1782845394352664300,7.148664306640625,0.41085144877433777,-0.03911011666059494,0.06626850366592407
1782845394362668300,7.158668212890625,0.44149431586265564,-0.028668396174907684,0.11178938299417496
1782845394372672000,7.168672119140625,0.4782557785511017,-0.01221751794219017,0.14562830328941345
1782845394382677000,7.178677001953125,0.5120396018028259,0.003944141324609518,0.15863890945911407
1782845394392682000,7.188681884765625,0.5382149815559387,0.030603716149926186,0.17415235936641693
1782845394402686200,7.198686279296875,0.5476233959197998,0.06246843934059143,0.19168953597545624
1782845394412690200,7.208690185546875,0.5367143154144287,0.08458679169416428,0.23185427486896515
1782845394422695200,7.218695068359375,0.5140712857246399,0.09606394916772842,0.26828017830848694
1782845394432699100,7.22869921875,0.48033997416496277,0.09925814718008041,0.2918526232242584
1782845394442704100,7.2387041015625,0.44767284393310547,0.0956578180193901,0.2840586304664612
1782845394452708400,7.248708251953125,0.41443154215812683,0.0840914398431778,0.23766928911209106
1782845394462713300,7.25871337890625,0.36669278144836426,0.08090630173683167,0.17737984657287598
1782845394472717300,7.26871728515625,0.323228120803833,0.08469198644161224,0.11162479966878891
1782845394482722300,7.278722412109375,0.2846546471118927,0.07729212194681168,0.05644303560256958
1782845394492726000,7.28872607421875,0.24801646173000336,0.06891914457082748,0.014198110438883305
1782845394502731000,7.29873095703125,0.21600820124149323,0.06569698452949524,-0.004601676017045975
1782845394512735200,7.3087353515625,0.1806403547525406,0.06843578070402145,-0.0001661812566453591
1782845394522740200,7.318740234375,0.14844699203968048,0.08678842335939407,0.017478059977293015
1782845394532744200,7.328744140625,0.12152323871850967,0.11229431629180908,0.002968891989439726
1782845394542749200,7.338749267578125,0.0969393327832222,0.11599424481391907,-0.006441920530050993
1782845394552753200,7.348753173828125,0.07591766864061356,0.09638086706399918,-0.014494254253804684
1782845394562758100,7.358758056640625,0.05865558981895447,0.07626840472221375,-0.033599238842725754
1782845394572762400,7.368762451171875,0.04718455672264099,0.05947238206863403,-0.07033514976501465
1782845394582767400,7.378767333984375,0.044502221047878265,0.04777524620294571,-0.11901213973760605
1782845394592771300,7.388771240234375,0.06381706148386002,0.037281326949596405,-0.16625528037548065
1782845394602776300,7.3987763671875,0.09883363544940948,0.025622805580496788,-0.19893386960029602
1782845394612780000,7.408780029296875,0.12430224567651749,0.016380570828914642,-0.21193808317184448
1782845394622785000,7.418784912109375,0.1337985396385193,0.026608441025018692,-0.19381128251552582
1782845394632789200,7.428789306640625,0.14088761806488037,0.02954963594675064,-0.15606923401355743
1782845394642794200,7.438794189453125,0.13660632073879242,0.03675082325935364,-0.10633629560470581
1782845394652798200,7.448798095703125,0.12291313707828522,0.03099999390542507,-0.03675881400704384
1782845394662803200,7.45880322265625,0.09577499330043793,0.017537448555231094,0.042035866528749466
1782845394672807200,7.46880712890625,0.06974153220653534,0.008353803306818008,0.1296384185552597
1782845394682812200,7.478812255859375,0.03720249608159065,0.012921657413244247,0.17676198482513428
1782845394692816400,7.48881640625,0.00914715975522995,0.030779751017689705,0.1916448026895523
1782845394702821400,7.4988212890625,-0.008943693712353706,0.05125280097126961,0.17748290300369263
1782845394712825000,7.5088251953125,-0.035238415002822876,0.08113080263137817,0.14047002792358398
1782845394722830000,7.518830078125,-0.059847354888916016,0.11676869541406631,0.09893110394477844
1782845394732834000,7.528833984375,-0.08322325348854065,0.14575959742069244,0.05537031590938568
1782845394742839000,7.538839111328125,-0.12032508105039597,0.16475006937980652,0.0032509206794202328
1782845394752843300,7.54884326171875,-0.15597867965698242,0.15186382830142975,-0.04092426225543022
1782845394762848300,7.55884814453125,-0.1806211769580841,0.12108035385608673,-0.07111838459968567
1782845394772852000,7.56885205078125,-0.19547656178474426,0.08952828496694565,-0.093536876142025
1782845394782857000,7.57885693359375,-0.19721613824367523,0.06297843158245087,-0.10846948623657227
1782845394792861000,7.58886083984375,-0.1995415985584259,0.04705086722970009,-0.11998605728149414
1782845394802866000,7.598865966796875,-0.1940954327583313,0.047685496509075165,-0.12304949015378952
1782845394812870100,7.6088701171875,-0.1742173433303833,0.04542127624154091,-0.1198963075876236
1782845394822875100,7.618875244140625,-0.1490563303232193,0.04831453412771225,-0.09981181472539902
1782845394832879000,7.628879150390625,-0.12383139878511429,0.04250218719244003,-0.06829702854156494
1782845394842884000,7.638884033203125,-0.1106860339641571,0.04216396436095238,-0.045345377177000046
1782845394852888000,7.64888818359375,-0.09855187684297562,0.03859106823801994,-0.034861575812101364
1782845394862893000,7.65889306640625,-0.08898979425430298,0.023320768028497696,-0.031094536185264587
1782845394872897000,7.66889697265625,-0.08438119292259216,0.018622687086462975,-0.039795614778995514
1782845394882901000,7.67890087890625,-0.08725368231534958,0.011513643898069859,-0.052503686398267746
1782845394892906000,7.688906005859375,-0.08194839209318161,-0.002046639332547784,-0.06962781399488449
1782845394902910000,7.698909912109375,-0.0776577740907669,-0.023095466196537018,-0.08872267603874207
1782845394912915000,7.7089150390625,-0.06937721371650696,-0.04138872027397156,-0.11997301131486893
1782845394922919000,7.7189189453125,-0.06905949860811234,-0.06349428743124008,-0.1517338752746582
1782845394932924200,7.728924072265625,-0.06652043759822845,-0.07829666882753372,-0.16552264988422394
1782845394942928100,7.73892822265625,-0.07929002493619919,-0.09283140301704407,-0.1728530079126358
1782845394952933000,7.74893310546875,-0.09820539504289627,-0.09661681950092316,-0.1781870424747467
1782845394962937000,7.75893701171875,-0.11539716273546219,-0.09621468186378479,-0.1728801727294922
1782845394972942000,7.768942138671875,-0.1263214498758316,-0.10322172939777374,-0.1515256017446518
1782845394982946000,7.778946044921875,-0.1317441761493683,-0.11463070660829544,-0.1269528865814209
1782845394992951000,7.788950927734375,-0.12918753921985626,-0.12462688237428665,-0.08844570815563202
1782845395002955000,7.798955078125,-0.12498161941766739,-0.13618606328964233,-0.04105262830853462
1782845395012960000,7.8089599609375,-0.13087598979473114,-0.14069053530693054,0.006389455869793892
1782845395022964000,7.8189638671875,-0.14013953506946564,-0.1332925409078598,0.03971385583281517
1782845395032969000,7.828968994140625,-0.1504952311515808,-0.116961769759655,0.053879477083683014
1782845395042973000,7.838972900390625,-0.1586407721042633,-0.11088896542787552,0.057314421981573105
1782845395052978000,7.84897802734375,-0.17642110586166382,-0.12110351771116257,0.061465226113796234
1782845395062982100,7.858982177734375,-0.19802626967430115,-0.132883220911026,0.052025917917490005
1782845395072987100,7.868987060546875,-0.22306343913078308,-0.1658230572938919,0.033294305205345154
1782845395082991000,7.8789912109375,-0.24199852347373962,-0.18983837962150574,0.018073009327054024
1782845395092996000,7.88899609375,-0.259899765253067,-0.2079811543226242,-0.011540275998413563
1782845395103000000,7.899,-0.2727239429950714,-0.20726077258586884,-0.04152507334947586
1782845395113005000,7.909005126953125,-0.2735987901687622,-0.19193029403686523,-0.08531942218542099
1782845395123009000,7.919009033203125,-0.27332475781440735,-0.18294265866279602,-0.12657205760478973
1782845395133014000,7.929013916015625,-0.25743845105171204,-0.1822797954082489,-0.16374126076698303
1782845395143018000,7.93901806640625,-0.23398347198963165,-0.18861305713653564,-0.18914462625980377
1782845395153023000,7.94902294921875,-0.2040514051914215,-0.18588757514953613,-0.19457454979419708
1782845395163027000,7.95902685546875,-0.1770959496498108,-0.1834784746170044,-0.19745928049087524
1782845395173032000,7.969031982421875,-0.14061996340751648,-0.19415828585624695,-0.19932802021503448
1782845395183036200,7.9790361328125,-0.09728873521089554,-0.21811315417289734,-0.18386010825634003
1782845395193041200,7.989041259765625,-0.04448704048991203,-0.2356165200471878,-0.16163097321987152
1782845395203045000,7.999045166015625,0.007036071736365557,-0.23346708714962006,-0.11596042662858963
1782845395213050000,8.009050048828126,0.054004114121198654,-0.22342589497566223,-0.06017332524061203
1782845395223054000,8.01905419921875,0.08521290123462677,-0.2068873941898346,-0.0010673949727788568
1782845395233059000,8.02905908203125,0.10990599542856216,-0.1971956193447113,0.05723772197961807
1782845395243063000,8.03906298828125,0.13021765649318695,-0.1991083025932312,0.133092001080513
1782845395253068000,8.049068115234375,0.1602647751569748,-0.21305368840694427,0.21336500346660614
1782845395263072000,8.059072021484376,0.17535105347633362,-0.2097042202949524,0.26833266019821167
1782845395273077000,8.069076904296875,0.16283018887043,-0.18085339665412903,0.2815946638584137
1782845395283081000,8.0790810546875,0.11317156255245209,-0.13049302995204926,0.2353544682264328
1782845395293086000,8.0890859375,0.00461552431806922,-0.07812649011611938,0.11179843544960022
1782845395303090200,8.099090087890625,-0.13780979812145233,-0.028905151411890984,-0.07379992306232452
1782845395313095200,8.10909521484375,-0.2881649434566498,0.014663098379969597,-0.31553637981414795
1782845395323099100,8.11909912109375,-0.4187357425689697,0.025313345715403557,-0.5644702911376953
1782845395333102800,8.129102783203125,-0.4757883846759796,-0.04277462884783745,-0.7517547011375427
1782845395343107800,8.13910791015625,-0.4409286677837372,-0.1626509577035904,-0.7983906269073486
1782845395353112000,8.149112060546875,-0.34771081805229187,-0.2697443962097168,-0.7127769589424133
1782845395363117000,8.159116943359376,-0.2217385172843933,-0.30126264691352844,-0.5534837245941162
1782845395373121000,8.16912109375,-0.10753311961889267,-0.26555895805358887,-0.4111585021018982
1782845395383126000,8.1791259765625,-0.005913549102842808,-0.2249058187007904,-0.2901860177516937
1782845395393130000,8.1891298828125,0.0928119644522667,-0.188924640417099,-0.15003584325313568
1782845395403135000,8.199135009765625,0.19212576746940613,-0.14949920773506165,0.008009989745914936
1782845395413139200,8.20913916015625,0.28009557723999023,-0.13642734289169312,0.16452635824680328
1782845395423144200,8.219144287109375,0.3347870409488678,-0.11841212958097458,0.3103671967983246
1782845395433148200,8.229148193359375,0.3604324758052826,-0.09452784061431885,0.43244674801826477
1782845395443153200,8.239153076171876,0.358120858669281,-0.08293350040912628,0.5418637990951538
1782845395453156900,8.249156982421875,0.3338847756385803,-0.06166256591677666,0.6435059905052185
1782845395463161900,8.259161865234375,0.29732435941696167,-0.02966015785932541,0.6797963380813599
1782845395473166000,8.269166015625,0.2600230574607849,0.027237480506300926,0.665206253528595
1782845395483171000,8.279171142578125,0.22858870029449463,0.07927963882684708,0.5771309733390808
1782845395493175000,8.289175048828126,0.21082141995429993,0.114281564950943,0.4548330307006836
1782845395503180000,8.299179931640625,0.20234350860118866,0.13599325716495514,0.31599125266075134
1782845395513184000,8.30918408203125,0.20489002764225006,0.15440288186073303,0.1772157996892929
1782845395523189000,8.31918896484375,0.19896449148654938,0.17834684252738953,0.04846180975437164
1782845395533193200,8.329193115234375,0.1927310973405838,0.18891878426074982,-0.06357923895120621
1782845395543198200,8.3391982421875,0.185484379529953,0.16067808866500854,-0.14749464392662048
1782845395553202200,8.3492021484375,0.1843581199645996,0.11630050837993622,-0.18096952140331268
1782845395563207200,8.359207275390625,0.18375732004642487,0.04748282954096794,-0.17552602291107178
1782845395573211000,8.3692109375,0.17763231694698334,-0.019168367609381676,-0.13851499557495117
1782845395583215900,8.3792158203125,0.17548713088035583,-0.054241668432950974,-0.11346957087516785
1782845395593220000,8.38922021484375,0.16759058833122253,-0.05999649316072464,-0.12935985624790192
1782845395603225000,8.39922509765625,0.16440518200397491,-0.032344888895750046,-0.20515874028205872
1782845395613229000,8.40922900390625,0.1739121377468109,0.001255946815945208,-0.29418128728866577
1782845395623234000,8.419234130859374,0.19140005111694336,0.037094637751579285,-0.32347872853279114
1782845395633238000,8.429238037109375,0.22684858739376068,0.07215089350938797,-0.31276988983154297
1782845395643243000,8.439242919921876,0.25803688168525696,0.10294289141893387,-0.2812764048576355
1782845395653247200,8.449247314453125,0.25951600074768066,0.1244838684797287,-0.2506817579269409
1782845395663252200,8.459252197265625,0.25172996520996094,0.1227986216545105,-0.21488673985004425
1782845395673256200,8.469256103515624,0.2537931203842163,0.09367908537387848,-0.16207492351531982
1782845395683261200,8.47926123046875,0.2642878293991089,0.06911195814609528,-0.10404304414987564
1782845395693265000,8.489264892578126,0.26913025975227356,0.07781010866165161,-0.06046707183122635
1782845395703270000,8.499269775390625,0.23294776678085327,0.1890660673379898,0.06620378792285919
1782845395713274000,8.509274169921875,0.18047656118869781,0.1319044977426529,0.091883584856987
1782845395723279400,8.519279296875,0.16124987602233887,0.020982779562473297,0.06485569477081299
1782845395733283300,8.529283447265625,0.16540414094924927,-0.1066923588514328,0.0340767428278923
1782845395743288300,8.539288330078126,0.1591707468032837,-0.20296989381313324,0.021138574928045273
1782845395753292300,8.549292236328125,0.1401967853307724,-0.16130021214485168,0.022421419620513916
1782845395763297300,8.55929736328125,0.11186607927083969,-0.05368266999721527,0.07445106655359268
