time,seconds_elapsed,z,y,x
1782845902454276900,0.07827685546875,-0.0010394908022135496,-0.0017307237721979618,0.015913503244519234
1782845902464281900,0.08828173828125,-0.003336622379720211,0.0006405001040548086,0.014142656698822975
1782845902474286800,0.098286865234375,-0.0021986537612974644,0.004467196296900511,0.005127590149641037
1782845902484291800,0.108291748046875,-0.005114227067679167,0.004639741498976946,-0.0008629809599369764
1782845902494296800,0.118296875,-0.003950425423681736,0.0033499726559966803,-0.004848933778703213
1782845902504301800,0.1283017578125,-0.002375374548137188,-0.000009208684787154198,-0.006531042978167534
1782845902514306800,0.138306884765625,0.00010029994882643223,-0.0009695447515696287,-0.01035507582128048
1782845902524311800,0.148311767578125,-0.0004520840011537075,-0.0015342438127845526,-0.012801414355635643
1782845902534315500,0.1583154296875,-0.0005106735043227673,-0.00252600503154099,-0.008820788003504276
1782845902544320500,0.168320556640625,-0.004215115215629339,-0.005690195597708225,-0.006326749455183744
1782845902554325500,0.178325439453125,-0.005114997271448374,-0.0014555032830685377,-0.0028111108113080263
1782845902564330500,0.18833056640625,-0.011656786315143108,0.0015434822998940945,0.0015349017921835184
1782845902574335500,0.19833544921875,-0.013111937791109085,0.003359758062288165,0.008941419422626495
1782845902584340700,0.2083408203125,-0.017232058569788933,0.000916813500225544,0.015135342255234718
1782845902594345700,0.218345703125,-0.014388601295650005,-0.0005753557197749615,0.01258936058729887
1782845902604350700,0.228350830078125,-0.019493138417601585,0.006688176654279232,0.019409239292144775
1782845902614355700,0.238355712890625,-0.01482834480702877,0.005854074843227863,0.022557895630598068
1782845902624360700,0.248360595703125,-0.015366443432867527,0.007972742430865765,0.0191944632679224
1782845902634364700,0.25836474609375,-0.010734407231211662,0.007845177315175533,0.02128397859632969
1782845902644369700,0.26836962890625,-0.008622744120657444,0.0054922266863286495,0.021223217248916626
1782845902654374700,0.278374755859375,-0.003782715182751417,0.0037598402705043554,0.012801236473023891
1782845902664379600,0.288379638671875,-0.0002497101668268442,0.008323139511048794,0.0053632380440831184
1782845902674384600,0.298384521484375,0.0024121191818267107,0.01444015372544527,0.002138948766514659
1782845902684389600,0.3083896484375,0.003066906239837408,0.013600022532045841,0.0026905732229351997
1782845902694394600,0.31839453125,0.0047449637204408646,0.01175471767783165,0.0027662073262035847
1782845902704399600,0.328399658203125,0.00970008410513401,0.008351417258381844,0.006939871236681938
1782845902714404600,0.338404541015625,0.012341407127678394,0.005387851037085056,0.018096651881933212
1782845902724409600,0.34840966796875,0.014466707594692707,0.0038159782998263836,0.016134336590766907
1782845902734413600,0.35841357421875,0.013391056098043919,0.00313261104747653,0.017551936209201813
1782845902744418600,0.36841845703125,0.011574402451515198,0.00349325779825449,0.015536569058895111
1782845902754423600,0.378423583984375,0.012285200878977776,0.004831496626138687,0.009355105459690094
1782845902764428500,0.388428466796875,0.011520171537995338,0.0055723125115036964,0.006390111055225134
1782845902774433500,0.39843359375,0.007277755998075008,0.0022359041031450033,0.0066849226132035255
1782845902784438500,0.4084384765625,0.00503156241029501,0.0015795306535437703,0.005115605890750885
1782845902794443500,0.418443603515625,0.0008024624548852444,0.001971281599253416,0.003142469795420766
1782845902804448500,0.428448486328125,-0.003333202563226223,-0.001011144369840622,0.0022852402180433273
1782845902814453500,0.43845361328125,-0.006046963855624199,0.0015785134164616466,0.008514906279742718
1782845902824457700,0.448457763671875,-0.006861371919512749,0.0012479944853112102,0.010692054405808449
1782845902834462700,0.458462646484375,-0.007024357095360756,-0.000022066989913582802,0.011916842311620712
1782845902844467700,0.4684677734375,-0.0057408688589930534,-0.003672250546514988,0.011275706812739372
1782845902854472700,0.47847265625,-0.0031291067134588957,-0.0011033653281629086,0.01613038405776024
1782845902864477700,0.488477783203125,-0.0027032250072807074,-0.001501821679994464,0.017092274501919746
1782845902874482700,0.498482666015625,-0.001405733055435121,-0.0007465493399649858,0.019496576860547066
1782845902884487700,0.50848779296875,-0.003941189032047987,0.00002271495759487152,0.024127939715981483
1782845902894492700,0.51849267578125,-0.0015081251040101051,-0.003971760161221027,0.025451531633734703
1782845902904497700,0.52849755859375,-0.0008930590702220798,-0.005311828106641769,0.023384246975183487
1782845902914502700,0.538502685546875,0.00453126709908247,-0.003826051251962781,0.016556434333324432
1782845902924506600,0.548506591796875,0.00886727124452591,0.0016522828955203295,0.01186676137149334
1782845902934511600,0.55851171875,0.011794617399573326,0.0008767703548073769,0.0029552914202213287
1782845902944516600,0.5685166015625,0.010104169137775898,0.004386673215776682,-0.003214579774066806
1782845902954521600,0.578521484375,0.010726549662649632,0.00034452718682587147,-0.011167044751346111
1782845902964526600,0.588526611328125,0.010134978219866753,-0.003597654402256012,-0.012466583400964737
1782845902974531600,0.598531494140625,0.01035548746585846,-0.00763207720592618,-0.016617918387055397
1782845902984536600,0.60853662109375,0.010997001081705093,-0.0048903049901127815,-0.021787870675325394
1782845902994541600,0.61854150390625,0.010864641517400742,-0.005204292014241219,-0.02424037642776966
1782845903004546600,0.628546630859375,0.011774755083024502,-0.0014154671225696802,-0.025708690285682678
1782845903014551600,0.638551513671875,0.008287612348794937,-0.0007550029549747705,-0.02865947224199772
1782845903024555800,0.6485556640625,0.0024610792752355337,-0.0006226373370736837,-0.022066213190555573
1782845903034560800,0.658560791015625,0.0061935000121593475,-0.0006482035387307405,-0.014423741027712822
1782845903044565800,0.668565673828125,0.005120021291077137,-0.0049348752945661545,-0.01225810032337904
1782845903054570800,0.67857080078125,0.009017291478812695,-0.007620407268404961,-0.0019114529713988304
1782845903064575700,0.68857568359375,0.007202415727078915,-0.010970404371619225,0.008611157536506653
1782845903074580700,0.698580810546875,0.012088784016668797,-0.010481714271008968,0.010189879685640335
1782845903084585700,0.708585693359375,0.011497311294078827,-0.009069262072443962,0.006554652005434036
1782845903094590700,0.7185908203125,0.015055561438202858,-0.0035234952811151743,0.0001359010930173099
1782845903104595700,0.728595703125,0.014538457617163658,-0.0009343568235635757,-0.006314894184470177
1782845903114600700,0.7386005859375,0.013490770012140274,-0.0015711188316345215,-0.0087365061044693
1782845903124604700,0.748604736328125,0.016405221074819565,-0.0021425785962492228,-0.012090111151337624
1782845903134609700,0.758609619140625,0.015975920483469963,-0.007479819469153881,-0.012354030273854733
1782845903144614700,0.76861474609375,0.013347114436328411,-0.012454337440431118,-0.012997450307011604
1782845903154619600,0.77861962890625,0.017245182767510414,-0.013722002506256104,-0.015191096812486649
1782845903164624600,0.788624755859375,0.01694037765264511,-0.010820365510880947,-0.017699385061860085
1782845903174629600,0.798629638671875,0.013968821614980698,-0.011461121961474419,-0.01959635503590107
1782845903184634600,0.808634521484375,0.01610366813838482,-0.006714331451803446,-0.022711513563990593
1782845903194639600,0.8186396484375,0.012959806248545647,-0.007444303948432207,-0.027425574138760567
1782845903204644000,0.82864404296875,0.011008059605956078,0.0002279011532664299,-0.02188734896481037
1782845903214649000,0.838649169921875,0.0034207135904580355,0.003242599545046687,-0.014811862260103226
1782845903224653000,0.848653076171875,0.003403431735932827,0.0021780659444630146,-0.005141685251146555
1782845903234658000,0.858657958984375,-0.0008376521291211247,-0.0019594209734350443,-0.0001056476030498743
1782845903244663000,0.8686630859375,-0.0037518804892897606,-0.004796227440237999,0.01632864773273468
1782845903254668000,0.87866796875,-0.005523681640625,-0.008864738047122955,0.018588339909911156
1782845903264673000,0.888673095703125,-0.007627549581229687,-0.008053340949118137,0.01993294432759285
1782845903274678000,0.898677978515625,-0.007788138464093208,-0.0017493725754320621,0.013161057606339455
1782845903284683300,0.908683349609375,-0.011852150782942772,0.0037312146741896868,0.006869366858154535
1782845903294688300,0.918688232421875,-0.013692129403352737,0.01243948470801115,0.0033159106969833374
1782845903304693200,0.928693359375,-0.014222211204469204,0.009392992593348026,0.008768043480813503
1782845903314698200,0.9386982421875,-0.009363007731735706,0.004421403631567955,0.013429907150566578
1782845903324702000,0.948701904296875,-0.006577900145202875,0.0012215743772685528,0.021510768681764603
1782845903334707000,0.95870703125,-0.0033988850191235542,0.0005840135272592306,0.027169985696673393
1782845903344712000,0.9687119140625,0.0012758881784975529,-0.00006887037307024002,0.023435041308403015
1782845903354717000,0.978717041015625,0.005099655129015446,0.0034305232111364603,0.01365671306848526
1782845903364722000,0.988721923828125,0.007637969218194485,0.0046757897362113,0.0021288979332894087
1782845903374727000,0.998726806640625,0.007226777262985706,0.004886179696768522,-0.009086206555366516
1782845903384732000,1.00873193359375,0.007919562980532646,0.001843709615059197,-0.01646006479859352
1782845903394737000,1.01873681640625,0.00634776521474123,0.0008330398704856634,-0.023446334525942802
1782845903404742000,1.028741943359375,0.003161364234983921,0.0026768967509269714,-0.023211512714624405
1782845903414747000,1.038746826171875,-0.0013713361695408821,0.0022870099637657404,-0.021033046767115593
1782845903424751000,1.048751220703125,-0.001882496988400817,0.004947425797581673,-0.013844016008079052
1782845903434756000,1.058756103515625,-0.0012297561625018716,0.003038738388568163,-0.00868254341185093
1782845903444761000,1.068760986328125,-0.003985803574323654,0.0035555209033191204,0.0027476907707750797
1782845903454766000,1.07876611328125,-0.005904344841837883,-0.0026997115928679705,0.007979470305144787
1782845903464771000,1.08877099609375,-0.008745307102799416,-0.005219936370849609,0.008121051825582981
1782845903474776000,1.098776123046875,-0.014481224119663239,-0.000307735288515687,0.005998513195663691
1782845903484781000,1.108781005859375,-0.019050002098083496,0.0011211938690394163,0.007758188992738724
1782845903494786000,1.1187861328125,-0.01799565739929676,0.0017236010171473026,0.0041280342265963554
1782845903504791000,1.128791015625,-0.013706621713936329,0.0023408327251672745,0.000536748964805156
1782845903514796000,1.138796142578125,-0.009292165748775005,0.0039142281748354435,-0.0016158842481672764
1782845903524800000,1.148800048828125,-0.006253624800592661,-0.0014596208930015564,-0.008757823146879673
1782845903534805000,1.158804931640625,0.001048762584105134,0.0005713058635592461,-0.010447332635521889
1782845903544810000,1.16881005859375,0.003133542602881789,0.006769943051040173,-0.017679469659924507
1782845903554815000,1.17881494140625,0.004005994647741318,0.006851435638964176,-0.012946766801178455
1782845903564820000,1.188820068359375,0.006798359099775553,0.005818989127874374,-0.011889533139765263
1782845903574825000,1.198824951171875,0.008293990045785904,0.0025438338052481413,-0.01123839057981968
1782845903584830000,1.208829833984375,0.010758674703538418,-0.0026348326355218887,-0.013680174015462399
1782845903594835000,1.2188349609375,0.011751234531402588,-0.003575460985302925,-0.009544551372528076
1782845903604840000,1.22883984375,0.008491343818604946,0.0005363638047128916,-0.009314271621406078
1782845903614845000,1.238844970703125,0.007251642644405365,-0.0016618093941360712,-0.008027964271605015
1782845903624849200,1.24884912109375,0.002514706226065755,-0.0033218262251466513,-0.00263535650447011
1782845903634854100,1.258854248046875,0.006532884202897549,-0.005525325424969196,-0.005483873654156923
1782845903644859100,1.268859130859375,0.002140405820682645,-0.0044599175453186035,-0.003236838849261403
1782845903654864100,1.278864013671875,0.0014216185081750154,-0.0007072575390338898,-0.0034197981003671885
1782845903664869000,1.288869140625,-0.002705621998757124,0.003819706616923213,-0.00025449052918702364
1782845903674874000,1.2988740234375,-0.0006928048096597195,0.00683387229219079,-0.00022173364413902164
1782845903684879000,1.308879150390625,0.0008383283857256174,0.0002452258486300707,0.0008682093466632068
1782845903694884000,1.318884033203125,0.0028431557584553957,-0.0043668365105986595,0.0007997661014087498
1782845903704889000,1.32888916015625,0.002556111663579941,-0.005297236144542694,-0.0031441464088857174
1782845903714894000,1.33889404296875,0.003021632321178913,-0.005409887991845608,0.000308642047457397
1782845903724899000,1.348899169921875,-0.0015697837807238102,-0.008666523732244968,-0.0022734329104423523
1782845903734903000,1.358903076171875,-0.0005101119168102741,-0.009001282975077629,-0.0011461168760433793
1782845903744908000,1.368907958984375,-0.0036208948586136103,-0.007689703721553087,-0.0027014599181711674
1782845903754913000,1.3789130859375,-0.0021388456225395203,-0.002732495777308941,-0.0029941413085907698
1782845903764918000,1.38891796875,-0.0035161194391548634,0.0027111077215522528,-0.004490149673074484
1782845903774923000,1.398923095703125,-0.005309225991368294,0.0029422701336443424,-0.005042489618062973
1782845903784928000,1.408927978515625,-0.004252274986356497,-0.0037059085443615913,-0.004716997500509024
1782845903794933000,1.41893310546875,-0.0037798304110765457,-0.007613032124936581,-0.0006026798509992659
1782845903804938000,1.42893798828125,-0.0057389624416828156,-0.00672241672873497,-0.0013453214196488261
1782845903814943000,1.43894287109375,-0.006543769501149654,-0.0015130073297768831,0.0006528484518639743
1782845903824948000,1.448947998046875,-0.009032565169036388,-0.0027342166285961866,0.002433506539091468
1782845903834952200,1.4589521484375,-0.007775552570819855,-0.0033499395940452814,0.009114844724535942
1782845903844957200,1.468957275390625,-0.010386600159108639,-0.0074503133073449135,0.02141473814845085
1782845903854962200,1.478962158203125,-0.007902936078608036,-0.0049514686688780785,0.01822107471525669
1782845903864967200,1.48896728515625,-0.007887993939220905,0.003409456927329302,0.012085125781595707
1782845903874972200,1.49897216796875,-0.007304495200514793,0.008425254374742508,0.0036418396048247814
1782845903884977200,1.50897705078125,-0.007976858876645565,0.012029214762151241,-0.007846854627132416
1782845903894982100,1.518982177734375,-0.006311584264039993,0.004097522236406803,-0.009503074921667576
1782845903904987100,1.528987060546875,-0.007027961313724518,-0.005240831524133682,-0.006840993650257587
1782845903914992000,1.5389921875,0.0005396772176027298,-0.004404865205287933,-0.0036521246656775475
1782845903924997000,1.5489970703125,-0.00030565238557755947,-0.007456001825630665,-0.002383619314059615
1782845903935002000,1.559002197265625,-0.0004273589001968503,-0.008510347455739975,0.007322537712752819
1782845903945006000,1.569006103515625,-0.00002084975130856037,-0.00020932801999151707,0.005481112282723188
1782845903955011000,1.579010986328125,-0.0016933149890974164,0.003948398865759373,0.0024368527811020613
1782845903965016000,1.58901611328125,-0.0007439797045662999,0.00844220258295536,0.005646849982440472
1782845903975021000,1.59902099609375,-0.004267874173820019,0.004944940097630024,0.004784252028912306
1782845903985026000,1.609026123046875,-0.002222595736384392,-0.004713478498160839,0.007001893129199743
1782845903995031000,1.619031005859375,0.0018805365543812513,-0.007955610752105713,0.0019144564867019653
1782845904005036000,1.6290361328125,0.004415375180542469,-0.008305330760776997,-0.002070739632472396
1782845904015041000,1.639041015625,0.0015839026309549809,-0.010986335575580597,-0.00739706214517355
1782845904025046000,1.6490458984375,0.002978054340928793,-0.008024654351174831,-0.005995424930006266
1782845904035051000,1.659051025390625,0.002956482581794262,-0.008332249708473682,-0.008107045665383339
1782845904045055200,1.66905517578125,0.005210988223552704,-0.010073547251522541,-0.009921864606440067
1782845904055060200,1.679060302734375,0.001926245167851448,-0.003738153027370572,-0.011929354630410671
1782845904065065200,1.689065185546875,-0.003667192067950964,0.0013791108503937721,-0.013192492537200451
1782845904075070200,1.6990703125,-0.0046003637835383415,0.0044625187292695045,-0.008656064048409462
1782845904085075200,1.7090751953125,-0.003768898081034422,0.004926482681185007,-0.00003783957799896598
1782845904095080200,1.719080078125,-0.005660274997353554,-0.0005870596505701542,0.003983799833804369
1782845904105085200,1.729085205078125,-0.0018483372405171394,-0.0027795860078185797,0.011857284232974052
1782845904115090200,1.739090087890625,0.005755254067480564,-0.009157057851552963,0.013914044015109539
1782845904125095200,1.74909521484375,0.012053292244672775,-0.011333809234201908,0.011121254414319992
1782845904135100200,1.75910009765625,0.012160085141658783,-0.00986560806632042,0.010043207556009293
1782845904145104100,1.769104248046875,0.011894766241312027,-0.00321275950409472,0.009643538855016232
1782845904155109000,1.779109130859375,0.009481143206357956,0.0006445629987865686,0.0032530182506889105
1782845904165114000,1.789114013671875,0.007211847230792046,0.006746753118932247,0.006010465323925018
1782845904175119000,1.799119140625,0.0062983836978673935,0.004315819591283798,0.006175315007567406
1782845904185124000,1.8091240234375,0.0077394647523760796,0.0005331747233867645,0.004945163615047932
1782845904195129000,1.819129150390625,0.006157280877232552,-0.002007747069001198,0.004780846647918224
1782845904205134300,1.82913427734375,0.00689318124204874,-0.00195635505951941,-0.002565555041655898
1782845904215139300,1.839139404296875,0.010047162882983685,-0.002008286537602544,-0.006650577764958143
1782845904225144300,1.849144287109375,0.013571365736424923,-0.0018565345089882612,-0.013291744515299797
1782845904235149300,1.8591494140625,0.01689552143216133,-0.0025923659559339285,-0.018695564940571785
1782845904245154300,1.869154296875,0.01809527724981308,-0.0025430971290916204,-0.01411918830126524
1782845904255158500,1.879158447265625,0.018444683402776718,-0.0003007156774401665,-0.010650954209268093
1782845904265163500,1.88916357421875,0.019455408677458763,0.0037999923806637526,-0.0054304166696965694
1782845904275168500,1.89916845703125,0.024523936212062836,0.006658629514276981,0.0010610385797917843
1782845904285173500,1.909173583984375,0.025378728285431862,0.00583341158926487,0.01028178445994854
1782845904295178500,1.919178466796875,0.020171448588371277,-0.00037654745392501354,0.012323363684117794
1782845904305183500,1.92918359375,0.018976405262947083,-0.004113932140171528,0.01578262634575367
1782845904315188500,1.9391884765625,0.016114039346575737,-0.007711862213909626,0.010745523497462273
1782845904325193500,1.949193359375,0.013152408413589,-0.0055079469457268715,0.006587197072803974
1782845904335198500,1.959198486328125,0.005644158460199833,-0.0065910546109080315,-0.0008265107753686607
1782845904345203500,1.969203369140625,0.003314158646389842,-0.005922866985201836,-0.004671849310398102
1782845904355207400,1.97920751953125,-0.00022624782286584377,-0.0037510592956095934,-0.005697965156286955
1782845904365212400,1.98921240234375,-0.004715440794825554,-0.0001553345937281847,0.0027907616458833218
1782845904375217400,1.999217529296875,-0.005150601267814636,0.0015320443781092763,0.008344518020749092
1782845904385222400,2.009222412109375,-0.0071000223979353905,0.0014907863223925233,0.022321835160255432
1782845904395227400,2.019227294921875,-0.009905662387609482,0.002069491194561124,0.029393592849373817
1782845904405232400,2.029232421875,-0.011176593601703644,0.0029969203751534224,0.030981436371803284
1782845904415237400,2.0392373046875,-0.009615182876586914,0.00418096175417304,0.03529229387640953
1782845904425242400,2.049242431640625,-0.008565195836126804,0.003341874573379755,0.035327550023794174
1782845904435247400,2.059247314453125,-0.00498750526458025,-0.0032377310562878847,0.03284042328596115
1782845904445252400,2.06925244140625,-0.0042619602754712105,0.0001634731888771057,0.026741158217191696
1782845904455257300,2.07925732421875,-0.0018858877010643482,0.0014822706580162048,0.020581001415848732
1782845904465261600,2.089261474609375,0.0010011449921876192,0.0024329377338290215,0.012151656672358513
1782845904475266600,2.0992666015625,0.0007084636017680168,0.005377062596380711,0.005357133690267801
1782845904485271600,2.109271484375,-0.003901159856468439,0.009116891771554947,0.00453843642026186
1782845904495276500,2.119276611328125,-0.0016854098066687584,0.015167860314249992,0.005186916328966618
1782845904505281500,2.129281494140625,-0.0010173623450100422,0.006691940128803253,0.008298162370920181
1782845904515286500,2.13928662109375,-0.0013702311553061008,0.0005166020710021257,0.014782693237066269
1782845904525291500,2.14929150390625,-0.0009300106903538108,-0.004303187131881714,0.014622104354202747
1782845904535296500,2.159296630859375,0.0006841314025223255,-0.00581319909542799,0.011998358182609081
1782845904545301500,2.169301513671875,0.002221589908003807,-0.0038686480838805437,0.00283600902184844
1782845904555306500,2.179306396484375,-0.0005568860797211528,-0.0033176399301737547,-0.003949725069105625
1782845904565310500,2.189310546875,-0.0012197468895465136,-0.0063986508175730705,-0.01439224649220705
1782845904575315500,2.1993154296875,-0.0056895967572927475,-0.006758710369467735,-0.022954043000936508
1782845904585320400,2.209320556640625,-0.006638791412115097,-0.007892261259257793,-0.02402140200138092
1782845904595325400,2.219325439453125,-0.01131610106676817,-0.005854676477611065,-0.03082657791674137
1782845904605330400,2.229330322265625,-0.011339729651808739,-0.0012660091742873192,-0.02694534882903099
1782845904615335400,2.23933544921875,-0.012738421559333801,0.0009518715087324381,-0.018905265256762505
1782845904625340400,2.24934033203125,-0.007818540558218956,0.0012150396360084414,-0.0035845909733325243
1782845904635345400,2.259345458984375,-0.005672832019627094,-0.009057039394974709,0.009353844448924065
1782845904645350400,2.269350341796875,-0.0019497061148285866,-0.012437614612281322,0.015514771454036236
1782845904655355400,2.27935546875,-0.0005776454927399755,-0.01417133305221796,0.013680651783943176
1782845904665360400,2.2893603515625,-0.0004985363921150565,-0.00902688317000866,0.0084525840356946
1782845904675364400,2.2993642578125,0.0005384986288845539,0.0039043615106493235,-0.004532989114522934
1782845904685369300,2.309369384765625,0.0004166392609477043,0.012549350969493389,-0.012257331050932407
1782845904695374300,2.319374267578125,-0.0013096218463033438,0.014529943466186523,-0.014958308078348637
1782845904705379300,2.32937939453125,0.00034190178848803043,0.015659315511584282,-0.008489856496453285
1782845904715384300,2.33938427734375,-0.00190234393812716,0.018079062923789024,-0.0017075836658477783
1782845904725389300,2.349389404296875,-0.002058531856164336,0.010915303602814674,0.004826340824365616
1782845904735394600,2.35939453125,-0.0034609525464475155,0.0071131084114313126,0.012669350020587444
1782845904745399600,2.369399658203125,-0.0018922239542007446,0.0033078400883823633,0.017930299043655396
1782845904755404500,2.379404541015625,-0.0075330655090510845,0.002752837259322405,0.018156934529542923
1782845904765409500,2.389409423828125,-0.009645989164710045,0.005847895052284002,0.014533410780131817
1782845904775414500,2.39941455078125,-0.010198328644037247,0.007610907778143883,0.014418362639844418
1782845904785418200,2.409418212890625,-0.014941966161131859,0.008998503908514977,0.012798638083040714
1782845904795423200,2.41942333984375,-0.012913969345390797,0.009419815614819527,0.006248061079531908
1782845904805428200,2.42942822265625,-0.011535516940057278,0.014657987281680107,0.006314906291663647
1782845904815433200,2.43943310546875,-0.012013288214802742,0.01543083693832159,0.008467006497085094
1782845904825438200,2.449438232421875,-0.007043969351798296,0.007804465480148792,0.009070620872080326
1782845904835443200,2.459443115234375,-0.0032705364283174276,0.003812919370830059,0.013808384537696838
1782845904845448200,2.4694482421875,-0.0015145745128393173,0.0001267152838408947,0.015231702476739883
1782845904855453200,2.479453125,0.0006047689821571112,-0.0025806541088968515,0.01720164157450199
1782845904865458200,2.489458251953125,0.0016853001434355974,-0.0004876148886978626,0.011466179974377155
1782845904875463200,2.499463134765625,-0.00035601272247731686,-0.0018338430672883987,0.0017035638447850943
1782845904885468200,2.50946826171875,-0.001989556010812521,-0.0045965444296598434,-0.002513331128284335
1782845904895472400,2.519472412109375,-0.0037344591692090034,-0.0005426805000752211,-0.008540064096450806
1782845904905477400,2.529477294921875,-0.00522735808044672,0.0012512182584032416,-0.009403270669281483
1782845904915482400,2.539482421875,-0.007250828202813864,0.0010458885226398706,-0.007226668298244476
1782845904925487400,2.5494873046875,-0.009508850984275341,0.001778141362592578,-0.0021843058057129383
1782845904935492400,2.559492431640625,-0.00616179034113884,0.0003293817862868309,-0.004209373611956835
1782845904945497300,2.569497314453125,-0.007908571511507034,-0.0001089954748749733,0.0006855328101664782
1782845904955502300,2.57950244140625,-0.008080877363681793,0.0017560161650180817,-0.0004180811229161918
1782845904965507300,2.58950732421875,-0.0062399739399552345,0.002354817697778344,-0.0031684529967606068
1782845904975512300,2.59951220703125,-0.002338709542527795,-0.006631220690906048,-0.003925323020666838
1782845904985517300,2.609517333984375,0.002824078779667616,-0.005571193061769009,-0.0023559133987873793
1782845904995521300,2.619521240234375,0.002285853959619999,-0.011979291215538979,0.001839896896854043
1782845905005526300,2.6295263671875,0.0024084013421088457,-0.011822212487459183,0.011918322183191776
1782845905015531300,2.63953125,0.006194617599248886,-0.00789112038910389,0.011071969754993916
1782845905025536300,2.649536376953125,0.008055692538619041,-0.0018954167608171701,0.013286069966852665
1782845905035541200,2.659541259765625,0.01180462446063757,0.00017732172273099422,0.009699857793748379
1782845905045546200,2.669546142578125,0.01592196896672249,-0.0007308912463486195,0.005811809562146664
1782845905055551200,2.67955126953125,0.013119790703058243,-0.002453690394759178,-0.00808030366897583
1782845905065556200,2.68955615234375,0.012820480391383171,-0.003715297905728221,-0.021482154726982117
1782845905075561200,2.699561279296875,0.01260343287140131,0.0036675170995295048,-0.032131072133779526
1782845905085566200,2.709566162109375,0.008191611617803574,-0.003530406393110752,-0.033748649060726166
1782845905095571200,2.7195712890625,0.005404879339039326,-0.006740846671164036,-0.022557513788342476
1782845905105575400,2.729575439453125,0.009312142618000507,-0.006005937233567238,-0.01285229716449976
1782845905115580400,2.739580322265625,0.006932076066732407,-0.006584908813238144,0.0016952205915004015
1782845905125585400,2.74958544921875,0.009304601699113846,-0.008712678216397762,0.01782074384391308
1782845905135590400,2.75959033203125,0.009490223601460457,-0.00993160717189312,0.024680782109498978
1782845905145595400,2.769595458984375,0.006180421449244022,-0.00913296639919281,0.023883461952209473
1782845905155600400,2.779600341796875,-0.00011609075590968132,-0.007742529734969139,0.01701383851468563
1782845905165605400,2.78960546875,-0.0036435765214264393,-0.004136090166866779,0.006593805737793446
1782845905175610400,2.7996103515625,-0.005758126266300678,-0.008809139020740986,-0.005480433814227581
1782845905185615400,2.809615478515625,-0.005433036480098963,-0.011981777846813202,-0.019633179530501366
1782845905195620400,2.819620361328125,-0.0046700406819581985,-0.012265403755009174,-0.026062317192554474
1782845905205624800,2.829624755859375,-0.007353568449616432,-0.015138013288378716,-0.03373635560274124
1782845905215628800,2.83962890625,-0.008725096471607685,-0.015393409878015518,-0.03029448725283146
1782845905225633800,2.8496337890625,-0.004757210612297058,-0.011664765886962414,-0.028811946511268616
1782845905235638800,2.859638671875,0.0007166508585214615,-0.015913572162389755,-0.019959066063165665
1782845905245643800,2.869643798828125,0.004769293591380119,-0.013348736800253391,-0.008447669446468353
1782845905255648800,2.879648681640625,0.013676769100129604,-0.00665994081646204,-0.00128616311121732
1782845905265653800,2.88965380859375,0.026557791978120804,0.0005456095095723867,0.0017718363087624311
1782845905275658800,2.89965869140625,0.032523538917303085,0.0009698509238660336,0.008006029762327671
1782845905285663700,2.909663818359375,0.04006534442305565,-0.004716796800494194,0.006957277189940214
1782845905295668700,2.919668701171875,0.04355142265558243,-0.004497352056205273,0.0000586247188039124
1782845905305673700,2.929673828125,0.04360521584749222,-0.005489003378897905,-0.0007517847698181868
1782845905315678700,2.9396787109375,0.03742615133523941,-0.005316163878887892,-0.002067386405542493
1782845905325683000,2.949682861328125,0.03123883157968521,-0.00012204493395984173,-0.006749480031430721
1782845905335688000,2.95968798828125,0.018378159031271935,0.003489201422780752,-0.00025376403937116265
1782845905345693000,2.96969287109375,0.008869636803865433,0.0075785270892083645,0.010410298593342304
1782845905355698000,2.979697998046875,-0.000023457687348127365,0.010070713236927986,0.019473567605018616
1782845905365703000,2.989702880859375,-0.0013120610965415835,0.008001252077519894,0.032111771404743195
1782845905375708000,2.9997080078125,-0.00568603677675128,0.0016485473606735468,0.038384582847356796
1782845905385713000,3.009712890625,-0.004649072885513306,0.001615374581888318,0.03795508295297623
1782845905395718000,3.0197177734375,-0.0018040179274976254,0.0017591852229088545,0.03454650193452835
1782845905405723000,3.029722900390625,-0.0019018113380298018,0.0023922454565763474,0.02625187858939171
1782845905415727900,3.039727783203125,-0.0014525360893458128,0.001983450260013342,0.018390227109193802
1782845905425731800,3.04973193359375,0.0021334236953407526,-0.0012852929066866636,0.017689000815153122
1782845905435736800,3.05973681640625,-0.0017734337598085403,0.003197606187313795,0.009361828677356243
1782845905445741800,3.069741943359375,-0.004037107806652784,0.014198079705238342,0.005925535224378109
1782845905455746800,3.079746826171875,-0.0012743443949148059,0.0112667391076684,0.004302072338759899
1782845905465751800,3.089751708984375,0.005590404383838177,0.015372786670923233,-0.0010942001827061176
1782845905475756800,3.0997568359375,0.010743887163698673,0.010563117451965809,-0.002684107283130288
1782845905485761800,3.10976171875,0.01740766316652298,0.008386802859604359,-0.009699421934783459
1782845905495766800,3.119766845703125,0.019379200413823128,0.007608094718307257,-0.01536210160702467
1782845905505771800,3.129771728515625,0.027793750166893005,0.006636614911258221,-0.026644349098205566
1782845905515776800,3.13977685546875,0.030613772571086884,0.0042008874006569386,-0.029457712545990944
1782845905525781800,3.14978173828125,0.024628471583127975,0.001468272297643125,-0.0250007975846529
1782845905535786000,3.159785888671875,0.01833781972527504,0.008440694771707058,-0.017635293304920197
1782845905545791000,3.169791015625,0.013960535638034344,0.0033739283680915833,-0.01569560542702675
1782845905555796000,3.1797958984375,0.0020974839571863413,0.006601679604500532,-0.010456900112330914
1782845905565801000,3.189801025390625,-0.00798042118549347,0.007720138877630234,-0.00468905083835125
1782845905575806000,3.199805908203125,-0.01851109229028225,0.006614926736801863,-0.00019177031936123967
1782845905585811000,3.20981103515625,-0.026640040799975395,0.00605796417221427,0.00479225255548954
1782845905595816000,3.21981591796875,-0.02932610549032688,0.006301376968622208,0.014681368134915829
1782845905605821000,3.229821044921875,-0.02953011728823185,0.004930893424898386,0.01692030392587185
1782845905615826000,3.239825927734375,-0.03180205821990967,-0.00006572948768734932,0.014275518245995045
1782845905625831000,3.249830810546875,-0.0306199099868536,-0.00605377834290266,0.009652029722929
1782845905635836000,3.2598359375,-0.03033149056136608,-0.0076064011082053185,0.0032500573433935642
1782845905645840000,3.26983984375,-0.027167808264493942,-0.003536989213898778,-0.0034654790069907904
1782845905655844900,3.279844970703125,-0.02511237934231758,0.003670323872938752,-0.007994184270501137
1782845905665849900,3.289849853515625,-0.02010946534574032,0.012917269952595234,-0.003554069437086582
1782845905675854800,3.299854736328125,-0.0168143380433321,0.013221402652561665,0.0039832089096307755
1782845905685859800,3.30985986328125,-0.006340920925140381,0.006979909259825945,0.02039414644241333
1782845905695864800,3.31986474609375,-0.0009996852604672313,-0.0006774778012186289,0.027888813987374306
1782845905705869800,3.329869873046875,0.004667800851166248,-0.008951100520789623,0.040421634912490845
1782845905715874800,3.339874755859375,0.009858301840722561,-0.012122126296162605,0.03365826979279518
1782845905725879800,3.3498798828125,0.009153210557997227,-0.014061336405575275,0.02129337005317211
1782845905735884800,3.359884765625,0.012192143127322197,-0.016798002645373344,0.0005771726719103754
1782845905745889800,3.369889892578125,0.009936848655343056,-0.01439611054956913,-0.014245329424738884
1782845905755894000,3.37989404296875,0.0020693386904895306,-0.0071517787873744965,-0.026600532233715057
1782845905765899000,3.38989892578125,-0.0037330007180571556,-0.0034603176172822714,-0.03385832905769348
1782845905775904000,3.399904052734375,-0.010493701323866844,0.0044716414995491505,-0.03398456424474716
1782845905785909000,3.409908935546875,-0.010814274661242962,0.0053471727296710014,-0.028317956253886223
1782845905795914000,3.4199140625,-0.012470494955778122,0.005890457890927792,-0.023985259234905243
1782845905805919000,3.4299189453125,-0.011079554446041584,0.0013754026731476188,-0.008887240663170815
1782845905815924000,3.439924072265625,-0.012925125658512115,-0.0013916217721998692,0.00025192851899191737
1782845905825929000,3.449928955078125,-0.012045005336403847,-0.0039921710267663,0.011052435263991356
1782845905835934000,3.459933837890625,-0.011489735916256905,-0.0019969306886196136,0.019219020381569862
1782845905845939000,3.46993896484375,-0.014593316242098808,-0.006741624791175127,0.02582704648375511
1782845905855944000,3.47994384765625,-0.014289449900388718,-0.008953912183642387,0.030115535482764244
1782845905865948000,3.489947998046875,-0.008408349007368088,-0.007831704802811146,0.024527117609977722
1782845905875953000,3.499952880859375,-0.0021555128041654825,0.0002043836284428835,0.02373535931110382
1782845905885958000,3.5099580078125,0.006707740016281605,-0.00015756022185087204,0.011277906596660614
1782845905895963000,3.519962890625,0.011139506474137306,0.0035655389074236155,0.0026793580036610365
1782845905905967900,3.5299677734375,0.016902362927794456,0.008980229496955872,-0.002799072302877903
1782845905915972900,3.539972900390625,0.021099237725138664,0.000649595633149147,-0.005773024167865515
1782845905925977900,3.549977783203125,0.023165263235569,-0.004747006110846996,-0.011854828335344791
1782845905935982800,3.55998291015625,0.02526809461414814,-0.010222199372947216,-0.018628312274813652
1782845905945987800,3.56998779296875,0.018130628392100334,-0.011966153047978878,-0.023345373570919037
1782845905955992800,3.579992919921875,0.0200334582477808,-0.01077864971011877,-0.02824452333152294
1782845905965997800,3.589997802734375,0.018939850851893425,-0.002232934581115842,-0.04324040561914444
1782845905976002000,3.600001953125,0.018886053934693336,0.006373070180416107,-0.04300311580300331
1782845905986007000,3.610007080078125,0.01768338307738304,0.005562158301472664,-0.041090451180934906
1782845905996012000,3.620011962890625,0.016849547624588013,0.008253015577793121,-0.02619672194123268
1782845906006017000,3.63001708984375,0.015335764735937119,0.001301680924370885,-0.008656304329633713
1782845906016022000,3.64002197265625,0.011399080976843834,-0.00746091827750206,0.008521617390215397
1782845906026027000,3.650027099609375,0.008953443728387356,-0.001903672469779849,0.015672795474529266
1782845906036032000,3.660031982421875,0.007315333932638168,0.004498833324760199,0.024149104952812195
1782845906046037000,3.670037109375,0.00466260127723217,0.006584839429706335,0.022223331034183502
1782845906056042000,3.6800419921875,0.0030053164809942245,0.005022895522415638,0.01793457753956318
1782845906066047000,3.690046875,0.000822111964225769,0.0012939099688082933,0.012795950286090374
1782845906076050700,3.70005078125,-0.0056608207523822784,0.0006358427926898003,0.010019871406257153
1782845906086055700,3.7100556640625,-0.010868577286601067,0.003085657488554716,0.0016076859319582582
1782845906096060700,3.720060791015625,-0.014406586065888405,0.007714497856795788,-0.002673878101631999
1782845906106065700,3.730065673828125,-0.01768946461379528,0.005746687762439251,-0.007856123149394989
1782845906116070700,3.740070556640625,-0.016751233488321304,0.0017871002200990915,-0.010768290609121323
1782845906126075600,3.75007568359375,-0.01622380129992962,0.00635134894400835,-0.016501400619745255
1782845906136080600,3.76008056640625,-0.01725817285478115,0.011316812597215176,-0.0173200573772192
1782845906146086000,3.7700859375,-0.014626056887209415,0.00897945836186409,-0.013339540921151638
1782845906156091000,3.7800908203125,-0.010907218791544437,0.007209521718323231,-0.0015731623861938715
1782845906166096000,3.790095947265625,-0.003410141449421644,0.004394581075757742,0.005051968619227409
1782845906176100900,3.800100830078125,-0.002556065795943141,0.00006135157309472561,0.01492723636329174
1782845906186104800,3.810104736328125,-0.00004414585418999195,-0.0007396859582513571,0.019143519923090935
1782845906196109800,3.82010986328125,-0.00006944569759070873,0.007558457553386688,0.02266448549926281
1782845906206115000,3.830114990234375,-0.0023808851838111877,0.015185736119747162,0.024533048272132874
1782845906216120000,3.8401201171875,-0.008434516377747059,0.019365569576621056,0.02470295876264572
1782845906226125000,3.850125,-0.011511408723890781,0.015238966792821884,0.0254445169121027
1782845906236130000,3.860130126953125,-0.016796719282865524,0.013426951132714748,0.02617182582616806
1782845906246135000,3.870135009765625,-0.017297642305493355,0.006336994934827089,0.024031968787312508
1782845906256140000,3.88014013671875,-0.015973785892128944,0.0030003204010427,0.023523837327957153
1782845906266145000,3.89014501953125,-0.00856829434633255,-0.0013221942353993654,0.01657959446310997
1782845906276150000,3.90014990234375,-0.004408436361700296,-0.0003767721354961395,0.008586648851633072
1782845906286155000,3.910155029296875,-0.0034316577948629856,-0.0004044624511152506,0.0005184114561416209
1782845906296159000,3.920158935546875,0.0024496670812368393,0.004006531089544296,-0.005421769339591265
1782845906306164000,3.9301640625,0.003998941741883755,0.00520292529836297,-0.0055268071591854095
1782845906316169000,3.9401689453125,0.004443689715117216,0.004205571487545967,-0.008496765047311783
1782845906326174000,3.950174072265625,0.00093512749299407,0.005607090890407562,-0.010360068641602993
1782845906336179000,3.960178955078125,-0.0007048470433801413,0.0038201098795980215,-0.008788537234067917
1782845906346184000,3.970183837890625,0.0027831504121422768,0.00516391359269619,-0.011139634996652603
1782845906356189000,3.98018896484375,0.0023040478117763996,0.005151396617293358,-0.01292874664068222
1782845906366194000,3.99019384765625,0.0033647846430540085,0.002010731026530266,-0.017353055998682976
1782845906376199000,4.000198974609375,0.0028912746347486973,-0.0007261994760483503,-0.01592746563255787
1782845906386204000,4.010203857421875,0.0008712830021977425,-0.0036674838047474623,-0.016631081700325012
1782845906396209000,4.020208984375,-0.005667310208082199,-0.005483493208885193,-0.010289829224348068
1782845906406213000,4.030213134765625,-0.012876922264695168,-0.002497366163879633,-0.008108532987535
1782845906416218000,4.040218017578125,-0.01609189063310623,0.0025794177781790495,0.0023265311028808355
1782845906426223000,4.05022314453125,-0.020693033933639526,0.0035706465132534504,0.010011881589889526
1782845906436228000,4.06022802734375,-0.019228560850024223,0.004691837355494499,0.016263386234641075
1782845906446233000,4.070233154296875,-0.013970165513455868,0.004715895280241966,0.020258933305740356
1782845906456238000,4.080238037109375,-0.013622090220451355,0.002816262422129512,0.011275026947259903
1782845906466243000,4.0902431640625,-0.006867219693958759,0.005941413342952728,0.0018178509781137109
1782845906476248000,4.100248046875,-0.0065489718690514565,0.006276438944041729,-0.005154304206371307
1782845906486253000,4.110253173828125,-0.004683664999902248,0.006491287611424923,-0.011391719803214073
1782845906496258000,4.120258056640625,-0.004096970893442631,0.003418266074731946,-0.017074640840291977
1782845906506263000,4.130262939453125,-0.003552831709384918,-0.0014138005208224058,-0.015382790006697178
1782845906516267000,4.14026708984375,-0.008950525894761086,-0.003526486223563552,-0.014533508569002151
1782845906526272000,4.15027197265625,-0.005508854519575834,-0.0028468540403991938,-0.009010453708469868
1782845906536277000,4.160277099609375,-0.004672355949878693,0.004849148914217949,-0.006896170787513256
1782845906546282000,4.170281982421875,-0.0009853465016931295,0.008540303446352482,-0.004670684691518545
1782845906556287000,4.180286865234375,-0.003389115910977125,0.007046269252896309,0.0033632731065154076
1782845906566292000,4.1902919921875,-0.005571605172008276,0.009461559355258942,0.0007382217445410788
1782845906576297000,4.200296875,-0.002929483074694872,0.009924415498971939,-0.0013307880144566298
1782845906586302000,4.210302001953125,-0.0027474784292280674,0.007287033833563328,-0.005949091631919146
1782845906596307000,4.220306884765625,-0.0037139395717531443,0.003797227283939719,-0.008633824065327644
1782845906606312000,4.23031201171875,-0.00907884817570448,0.0005161440931260586,-0.009433597326278687
1782845906616316000,4.24031591796875,-0.008226903155446053,-0.002007467206567526,-0.011730040423572063
1782845906626321000,4.25032080078125,-0.013791494071483612,0.00273952167481184,-0.012706439010798931
1782845906636326000,4.260325927734375,-0.016563577577471733,0.0033983876928687096,-0.009380417875945568
1782845906646331000,4.270330810546875,-0.01779981702566147,0.0038687018677592278,-0.012984206900000572
1782845906656336000,4.2803359375,-0.019580939784646034,0.008186751045286655,-0.012495250441133976
1782845906666340900,4.2903408203125,-0.020031800493597984,0.01744205504655838,-0.004097520839422941
1782845906676345900,4.300345947265625,-0.023288313299417496,0.011967395432293415,-0.0014170490903779864
1782845906686351000,4.31035107421875,-0.019639402627944946,0.001968659460544586,0.002930452348664403
1782845906696356000,4.320356201171875,-0.017450017854571342,-0.0038900289218872786,0.008696994744241238
1782845906706361000,4.330361083984375,-0.01772163435816765,-0.004259900189936161,0.008656215853989124
1782845906716366000,4.340365966796875,-0.019572265446186066,-0.003552031936123967,0.005208221729844809
1782845906726369800,4.350369873046875,-0.019343385472893715,0.000608460046350956,0.0017878152430057526
1782845906736374800,4.360374755859375,-0.01491508074104786,0.0052514150738716125,-0.0012271495070308447
1782845906746379800,4.3703798828125,-0.010703753679990768,0.008462805300951004,-0.003969474229961634
1782845906756384800,4.380384765625,-0.012875028885900974,0.011527837254106998,-0.006009722128510475
1782845906766389800,4.3903896484375,-0.014685334637761116,0.016219738870859146,-0.003453468903899193
1782845906776394800,4.400394775390625,-0.01573275588452816,0.014754734933376312,0.0032284024637192488
1782845906786399700,4.410399658203125,-0.013592792674899101,0.010938793420791626,0.004426182713359594
1782845906796404700,4.42040478515625,-0.011914202943444252,0.007856983691453934,0.018045587465167046
1782845906806409700,4.43040966796875,-0.012832488864660263,0.00225615780800581,0.025514982640743256
1782845906816414700,4.440414794921875,-0.006432114634662867,-0.0033913415390998125,0.029664985835552216
1782845906826419000,4.4504189453125,-0.002268207026645541,-0.004314153455197811,0.025897353887557983
1782845906836424000,4.460423828125,-0.0023856523912400007,-0.0013242224231362343,0.016082540154457092
1782845906846429000,4.470428955078125,-0.002251737518236041,0.006244529038667679,0.005409698002040386
1782845906856434000,4.480433837890625,-0.004334595985710621,0.007777976803481579,-0.0038980497047305107
1782845906866439000,4.49043896484375,-0.0034084459766745567,0.0028450784739106894,-0.014411577954888344
1782845906876444000,4.50044384765625,-0.007061237469315529,-0.0017752395942807198,-0.01908462680876255
1782845906886449000,4.510448974609375,-0.0027379461098462343,-0.004362671636044979,-0.022641725838184357
1782845906896454000,4.520453857421875,-0.00030940957367420197,-0.0069097187370061874,-0.02385745942592621
1782845906906459000,4.530458984375,0.0055744098499417305,-0.0069295004941523075,-0.024155834689736366
1782845906916463900,4.5404638671875,0.00686337985098362,-0.008593443781137466,-0.021372830495238304
1782845906926468900,4.55046875,0.008937309496104717,-0.004420946352183819,-0.018130291253328323
1782845906936472800,4.560472900390625,0.01379704661667347,-0.005218030419200659,-0.019955089315772057
1782845906946477800,4.570477783203125,0.01254839077591896,-0.008881926536560059,-0.02044999785721302
1782845906956482800,4.58048291015625,0.01206316240131855,-0.010899270884692669,-0.026142770424485207
1782845906966487800,4.59048779296875,0.008858678862452507,-0.006194338668137789,-0.033481743186712265
1782845906976492800,4.600492919921875,0.00911700539290905,0.0014875492779538035,-0.03469347953796387
1782845906986497800,4.610497802734375,0.006011855788528919,0.004105095285922289,-0.03214360401034355
1782845906996502800,4.620502685546875,0.00797220878303051,0.009152051992714405,-0.02444174326956272
1782845907006507800,4.6305078125,0.010260520502924919,0.0011918297968804836,-0.01452612690627575
1782845907016512800,4.6405126953125,0.011978259310126305,-0.0041499389335513115,-0.00577790942043066
1782845907026517800,4.650517822265625,0.01312267780303955,-0.015687422826886177,0.0023289695382118225
1782845907036522800,4.660522705078125,0.01690010540187359,-0.023239081725478172,0.002794756554067135
1782845907046527000,4.67052685546875,0.016368847340345383,-0.021796230226755142,-0.005394505802541971
1782845907056532000,4.680531982421875,0.009953558444976807,-0.0143494987860322,-0.00898258201777935
1782845907066537000,4.690536865234375,0.009876999072730541,-0.0053795622661709785,-0.011570516973733902
1782845907076542000,4.7005419921875,0.007923836819827557,-0.002592297736555338,-0.013116482645273209
1782845907086547000,4.710546875,0.00820014625787735,0.0012089761439710855,-0.015347020700573921
1782845907096552000,4.720552001953125,0.007712521590292454,-0.004181527998298407,-0.013430610299110413
1782845907106557000,4.730556884765625,0.0052639273926615715,-0.006933809258043766,-0.012717598117887974
1782845907116562000,4.74056201171875,0.0052511440590023994,-0.009484052658081055,-0.013448369689285755
1782845907126567000,4.75056689453125,0.0015131179243326187,-0.01318347081542015,-0.014036646112799644
1782845907136572000,4.760572021484375,0.0002603670582175255,-0.010742682963609695,-0.019864706322550774
1782845907146576000,4.770575927734375,0.0014798152260482311,-0.014545964077115059,-0.01600523851811886
1782845907156580900,4.780580810546875,0.004062815103679895,-0.013635961338877678,-0.01781565696001053
1782845907166585900,4.7905859375,0.004429136402904987,-0.00958930142223835,-0.015639202669262886
1782845907176590800,4.8005908203125,-0.00033978582359850407,-0.0030325991101562977,-0.012853537686169147
1782845907186595800,4.810595947265625,-0.004491426981985569,-0.002675797790288925,-0.005868015810847282
1782845907196600800,4.820600830078125,-0.010342125780880451,-0.0012118583545088768,-0.0038645195309072733
1782845907206605800,4.830605712890625,-0.009101079776883125,0.0014348122058436275,0.0031350504141300917
1782845907216610800,4.84061083984375,-0.00922278594225645,-0.003303750418126583,0.007543914020061493
1782845907226615800,4.85061572265625,-0.005339883733540773,-0.001314881257712841,0.008801707997918129
1782845907236620800,4.860620849609375,-0.004219225607812405,-0.005492048803716898,0.003922264091670513
1782845907246625800,4.870625732421875,-0.0009638038463890553,-0.006334181874990463,0.002091640140861273
1782845907256629800,4.880629638671875,-0.0024338688235729933,-0.0033519743010401726,-0.006849124561995268
1782845907266634800,4.890634765625,-0.002233627950772643,0.0011163458693772554,-0.008624095469713211
1782845907276639700,4.9006396484375,-0.002839497057721019,0.007451740093529224,-0.0031851218082010746
1782845907286645000,4.91064501953125,-0.0025193141773343086,0.010744089260697365,0.000007674854714423418
1782845907296650000,4.92064990234375,-0.0025829635560512543,0.004333328455686569,0.011730111204087734
1782845907306655000,4.930655029296875,0.000977864721789956,0.0020439038053154945,0.016712170094251633
1782845907316660000,4.940659912109375,0.0026809563860297203,-0.0007710573263466358,0.01812710613012314
1782845907326665000,4.9506650390625,0.0035939854569733143,0.0034526411909610033,0.01223156787455082
1782845907336670000,4.960669921875,0.003196908161044121,0.01085622888058424,0.00237494264729321
1782845907346675000,4.970675048828125,0.0013492070138454437,0.011197379790246487,-0.008259326219558716
1782845907356680000,4.980679931640625,0.0011116531677544117,0.011086059734225273,-0.02079109661281109
1782845907366683600,4.99068359375,0.0027244635857641697,0.007401842623949051,-0.025033777579665184
1782845907376688600,5.000688720703125,0.0027982331812381744,0.007802115753293037,-0.023076089099049568
1782845907386693600,5.010693603515625,0.0023800190538167953,0.0009421540889889002,-0.018423181027173996
1782845907396698600,5.02069873046875,0.006641076412051916,0.002476401161402464,-0.01170455850660801
1782845907406703600,5.03070361328125,0.005783425644040108,0.0017950627952814102,-0.004489412996917963
1782845907416708600,5.04070849609375,0.009864985942840576,0.0026025332044810057,-0.0008179794531315565
1782845907426713600,5.050713623046875,0.008003228344023228,0.010554328560829163,0.006687822751700878
1782845907436718600,5.060718505859375,0.00900670699775219,0.013831615447998047,0.009331010282039642
1782845907446723600,5.0707236328125,0.0067031970247626305,0.013989239931106567,0.012269409373402596
1782845907456728800,5.080728759765625,0.004620072431862354,0.007557706441730261,0.006675706245005131
1782845907466732800,5.09073291015625,0.0045744506642222404,0.0037421814631670713,0.0006317525985650718
1782845907476737800,5.10073779296875,-0.0002876825165003538,0.0036393834743648767,-0.006833354011178017
1782845907486742800,5.11074267578125,-0.007427562028169632,0.003786096116527915,-0.012752553448081017
1782845907496747800,5.120747802734375,-0.010394057258963585,0.0026904717087745667,-0.019344676285982132
1782845907506752800,5.130752685546875,-0.010696465149521828,0.0055074202828109264,-0.020088620483875275
1782845907516757800,5.1407578125,-0.012587842531502247,0.007144198752939701,-0.02006944641470909
1782845907526762800,5.1507626953125,-0.014622652903199196,0.008072788827121258,-0.015763498842716217
1782845907536767700,5.160767822265625,-0.009002052247524261,0.00998387299478054,-0.010186039842665195
1782845907546772700,5.170772705078125,-0.009787331335246563,0.0071639129891991615,-0.0004866198287345469
1782845907556777700,5.18077783203125,-0.008194494992494583,0.0024818095844238997,0.003645807271823287
1782845907566782700,5.19078271484375,-0.0054384758695960045,-0.0021564129274338484,0.002550262026488781
1782845907576786700,5.20078662109375,-0.0011071108747273684,-0.0028347198385745287,-0.004089797381311655
1782845907586791700,5.210791748046875,0.00441949674859643,0.00007922202348709106,-0.016454331576824188
1782845907596796700,5.220796630859375,0.005637626629322767,0.004378096666187048,-0.02194257453083992
1782845907606801700,5.2308017578125,0.0096456129103899,0.007479730062186718,-0.021797895431518555
1782845907616806700,5.240806640625,0.01246856339275837,0.008654450997710228,-0.024194741621613503
1782845907626811600,5.250811767578125,0.016329685226082802,0.008156322874128819,-0.021020321175456047
1782845907636816600,5.260816650390625,0.022499164566397667,0.008987495675683022,-0.016417846083641052
1782845907646821600,5.270821533203125,0.024557914584875107,0.004993942100554705,-0.010528658516705036
1782845907656826600,5.28082666015625,0.023092111572623253,0.002299355808645487,-0.005158925894647837
1782845907666831600,5.29083154296875,0.02714102528989315,-0.0010291177313774824,-0.006551074795424938
1782845907676836600,5.300836669921875,0.030731230974197388,-0.002458968898281455,-0.006643752567470074
1782845907686840800,5.3108408203125,0.033514149487018585,-0.0043134987354278564,-0.007951281033456326
1782845907696845800,5.320845703125,0.034301113337278366,-0.005922047421336174,-0.01053561270236969
1782845907706850800,5.330850830078125,0.03377967327833176,-0.009530473500490189,-0.012204346247017384
1782845907716855800,5.340855712890625,0.03266274183988571,-0.01017655711621046,-0.01606406457722187
1782845907726860800,5.35086083984375,0.030658472329378128,-0.008851859718561172,-0.02040611207485199
1782845907736865800,5.36086572265625,0.02670421078801155,-0.009046802297234535,-0.026740174740552902
1782845907746870800,5.370870849609375,0.021532226353883743,-0.00447614211589098,-0.03290100395679474
1782845907756875800,5.380875732421875,0.01850314810872078,-0.0006627619732171297,-0.03584140166640282
1782845907766880800,5.390880859375,0.014972257427871227,-0.002253618324175477,-0.03040156327188015
1782845907776885800,5.4008857421875,0.010158061049878597,-0.0033764068502932787,-0.023882944136857986
1782845907786889700,5.4108896484375,0.0063468837179243565,-0.011784231290221214,-0.008304581977427006
1782845907796894700,5.420894775390625,0.001126289600506425,-0.018103914335370064,0.0021339445374906063
1782845907806899700,5.430899658203125,-0.0008792128646746278,-0.01702483370900154,0.004092039540410042
1782845907816904700,5.44090478515625,-0.005611117463558912,-0.012333676218986511,0.004194038454443216
1782845907826909700,5.45090966796875,-0.0077749937772750854,-0.010847494937479496,0.004929654765874147
1782845907836914700,5.460914794921875,-0.01018222514539957,-0.006351280026137829,0.00011386058758944273
1782845907846919700,5.470919677734375,-0.01268331054598093,-0.00583297573029995,-0.005795311648398638
1782845907856924700,5.480924560546875,-0.01199328526854515,-0.0033921883441507816,-0.013251629658043385
1782845907866929700,5.4909296875,-0.010538959875702858,-0.002531761536374688,-0.015190381556749344
1782845907876934700,5.5009345703125,-0.014096143655478954,0.00564973521977663,-0.015337387099862099
1782845907886939000,5.51093896484375,-0.009736213833093643,0.006336824037134647,-0.010369597934186459
1782845907896943900,5.52094384765625,-0.0070458888076245785,-0.001541871577501297,-0.002367598470300436
1782845907906948900,5.530948974609375,-0.002209432888776064,-0.01186502818018198,0.00967319868505001
1782845907916953900,5.540953857421875,0.0038636396639049053,-0.016371630132198334,0.016971061006188393
1782845907926958800,5.550958740234375,0.0010910779237747192,-0.01694823056459427,0.018220024183392525
1782845907936963800,5.5609638671875,0.001444213092327118,-0.012203543446958065,0.015652738511562347
1782845907946968800,5.57096875,-0.0017998544499278069,-0.0030892910435795784,0.015698080882430077
1782845907956973800,5.580973876953125,-0.004052089527249336,0.0011768268886953592,0.012356079183518887
1782845907966978800,5.590978759765625,0.0003278849180787802,0.0014033387415111065,0.01362147182226181
1782845907976983800,5.60098388671875,0.0016794390976428986,-0.0022856721188873053,0.01644708588719368
1782845907986988800,5.61098876953125,0.005596318747848272,-0.006877419538795948,0.019027788192033768
1782845907996992800,5.62099267578125,0.011986041441559792,-0.011487884446978569,0.015438379719853401
1782845908006997800,5.630997802734375,0.01544952392578125,-0.0101323826238513,0.003243990009650588
1782845908017002800,5.641002685546875,0.019090864807367325,-0.010763818398118019,-0.005645109340548515
1782845908027007700,5.6510078125,0.016351019963622093,-0.010299185290932655,-0.017702581360936165
1782845908037012700,5.6610126953125,0.018719634041190147,-0.00951381865888834,-0.02694321796298027
1782845908047017700,5.671017822265625,0.01409289799630642,-0.013090376742184162,-0.02903483808040619
1782845908057022700,5.681022705078125,0.012503787875175476,-0.014974297024309635,-0.030526207759976387
1782845908067027700,5.69102783203125,0.0075710229575634,-0.014003170654177666,-0.026782285422086716
1782845908077032700,5.70103271484375,0.0018609396647661924,-0.012053736485540867,-0.021700972691178322
1782845908087037700,5.71103759765625,-0.003177549922838807,-0.010160734876990318,-0.016872338950634003
1782845908097042700,5.721042724609375,-0.007019958458840847,-0.012097385711967945,-0.010546265169978142
1782845908107047000,5.731046875,-0.008749637752771378,-0.014995594508945942,-0.0028068916872143745
1782845908117052000,5.741052001953125,-0.011678049340844154,-0.020332835614681244,-0.0008294947911053896
1782845908127057000,5.751056884765625,-0.00906806904822588,-0.02369639277458191,0.0014343720395117998
1782845908137062000,5.761061767578125,-0.010013491846621037,-0.02117331698536873,-0.0018370549660176039
1782845908147067000,5.77106689453125,-0.008277207612991333,-0.011556832119822502,-0.0032063534017652273
1782845908157072000,5.78107177734375,-0.009632490575313568,-0.003912760876119137,0.001698124106042087
1782845908167076900,5.791076904296875,-0.007467789109796286,0.0002986663021147251,0.009217475540935993
1782845908177081900,5.801081787109375,-0.0029745036736130714,0.0033080384600907564,0.015828773379325867
1782845908187086800,5.8110869140625,0.0008467263542115688,0.0010221037082374096,0.024762222543358803
1782845908197091800,5.821091796875,0.0017716423608362675,0.00045431777834892273,0.02535237744450569
1782845908207096000,5.831095947265625,0.0056272828951478004,0.0009979645255953074,0.021921245381236076
1782845908217101000,5.84110107421875,0.007116256281733513,0.002675223397091031,0.017893746495246887
1782845908227106000,5.85110595703125,0.007961793802678585,0.000054762233048677444,0.006324985064566135
1782845908237111000,5.861111083984375,0.0036482717841863632,-0.00045363535173237324,-0.003879715921357274
1782845908247116000,5.871115966796875,0.007761355489492416,-0.0008039160165935755,-0.01716393046081066
1782845908257121000,5.88112109375,0.006706210784614086,-0.0017599908169358969,-0.034211888909339905
1782845908267126000,5.8911259765625,0.007578567136079073,0.001103139016777277,-0.0491020493209362
1782845908277131000,5.901131103515625,0.006973230745643377,0.007295255083590746,-0.05781697854399681
1782845908287136000,5.911135986328125,0.004315519705414772,0.00926702469587326,-0.049564771354198456
1782845908297141000,5.92114111328125,0.0011876372154802084,0.007920264266431332,-0.036270804703235626
1782845908307145200,5.931145263671875,0.00044043874368071556,0.004412785638123751,-0.023281585425138474
1782845908317150200,5.941150146484375,0.005059957969933748,0.002735793124884367,-0.007925000041723251
1782845908327155200,5.9511552734375,0.004800916649401188,0.0008581692818552256,0.006089003290981054
1782845908337160200,5.96116015625,0.005803064443171024,0.005493135191500187,0.01095592975616455
1782845908347165200,5.971165283203125,0.009453949518501759,0.0038918235804885626,0.011334939859807491
1782845908357170200,5.981170166015625,0.00898230355232954,0.008076447993516922,0.004598207306116819
1782845908367175200,5.991175048828125,0.008669187314808369,0.004086118191480637,-0.00000327063025906682
1782845908377180200,6.00118017578125,0.0006685189437121153,0.0051844059489667416,0.00021590752294287086
1782845908387185200,6.01118505859375,0.0017602171283215284,0.011745895259082317,-0.0038050059229135513
1782845908397190100,6.021190185546875,0.0012472921516746283,0.01113097183406353,-0.0021924618631601334
1782845908407195100,6.031195068359375,-0.0024055284447968006,0.011352349072694778,0.0016630213940516114
1782845908417199000,6.04119921875,-0.0009437194094061852,0.01009373925626278,0.006604516878724098
1782845908427204000,6.0512041015625,-0.003911306150257587,0.011599182151257992,0.004799458663910627
1782845908437209000,6.061208984375,-0.005581906996667385,0.009829511865973473,0.007594712544232607
1782845908447214000,6.071214111328125,-0.0032629240304231644,0.004430560860782862,0.005381991155445576
1782845908457219000,6.081218994140625,-0.0035305717028677464,0.0042220354080200195,0.004981451667845249
1782845908467224000,6.09122412109375,-0.004918767139315605,-0.001083302078768611,-0.001338344532996416
1782845908477229000,6.10122900390625,-0.010233903303742409,-0.0015914335381239653,-0.005278490949422121
1782845908487234000,6.111234130859375,-0.014542154967784882,0.007238304242491722,-0.007093643769621849
1782845908497239000,6.121239013671875,-0.01856778934597969,0.008927547372877598,-0.00067515968112275
1782845908507244000,6.131244140625,-0.02259201928973198,0.007968693040311337,0.007718523032963276
1782845908517248300,6.141248291015625,-0.01881379261612892,0.013119246810674667,0.01848035678267479
1782845908527253200,6.151253173828125,-0.020290249958634377,0.012799134477972984,0.028645111247897148
1782845908537258200,6.16125830078125,-0.021737677976489067,0.009801747277379036,0.04153720661997795
1782845908547263200,6.17126318359375,-0.016967901960015297,0.007409934885799885,0.04246313124895096
1782845908557268200,6.181268310546875,-0.013733225874602795,0.00960650946944952,0.041231151670217514
1782845908567273200,6.191273193359375,-0.016693076118826866,0.007104183547198772,0.03421560302376747
1782845908577278200,6.2012783203125,-0.01259154174476862,0.010841396637260914,0.02715822495520115
1782845908587283200,6.211283203125,-0.011406546458601952,0.006072529591619968,0.02491702139377594
1782845908597288200,6.2212880859375,-0.008822214789688587,0.0014418249484151602,0.015521388500928879
1782845908607293200,6.231293212890625,-0.00176303181797266,0.002030520001426339,0.010428947396576405
1782845908617298200,6.241298095703125,0.001692419871687889,0.006523805670440197,-0.00011077855015173554
1782845908627302100,6.25130224609375,0.0014674537815153599,0.004912476986646652,-0.0030946535989642143
1782845908637307100,6.26130712890625,0.0032547011505812407,0.0013190734898671508,-0.00860340241342783
1782845908647312100,6.27131201171875,-0.0002986704930663109,-0.004711749963462353,-0.01593543402850628
1782845908657317000,6.281317138671875,-0.0017136079259216785,-0.005430270917713642,-0.026700198650360107
1782845908667322000,6.291322021484375,-0.004321754910051823,-0.00657393503934145,-0.027732593938708305
1782845908677327000,6.3013271484375,-0.0025539484340697527,-0.007468490861356258,-0.023108014836907387
1782845908687332000,6.31133203125,0.0011913261841982603,-0.00779484398663044,-0.019068868830800056
1782845908697337000,6.321337158203125,0.002592415316030383,-0.005885357968509197,-0.004183928482234478
1782845908707342000,6.331342041015625,0.004998873919248581,-0.010141314007341862,0.009733721613883972
1782845908717347000,6.34134716796875,0.0033836669754236937,-0.007398791611194611,0.024600286036729813
1782845908727351000,6.35135107421875,0.0013832978438585997,-0.009981518611311913,0.03708206117153168
1782845908737356300,6.361356201171875,-0.003500673221424222,-0.010974610224366188,0.04786120727658272
1782845908747361300,6.371361328125,-0.0051978216506540775,-0.01453135721385479,0.049431588500738144
1782845908757366300,6.3813662109375,-0.008756337687373161,-0.016897043213248253,0.04531806707382202
1782845908767371300,6.391371337890625,-0.008296703919768333,-0.01288865227252245,0.034693147987127304
1782845908777376300,6.401376220703125,-0.006876174360513687,-0.011946425773203373,0.02209906093776226
1782845908787381200,6.41138134765625,0.001498333178460598,-0.01160446833819151,0.008713283576071262
1782845908797386200,6.42138623046875,0.007338911760598421,-0.01025504432618618,-0.007341582328081131
1782845908807391200,6.43139111328125,0.010350804775953293,-0.01054749358445406,-0.016812177374958992
1782845908817396200,6.441396240234375,0.008007222786545753,-0.01055228803306818,-0.02551805041730404
1782845908827400000,6.45139990234375,0.0034440914168953896,-0.008363584987819195,-0.030607817694544792
1782845908837405000,6.461405029296875,-0.0037544327788054943,-0.013017193414270878,-0.027265017852187157
1782845908847410000,6.471409912109375,-0.008532322943210602,-0.014135126955807209,-0.022211482748389244
1782845908857415000,6.481414794921875,-0.013973427936434746,-0.010824019089341164,-0.015527746640145779
1782845908867420000,6.491419921875,-0.015447292476892471,-0.008814281783998013,-0.011857575736939907
1782845908877425000,6.5014248046875,-0.01730218343436718,-0.008180716075003147,-0.00476025091484189
1782845908887430000,6.511429931640625,-0.01302227284759283,-0.007672024425119162,0.0006516152643598616
1782845908897435000,6.521434814453125,-0.01494294498115778,-0.007323682773858309,0.004702016711235046
1782845908907440000,6.531440185546875,-0.013731781393289566,-0.0038370247930288315,0.0024490244686603546
1782845908917445000,6.541445068359375,-0.013766402378678322,-0.008393160998821259,0.007463224232196808
1782845908927449000,6.551448974609375,-0.01269526593387127,-0.00834626890718937,0.009059241972863674
1782845908937454000,6.5614541015625,-0.018277518451213837,-0.012274963781237602,0.00798359140753746
1782845908947459000,6.571458984375,-0.01792079396545887,-0.011565906926989555,0.007156820502132177
1782845908957464000,6.581464111328125,-0.022949641570448875,-0.006894988939166069,0.0036750035360455513
1782845908967469000,6.591468994140625,-0.02242986299097538,0.0008874158374965191,-0.00009463232709094882
1782845908977474000,6.60147412109375,-0.02478276565670967,0.0006349482573568821,0.0005242862971499562
1782845908987479000,6.61147900390625,-0.02181447483599186,-0.004846362397074699,0.002658881712704897
1782845908997484000,6.621484130859375,-0.01826767809689045,-0.005602966994047165,0.004313770215958357
1782845909007489000,6.631489013671875,-0.015354110859334469,-0.008373460732400417,0.0015456085093319416
1782845909017494000,6.641493896484375,-0.013381773605942726,-0.004662611521780491,0.0013282946310937405
1782845909027499000,6.6514990234375,-0.014098609797656536,-0.004481988027691841,0.0064454758539795876
1782845909037503000,6.6615029296875,-0.015913287177681923,-0.004798104986548424,0.006185018457472324
1782845909047508000,6.671508056640625,-0.01785980723798275,-0.0034991928841918707,0.01239312719553709
1782845909057513000,6.681512939453125,-0.01702730357646942,0.00005080108530819416,0.015598507598042488
1782845909067518000,6.69151806640625,-0.016635917127132416,-0.00019999360665678978,0.016615135595202446
1782845909077523000,6.70152294921875,-0.016025787219405174,0.011630300432443619,0.01976139284670353
1782845909087528000,6.71152783203125,-0.014585996977984905,0.0103811826556921,0.02191101387143135
1782845909097533000,6.721532958984375,-0.012431499548256397,0.006757685448974371,0.020987162366509438
1782845909107538000,6.731537841796875,-0.009176444262266159,0.0015209891134873033,0.02138330228626728
1782845909117543000,6.74154296875,-0.008375098928809166,0.0010924865491688251,0.013479571789503098
1782845909127548000,6.7515478515625,-0.007683349773287773,0.0016380244633182883,0.006948309484869242
1782845909137552100,6.76155224609375,-0.005899830721318722,0.007331596687436104,0.0007623186684213579
1782845909147557000,6.77155712890625,-0.0068215662613511086,0.00981162115931511,-0.0007114621694199741
1782845909157562000,6.78156201171875,-0.006931820884346962,0.011900338344275951,0.00365851866081357
1782845909167567000,6.791567138671875,-0.0035092532634735107,0.008749429136514664,0.01493446808308363
1782845909177572000,6.801572021484375,0.0022005641367286444,-0.0015961523167788982,0.023074153810739517
1782845909187577000,6.8115771484375,0.0009863313753157854,-0.005241411738097668,0.029523363336920738
1782845909197582000,6.82158203125,-0.002043546875938773,-0.007113347761332989,0.03290531039237976
1782845909207587000,6.831587158203125,-0.003365890821442008,-0.003480434650555253,0.0320340059697628
1782845909217592600,6.841592529296875,-0.002709155436605215,-0.00045082252472639084,0.0335775762796402
1782845909227597600,6.85159765625,-0.0019863180350512266,0.002801668830215931,0.03592829406261444
1782845909237601500,6.8616015625,-0.0007295723771676421,0.0032802389468997717,0.04125834256410599
1782845909247606500,6.8716064453125,0.0033965078182518482,0.007613577879965305,0.04093845933675766
1782845909257611500,6.881611572265625,0.005799743812531233,0.011567573063075542,0.04055869206786156
1782845909267616500,6.891616455078125,0.0049552274867892265,0.013745307922363281,0.0399794839322567
1782845909277621500,6.90162158203125,0.0101246889680624,0.015336280688643456,0.0325964018702507
1782845909287626500,6.91162646484375,0.008509118109941483,0.013736594468355179,0.02613726817071438
1782845909297631500,6.921631591796875,0.004039534367620945,0.011195139959454536,0.014695795252919197
1782845909307636500,6.931636474609375,0.004925007000565529,0.01199389062821865,-0.0021108544897288084
1782845909317641500,6.941641357421875,0.0065649813041090965,0.010201316326856613,-0.01994497887790203
1782845909327646500,6.951646484375,0.004889320582151413,0.010685479268431664,-0.03244639188051224
1782845909337650400,6.961650390625,0.009119751863181591,0.012639440596103668,-0.03559211641550064
1782845909347655400,6.971655517578125,0.007462142966687679,0.010606786236166954,-0.03612016886472702
1782845909357660400,6.981660400390625,0.011820139363408089,0.0038327700458467007,-0.02257559821009636
1782845909367665400,6.99166552734375,0.015480839647352695,-0.001463738502934575,-0.004984796978533268
1782845909377670400,7.00167041015625,0.018314175307750702,-0.005355415865778923,0.008310767821967602
1782845909387675600,7.011675537109375,0.022312071174383163,-0.0027097840793430805,0.02112780511379242
1782845909397680600,7.0216806640625,0.026167796924710274,0.007331931032240391,0.023615730926394463
1782845909407685600,7.031685546875,0.027813447639346123,0.010533221997320652,0.022524017840623856
1782845909417690600,7.041690673828125,0.02689785324037075,0.007567259483039379,0.015670638531446457
1782845909427695600,7.051695556640625,0.027890171855688095,0.002165344078093767,0.00889685656875372
1782845909437700600,7.06170068359375,0.029872894287109375,0.004379495978355408,-0.005143593996763229
1782845909447704600,7.07170458984375,0.026738174259662628,0.0014097100356593728,-0.015086588449776173
1782845909457709600,7.08170947265625,0.021538618952035904,0.0038366487715393305,-0.02652806229889393
1782845909467714600,7.091714599609375,0.020343825221061707,0.013174565508961678,-0.031608741730451584
1782845909477719600,7.101719482421875,0.01568089798092842,0.009117240086197853,-0.02646617777645588
1782845909487724500,7.111724609375,0.009857898578047752,-0.0017517628148198128,-0.013722152449190617
1782845909497729500,7.1217294921875,0.006186997052282095,-0.006624281872063875,-0.005394713953137398
1782845909507734500,7.131734619140625,0.004620201885700226,-0.009719004854559898,-0.0010457156458869576
1782845909517739500,7.141739501953125,0.0009692739695310593,-0.004890427924692631,0.000794528576079756
1782845909527744500,7.15174462890625,-0.0006434806855395436,-0.0028257062658667564,-0.0013232738710939884
1782845909537749500,7.16174951171875,-0.003937278408557177,-0.003554081078618765,-0.003262321697548032
1782845909547753500,7.17175341796875,-0.006197853945195675,-0.00115873827598989,-0.009478322230279446
1782845909557758500,7.181758544921875,-0.010905523784458637,-0.0020636802073568106,-0.011624030768871307
1782845909567763500,7.191763427734375,-0.013828188180923462,-0.007000327110290527,-0.012936056591570377
1782845909577768400,7.2017685546875,-0.01886529102921486,-0.005348102189600468,-0.009485932067036629
1782845909587773400,7.2117734375,-0.0214226134121418,-0.007236870937049389,-0.007928628474473953
1782845909597778400,7.2217783203125,-0.021991729736328125,-0.0020753981079906225,-0.004941094666719437
1782845909607783700,7.23178369140625,-0.017196133732795715,-0.001959332497790456,-0.003442575456574559
1782845909617788700,7.24178857421875,-0.016333002597093582,0.002229020930826664,0.001769763184711337
1782845909627793700,7.251793701171875,-0.014048180542886257,0.0019783424213528633,-0.0007571431924588978
1782845909637798700,7.261798583984375,-0.012420722283422947,0.00037112459540367126,0.001185100176371634
1782845909647802600,7.271802734375,-0.009511134587228298,-0.003228765679523349,0.00026995441294275224
1782845909657807600,7.2818076171875,-0.010405957698822021,-0.00447752233594656,-0.0015066403429955244
1782845909667812600,7.2918125,-0.013499245047569275,-0.0012439526617527008,-0.0083346888422966
1782845909677817600,7.301817626953125,-0.016396231949329376,0.00043889880180358887,-0.012530232779681683
1782845909687822600,7.311822509765625,-0.017618119716644287,0.004448622465133667,-0.010361594147980213
1782845909697827600,7.32182763671875,-0.02093402110040188,-0.0009725082200020552,-0.011602627113461494
1782845909707832600,7.33183251953125,-0.020645305514335632,-0.0016671288758516312,-0.012513721361756325
1782845909717837600,7.341837646484375,-0.023958809673786163,0.00256676459684968,-0.007831085473299026
1782845909727842600,7.351842529296875,-0.0211663618683815,0.0011182373855262995,0.002191059524193406
1782845909737847600,7.36184765625,-0.021806851029396057,0.0008713621646165848,0.004155939444899559
1782845909747851500,7.3718515625,-0.01421506330370903,-0.00032616546377539635,0.0060007949359714985
1782845909757856500,7.3818564453125,-0.013342078775167465,0.0033745630644261837,0.0034947602543979883
1782845909767861500,7.391861572265625,-0.00869990698993206,0.005277568474411964,0.002074219286441803
1782845909777866500,7.401866455078125,-0.00725327804684639,0.006250155158340931,0.0009524959605187178
1782845909787871500,7.41187158203125,-0.007593012880533934,0.006560850888490677,0.007519767619669437
1782845909797876500,7.42187646484375,-0.007327761966735125,0.007911605760455132,0.003285873681306839
1782845909807881500,7.431881591796875,-0.006046418100595474,0.0068880775943398476,0.003236240241676569
1782845909817886500,7.441886474609375,-0.006918070837855339,0.004096286371350288,-0.0012077766004949808
1782845909827891700,7.4518916015625,-0.008039933629333973,0.009301290847361088,-0.0005237361183390021
1782845909837896700,7.461896728515625,-0.005892094224691391,0.013039303943514824,-0.0012843349250033498
1782845909847900700,7.471900634765625,-0.004886147100478411,0.009519021958112717,0.0005497141974046826
1782845909857905700,7.48190576171875,-0.0025082107167690992,0.01122371107339859,0.0014597163535654545
1782845909867910700,7.49191064453125,-0.0011955252848565578,0.0015300915110856295,0.0005228022928349674
1782845909877915600,7.50191552734375,0.004616024903953075,0.0009178307373076677,0.0015963225159794092
1782845909887920600,7.511920654296875,0.006363212130963802,0.004383033607155085,0.002134924288839102
1782845909897925600,7.521925537109375,0.002506421646103263,0.007741812616586685,0.0002456778893247247
1782845909907930600,7.5319306640625,0.0003865875769406557,0.009536468423902988,0.0019756255205720663
1782845909917935600,7.541935546875,-0.0032853789161890745,0.013192722573876381,0.003263530321419239
1782845909927940600,7.551940673828125,-0.004578441381454468,0.007748231291770935,0.008785692974925041
1782845909937945600,7.561945556640625,-0.0046306392177939415,0.004812628962099552,0.008537220768630505
1782845909947949600,7.571949462890625,-0.006944575347006321,0.003932890947908163,0.006679581943899393
1782845909957954600,7.58195458984375,-0.011486330069601536,0.0018606852972880006,0.001519973622635007
1782845909967959600,7.59195947265625,-0.009836755692958832,0.0004660084377974272,-0.00141644268296659
1782845909977964500,7.601964599609375,-0.00856482982635498,-0.001400601351633668,-0.008474086411297321
1782845909987969500,7.611969482421875,-0.011834769509732723,0.00043250713497400284,-0.008749077096581459
1782845909997974500,7.621974609375,-0.007163318805396557,-0.004590481054037809,-0.009212733246386051
1782845910007979500,7.6319794921875,-0.006329807452857494,-0.000897072721272707,-0.003391009522601962
1782845910017984500,7.641984619140625,-0.0015185403171926737,0.005240714643150568,-0.0008777843904681504
1782845910027989500,7.651989501953125,0.0005827492568641901,0.007890266366302967,0.00028223067056387663
1782845910037994500,7.661994384765625,0.008274758234620094,0.006257482338696718,0.0009264493128284812
1782845910047999700,7.671999755859375,0.014703953638672829,0.004765442572534084,0.008834919892251492
1782845910058003700,7.682003662109375,0.017911996692419052,0.00038480921648442745,0.008082044310867786
1782845910068008700,7.6920087890625,0.02248363569378853,-0.002230442361906171,0.008917953819036484
1782845910078013700,7.702013671875,0.019558951258659363,0.001012222608551383,0.0032917598728090525
1782845910088018700,7.712018798828125,0.02058824896812439,0.003100386820733547,-0.0034825080074369907
1782845910098023700,7.722023681640625,0.0232269074767828,0.00498324166983366,-0.011282906867563725
1782845910108028700,7.732028564453125,0.022151833400130272,0.007355538196861744,-0.014889401383697987
1782845910118033700,7.74203369140625,0.0208215843886137,0.009886340238153934,-0.015245732851326466
1782845910128038700,7.75203857421875,0.021655559539794922,0.0039063552394509315,-0.018864309415221214
1782845910138043600,7.762043701171875,0.02001238986849785,-0.0004135584458708763,-0.016045620664954185
1782845910148048600,7.772048583984375,0.0164352860301733,0.0012671351432800293,-0.020034292712807655
1782845910158052600,7.782052490234375,0.010164341889321804,-0.0006159860640764236,-0.019319767132401466
1782845910168057600,7.7920576171875,0.008683890104293823,-0.002517482964321971,-0.023295067250728607
1782845910178062600,7.8020625,0.004237210378050804,-0.0029686226043850183,-0.01951124705374241
1782845910188067600,7.812067626953125,0.0011859575752168894,-0.002820543944835663,-0.018237121403217316
1782845910198072600,7.822072509765625,0.0029574923682957888,-0.0017464910633862019,-0.01682324893772602
1782845910208077600,7.83207763671875,0.004323103465139866,-0.000620103906840086,-0.016066323965787888
1782845910218082300,7.842082275390625,0.0091037442907691,0.0024220249615609646,-0.012075844220817089
1782845910228087600,7.852087646484375,0.010784548707306385,0.004222492687404156,-0.007943500764667988
1782845910238092500,7.862092529296875,0.016603555530309677,0.004788680467754602,-0.0012371283955872059
1782845910248097500,7.87209765625,0.021015558391809464,0.007940292358398438,0.0030684610828757286
1782845910258101500,7.8821015625,0.025735212489962578,0.008900095708668232,0.007815811783075333
1782845910268106500,7.8921064453125,0.026291141286492348,0.005639444570988417,0.013306325301527977
1782845910278111500,7.902111572265625,0.02707890421152115,-0.0022720082197338343,0.01182161271572113
1782845910288116500,7.912116455078125,0.028592882677912712,-0.013122723437845707,0.011067166924476624
1782845910298121500,7.92212158203125,0.026728937402367592,-0.018130796030163765,0.00573498522862792
1782845910308126500,7.93212646484375,0.02761783078312874,-0.01574300043284893,-0.008050796575844288
1782845910318131500,7.94213134765625,0.02251867763698101,-0.012379961088299751,-0.011807717382907867
1782845910328136400,7.952136474609375,0.015004665590822697,-0.01174114365130663,-0.02018718607723713
1782845910338141400,7.962141357421875,0.012457085773348808,-0.006285391747951508,-0.026823783293366432
1782845910348146400,7.972146484375,0.00787318404763937,-0.0011838336940854788,-0.030956940725445747
1782845910358150100,7.982150146484375,0.0032789648976176977,0.0034623173996806145,-0.028884466737508774
1782845910368155100,7.992155029296875,-0.0028438821900635958,0.005882106255739927,-0.016449397429823875
1782845910378160400,8.002160400390625,-0.007125712465494871,0.0013286333996802568,-0.0024070818908512592
1782845910388165400,8.012165283203124,-0.011323540471494198,-0.0043991911225020885,0.013566712848842144
1782845910398170400,8.02217041015625,-0.01509164646267891,-0.00475419033318758,0.026775194332003593
1782845910408175400,8.03217529296875,-0.018137183040380478,-0.007594744674861431,0.036923911422491074
1782845910418180400,8.042180419921875,-0.019969437271356583,-0.007398736663162708,0.04314878582954407
1782845910428185300,8.052185302734374,-0.021087389439344406,-0.0009739082306623459,0.0421745590865612
1782845910438190300,8.0621904296875,-0.021035192534327507,0.006878156214952469,0.02764621563255787
1782845910448195600,8.072195556640626,-0.020237980410456657,0.013784920796751976,0.014153982512652874
1782845910458199300,8.08219921875,-0.02235918864607811,0.014667492359876633,0.004513871390372515
1782845910468204300,8.092204345703125,-0.017817238345742226,0.015704642981290817,0.0030478709377348423
1782845910478209300,8.102209228515624,-0.013711443170905113,0.011787399649620056,0.004444965161383152
1782845910488214300,8.11221435546875,-0.008378407917916775,0.004222397226840258,0.012887394987046719
1782845910498219300,8.12221923828125,0.0006483762990683317,0.0008444436825811863,0.016911964863538742
1782845910508224300,8.132224365234375,0.005855375900864601,0.0010127348359674215,0.013441081158816814
1782845910518229200,8.142229248046876,0.014020628295838833,0.0005224468186497688,0.009766185656189919
1782845910528234200,8.152234130859375,0.017217107117176056,0.001341799390502274,0.000750164152123034
1782845910538239200,8.1622392578125,0.018006466329097748,0.00134792469907552,-0.004033139441162348
1782845910548244500,8.172244384765625,0.0172638650983572,-0.001206149347126484,-0.011770844459533691
1782845910558248200,8.182248291015625,0.009232835844159126,-0.0015417076647281647,-0.014196718111634254
1782845910568253200,8.192253173828124,0.0069817109033465385,-0.0018736945930868387,-0.021406199783086777
1782845910578258200,8.202258056640625,0.0022511377464979887,-0.002821513684466481,-0.023936202749609947
1782845910588263200,8.21226318359375,-0.003448293311521411,0.002331436611711979,-0.028385279700160027
1782845910598268200,8.22226806640625,-0.006683767773211002,0.001005715224891901,-0.021286357194185257
1782845910608273200,8.232273193359376,-0.005917462985962629,0.0010034206788986921,-0.013192323036491871
1782845910618278100,8.242278076171875,-0.004529955796897411,-0.003697857493534684,0.0009930041851475835
1782845910628283100,8.252283203125,-0.004719533026218414,-0.008936500176787376,0.006575745530426502
1782845910638288400,8.262288330078125,-0.003273703157901764,-0.006960701197385788,0.006805576384067535
1782845910648293400,8.27229345703125,-0.0017675748094916344,0.0016998444916680455,0.014948341995477676
1782845910658297300,8.28229736328125,0.0030072068329900503,0.0018364646239206195,0.018862921744585037
1782845910668302300,8.29230224609375,0.007338574156165123,-0.00048645399510860443,0.021626489236950874
1782845910678307300,8.302307373046874,0.014488362707197666,0.003537316108122468,0.025002844631671906
1782845910688312300,8.312312255859375,0.018490029498934746,0.005221765488386154,0.02491389587521553
1782845910698317300,8.3223173828125,0.029302729293704033,0.005190339870750904,0.020172670483589172
1782845910708322300,8.332322265625,0.02955683507025242,0.001514331204816699,0.014046025462448597
1782845910718327300,8.342327392578126,0.03143330290913582,0.0023966364096850157,0.003721216693520546
1782845910728332300,8.352332275390625,0.03268866986036301,0.004520821385085583,-0.008849128149449825
1782845910738337300,8.362337158203125,0.03234485536813736,0.0009130372200161219,-0.018460210412740707
1782845910748342300,8.37234228515625,0.03266816586256027,0.002727981423959136,-0.029329368844628334
1782845910758346200,8.38234619140625,0.03125802055001259,-0.0022800930310040712,-0.028928296640515327
1782845910768351200,8.392351318359376,0.023013785481452942,-0.0042029498144984245,-0.027431713417172432
1782845910778356200,8.402356201171875,0.019547147676348686,-0.002979493932798505,-0.02452673763036728
1782845910788361200,8.412361328125,0.009817136451601982,-0.002623859094455838,-0.01861329935491085
1782845910798366200,8.4223662109375,0.002077457495033741,-0.0031421103049069643,-0.0076519944705069065
1782845910808371200,8.43237109375,-0.005192033480852842,-0.0009581749327480793,0.0008587946067564189
1782845910818376200,8.442376220703125,-0.009688780643045902,-0.003692442551255226,0.014547175727784634
1782845910828381200,8.452381103515625,-0.010257953777909279,-0.002808245364576578,0.01976090483367443
1782845910838386200,8.46238623046875,-0.0113447904586792,0.002963090781122446,0.02631307952105999
1782845910848391200,8.47239111328125,-0.01289622113108635,0.01760846935212612,0.05625327304005623
1782845910858395400,8.4823955078125,-0.005109936930239201,0.020099855959415436,0.043710850179195404
1782845910868400400,8.492400390625,0.001830946421250701,0.014230679720640182,0.013268633745610714
1782845910878405400,8.5024052734375,0.01660642959177494,-0.01912381500005722,0.0020593893714249134
1782845910888410400,8.512410400390625,0.026895442977547646,-0.031228626146912575,0.018038202077150345
1782845910898415400,8.522415283203125,0.02300216816365719,-0.020112060010433197,0.01964009366929531
1782845910908420400,8.53242041015625,0.01675701141357422,0.002455881331115961,0.0043136440217494965
