time,seconds_elapsed,z,y,x
1782845902441771800,0.065771728515625,0.005101018585264683,-0.0080336919054389,0.014253504574298859
1782845902451776800,0.07577685546875,0.000969923275988549,-0.005140433553606272,0.014853514730930328
1782845902461781800,0.08578173828125,0.00035206988104619086,-0.003993942867964506,0.012293950654566288
1782845902471786800,0.095786865234375,-0.0008293083519674838,-0.0025092302821576595,0.0038091193418949842
1782845902481791700,0.105791748046875,-0.0012207929976284504,0.0032714270055294037,0.000441818410763517
1782845902491796700,0.115796630859375,-0.0020639498252421618,-0.0008269115351140499,-0.00678307143971324
1782845902501801700,0.1258017578125,0.0035055188927799463,-0.000322775129461661,-0.006399043370038271
1782845902511806700,0.135806640625,0.003912183456122875,-0.006792126223444939,-0.009800964966416359
1782845902521811700,0.145811767578125,0.0036221654154360294,-0.0039007319137454033,-0.014960307627916336
1782845902531815700,0.155815673828125,0.003166498616337776,-0.004797418136149645,-0.008452340960502625
1782845902541820700,0.165820556640625,-0.0002085255109705031,-0.009980995208024979,-0.006824616342782974
1782845902551825700,0.17582568359375,-0.004979046061635017,-0.005616873037070036,-0.0015893745003268123
1782845902561830700,0.18583056640625,-0.007425425574183464,-0.0012026835465803742,0.0004034689045511186
1782845902571835600,0.195835693359375,-0.009196161292493343,0.0006673881434835494,0.005401423200964928
1782845902581840600,0.205840576171875,-0.014402907341718674,-0.0041185785084962845,0.012106730602681637
1782845902591845600,0.215845703125,-0.011842810548841953,-0.0037473340053111315,0.01619414985179901
1782845902601850600,0.2258505859375,-0.012674782425165176,-0.0015078817959874868,0.01830364018678665
1782845902611856000,0.23585595703125,-0.013888385146856308,0.005594768561422825,0.021089572459459305
1782845902621860900,0.24586083984375,-0.01525698322802782,0.005892243701964617,0.015901735052466393
1782845902631864800,0.25586474609375,-0.009311210364103317,0.005512476898729801,0.01769883558154106
1782845902641869800,0.265869873046875,-0.006457366514950991,0.0005163869354873896,0.01991165615618229
1782845902651874800,0.275874755859375,-0.0015198660548776388,0.0017291904659941792,0.013520069420337677
1782845902661879800,0.2858798828125,0.001972070662304759,0.0030274814926087856,0.00552126532420516
1782845902671884800,0.295884765625,0.002176867797970772,0.010045443661510944,0.0031760858837515116
1782845902681889800,0.305889892578125,0.004611529875546694,0.0143520412966609,-0.0011345066595822573
1782845902691894800,0.315894775390625,0.007898136973381042,0.011079282499849796,-0.0014839133946225047
1782845902701899800,0.325899658203125,0.013105415739119053,0.007334079127758741,0.004948685877025127
1782845902711904800,0.33590478515625,0.012744557112455368,0.0005685848882421851,0.012320848181843758
1782845902721909800,0.34590966796875,0.014159495010972023,0.0003587277897167951,0.016201872378587723
1782845902731913700,0.355913818359375,0.01823599450290203,-0.0013068130938336253,0.0179893858730793
1782845902741918700,0.365918701171875,0.017038637772202492,0.00048602689639665186,0.014330470003187656
1782845902751923700,0.375923828125,0.015199459157884121,0.0018873822409659624,0.009455286897718906
1782845902761928700,0.3859287109375,0.010675547644495964,-0.0004316983977332711,0.00785366166383028
1782845902771933700,0.39593359375,0.008686432614922523,0.00021758026559837162,0.009820406325161457
1782845902781938700,0.405938720703125,0.008270712569355965,0.00012836436508223414,0.0020841897930949926
1782845902791943700,0.415943603515625,0.0041124531999230385,-0.0006215817993506789,0.0022000374738126993
1782845902801948700,0.42594873046875,-0.0007544735562987626,-0.0028594359755516052,0.006683735176920891
1782845902811953700,0.43595361328125,-0.005090898834168911,-0.00013608753215521574,0.00512818293645978
1782845902821957600,0.44595751953125,-0.005257612559944391,-0.0030511836521327496,0.00951014831662178
1782845902831962600,0.455962646484375,-0.004060521721839905,-0.002865028567612171,0.009227054193615913
1782845902841967600,0.465967529296875,-0.005023787263780832,-0.005292766261845827,0.008462727069854736
1782845902851972600,0.47597265625,-0.0030948594212532043,-0.003823500359430909,0.01104625966399908
1782845902861977600,0.4859775390625,-0.0006242449744604528,-0.0025856629945337772,0.014729144982993603
1782845902871982600,0.495982666015625,-0.001672198879532516,-0.0036304211243987083,0.018509235233068466
1782845902881987800,0.50598779296875,-0.000630902883131057,-0.004058923572301865,0.023266972973942757
1782845902891992800,0.515992919921875,-0.0024085629265755415,-0.007639011368155479,0.023131685331463814
1782845902901997800,0.525997802734375,0.0018956380663439631,-0.009939183481037617,0.0238810982555151
1782845902912002800,0.5360029296875,0.005242166109383106,-0.008832373656332493,0.017134245485067368
1782845902922006500,0.546006591796875,0.008212123066186905,-0.004225904121994972,0.010280068032443523
1782845902932011500,0.556011474609375,0.012588762678205967,-0.002755306428298354,0.0037819549906998873
1782845902942016500,0.5660166015625,0.012919526547193527,-0.0011033476330339909,-0.004805940669029951
1782845902952021500,0.576021484375,0.01381328422576189,-0.001585646066814661,-0.00920148752629757
1782845902962026500,0.586026611328125,0.014183996245265007,-0.008254467509686947,-0.01558109000325203
1782845902972031500,0.596031494140625,0.013345632702112198,-0.011417770758271217,-0.017496434971690178
1782845902982036500,0.606036376953125,0.011318434961140156,-0.01062388252466917,-0.018916700035333633
1782845902992041500,0.61604150390625,0.012149873189628124,-0.00851412583142519,-0.024823857471346855
1782845903002046500,0.62604638671875,0.0151973282918334,-0.008451009169220924,-0.02894563227891922
1782845903012051500,0.636051513671875,0.00866246409714222,-0.005490106530487537,-0.029647640883922577
1782845903022055700,0.6460556640625,0.0092307822778821,-0.004399542231112719,-0.025842515751719475
1782845903032060700,0.656060791015625,0.006579339504241943,-0.005695702508091927,-0.018129203468561172
1782845903042065700,0.666065673828125,0.0086629968136549,-0.006376406643539667,-0.011213239282369614
1782845903052070700,0.676070556640625,0.010237457230687141,-0.009464342147111893,-0.007225688546895981
1782845903062075600,0.68607568359375,0.011078483425080776,-0.011032943613827229,0.003829359309747815
1782845903072080600,0.69608056640625,0.01404817495495081,-0.01414564624428749,0.011865448206663132
1782845903082085600,0.706085693359375,0.013682789169251919,-0.010514958761632442,0.006126602180302143
1782845903092090600,0.716090576171875,0.015662848949432373,-0.009020659141242504,0.00307568465359509
1782845903102095600,0.726095703125,0.015457519330084324,-0.0046789078041911125,-0.005344964098185301
1782845903112100600,0.7361005859375,0.015019696205854416,-0.0032495891209691763,-0.008435562252998352
1782845903122104600,0.7461044921875,0.016630375757813454,-0.005892243701964617,-0.01444338820874691
1782845903132109600,0.756109619140625,0.01667964458465576,-0.01022760383784771,-0.014208496548235416
1782845903142114600,0.766114501953125,0.016587765887379646,-0.015066567808389664,-0.015157381072640419
1782845903152119600,0.77611962890625,0.018577147275209427,-0.01570386253297329,-0.016988039016723633
1782845903162124500,0.78612451171875,0.014603976160287857,-0.015200524590909481,-0.01785995624959469
1782845903172129500,0.796129638671875,0.02052311785519123,-0.015689214691519737,-0.022223014384508133
1782845903182134500,0.806134521484375,0.016828248277306557,-0.012957077473402023,-0.023329025134444237
1782845903192139500,0.816139404296875,0.014756308868527412,-0.011664113029837608,-0.024930916726589203
1782845903202144300,0.826144287109375,0.011640943586826324,-0.007979895919561386,-0.02280731126666069
1782845903212149200,0.836149169921875,0.00586587842553854,-0.0005656554130837321,-0.018365424126386642
1782845903222153200,0.8461533203125,0.0037830201908946037,-0.0018112158868461847,-0.007556186988949776
1782845903232158200,0.856158203125,0.0013456953456625342,-0.00446798512712121,0.0017667410429567099
1782845903242163200,0.8661630859375,-0.000041545314161339775,-0.004538825247436762,0.011825766414403915
1782845903252168200,0.876168212890625,0.0003094593121204525,-0.00980602577328682,0.018933743238449097
1782845903262173200,0.886173095703125,-0.002433063928037882,-0.011622567661106586,0.019297264516353607
1782845903272178200,0.89617822265625,-0.0038570561446249485,-0.005293831694871187,0.013346964493393898
1782845903282183200,0.90618310546875,-0.007384412921965122,0.0020032296888530254,0.005821936298161745
1782845903292188200,0.916188232421875,-0.011591408401727676,0.009393502026796341,0.00041199102997779846
1782845903302193200,0.926193115234375,-0.010122941806912422,0.007919708266854286,0.004314853344112635
1782845903312198100,0.9361982421875,-0.009299758821725845,0.004257861990481615,0.010352772660553455
1782845903322202000,0.9462021484375,-0.004061853047460318,0.001415736391209066,0.01847674511373043
1782845903332207000,0.95620703125,-0.0022743395529687405,-0.003698065411299467,0.02311304211616516
1782845903342212000,0.966212158203125,0.0024176177103072405,-0.004292482975870371,0.022726085036993027
1782845903352217000,0.976217041015625,0.004939098376780748,0.0013590110465884209,0.014374944381415844
1782845903362222000,0.98622216796875,0.00857324805110693,0.00105328019708395,0.01004917174577713
1782845903372227000,0.99622705078125,0.008972455747425556,-0.002400573343038559,-0.006458964664489031
1782845903382232000,1.006232177734375,0.011068896390497684,-0.0018516959389671683,-0.017300959676504135
1782845903392237300,1.0162373046875,0.010818559676408768,-0.0013310478534549475,-0.023808127269148827
1782845903402242300,1.0262421875,0.006187854800373316,0.00036671728594228625,-0.021136976778507233
1782845903412247300,1.036247314453125,0.0009305084822699428,-0.0001691107318038121,-0.019267171621322632
1782845903422251300,1.046251220703125,0.00017124126316048205,0.0034021881874650717,-0.016929183155298233
1782845903432256300,1.05625634765625,-0.000050866376113845035,0.003766242414712906,-0.01005343347787857
1782845903442261200,1.06626123046875,0.001517202821560204,0.002109223511070013,0.00046924897469580173
1782845903452266200,1.076266357421875,-0.00370179396122694,-0.007639543619006872,0.006024336442351341
1782845903462271200,1.086271240234375,-0.007647267077118158,-0.00959643442183733,0.007456584833562374
1782845903472276200,1.096276123046875,-0.011599930934607983,-0.0051739891059696674,0.0059745353646576405
1782845903482281200,1.10628125,-0.01709083653986454,-0.0018279937794432044,0.007757788058370352
1782845903492286200,1.1162861328125,-0.018503377214074135,-0.0033875408116728067,0.005136971361935139
1782845903502291200,1.126291259765625,-0.011960788629949093,-0.0014239922165870667,0.0027601001784205437
1782845903512296200,1.136296142578125,-0.00948271807283163,0.0011835087789222598,-0.005517537239938974
1782845903522300000,1.1462998046875,-0.004516188520938158,-0.0018072210950776935,-0.004081827122718096
1782845903532305000,1.156304931640625,-0.002272475278005004,-0.005921538453549147,-0.010026535019278526
1782845903542310000,1.166309814453125,0.003602724289521575,0.000526773277670145,-0.016392555087804794
1782845903552315000,1.17631494140625,0.007813714444637299,0.004493818152695894,-0.015179751440882683
1782845903562320000,1.18631982421875,0.00717615382745862,0.003760383464396,-0.016329437494277954
1782845903572324900,1.196324951171875,0.009282448329031467,-0.0010764497565105557,-0.013255883939564228
1782845903582330000,1.206330078125,0.010231598280370235,-0.00296250032261014,-0.014975753612816334
1782845903592335000,1.216335205078125,0.014005031436681747,-0.006701045669615269,-0.011167166754603386
1782845903602340000,1.226340087890625,0.0111045828089118,-0.0038248319178819656,-0.009500294923782349
1782845903612345300,1.236345458984375,0.007585481740534306,-0.0032535837963223457,-0.008774583227932453
1782845903622349000,1.24634912109375,0.009111739695072174,-0.00663393409922719,-0.004494350403547287
1782845903632354000,1.25635400390625,0.007595601491630077,-0.00888057705014944,-0.0027017768006771803
1782845903642359000,1.266359130859375,0.004644286818802357,-0.00717482203617692,-0.004512459971010685
1782845903652364000,1.276364013671875,0.002201635157689452,-0.005126052536070347,-0.0003962783666793257
1782845903662369000,1.286369140625,0.0022237394005060196,-0.0006807039608247578,-0.0038570561446249485
1782845903672374000,1.2963740234375,0.001711081014946103,0.001702026231214404,-0.006053365301340818
1782845903682379000,1.30637890625,0.0036035231314599514,-0.0037619813811033964,-0.000570981705095619
1782845903692384000,1.316384033203125,0.0032655680552124977,-0.007360977120697498,-0.0005193164106458426
1782845903702389000,1.326388916015625,0.004400340840220451,-0.009256881661713123,-0.0006732470938004553
1782845903712394000,1.33639404296875,0.004517520312219858,-0.006490123458206654,-0.0012319782981649041
1782845903722399000,1.34639892578125,0.0049249837175011635,-0.009889115579426289,-0.0013068130938336253
1782845903732403000,1.35640283203125,0.0023270701058208942,-0.012280634604394436,-0.0032477248460054398
1782845903742408000,1.366407958984375,0.0000679106087773107,-0.009274458512663841,-0.002371544949710369
1782845903752413000,1.376412841796875,-0.001508680754341185,-0.0035228293854743242,-0.0062829297967255116
1782845903762418000,1.38641796875,-0.0010871023405343294,-0.001755289500579238,-0.004062918480485678
1782845903772423000,1.3964228515625,-0.003091131104156375,0.0023819312918931246,-0.0041004689410328865
1782845903782428000,1.406427978515625,-0.00056219327962026,-0.003448527306318283,-0.0054703992791473866
1782845903792433000,1.416432861328125,-0.0031675638165324926,-0.007720237597823143,-0.002005093963816762
1782845903802438100,1.426438232421875,-0.004453604109585285,-0.0070190271362662315,-0.0015851134667173028
1782845903812443100,1.436443115234375,-0.0049460227601230145,-0.007093063089996576,-0.004177434369921684
1782845903822448000,1.4464482421875,-0.005249889567494392,-0.003930293023586273,0.0024311996530741453
1782845903832452000,1.4564521484375,-0.005017129238694906,-0.005747634451836348,0.011950935237109661
1782845903842457000,1.46645703125,-0.0036280243657529354,-0.011351457796990871,0.020613931119441986
1782845903852462000,1.476462158203125,-0.0046693203039467335,-0.00884781964123249,0.020793695002794266
1782845903862467000,1.486467041015625,-0.00552366254851222,-0.00038535939529538155,0.017250359058380127
1782845903872472000,1.49647216796875,-0.004850947763770819,0.00347409350797534,0.007638478651642799
1782845903882477000,1.50647705078125,-0.00672288378700614,0.008959139697253704,-0.003635747591033578
1782845903892482000,1.51648193359375,-0.003969175275415182,0.004493019077926874,-0.009221461601555347
1782845903902487000,1.526487060546875,0.00043782367720268667,-0.003683684393763542,-0.008416388183832169
1782845903912492000,1.536491943359375,0.001303084660321474,-0.00660463934764266,-0.0046759783290326595
1782845903922497000,1.5464970703125,0.0031079088803380728,-0.009969010949134827,-0.0024232103023678064
1782845903932502000,1.556501953125,0.0029846045654267073,-0.011801797896623611,0.003913248889148235
1782845903942506000,1.566506103515625,0.0029529130551964045,-0.00791358295828104,0.004605404566973448
1782845903952511000,1.576510986328125,0.003221625927835703,-0.0005262406193651259,0.0036277580074965954
1782845903962516000,1.586515869140625,0.0000045273736759554595,0.002558232517912984,0.0055122110061347485
1782845903972521000,1.59652099609375,0.0019651465117931366,0.0023646207991987467,0.0024860608391463757
1782845903982526000,1.60652587890625,-0.0010610034223645926,-0.0027513117529451847,0.0070091737434268
1782845903992531000,1.616531005859375,0.001987250754609704,-0.010774084366858006,-0.0015299860388040543
1782845904002536000,1.626535888671875,0.0038133803755044937,-0.013361611403524876,-0.004490089602768421
1782845904012541000,1.636541015625,0.006726612336933613,-0.01321034412831068,-0.006845122668892145
1782845904022546200,1.646546142578125,0.003940413240343332,-0.011660384014248848,-0.008418251760303974
1782845904032551200,1.65655126953125,0.006028064992278814,-0.013160277158021927,-0.011295797303318977
1782845904042555100,1.66655517578125,0.0052291168831288815,-0.009738647378981113,-0.01194081548601389
1782845904052560100,1.67656005859375,0.0032410670537501574,-0.008872320875525475,-0.01260900218039751
1782845904062565000,1.686565185546875,0.001448759576305747,-0.002782204421237111,-0.01353418454527855
1782845904072570000,1.696570068359375,-0.0010242518037557602,0.003486876841634512,-0.011723767966032028
1782845904082575000,1.7065751953125,-0.002588326344266534,0.0031438616570085287,-0.004195011220872402
1782845904092580000,1.716580078125,-0.002092445734888315,0.00043063313933089375,0.000368847802747041
1782845904102585000,1.726585205078125,0.0022303974255919456,-0.005160673521459103,0.004831240512430668
1782845904112590000,1.736590087890625,0.00908617302775383,-0.015109444037079811,0.007364972028881311
1782845904122595000,1.746594970703125,0.014378140680491924,-0.012427641078829765,0.0112209627404809
1782845904132600000,1.75660009765625,0.016219982877373695,-0.01227371022105217,0.008775915019214153
1782845904142604000,1.76660400390625,0.014417288824915886,-0.010602843016386032,0.005006742663681507
1782845904152609000,1.776609130859375,0.012534966692328453,-0.0031667647417634726,0.0033625070936977863
1782845904162614000,1.786614013671875,0.009456085972487926,0.002368082758039236,0.002697515767067671
1782845904172619000,1.796618896484375,0.009617740288376808,0.002260491019114852,0.004747084807604551
1782845904182624000,1.8066240234375,0.005940447095781565,-0.0006772418855689466,0.007950867526233196
1782845904192629000,1.81662890625,0.010211625136435032,-0.003912183456122875,0.004590224474668503
1782845904202634200,1.82663427734375,0.010807107202708721,-0.006603574380278587,-0.00038402783684432507
1782845904212639200,1.83663916015625,0.01318051666021347,-0.004218979738652706,-0.008301871828734875
1782845904222644200,1.846644287109375,0.01629827916622162,-0.005744970869272947,-0.015279353596270084
1782845904232649200,1.856649169921875,0.01587750017642975,-0.006057626102119684,-0.016716662794351578
1782845904242654200,1.866654296875,0.019528694450855255,-0.002671949565410614,-0.015135543420910835
1782845904252658400,1.876658447265625,0.020985176786780357,-0.0025598304346203804,-0.011812451295554638
1782845904262663400,1.886663330078125,0.02339746803045273,-0.0006900250446051359,-0.00711623253300786
1782845904272668400,1.89666845703125,0.02545768953859806,0.002900981344282627,0.0014921691035851836
1782845904282673400,1.90667333984375,0.022905049845576286,0.004740693140774965,0.00872078724205494
1782845904292678400,1.916678466796875,0.024589499458670616,-0.0006668555433861911,0.011206315830349922
1782845904302683400,1.926683349609375,0.02382916584610939,-0.006720753386616707,0.017112940549850464
1782845904312688400,1.9366884765625,0.019148128107190132,-0.009813748300075531,0.0114590497687459
1782845904322693400,1.946693359375,0.01486176997423172,-0.010732006281614304,0.008914398960769176
1782845904332698400,1.956698486328125,0.010118413716554642,-0.009924003854393959,-0.0000673779723001644
1782845904342703400,1.966703369140625,0.005486377980560064,-0.010775149799883366,-0.004225904121994972
1782845904352707300,1.976707275390625,0.0028913940768688917,-0.006428338121622801,-0.00794314406812191
1782845904362712300,1.98671240234375,-0.0014692660188302398,-0.0049185920506715775,0.000004793690095539205
1782845904372717300,1.99671728515625,-0.004562793765217066,-0.0020415792241692543,0.008621717803180218
1782845904382722300,2.006722412109375,-0.005485845264047384,-0.00202240445651114,0.015861786901950836
1782845904392727300,2.016727294921875,-0.006789728999137878,-0.0007009439868852496,0.024982048198580742
1782845904402732300,2.026732177734375,-0.00791704561561346,0.0016082830261439085,0.030276944860816002
1782845904412737300,2.0367373046875,-0.00854368694126606,0.0030956584960222244,0.034455712884664536
1782845904422742300,2.0467421875,-0.005599029827862978,0.00038722361205145717,0.03768852353096008
1782845904432747300,2.056747314453125,-0.003695402294397354,-0.0046882289461791515,0.031670842319726944
1782845904442752300,2.066752197265625,-0.0012178635224699974,-0.003064499469473958,0.027700070291757584
1782845904452757200,2.07675732421875,-0.0011592740193009377,-0.0010407633380964398,0.02033110335469246
1782845904462761500,2.086761474609375,0.002776611829176545,0.00213558878749609,0.01176398154348135
1782845904472766500,2.096766357421875,0.0036996633280068636,0.00028069718973711133,0.009938384406268597
1782845904482771500,2.106771484375,0.0011206581257283688,0.007999603636562824,0.0036732980515807867
1782845904492776400,2.1167763671875,-0.0004037352045997977,0.009497631341218948,0.0002633866388350725
1782845904502781400,2.126781494140625,-0.001663410454057157,0.004704474005848169,0.008744489401578903
1782845904512786400,2.136786376953125,0.0015169365797191858,-0.0029409287963062525,0.014160560443997383
1782845904522791400,2.14679150390625,0.00010652644414221868,-0.004885036498308182,0.015732889994978905
1782845904532796400,2.15679638671875,0.0018186726374551654,-0.008590824902057648,0.014004498720169067
1782845904542801400,2.166801513671875,0.003063966752961278,-0.007406517397612333,0.004899151157587767
1782845904552806400,2.176806396484375,0.004603540059179068,-0.010090983472764492,-0.0005313006113283336
1782845904562810400,2.186810302734375,0.0016801883466541767,-0.008472047746181488,-0.01155439019203186
1782845904572815400,2.1968154296875,-0.001284975209273398,-0.00808828603476286,-0.018092984333634377
1782845904582820400,2.2068203125,-0.0028690234757959843,-0.010699249804019928,-0.028687037527561188
1782845904592825300,2.216825439453125,-0.004321511369198561,-0.011421498842537403,-0.03003885969519615
1782845904602830300,2.226830322265625,-0.01041455753147602,-0.0028655612841248512,-0.030281206592917442
1782845904612835300,2.23683544921875,-0.008296545594930649,0.0006572681595571339,-0.02299346588551998
1782845904622840300,2.24684033203125,-0.005513542331755161,0.0023499734234064817,-0.009542638435959816
1782845904632845300,2.25684521484375,-0.001817873795516789,-0.007349525578320026,0.005755091086030006
1782845904642850300,2.266850341796875,0.0018817896489053965,-0.015723036602139473,0.01450011320412159
1782845904652855300,2.276855224609375,0.006088252644985914,-0.017066335305571556,0.015544071793556213
1782845904662860300,2.2868603515625,0.00250603468157351,-0.012447082437574863,0.011211908422410488
1782845904672864500,2.296864501953125,0.0028280108235776424,-0.0035630431957542896,-0.0065468489192426205
1782845904682869500,2.306869384765625,0.00301682879216969,0.008053665049374104,-0.012350675649940968
1782845904692874500,2.31687451171875,0.0013145363191142678,0.009395631961524487,-0.013518205843865871
1782845904702879500,2.32687939453125,0.003936951048672199,0.014948589727282524,-0.01411422062665224
1782845904712884500,2.336884521484375,0.000666322885081172,0.012973588891327381,-0.00752156600356102
1782845904722889500,2.346889404296875,0.002624278888106346,0.0073133064433932304,0.003239735495299101
1782845904732894500,2.35689453125,-0.003605121048167348,0.0041244374588131905,0.009792443364858627
1782845904742899500,2.3668994140625,-0.001564873498864472,-0.0016679377295076847,0.01654408872127533
1782845904752904400,2.376904541015625,-0.004241084214299917,-0.0023851271253079176,0.01877235621213913
1782845904762909400,2.386909423828125,-0.0065284729935228825,0.0014045510906726122,0.01655633933842182
1782845904772914400,2.39691455078125,-0.005550294183194637,0.0037204360123723745,0.012754411436617374
1782845904782918400,2.40691845703125,-0.009070194326341152,0.007471764925867319,0.01028486154973507
1782845904792923400,2.41692333984375,-0.011127219535410404,0.008829976432025433,0.009194031357765198
1782845904802928400,2.426928466796875,-0.00932985171675682,0.008459797129034996,0.005932191386818886
1782845904812933400,2.436933349609375,-0.007132478058338165,0.009458483196794987,0.008538094349205494
1782845904822938400,2.4469384765625,-0.004978246986865997,0.0068360683508217335,0.00806165486574173
1782845904832943400,2.456943359375,-0.0031222901307046413,0.001520132296718657,0.012083294801414013
1782845904842948400,2.4669482421875,0.00032197617110796273,-0.0008905610884539783,0.01347506232559681
1782845904852953300,2.476953369140625,0.0029699571896344423,-0.003612045431509614,0.013822871260344982
1782845904862958300,2.486958251953125,0.0032708945218473673,-0.0022562299855053425,0.01067954208701849
1782845904872963300,2.49696337890625,0.001588841900229454,-0.003451190423220396,0.001734783174470067
1782845904882968300,2.50696826171875,0.0001661812566453591,-0.00893730204552412,-0.001540638622827828
1782845904892972500,2.51697265625,-0.0014623417519032955,-0.005078115500509739,-0.006508765742182732
1782845904902977500,2.5269775390625,-0.003320961957797408,-0.00446958327665925,-0.009855826385319233
1782845904912982500,2.536982421875,-0.0018977685831487179,-0.003054911969229579,-0.00923557672649622
1782845904922987500,2.546987548828125,-0.006508499383926392,-0.002703907433897257,-0.00723500968888402
1782845904932992500,2.556992431640625,-0.006051500793546438,-0.0014415690675377846,-0.0036274916492402554
1782845904942997500,2.56699755859375,-0.0037143107037991285,-0.003174221608787775,-0.00041864890954457223
1782845904953002500,2.57700244140625,-0.0064744106493890285,-0.0015792545164003968,-0.0014948323369026184
1782845904963007500,2.587007568359375,-0.0027092336677014828,0.0013265205780044198,-0.0021576930303126574
1782845904973012500,2.597012451171875,-0.00016671388584654778,-0.00598492193967104,-0.004265584982931614
1782845904983017500,2.607017578125,0.0008053398923948407,-0.009795106016099453,-0.004747617058455944
1782845904993021200,2.617021240234375,0.0030064424499869347,-0.012928049080073833,-0.00018615495355334133
1782845905003026200,2.627026123046875,0.005877862684428692,-0.01575845666229725,0.006193181034177542
1782845905013031200,2.63703125,0.006956443190574646,-0.013480921275913715,0.012146677821874619
1782845905023036200,2.6470361328125,0.010909905657172203,-0.006955910474061966,0.01404790859669447
1782845905033041400,2.65704150390625,0.011689413338899612,-0.004336691461503506,0.011695005930960178
1782845905043046400,2.66704638671875,0.017732391133904457,-0.0029846045654267073,0.003713511861860752
1782845905053051400,2.677051513671875,0.01750921830534935,-0.0032107068691402674,-0.006156695540994406
1782845905063056400,2.687056396484375,0.015025555156171322,-0.0019028285751119256,-0.018366755917668343
1782845905073061400,2.697061279296875,0.014903581701219082,-0.0019036275334656239,-0.030010363087058067
1782845905083066400,2.70706640625,0.011580223217606544,-0.0033577135764062405,-0.03658837080001831
1782845905093071400,2.7170712890625,0.0067748152650892735,-0.008496016263961792,-0.02780047245323658
1782845905103075300,2.727075439453125,0.01309103425592184,-0.00905767735093832,-0.01962030678987503
1782845905113080300,2.737080322265625,0.011770373210310936,-0.010750914923846722,-0.0014860439114272594
1782845905123085300,2.747085205078125,0.011917646043002605,-0.011629492044448853,0.017257284373044968
1782845905133090300,2.75709033203125,0.012926184572279453,-0.01266732532531023,0.02418363280594349
1782845905143095300,2.76709521484375,0.007162838242948055,-0.014086257666349411,0.025905100628733635
1782845905153100300,2.777100341796875,0.0019446401856839657,-0.011474229395389557,0.019869845360517502
1782845905163105300,2.787105224609375,-0.0004950816510245204,-0.00947872269898653,0.009042496792972088
1782845905173110300,2.7971103515625,-0.0017710020765662193,-0.012683571316301823,-0.00010945591930067167
1782845905183115300,2.807115234375,-0.0016476977616548538,-0.014514227397739887,-0.016890833154320717
1782845905193120300,2.817120361328125,-0.0021843246649950743,-0.01589028351008892,-0.025739718228578568
1782845905203124700,2.827124755859375,-0.004603273700922728,-0.020652547478675842,-0.029685724526643753
1782845905213128700,2.837128662109375,-0.0023547669406980276,-0.019178221002221107,-0.03346901014447212
1782845905223133700,2.8471337890625,-0.0019273296929895878,-0.017471134662628174,-0.030614102259278297
1782845905233138700,2.857138671875,-0.0016466324450448155,-0.019306853413581848,-0.021732458844780922
1782845905243143700,2.867143798828125,0.0052413675002753735,-0.016144081950187683,-0.011361311189830303
1782845905253148700,2.877148681640625,0.014565627090632915,-0.013655091635882854,-0.005736182443797588
1782845905263153700,2.887153564453125,0.021707693114876747,-0.006095176562666893,0.0030274814926087856
1782845905273159000,2.897158935546875,0.03182051330804825,-0.005178783088922501,0.005708485841751099
1782845905283164000,2.907163818359375,0.04107686132192612,-0.004366785287857056,0.008156463503837585
1782845905293169000,2.9171689453125,0.043960001319646835,-0.0075631109066307545,0.0012061456218361855
1782845905303174000,2.927173828125,0.048108939081430435,-0.007829693146049976,-0.0001608549355296418
1782845905313179000,2.937178955078125,0.042682748287916183,-0.007976965978741646,-0.0044171190820634365
1782845905323182800,2.947182861328125,0.033368874341249466,-0.005717806983739138,-0.004063451196998358
1782845905333187800,2.957187744140625,0.02075321599841118,-0.000041012681322172284,-0.001996838254854083
1782845905343192800,2.96719287109375,0.011997806839644909,0.004997155629098415,0.004083424806594849
1782845905353197800,2.97719775390625,0.006822485942393541,0.007384679280221462,0.014910239726305008
1782845905363202800,2.987202880859375,0.0017515610670670867,0.007280017249286175,0.02328907698392868
1782845905373207800,2.997207763671875,-0.0009214537567459047,0.002269545802846551,0.03365090489387512
1782845905383212800,3.007212890625,-0.0023550332989543676,-0.0005933523061685264,0.03629782050848007
1782845905393217800,3.0172177734375,0.00004740426811622456,-0.0041010016575455666,0.035171303898096085
1782845905403222800,3.027222900390625,0.00031878036679700017,-0.0015843145083636045,0.029592780396342278
1782845905413227800,3.037227783203125,0.0018458369886502624,-0.0010066748363897204,0.02137133479118347
1782845905423231700,3.047231689453125,0.00833968911319971,0.003227484878152609,0.017006414011120796
1782845905433236700,3.05723681640625,0.0001424791116733104,-0.004673581570386887,0.010409497655928135
1782845905443241700,3.06724169921875,-0.0008026767172850668,0.011081147007644176,0.007066165097057819
1782845905453246700,3.077246826171875,-0.0007392935222014785,0.009622800163924694,0.002444781828671694
1782845905463251700,3.087251708984375,0.0033332123421132565,0.00836658664047718,0.0032690302468836308
1782845905473256700,3.097256591796875,0.01188009511679411,0.009327721782028675,-0.002354234457015991
1782845905483261700,3.10726171875,0.01895851083099842,0.00586614478379488,-0.006926882080733776
1782845905493267000,3.117266845703125,0.021641379222273827,0.006391853094100952,-0.016513196751475334
1782845905503272000,3.12727197265625,0.028240958228707314,0.004770520608872175,-0.022943133488297462
1782845905513277000,3.13727685546875,0.031911592930555344,0.0021971079986542463,-0.02792191132903099
1782845905523282000,3.147281982421875,0.026914704591035843,-0.005404619034379721,-0.027150128036737442
1782845905533286000,3.157285888671875,0.02195962704718113,0.0032051142770797014,-0.017291106283664703
1782845905543291000,3.167290771484375,0.01446762215346098,0.0026013758033514023,-0.0156106511130929
1782845905553296000,3.1772958984375,0.005453621037304401,0.0025651566684246063,-0.01019537914544344
1782845905563300900,3.18730078125,-0.0018247979460284114,0.0022738068364560604,-0.009939449839293957
1782845905573305900,3.197305908203125,-0.011770639568567276,0.004811533261090517,-0.002231196267530322
1782845905583310800,3.207310791015625,-0.0204504132270813,0.005138303153216839,0.005085838492959738
1782845905593315800,3.21731591796875,-0.026036661118268967,0.001671932521276176,0.010189520195126534
1782845905603320800,3.22732080078125,-0.026007631793618202,0.0025454494170844555,0.013967480510473251
1782845905613325800,3.237325927734375,-0.030119553208351135,-0.0013395700370892882,0.012011389248073101
1782845905623330800,3.247330810546875,-0.02996455691754818,-0.005585447885096073,0.012309396639466286
1782845905633335800,3.257335693359375,-0.024296019226312637,-0.011038536205887794,0.0035198999103158712
1782845905643339800,3.26733984375,-0.022161761298775673,-0.008984706364572048,-0.003748132847249508
1782845905653344800,3.2773447265625,-0.02340998500585556,0.0012607404496520758,-0.007930893450975418
1782845905663349800,3.287349853515625,-0.01853373646736145,0.00993199273943901,-0.0049558766186237335
1782845905673354800,3.297354736328125,-0.014927816577255726,0.008855010382831097,0.0032256206031888723
1782845905683359700,3.30735986328125,-0.006807039491832256,0.00624165078625083,0.013236976228654385
1782845905693364700,3.31736474609375,0.000015978966985130683,-0.0006945523782633245,0.02791658602654934
1782845905703369700,3.32736962890625,0.007792941760271788,-0.010665693320333958,0.03789172321557999
1782845905713375000,3.337375,0.009500560350716114,-0.014006629586219788,0.032223183661699295
1782845905723380000,3.3473798828125,0.011746138334274292,-0.018204037100076675,0.026226544752717018
1782845905733385000,3.357385009765625,0.014926751144230366,-0.019897541031241417,0.006330866366624832
1782845905743390000,3.367389892578125,0.01215972751379013,-0.018636267632246017,-0.010942395776510239
1782845905753394000,3.377393798828125,0.004450408276170492,-0.013601030223071575,-0.025415876880288124
1782845905763399000,3.38739892578125,0.002144643571227789,-0.0049127331003546715,-0.03068361058831215
1782845905773404000,3.39740380859375,-0.005123123060911894,-0.0024764735717326403,-0.03520539030432701
1782845905783409000,3.407408935546875,-0.008386294357478619,0.0015805860748514533,-0.03154966980218887
1782845905793414000,3.417413818359375,-0.0137200728058815,0.00330258603207767,-0.025345303118228912
1782845905803419000,3.4274189453125,-0.010785535909235477,-0.0019595539197325706,-0.015421300195157528
1782845905813423900,3.437423828125,-0.009957559406757355,-0.005320196971297264,-0.0037760960403829813
1782845905823428900,3.447428955078125,-0.012203136458992958,-0.004057325888425112,0.007455519400537014
1782845905833433900,3.457433837890625,-0.010910971090197563,-0.006317018065601587,0.014935806393623352
1782845905843438800,3.46743896484375,-0.011963718570768833,-0.007213437929749489,0.023075757548213005
1782845905853443800,3.47744384765625,-0.012052135542035103,-0.010479538701474667,0.027173297479748726
1782845905863447800,3.48744775390625,-0.005900233518332243,-0.011739480309188366,0.026340527459979057
1782845905873452800,3.497452880859375,-0.0019433086272329092,-0.005903695244342089,0.022767363116145134
1782845905883457800,3.507457763671875,0.007641674485057592,-0.002432531211525202,0.014581605792045593
1782845905893462800,3.517462890625,0.010073672980070114,-0.0011757856700569391,0.004976116586476564
1782845905903467800,3.5274677734375,0.01635793410241604,0.005571066867560148,0.0008098672842606902
1782845905913472800,3.53747265625,0.020589962601661682,0.002775280037894845,-0.008518652990460396
1782845905923478000,3.54747802734375,0.026572488248348236,-0.007434213999658823,-0.009305351413786411
1782845905933483000,3.55748291015625,0.024993233382701874,-0.009941314347088337,-0.015717709437012672
1782845905943488000,3.567488037109375,0.021689582616090775,-0.015199459157884121,-0.019224295392632484
1782845905953493000,3.577492919921875,0.020917799323797226,-0.015000787563621998,-0.029337914660573006
1782845905963498000,3.587498046875,0.021814750507473946,-0.006729009095579386,-0.04039482772350311
1782845905973502000,3.597501953125,0.019536683335900307,0.00261841993778944,-0.043960534036159515
1782845905983507000,3.6075068359375,0.019218169152736664,0.006646717432886362,-0.04092639312148094
1782845905993512000,3.617511962890625,0.02022191509604454,0.0057316552847623825,-0.030662572011351585
1782845906003517000,3.627516845703125,0.020024042576551437,-0.00030892668291926384,-0.01344310399144888
1782845906013522000,3.63752197265625,0.011634285561740398,-0.006933805998414755,0.005124188028275967
1782845906023527000,3.64752685546875,0.016175508499145508,-0.004605404566973448,0.01623542793095112
1782845906033532000,3.657531982421875,0.010153035633265972,-0.00013502225920092314,0.02046879008412361
1782845906043537000,3.667536865234375,0.007451258134096861,0.002046372974291444,0.02190050482749939
1782845906053542000,3.6775419921875,0.002906573936343193,0.0030274814926087856,0.018991533666849136
1782845906063547000,3.687546875,0.003739877138286829,0.001972070662304759,0.011632953770458698
1782845906073550800,3.69755078125,-0.0022471752017736435,-0.0015622102655470371,0.006414223462343216
1782845906083555800,3.707555908203125,-0.008318116888403893,-0.0014109427575021982,0.0021374530624598265
1782845906093560800,3.717560791015625,-0.011325624771416187,0.0025001754984259605,-0.0029411951545625925
1782845906103565800,3.72756591796875,-0.013390639796853065,0.003695135936141014,-0.01053573191165924
1782845906113570800,3.73757080078125,-0.017008278518915176,-0.002368349116295576,-0.008073905482888222
1782845906123575800,3.747575927734375,-0.014367753639817238,-0.0013342436868697405,-0.018396317958831787
1782845906133580800,3.757580810546875,-0.014561365358531475,0.004095142707228661,-0.017106017097830772
1782845906143586000,3.7675859375,-0.012838033959269524,0.006444050930440426,-0.014798386953771114
1782845906153591000,3.777591064453125,-0.008769523352384567,0.0049026133492589,-0.007047256920486689
1782845906163596000,3.787595947265625,-0.004571315832436085,0.002793655963614583,0.0015728629659861326
1782845906173601000,3.79760107421875,0.000550475378986448,-0.0011656655697152019,0.010846256278455257
1782845906183605000,3.80760498046875,0.0031201594974845648,-0.005892243701964617,0.015854330733418465
1782845906193610000,3.81760986328125,0.005758286919444799,0.003233610186725855,0.02207733877003193
1782845906203615000,3.827614990234375,0.0004183826094958931,0.010214287787675858,0.02317855693399906
1782845906213620000,3.837619873046875,-0.007505853194743395,0.014815697446465492,0.023191338405013084
1782845906223625000,3.847625,-0.007321029901504517,0.014474013820290565,0.02588219754397869
1782845906233630000,3.8576298828125,-0.013762683607637882,0.012830577790737152,0.024385500699281693
1782845906243635000,3.867635009765625,-0.015192801132798195,0.006969492416828871,0.022882146760821342
1782845906253640000,3.877639892578125,-0.013458018191158772,-0.0008812400046736002,0.02292289212346077
1782845906263645000,3.88764501953125,-0.008987902663648129,-0.003180080559104681,0.014630075544118881
1782845906273650000,3.89764990234375,-0.004324440844357014,-0.004738562274724245,0.010131197050213814
1782845906283655000,3.907655029296875,0.0001608549355296418,-0.0062666842713952065,0.0022266688756644726
1782845906293659000,3.917658935546875,0.003254382871091366,-0.0008700547041371465,-0.006759102921932936
1782845906303663900,3.927663818359375,0.007632886059582233,-0.00015712650201749057,-0.007083475589752197
1782845906313668900,3.9376689453125,0.006193181034177542,0.0025933862198144197,-0.007250988855957985
1782845906323673900,3.947673828125,0.005852030124515295,0.0021646174136549234,-0.008637430146336555
1782845906333678800,3.957678955078125,0.004164917394518852,0.002120941411703825,-0.009997772984206676
1782845906343683800,3.967683837890625,0.0033342777751386166,0.0006567355012521148,-0.01134160440415144
1782845906353688800,3.977688720703125,0.004254666157066822,0.004746552091091871,-0.013707823120057583
1782845906363694000,3.987694091796875,0.003615241264924407,0.0012602078495547175,-0.016083627939224243
1782845906373699000,3.997698974609375,0.005757487844675779,-0.0017251957906410098,-0.020502878352999687
1782845906383704000,4.0077041015625,0.0016200009267777205,-0.008534632623195648,-0.01503833755850792
1782845906393709000,4.017708984375,-0.003640541108325124,-0.00971627701073885,-0.012916331179440022
1782845906403713000,4.027713134765625,-0.005084240809082985,-0.004686364438384771,-0.008044344373047352
1782845906413718000,4.037718017578125,-0.015050055459141731,-0.0018383801216259599,-0.0023792681749910116
1782845906423723000,4.047722900390625,-0.016862602904438972,0.0015150723047554493,0.005395564250648022
1782845906433728000,4.05772802734375,-0.014700382947921753,0.0015108112711459398,0.014859640039503574
1782845906443733000,4.06773291015625,-0.014877749606966972,0.0028210864402353764,0.0190218947827816
1782845906453738000,4.077738037109375,-0.009033176116645336,0.0007009439868852496,0.013286776840686798
1782845906463743000,4.087742919921875,-0.008710933849215508,0.0010727213229984045,0.007800931576639414
1782845906473748000,4.097748046875,-0.003946804907172918,0.004099403973668814,-0.0049039446748793125
1782845906483753000,4.1077529296875,-0.005082643125206232,0.0033686324022710323,-0.010750115849077702
1782845906493758000,4.117758056640625,-0.001975000137463212,0.0023065637797117233,-0.017763284966349602
1782845906503763000,4.127762939453125,-0.002543851500377059,-0.00293267285451293,-0.014937138184905052
1782845906513767000,4.137766845703125,-0.0020005665719509125,-0.007253385614603758,-0.017125990241765976
1782845906523772000,4.14777197265625,-0.003364904085174203,-0.0036852823104709387,-0.012254535220563412
1782845906533777000,4.15777685546875,-0.004570783115923405,0.001189900329336524,-0.005944175645709038
1782845906543782000,4.167781982421875,-0.0022740731947124004,0.004189951345324516,-0.008266718126833439
1782845906553787000,4.177786865234375,-0.0034493261482566595,0.005083175376057625,-0.0031968585681170225
1782845906563792000,4.1877919921875,-0.0005438174703158438,0.007397728972136974,-0.002748914761468768
1782845906573796900,4.197796875,-0.0017164073651656508,0.01176318246871233,-0.0017145430902019143
1782845906583802000,4.207802001953125,-0.00030546457855962217,0.0049281795509159565,-0.0075636436231434345
1782845906593807000,4.21780712890625,-0.0020066918805241585,0.0009001484140753746,-0.010293650440871716
1782845906603812000,4.22781201171875,-0.003929493948817253,-0.001374723738990724,-0.012703544460237026
1782845906613816000,4.237816162109375,-0.002061553066596389,-0.000004261057711119065,-0.012968529015779495
1782845906623821000,4.247821044921875,-0.007573763839900494,-0.0010868359822779894,-0.013833790086209774
1782845906633826000,4.257825927734375,-0.012250540778040886,0.0008575378451496363,-0.012809271924197674
1782845906643831000,4.2678310546875,-0.016812268644571304,-0.00247567449696362,-0.009296296164393425
1782845906653836000,4.2778359375,-0.018698852509260178,0.004028297495096922,-0.013277189806103706
1782845906663841000,4.287841064453125,-0.018620556220412254,0.011298993602395058,-0.007011304143816233
1782845906673846000,4.297845947265625,-0.023574834689497948,0.00854608416557312,-0.0014413028256967664
1782845906683851000,4.30785107421875,-0.017646372318267822,0.0005648564547300339,0.0036618465092033148
1782845906693856000,4.31785595703125,-0.017352359369397163,-0.0027377295773476362,0.0062706791795790195
1782845906703861000,4.327861083984375,-0.014542191289365292,-0.008408931083977222,0.006250439211726189
1782845906713866000,4.337865966796875,-0.015215171501040459,-0.006344448775053024,0.007866711355745792
1782845906723870000,4.347869873046875,-0.017227455973625183,-0.0008263788768090308,0.003972371108829975
1782845906733875000,4.357875,-0.01224761176854372,0.00038589202449657023,-0.0025965820532292128
1782845906743880000,4.3678798828125,-0.011078749783337116,0.004767857491970062,-0.004189951345324516
1782845906753885000,4.377885009765625,-0.01095677725970745,0.007586546707898378,-0.007613977417349815
1782845906763890000,4.387889892578125,-0.011872638016939163,0.014812768436968327,-0.0024980450980365276
1782845906773895000,4.39789501953125,-0.013131514191627502,0.015109444037079811,-0.0014713965356349945
1782845906783900000,4.40789990234375,-0.011960522271692753,0.007472829893231392,0.007493069861084223
1782845906793905000,4.41790478515625,-0.012355202808976173,0.00398568669334054,0.013917679898440838
1782845906803910100,4.42791015625,-0.009876599535346031,-0.0004495415778364986,0.02213299833238125
1782845906813915100,4.4379150390625,-0.0041372207924723625,-0.005496498197317123,0.0301445871591568
1782845906823919000,4.447919189453125,-0.002540389308705926,-0.008024103939533234,0.029474269598722458
1782845906833924000,4.457924072265625,-0.0018820558907464147,-0.005138036794960499,0.02082192525267601
1782845906843929000,4.46792919921875,-0.0006466155173256993,-0.0004926847759634256,0.006759102921932936
1782845906853934000,4.47793408203125,-0.003489539958536625,0.00304718897677958,-0.0019217369845137
1782845906863939000,4.48793896484375,-0.0036911412607878447,0.003281813347712159,-0.010234261862933636
1782845906873944000,4.497944091796875,-0.003370496677234769,-0.004501274786889553,-0.019524965435266495
1782845906883949000,4.507948974609375,-0.0021763353142887354,-0.002630137838423252,-0.023435285314917564
1782845906893954000,4.5179541015625,0.00009614011651137844,-0.01185266487300396,-0.024104004725813866
1782845906903959000,4.527958984375,0.006327936891466379,-0.011243865825235844,-0.022356970235705376
1782845906913964000,4.537964111328125,0.005790244787931442,-0.010088054463267326,-0.023124493658542633
1782845906923969000,4.547968994140625,0.01158421766012907,-0.00854448601603508,-0.022707710042595863
1782845906933972700,4.55797265625,0.01381115335971117,-0.009583917446434498,-0.019206983968615532
1782845906943977700,4.567977783203125,0.015599998645484447,-0.008673116564750671,-0.02251569554209709
1782845906953982700,4.577982666015625,0.015382152050733566,-0.01176131796091795,-0.02666383422911167
1782845906963987700,4.58798779296875,0.013379188254475594,-0.00942039955407381,-0.03249802067875862
1782845906973992700,4.59799267578125,0.009023322723805904,-0.004032824654132128,-0.03421842306852341
1782845906983998000,4.607998046875,0.007737814448773861,0.0007779093575663865,-0.032655682414770126
1782845906994003000,4.6180029296875,0.011840147897601128,0.002898051869124174,-0.02647767961025238
1782845907004008000,4.628008056640625,0.014425012283027172,0.0009001484140753746,-0.021268803626298904
1782845907014013000,4.638012939453125,0.013969611376523972,-0.004287156742066145,-0.008352472446858883
1782845907024018200,4.64801806640625,0.017470071092247963,-0.018514828756451607,0.001793905277736485
1782845907034023200,4.658023193359375,0.019341208040714264,-0.022970562800765038,0.004274107050150633
1782845907044027000,4.66802685546875,0.020671190693974495,-0.025550100952386856,-0.003285275539383292
1782845907054032000,4.678031982421875,0.017253022640943527,-0.01950605772435665,-0.006056028418242931
1782845907064036900,4.688036865234375,0.01287691667675972,-0.012855877168476582,-0.010164220817387104
1782845907074041900,4.698041748046875,0.011111773550510406,-0.0036735644098371267,-0.015864184126257896
1782845907084046800,4.708046875,0.01161511056125164,-0.003100185887888074,-0.016157930716872215
1782845907094051800,4.7180517578125,0.009064335376024246,-0.006506368983536959,-0.014676680788397789
1782845907104056800,4.728056884765625,0.009546633809804916,-0.011669971980154514,-0.011545069515705109
1782845907114061800,4.738061767578125,0.0070949275977909565,-0.014248711057007313,-0.01239461824297905
1782845907124066800,4.74806689453125,0.004773183725774288,-0.015223427675664425,-0.017529726028442383
1782845907134071800,4.75807177734375,0.0044440170750021935,-0.014108361676335335,-0.016455939039587975
1782845907144075800,4.76807568359375,0.00574816670268774,-0.019279688596725464,-0.02082511968910694
1782845907154080800,4.778080810546875,0.0036962011363357306,-0.01986238732933998,-0.020739367231726646
1782845907164085800,4.788085693359375,0.0075846826657652855,-0.013201556168496609,-0.020366523414850235
1782845907174090800,4.7980908203125,0.003710582386702299,-0.010900584980845451,-0.01672704890370369
1782845907184095700,4.808095703125,-0.00021278657368384302,-0.004969724919646978,-0.009672334417700768
1782845907194100700,4.818100830078125,-0.007851531729102135,-0.005632053129374981,-0.005247492343187332
1782845907204105700,4.828105712890625,-0.008449411019682884,-0.002969158347696066,0.0014887070283293724
1782845907214111000,4.838111083984375,-0.007898936048150063,-0.007573231123387814,0.005468268413096666
1782845907224116000,4.848115966796875,-0.006880010478198528,-0.007096525281667709,0.009051552042365074
1782845907234121000,4.858120849609375,-0.003739877138286829,-0.006481867749243975,0.004770254250615835
1782845907244126000,4.8681259765625,-0.0007214503129944205,-0.009984723292291164,0.0031334753148257732
1782845907254130000,4.8781298828125,0.0007491472060792148,-0.010404704138636589,-0.004316717851907015
1782845907264135000,4.888135009765625,-0.00010359696898376569,-0.0028658276423811913,-0.0059662796556949615
1782845907274140000,4.898139892578125,0.000955009541939944,0.002469282830134034,-0.008363657630980015
1782845907284145000,4.908144775390625,0.000606934423558414,0.006582268979400396,-0.003034938359633088
1782845907294150000,4.91814990234375,0.00025486451340839267,0.004742823541164398,0.008442220278084278
1782845907304155000,4.92815478515625,0.0014927018200978637,-0.0009249158320017159,0.017115870490670204
1782845907314159900,4.938159912109375,0.004350007511675358,-0.002980876248329878,0.018159829080104828
1782845907324164900,4.948164794921875,0.003862116253003478,-0.0010879012988880277,0.014193316921591759
1782845907334169900,4.958169921875,0.005407548509538174,0.003263970138505101,0.0035542547702789307
1782845907344174800,4.9681748046875,0.006490656174719334,0.01073866430670023,-0.007823036052286625
1782845907354179800,4.978179931640625,0.006139651406556368,0.009728527627885342,-0.017544638365507126
1782845907364183800,4.988183837890625,0.006625944748520851,0.0030948594212532043,-0.022371884435415268
1782845907374188800,4.998188720703125,0.002703641075640917,0.00469568558037281,-0.02551601268351078
1782845907384193800,5.00819384765625,0.004530835896730423,0.0014482269762083888,-0.022294919937849045
1782845907394198800,5.01819873046875,0.008670985698699951,-0.0005515406373888254,-0.013801033608615398
1782845907404203800,5.028203857421875,0.007993478327989578,0.0009976201690733433,-0.005275455769151449
1782845907414208800,5.038208740234375,0.010576744563877583,-0.004704207647591829,-0.0022748722694814205
1782845907424213800,5.0482138671875,0.01050084363669157,0.0073050507344305515,0.00532552320510149
1782845907434219000,5.058218994140625,0.009853961877524853,0.011020692996680737,0.006278402172029018
1782845907444224000,5.06822412109375,0.0068302094005048275,0.010236125439405441,0.013288108631968498
1782845907454229000,5.07822900390625,0.006700513418763876,0.009608951397240162,0.009841445833444595
1782845907464233000,5.08823291015625,0.006903712637722492,-0.000303334032651037,-0.0007848335662856698
1782845907474238000,5.098238037109375,0.0026234800461679697,-0.0008721852791495621,-0.0031758195254951715
1782845907484243000,5.108242919921875,-0.002960369922220707,0.0020756677258759737,-0.012319782748818398
1782845907494248000,5.118248046875,-0.005192098673433065,0.0043678502552211285,-0.020178770646452904
1782845907504253000,5.1282529296875,-0.01125185564160347,0.0015787219163030386,-0.02099929191172123
1782845907514258000,5.1382578125,-0.009235842153429985,0.003082609036937356,-0.02015719935297966
1782845907524263000,5.148262939453125,-0.009858489967882633,0.003912449814379215,-0.01776248589158058
1782845907534268000,5.158267822265625,-0.007999869994819164,0.005803560372442007,-0.01028459519147873
1782845907544273000,5.16827294921875,-0.007897604256868362,0.002662095706909895,-0.004291950259357691
1782845907554278000,5.17827783203125,-0.009228918701410294,-0.0005515406373888254,0.004147074185311794
1782845907564283000,5.188282958984375,-0.003838414093479514,-0.006617955397814512,0.004087419714778662
1782845907574286600,5.19828662109375,-0.0018903117161244154,-0.005519667640328407,-0.004768656101077795
1782845907584291800,5.208291748046875,0.003733751829713583,-0.004578240215778351,-0.011373295448720455
1782845907594296800,5.218296875,0.00865953415632248,-0.00023276027059182525,-0.01919420063495636
1782845907604301800,5.2283017578125,0.009033176116645336,-0.0011198592837899923,-0.02275138534605503
1782845907614306800,5.238306884765625,0.014061223715543747,0.005794239696115255,-0.024041686207056046
1782845907624311800,5.248311767578125,0.018813634291291237,0.004490355961024761,-0.01992150954902172
1782845907634316800,5.25831689453125,0.024651283398270607,0.004738562274724245,-0.017472200095653534
1782845907644321800,5.26832177734375,0.02514796331524849,0.00267727579921484,-0.010728810913860798
1782845907654327000,5.2783271484375,0.02635064721107483,0.0005781722720712423,-0.005392102058976889
1782845907664332000,5.28833203125,0.029096899554133415,-0.005566006526350975,-0.006150304339826107
1782845907674337000,5.2983369140625,0.03291746973991394,-0.005646700505167246,-0.007876831106841564
1782845907684340700,5.3083408203125,0.03630368039011955,-0.0062301987782120705,-0.006268016062676907
1782845907694345700,5.318345703125,0.03795430809259415,-0.008234760724008083,-0.011315505020320415
1782845907704350700,5.328350830078125,0.037697043269872665,-0.012432168237864971,-0.013431652449071407
1782845907714355700,5.338355712890625,0.036786776036024094,-0.013460149057209492,-0.013961621560156345
1782845907724360700,5.348360595703125,0.03317180275917053,-0.011269166134297848,-0.020122312009334564
1782845907734365700,5.35836572265625,0.028962409123778343,-0.01350329164415598,-0.024233967065811157
1782845907744370700,5.36837060546875,0.02430587261915207,-0.0054480284452438354,-0.035946283489465714
1782845907754376000,5.3783759765625,0.021945778280496597,-0.005399825517088175,-0.037702638655900955
1782845907764381000,5.388380859375,0.016581639647483826,-0.004387291613966227,-0.032823462039232254
1782845907774386000,5.398385986328125,0.015598134137690067,-0.004906075540930033,-0.026373816654086113
1782845907784389600,5.4083896484375,0.010877947323024273,-0.010706440545618534,-0.014517423696815968
1782845907794394600,5.41839453125,0.006505569908767939,-0.018759306520223618,-0.004266916774213314
1782845907804399600,5.428399658203125,0.003579288488253951,-0.021621139720082283,0.0005896238726563752
1782845907814404600,5.438404541015625,-0.0022248048335313797,-0.016457537189126015,0.004175570327788591
1782845907824409600,5.44840966796875,-0.005043494515120983,-0.01607324182987213,0.002880208659917116
1782845907834414800,5.458414794921875,-0.007695470005273819,-0.012791162356734276,-0.002026133006438613
1782845907844419800,5.468419921875,-0.009700830094516277,-0.009585515595972538,-0.006332198157906532
1782845907854424800,5.4784248046875,-0.008521849289536476,-0.007811584044247866,-0.01161511056125164
1782845907864429800,5.488429931640625,-0.010573281906545162,-0.005674929823726416,-0.017417872324585915
1782845907874434800,5.498434814453125,-0.00882038939744234,0.00221974472515285,-0.015780827030539513
1782845907884438800,5.508438720703125,-0.009109875187277794,0.0051777176558971405,-0.015606123954057693
1782845907894443800,5.51844384765625,-0.00447064870968461,-0.0004261057765688747,-0.004446680191904306
1782845907904448800,5.52844873046875,-0.00018216021999251097,-0.012470518238842487,0.006286924239248037
1782845907914453800,5.538453857421875,0.005787048954516649,-0.019723903387784958,0.013391172513365746
1782845907924458800,5.548458740234375,0.005152151454240084,-0.020650949329137802,0.017951037734746933
1782845907934463700,5.558463623046875,0.004810734186321497,-0.017604293301701546,0.01655447483062744
1782845907944468700,5.56846875,-0.00014620754518546164,-0.009505887515842915,0.01501410361379385
1782845907954473700,5.5784736328125,-0.0014857775531709194,-0.0031968585681170225,0.010493387468159199
1782845907964478700,5.588478759765625,-0.0013424995122477412,-0.00207726564258337,0.011967979371547699
1782845907974483700,5.598483642578125,0.0034378746058791876,-0.005892776418477297,0.014575480483472347
1782845907984488700,5.60848876953125,0.0060048955492675304,-0.010448113083839417,0.020429907366633415
1782845907994492700,5.61849267578125,0.01149606704711914,-0.013971209526062012,0.017162742093205452
1782845908004497700,5.62849755859375,0.015135809779167175,-0.014824486337602139,0.006677077617496252
1782845908014502700,5.638502685546875,0.017895909026265144,-0.015341672115027905,-0.0027031085919588804
1782845908024507600,5.648507568359375,0.0187209565192461,-0.015853798016905785,-0.0147445909678936
1782845908034512600,5.6585126953125,0.019459718838334084,-0.017192302271723747,-0.02484969049692154
1782845908044517600,5.668517578125,0.01884479448199272,-0.014200774021446705,-0.026763170957565308
1782845908054523000,5.67852294921875,0.013947507366538048,-0.01786821335554123,-0.027769312262535095
1782845908064528000,5.68852783203125,0.011212707497179508,-0.021443773061037064,-0.02732429839670658
1782845908074532900,5.698532958984375,0.007144195958971977,-0.01727832295000553,-0.02370666153728962
1782845908084537900,5.708537841796875,-0.0016072177095338702,-0.011742143891751766,-0.017308415845036507
1782845908094542800,5.71854296875,-0.0012974920682609081,-0.011678227223455906,-0.014794392511248589
1782845908104546800,5.728546875,-0.005891178734600544,-0.01775209978222847,-0.006548712961375713
1782845908114551800,5.7385517578125,-0.0092936335131526,-0.02239372208714485,-0.0013249226612970233
1782845908124556800,5.748556884765625,-0.008233695290982723,-0.027002323418855667,-0.002091913018375635
1782845908134561800,5.758561767578125,-0.007561513222754002,-0.025408420711755753,-0.0030834078788757324
1782845908144566800,5.76856689453125,-0.007358846720308065,-0.017791513353586197,-0.003980626817792654
1782845908154571800,5.77857177734375,-0.005966546013951302,-0.008651545271277428,-0.0021065603941679
1782845908164576800,5.78857666015625,-0.006867759861052036,-0.002430667169392109,0.005513009615242481
1782845908174581800,5.798581787109375,-0.0010157296201214194,0.0014327806420624256,0.013650298118591309
1782845908184586800,5.808586669921875,0.0016045545926317573,-0.0007334345718845725,0.021407820284366608
1782845908194591700,5.818591796875,0.004259193316102028,-0.0035577169619500637,0.02382410690188408
1782845908204595700,5.828595703125,0.006783337332308292,-0.004546548705548048,0.021144965663552284
1782845908214601000,5.83860107421875,0.008674981072545052,-0.0009078715811483562,0.018820026889443398
1782845908224606000,5.84860595703125,0.007893609814345837,-0.0013614079216495156,0.0107120331376791
1782845908234611000,5.85861083984375,0.007582818623632193,-0.002020007697865367,-0.000297475082334131
1782845908244616000,5.868615966796875,0.01107688620686531,-0.0036842171102762222,-0.014638064429163933
1782845908254621000,5.878620849609375,0.008264588192105293,-0.003939081449061632,-0.028537102043628693
1782845908264626000,5.8886259765625,0.011008708737790585,-0.0015896408585831523,-0.04615737497806549
1782845908274631000,5.898630859375,0.013047625310719013,0.004732437431812286,-0.0542168989777565
1782845908284636000,5.908635986328125,0.007874967530369759,0.0010684601729735732,-0.05540600046515465
1782845908294641000,5.918640869140625,0.00865980051457882,0.004738030023872852,-0.04430434852838516
1782845908304645000,5.92864501953125,0.007508782669901848,0.0025534387677907944,-0.02774667553603649
1782845908314650000,5.938650146484375,0.004232828039675951,0.0007832356495782733,-0.012313657440245152
1782845908324655000,5.948655029296875,0.006702377460896969,-0.0005803027888759971,0.0028722193092107773
1782845908334660000,5.95866015625,0.008041680790483952,-0.0004316983977332711,0.006355633959174156
1782845908344665000,5.9686650390625,0.012182896956801414,-0.0011177286505699158,0.009487777948379517
1782845908354670000,5.978670166015625,0.010486729443073273,0.003263437654823065,0.007200388703495264
1782845908364675000,5.988675048828125,0.009305351413786411,0.004634699318557978,0.001264202524907887
1782845908374680000,5.99868017578125,0.0059841228649020195,0.0011339739430695772,-0.0014000238152220845
1782845908384685000,6.00868505859375,0.003519101068377495,0.0041734399273991585,-0.006127667147666216
1782845908394690000,6.01868994140625,0.0013323795283213258,0.010311493650078773,-0.0033563817851245403
1782845908404695000,6.028695068359375,0.002368881832808256,0.009950368665158749,-0.0003507383225951344
1782845908414699000,6.038698974609375,-0.00036938043194822967,0.006706372369080782,0.004972121678292751
1782845908424704000,6.0487041015625,-0.0023148194886744022,0.008082959800958633,0.005037635564804077
1782845908434709000,6.058708984375,-0.002284459536895156,0.006326871924102306,0.004055461846292019
1782845908444714000,6.0687138671875,-0.000391218374716118,0.005804892163723707,0.005644835997372866
1782845908454719000,6.078718994140625,-0.0037494644057005644,-0.0010298443958163261,0.003999535460025072
1782845908464724000,6.088723876953125,-0.003454386256635189,-0.00035686357296071947,0.0004652542411349714
1782845908474729000,6.09872900390625,-0.006569752003997564,-0.003846403444185853,-0.004867193289101124
1782845908484734000,6.10873388671875,-0.009177519008517265,0.00395612558349967,-0.008898686617612839
1782845908494739000,6.118739013671875,-0.013487845659255981,0.0062459115870296955,-0.004804342519491911
1782845908504744000,6.128743896484375,-0.018686069175601006,0.007499195169657469,0.004450940992683172
1782845908514748200,6.138748046875,-0.018993664532899857,0.010392719879746437,0.01266972254961729
1782845908524753200,6.148753173828125,-0.020850686356425285,0.009373527951538563,0.02864496037364006
1782845908534758100,6.158758056640625,-0.019105251878499985,0.006448045372962952,0.03912636265158653
1782845908544763100,6.16876318359375,-0.015509184449911118,0.0028607675340026617,0.04556775093078613
1782845908554768100,6.17876806640625,-0.013002350926399231,0.0010258496040478349,0.04278554767370224
1782845908564773000,6.188773193359375,-0.012147476896643639,0.005410477984696627,0.03385863080620766
1782845908574778000,6.198778076171875,-0.011169830337166786,0.002625077962875366,0.030770961195230484
1782845908584783000,6.208783203125,-0.00794394314289093,0.0041340249590575695,0.02539190836250782
1782845908594788000,6.2187880859375,-0.006076801102608442,-0.0025190841406583786,0.017948906868696213
1782845908604793000,6.22879296875,-0.0017563547007739544,-0.0026647590566426516,0.011120028793811798
1782845908614798000,6.238798095703125,-0.00033209618413820863,-0.0003456783015280962,0.0024146882351487875
1782845908624802000,6.248802001953125,0.0036935380194336176,0.0037356161046773195,-0.006396912969648838
1782845908634807000,6.25880712890625,0.005584382452070713,-0.001005343277938664,-0.006623814348131418
1782845908644812000,6.26881201171875,0.003114300547167659,-0.008044078014791012,-0.014479872770607471
1782845908654817000,6.278817138671875,-0.001404018490575254,-0.01085637602955103,-0.023485084995627403
1782845908664822000,6.288822021484375,0.000743820914067328,-0.0101991081610322,-0.028232436627149582
1782845908674827000,6.298826904296875,-0.00037230990710668266,-0.011860387399792671,-0.024658208712935448
1782845908684832000,6.30883203125,0.0022029669489711523,-0.010871023871004581,-0.018926020711660385
1782845908694837000,6.3188369140625,0.00458569684997201,-0.009887784719467163,-0.0075908079743385315
1782845908704842000,6.328842041015625,0.006228334736078978,-0.012116317637264729,0.005760150961577892
1782845908714847000,6.338846923828125,0.005376389715820551,-0.011775699444115162,0.022009162232279778
1782845908724851200,6.348851318359375,0.005941512528806925,-0.008780175819993019,0.029987992718815804
1782845908734856200,6.358856201171875,0.00290364446118474,-0.010428139939904213,0.043541617691516876
1782845908744861200,6.368861083984375,-0.0017773937433958054,-0.014990933239459991,0.04657655581831932
1782845908754866200,6.3788662109375,-0.004760134033858776,-0.018603511154651642,0.04164145141839981
1782845908764871200,6.38887109375,-0.005504753906279802,-0.01884079910814762,0.04098604992032051
1782845908774876200,6.398876220703125,-0.005944175645709038,-0.013144031167030334,0.026875555515289307
1782845908784881200,6.408881103515625,0.001580053474754095,-0.013171195983886719,0.012683038599789143
1782845908794886100,6.41888623046875,0.008785235695540905,-0.0158894844353199,-0.004088218789547682
1782845908804891100,6.42889111328125,0.012378105893731117,-0.01462581381201744,-0.014096910133957863
1782845908814896000,6.438896240234375,0.009673932567238808,-0.018218951299786568,-0.02502998523414135
1782845908824900000,6.448900146484375,0.006382531952112913,-0.014169614762067795,-0.028426581993699074
1782845908834905000,6.458905029296875,0.0014990933705121279,-0.01404764223843813,-0.024832379072904587
1782845908844910000,6.46891015625,-0.0023699470330029726,-0.01679176278412342,-0.023567112162709236
1782845908854915000,6.4789150390625,-0.006472280248999596,-0.01050110999494791,-0.018209896981716156
1782845908864920000,6.488920166015625,-0.012565593235194683,-0.010876350104808807,-0.01344337034970522
1782845908874925000,6.498925048828125,-0.01143028773367405,-0.01236212719231844,-0.004208859521895647
1782845908884930000,6.508929931640625,-0.013850567862391472,-0.011152519844472408,-0.0016290555940940976
1782845908894935000,6.51893505859375,-0.013949370943009853,-0.010752779431641102,0.003500991500914097
1782845908904940000,6.52893994140625,-0.01179514080286026,-0.007897337898612022,0.005735383834689856
1782845908914945000,6.538945068359375,-0.010289122350513935,-0.011230816133320332,0.00501206936314702
1782845908924949200,6.54894921875,-0.008793491870164871,-0.010636398568749428,0.006301038898527622
1782845908934954200,6.558954345703125,-0.01107502169907093,-0.013997041620314121,0.011788482777774334
1782845908944959200,6.568959228515625,-0.01721041277050972,-0.01599894091486931,0.01013678964227438
1782845908954964200,6.578964111328125,-0.0210682675242424,-0.011165834963321686,0.0023395870812237263
1782845908964969200,6.58896923828125,-0.020427510142326355,-0.0031915323343127966,-0.0021065603941679
1782845908974974200,6.59897412109375,-0.018541991710662842,-0.0009736517095007002,-0.0010365023044869304
1782845908984979200,6.608979248046875,-0.019214972853660583,-0.0030863373540341854,0.0006380933918990195
1782845908994984200,6.618984130859375,-0.016222380101680756,-0.007062170654535294,0.0028154938481748104
1782845909004989200,6.6289892578125,-0.014757907018065453,-0.01116370502859354,0.0033803503029048443
1782845909014994200,6.638994140625,-0.0106505136936903,-0.009676329791545868,0.0014940333785489202
1782845909024999200,6.648999267578125,-0.008321579545736313,-0.006982808467000723,0.002977147698402405
1782845909035003100,6.659003173828125,-0.01098660472780466,-0.006673615425825119,0.004086087923496962
1782845909045008100,6.669008056640625,-0.014644988812506199,-0.004726844374090433,0.00871945545077324
1782845909055013000,6.67901318359375,-0.01799018494784832,-0.0017694041598588228,0.016259662806987762
1782845909065018000,6.68901806640625,-0.014140852726995945,-0.002237055217847228,0.016280969604849815
1782845909075023000,6.699023193359375,-0.014248977415263653,0.000720118754543364,0.018263425678014755
1782845909085028000,6.709028076171875,-0.015600265003740788,0.0072808158583939075,0.020119648426771164
1782845909095033000,6.719033203125,-0.008422779850661755,0.003959055058658123,0.022405173629522324
1782845909105038000,6.7290380859375,-0.008972189389169216,-0.0013789847726002336,0.02142965793609619
1782845909115043000,6.73904296875,-0.005016596522182226,0.0020330571569502354,0.01353711448609829
1782845909125048000,6.749048095703125,-0.0052323127165436745,-0.001654355670325458,0.00555109279230237
1782845909135052000,6.759052001953125,-0.007425159215927124,0.002354234457015991,-0.0003115898580290377
1782845909145057000,6.76905712890625,-0.005857356358319521,0.005833920557051897,0.0001549959706608206
1782845909155062000,6.77906201171875,-0.004338555503636599,0.008949019946157932,0.0007446198142133653
1782845909165067000,6.78906689453125,-0.0014796522445976734,0.00711756432428956,0.01056476030498743
1782845909175072000,6.799072021484375,0.0028128307312726974,-0.0036096484400331974,0.018511632457375526
1782845909185077000,6.809076904296875,0.0024807346053421497,-0.010794857516884804,0.024955950677394867
1782845909195082000,6.81908203125,-0.0007986819837242365,-0.01005130261182785,0.032097216695547104
1782845909205087200,6.829087158203125,-0.0016607472207397223,-0.008293350227177143,0.033494576811790466
1782845909215092700,6.8390927734375,-0.0012090750969946384,-0.0020181434229016304,0.032037559896707535
1782845909225097700,6.84909765625,-0.0010450243717059493,-0.0010434264549985528,0.037155091762542725
1782845909235101400,6.859101318359375,-0.000007456851108145202,-0.0008711199625395238,0.03941451758146286
1782845909245106400,6.8691064453125,0.003376355627551675,0.002186721656471491,0.03925046697258949
1782845909255111400,6.879111328125,0.0051987566985189915,0.006140450481325388,0.040652088820934296
1782845909265116400,6.889116455078125,0.012177570722997189,0.012326174415647984,0.0374794639647007
1782845909275121400,6.899121337890625,0.009563145227730274,0.01245214231312275,0.03283411264419556
1782845909285126700,6.909126708984375,0.009219863452017307,0.012050803750753403,0.026202842593193054
1782845909295131600,6.919131591796875,0.009501093067228794,0.01056183036416769,0.014221279881894588
1782845909305136600,6.92913671875,0.004779042676091194,0.009007343091070652,0.002858637133613229
1782845909315141600,6.9391416015625,0.005817675497382879,0.0062858592718839645,-0.01552116870880127
1782845909325146600,6.949146728515625,0.006986270658671856,0.006353769451379776,-0.030713170766830444
1782845909335150600,6.959150634765625,0.009793508797883987,0.010102701373398304,-0.03647651895880699
1782845909345155600,6.969155517578125,0.009366603568196297,0.006702111102640629,-0.035706598311662674
1782845909355160600,6.97916064453125,0.01236132811754942,0.006186256650835276,-0.02816612459719181
1782845909365165600,6.98916552734375,0.015533152967691422,-0.003013899317011237,-0.01305295154452324
1782845909375170600,6.999170654296875,0.018156899139285088,-0.006472013890743256,0.003765443339943886
1782845909385175600,7.009175537109375,0.02339906617999077,-0.007190534844994545,0.018453042954206467
1782845909395180500,7.0191806640625,0.027517911046743393,0.0018367822049185634,0.021813951432704926
1782845909405185500,7.029185546875,0.031866054981946945,0.005882656667381525,0.021454425528645515
1782845909415190500,7.0391904296875,0.030595459043979645,0.001702026231214404,0.01876756176352501
1782845909425195500,7.049195556640625,0.02985510043799877,0.0005986785981804132,0.01489213015884161
1782845909435200500,7.059200439453125,0.031266309320926666,-0.0011744539951905608,-0.002025333931669593
1782845909445204500,7.06920458984375,0.03009425289928913,-0.00002956108801299706,-0.016620256006717682
1782845909455209500,7.07920947265625,0.025966886430978775,0.0027265443932265043,-0.02551388181746006
1782845909465214500,7.08921435546875,0.022335398942232132,0.006953513715416193,-0.029652167111635208
1782845909475219500,7.099219482421875,0.01709855906665325,0.0059902481734752655,-0.027873177081346512
1782845909485224400,7.109224365234375,0.0140143521130085,-0.002910568844527006,-0.02124376967549324
1782845909495229400,7.1192294921875,0.008628375828266144,-0.01104652602225542,-0.007852064445614815
1782845909505234400,7.129234375,0.006200105417519808,-0.012359730899333954,-0.002627474721521139
1782845909515239400,7.139239501953125,0.0021670141723006964,-0.011217234656214714,0.00003382214708835818
1782845909525244400,7.149244384765625,-0.002156894188374281,-0.008409197442233562,0.0021859225817024708
1782845909535249400,7.15924951171875,-0.002633866388350725,-0.006578274071216583,-0.005783320404589176
1782845909545253600,7.169253662109375,-0.0017366473330184817,-0.0064957160502672195,-0.011079548858106136
1782845909555258600,7.179258544921875,-0.008980978280305862,-0.006841660942882299,-0.01350435707718134
1782845909565263600,7.189263671875,-0.013953366316854954,-0.0070794811472296715,-0.015679627656936646
1782845909575268600,7.1992685546875,-0.015917712822556496,-0.009376191534101963,-0.012642824091017246
1782845909585273600,7.209273681640625,-0.015594672411680222,-0.01056023221462965,-0.007463242392987013
1782845909595278600,7.219278564453125,-0.021707693114876747,-0.00871945545077324,-0.0065801385790109634
1782845909605283600,7.22928369140625,-0.01841123215854168,-0.0029172266367822886,-0.0057473680935800076
1782845909615288600,7.23928857421875,-0.014228204265236855,-0.0023734092246741056,-0.0013949638232588768
1782845909625293600,7.24929345703125,-0.014078800566494465,-0.00101146858651191,-0.0011036139912903309
1782845909635298600,7.259298583984375,-0.010209760628640652,-0.0037143107037991285,-0.0017600831342861056
1782845909645302500,7.269302490234375,-0.008821987546980381,-0.00723634148016572,0.0009653958841226995
1782845909655307500,7.2793076171875,-0.006141782272607088,-0.00842810608446598,-0.0018674085149541497
1782845909665312500,7.2893125,-0.009923204779624939,-0.005154814571142197,-0.008158859796822071
1782845909675317500,7.2993173828125,-0.013912353664636612,-0.0021584921050816774,-0.012851083651185036
1782845909685322500,7.309322509765625,-0.01690947450697422,-0.00006231796578504145,-0.01047181524336338
1782845909695327500,7.319327392578125,-0.0184093676507473,-0.0031292142812162638,-0.011343734338879585
1782845909705332500,7.32933251953125,-0.019895410165190697,-0.005944442003965378,-0.013375992886722088
1782845909715337500,7.33933740234375,-0.021582789719104767,-0.0013259878614917397,-0.009517339058220387
1782845909725342500,7.349342529296875,-0.020842697471380234,0.0001227717293659225,-0.002281263703480363
1782845909735347500,7.359347412109375,-0.019634421914815903,-0.0014285196084529161,0.004318581894040108
1782845909745351700,7.3693515625,-0.013748036697506905,0.0008753810543566942,0.0034439999144524336
1782845909755356700,7.379356689453125,-0.009407349862158298,-0.0007922904333099723,0.0029057750944048166
1782845909765361700,7.389361572265625,-0.006432865746319294,-0.0018112158868461847,0.0015968313673511147
1782845909775366700,7.39936669921875,-0.005222192499786615,-0.0003278351214248687,0.0043870252557098866
1782845909785371600,7.40937158203125,-0.006160690449178219,-0.0001549959706608206,0.003876230912283063
1782845909795376600,7.419376708984375,-0.007041664328426123,0.0026554379146546125,0.005047488957643509
1782845909805381600,7.429381591796875,-0.006134058814495802,0.0057191383093595505,0.001817341079004109
1782845909815386600,7.43938671875,-0.003796069882810116,0.0014809839194640517,-0.00044048685231246054
1782845909825391600,7.4493916015625,-0.005568137392401695,0.004626443609595299,-0.0026256104465574026
1782845909835396600,7.459396728515625,-0.0029342707712203264,0.008921056985855103,-0.0024836640805006027
1782845909845400600,7.469400634765625,-0.0044261738657951355,0.007999070920050144,-0.0006924218614585698
1782845909855405600,7.479405517578125,-0.0029411951545625925,0.004975051153451204,0.0007643272401764989
1782845909865410600,7.48941064453125,-0.0002348908019484952,0.0030746194534003735,-0.001713744131848216
1782845909875415600,7.49941552734375,0.005902097560465336,0.0008391620358452201,0.0017190704820677638
1782845909885420500,7.509420654296875,0.005397694651037455,-0.0013206616276875138,0.004232561681419611
1782845909895425500,7.519425537109375,0.007874434813857079,0.001954760169610381,-0.0016421051695942879
1782845909905430500,7.529430419921875,0.0030722226947546005,0.007819839753210545,-0.0013693973887711763
1782845909915435500,7.539435546875,0.003600327530875802,0.008609467186033726,0.003891411004588008
1782845909925440500,7.5494404296875,-0.0017781927017495036,0.007397728972136974,0.006351106334477663
1782845909935445500,7.559445556640625,-0.00195129809435457,0.005203017964959145,0.008859803900122643
1782845909945449500,7.569449462890625,-0.0035393410362303257,0.002123604528605938,0.007450725883245468
1782845909955454500,7.579454345703125,-0.006874950136989355,-0.0025776736438274384,0.006457100156694651
1782845909965459700,7.589459716796875,-0.007517038378864527,0.00012383698776829988,-0.0031529164407402277
1782845909975464700,7.599464599609375,-0.00765951769426465,-0.0012096078135073185,-0.007662447169423103
1782845909985469700,7.6094697265625,-0.007062969263643026,-0.0028570392169058323,-0.010350641794502735
1782845909995474700,7.619474609375,-0.00373135507106781,-0.006878678686916828,-0.007964715361595154
1782845910005479700,7.629479736328125,-0.004640291910618544,-0.005739644635468721,-0.006881608162075281
1782845910015484700,7.639484619140625,-0.0007195860962383449,-0.001041295938193798,-0.004120708908885717
1782845910025489700,7.64948974609375,0.0015843145083636045,0.0023329290561378,-0.0014386395923793316
1782845910035494700,7.65949462890625,0.008871788159012794,0.004135889001190662,-0.00007190534961409867
1782845910045499600,7.669499755859375,0.013261210173368454,0.002525741932913661,0.004963066894561052
1782845910055503600,7.679503662109375,0.018029866740107536,-0.0009041432058438659,0.006580937188118696
1782845910065508600,7.689508544921875,0.023977771401405334,-0.0016250609187409282,0.009552226401865482
1782845910075513600,7.699513671875,0.02377510443329811,-0.004474643152207136,0.003626692807301879
1782845910085518600,7.7095185546875,0.026796460151672363,-0.0017451694002375007,-0.0017310547409579158
1782845910095523600,7.719523681640625,0.024473916739225388,0.0027720844373106956,-0.00780492601916194
1782845910105528600,7.729528564453125,0.02454342693090439,0.004029362928122282,-0.014545120298862457
1782845910115533600,7.739533447265625,0.023574568331241608,0.007032343186438084,-0.016356335952878
1782845910125538600,7.74953857421875,0.025002289563417435,0.003213103860616684,-0.01714223437011242
1782845910135543600,7.75954345703125,0.024637969210743904,-0.0019331886433064938,-0.019863186404109
1782845910145548500,7.769548583984375,0.022554045543074608,-0.003311640815809369,-0.01968475431203842
1782845910155552500,7.779552490234375,0.01471476349979639,-0.003222425002604723,-0.020731376484036446
1782845910165557500,7.7895576171875,0.011658786796033382,-0.005768673028796911,-0.0220286026597023
1782845910175562500,7.7995625,0.009100288152694702,-0.004998753312975168,-0.02052258513867855
1782845910185567700,7.809567626953125,0.003924167715013027,-0.006899717729538679,-0.01576964184641838
1782845910195572700,7.81957275390625,0.0062882560305297375,-0.008420648984611034,-0.018764100968837738
1782845910205577700,7.82957763671875,0.004777977243065834,-0.007297594100236893,-0.018802981823682785
1782845910215582500,7.83958251953125,0.00583791546523571,-0.0008998821140266955,-0.009545302018523216
1782845910225587500,7.84958740234375,0.013742710463702679,-0.0020604876335710287,-0.008804677054286003
1782845910235592400,7.859592529296875,0.017190704122185707,0.0011179950088262558,-0.0021457087714225054
1782845910245597400,7.869597412109375,0.02327869087457657,0.004626443609595299,-0.0011949603212997317
1782845910255601400,7.879601318359375,0.027532026171684265,0.002796052722260356,0.006828344892710447
1782845910265606400,7.8896064453125,0.02731950581073761,0.004225904121994972,0.011509915813803673
1782845910275611400,7.899611328125,0.029993850737810135,-0.0020564929582178593,0.010192183777689934
1782845910285616400,7.909616455078125,0.02930862084031105,-0.014634069986641407,0.010030795820057392
1782845910295621400,7.919621337890625,0.029456958174705505,-0.019695142284035683,0.0049100699834525585
1782845910305626400,7.92962646484375,0.028442027047276497,-0.020438428968191147,-0.004799815360456705
1782845910315631400,7.93963134765625,0.02732137031853199,-0.016334498301148415,-0.009836385026574135
1782845910325636400,7.94963623046875,0.020669059827923775,-0.014652179554104805,-0.02082911506295204
1782845910335641300,7.959641357421875,0.014978417195379734,-0.009041165933012962,-0.025489646941423416
1782845910345646300,7.969646240234375,0.01067954208701849,-0.005991313606500626,-0.0321347676217556
1782845910355650300,7.979650390625,0.004321511369198561,-0.000007456851108145202,-0.030496390536427498
1782845910365655300,7.9896552734375,0.0002069276088150218,0.0036858150269836187,-0.022369753569364548
1782845910375660500,7.99966064453125,-0.006330600008368492,0.0013920343481004238,-0.005358280148357153
1782845910385665500,8.00966552734375,-0.011743741109967232,-0.007228351663798094,0.007574828807264566
1782845910395670500,8.01967041015625,-0.013277189806103706,-0.0081487400457263,0.02551334910094738
1782845910405675500,8.029675537109375,-0.01655607298016548,-0.00956900417804718,0.03568476065993309
1782845910415680500,8.039680419921876,-0.018499914556741714,-0.011276356875896454,0.04080681875348091
1782845910425685500,8.049685546875,-0.019637349992990494,-0.005768673028796911,0.038358572870492935
1782845910435690500,8.0596904296875,-0.020071446895599365,0.000707868195604533,0.0315328910946846
1782845910445695500,8.069695556640625,-0.020202206447720528,0.007099721115082502,0.01733558066189289
1782845910455699500,8.079699462890625,-0.019000323489308357,0.012414058670401573,0.006592122372239828
1782845910465704400,8.089704345703124,-0.017360081896185875,0.012432168237864971,0.0027358653023838997
1782845910475709400,8.09970947265625,-0.01266679260879755,0.009563411585986614,0.002159290947020054
1782845910485714400,8.10971435546875,-0.007489075418561697,0.005196892656385899,0.007863782346248627
1782845910495719400,8.119719482421875,0.0012186624808236957,-0.0027209515683352947,0.014624749310314655
1782845910505724400,8.129724365234376,0.008294148370623589,-0.0017787253018468618,0.01227584108710289
1782845910515729400,8.1397294921875,0.015517440624535084,-0.000284159294096753,0.009385245852172375
1782845910525734400,8.149734375,0.017536915838718414,0.0005070658517070115,0.0002412823960185051
1782845910535739400,8.159739501953124,0.021151091903448105,-0.003522563260048628,-0.00549223693087697
1782845910545744400,8.169744384765625,0.01926290988922119,-0.002895388752222061,-0.009825199842453003
1782845910555748400,8.179748291015626,0.016165120527148247,-0.005143895745277405,-0.015842080116271973
1782845910565753300,8.18975341796875,0.01044305320829153,-0.00566986994817853,-0.01985120214521885
1782845910575758300,8.19975830078125,0.00552339619025588,-0.004781972151249647,-0.023900538682937622
1782845910585763300,8.209763427734375,-0.00023222764139063656,-0.001865277998149395,-0.023865384981036186
1782845910595768600,8.2197685546875,0.0009571401169523597,0.0012804478174075484,-0.023976972326636314
1782845910605773600,8.229773681640625,-0.005412076134234667,-0.0026043052785098553,-0.017227455973625183
1782845910615778600,8.239778564453125,-0.003227484878152609,-0.00518810423091054,-0.003213370218873024
1782845910625783600,8.249783447265624,-0.001731320982798934,-0.012930712662637234,0.0049375006929039955
1782845910635788500,8.25978857421875,-0.0017720673931762576,-0.013078783638775349,0.009800964966416359
1782845910645793500,8.26979345703125,0.000336090917699039,-0.0043832967057824135,0.010599914006888866
1782845910655797200,8.27979736328125,0.004502073861658573,-0.0012948289513587952,0.01619521528482437
1782845910665802200,8.28980224609375,0.011018030345439911,-0.001686579897068441,0.022175610065460205
1782845910675807500,8.299807373046875,0.017362745478749275,-0.0010253170039504766,0.02250770665705204
1782845910685812500,8.3098125,0.020557472482323647,0.0005291700945235789,0.022120747715234756
1782845910695817500,8.3198173828125,0.0278627909719944,-0.00022530343267135322,0.022102106362581253
1782845910705822500,8.329822509765625,0.030716633424162865,-0.0006689860601909459,0.015500130131840706
1782845910715827500,8.339827392578124,0.0326189287006855,-0.0010692591313272715,0.004560130648314953
1782845910725832400,8.34983251953125,0.035351864993572235,0.0007925567333586514,-0.006431001238524914
1782845910735837400,8.35983740234375,0.035353995859622955,0.0019497001776471734,-0.020499948412179947
1782845910745842400,8.369842529296875,0.03473268076777458,0.0004093278548680246,-0.02786545269191265
1782845910755846100,8.37984619140625,0.03478434681892395,-0.0015598133904859424,-0.029031384736299515
1782845910765851100,8.38985107421875,0.02965642884373665,-0.005465605296194553,-0.026462499052286148
1782845910775856400,8.3998564453125,0.02153858169913292,-0.00815033819526434,-0.023567909374833107
1782845910785861400,8.409861328125,0.017198428511619568,-0.005685316398739815,-0.020976122468709946
1782845910795866400,8.419866455078125,0.005106877535581589,-0.0038831550627946854,-0.012312592938542366
1782845910805871400,8.429871337890624,-0.00013875069271307439,-0.004009655211120844,-0.0024314660113304853
1782845910815876400,8.43987646484375,-0.006939398590475321,-0.005406749434769154,0.010328537784516811
1782845910825881300,8.44988134765625,-0.009827597066760063,-0.007667773403227329,0.01799577847123146
1782845910835886300,8.45988623046875,-0.009129316546022892,-0.001657018787227571,0.021098893135786057
1782845910845891600,8.4698916015625,-0.008821188472211361,0.015114770270884037,0.04791745916008949
1782845910855895300,8.479895263671875,-0.0058094197884202,0.015605058521032333,0.052324987947940826
1782845910865900300,8.489900390625,0.0025004418566823006,0.0179947130382061,0.02022271417081356
1782845910875905300,8.4999052734375,0.01649242453277111,-0.012899819761514664,-0.0006087986403144896
1782845910885910300,8.50991015625,0.027353327721357346,-0.031617049127817154,0.011156514286994934
1782845910895915300,8.519915283203124,0.025982864201068878,-0.026087526232004166,0.019404856488108635
1782845910905920300,8.529920166015625,0.022530609741806984,-0.004132959526032209,0.008974586613476276
