time,seconds_elapsed,z,y,x
1782845873700853500,0.074853515625,0.010705262422561646,-0.003706336719915271,-0.004100105259567499
1782845873710857700,0.084857666015625,0.008369599469006062,-0.005169362761080265,0.00044705066829919815
1782845873720862700,0.09486279296875,0.009219946339726448,-0.008080463856458664,0.005460184998810291
1782845873730867700,0.10486767578125,0.010704041458666325,-0.00869422685354948,0.007219287566840649
1782845873740872700,0.114872802734375,0.01103294175118208,-0.009259083308279514,0.0035246845800429583
1782845873750877700,0.124877685546875,0.008356493897736073,0.00041930912993848324,-0.0013630467001348734
1782845873760882700,0.134882568359375,0.0067548686638474464,0.0029253438115119934,-0.003592911409214139
1782845873770887700,0.1448876953125,0.010058799758553505,0.002441201126202941,-0.005348744336515665
1782845873780892700,0.154892578125,0.011219938285648823,-0.006531254388391972,-0.005548747722059488
1782845873790897700,0.164897705078125,0.008468164131045341,-0.005502857267856598,-0.007404246833175421
1782845873800901600,0.174901611328125,0.00692433025687933,-0.007535914890468121,-0.004309120588004589
1782845873810906600,0.18490673828125,0.0026756764855235815,-0.0008040794637054205,0.0023481000680476427
1782845873820911600,0.19491162109375,0.002032523276284337,0.002627936191856861,0.009231305681169033
1782845873830916600,0.20491650390625,-0.00038088904693722725,0.00783657468855381,0.018474126234650612
1782845873840921600,0.214921630859375,-0.00045891967602074146,0.007705280557274818,0.02538183331489563
1782845873850926600,0.224926513671875,0.005841194652020931,-0.0005442504771053791,0.03825568035244942
1782845873860931600,0.234931640625,0.008549096062779427,-0.010999022051692009,0.03845515102148056
1782845873870936600,0.2449365234375,0.010655558668076992,-0.017895469442009926,0.03490472212433815
1782845873880940800,0.25494091796875,0.01681571640074253,-0.016386788338422775,0.019658125936985016
1782845873890945800,0.26494580078125,0.016688501462340355,-0.007648784667253494,0.0024644057266414165
1782845873900950800,0.27495068359375,0.01942463405430317,-0.002978133037686348,-0.009403172880411148
1782845873910955800,0.284955810546875,0.01807541772723198,0.0014135551173239946,-0.008785788901150227
1782845873920960800,0.294960693359375,0.019081294536590576,-0.0013500070199370384,-0.008195365779101849
1782845873930965800,0.3049658203125,0.023886410519480705,-0.0036291806027293205,-0.0018162737833335996
1782845873940970800,0.314970703125,0.028173033148050308,-0.002428893931210041,0.003557452466338873
1782845873950975700,0.324975830078125,0.0323934406042099,-0.005558982491493225,0.011755631305277348
1782845873960980700,0.334980712890625,0.03349572420120239,-0.005173090845346451,0.014249415136873722
1782845873970984700,0.344984619140625,0.03844442218542099,-0.008771799504756927,0.012237651273608208
1782845873980989700,0.35498974609375,0.03748248890042305,-0.00915076769888401,0.008528933860361576
1782845873990994700,0.36499462890625,0.03733796626329422,-0.010342361405491829,0.005579664837568998
1782845874000999700,0.374999755859375,0.032922711223363876,-0.010631313547492027,-0.0003709024749696255
1782845874011004700,0.385004638671875,0.03281513229012489,-0.008890119381248951,-0.006786469370126724
1782845874021009700,0.395009765625,0.027632886543869972,-0.005430406890809536,-0.005723601672798395
1782845874031014700,0.4050146484375,0.020405586808919907,0.0005395810585469007,-0.0031083659268915653
1782845874041019600,0.41501953125,0.011659499257802963,0.0036392342299222946,0.0049333153292536736
1782845874051024600,0.425024658203125,0.005739572457969189,0.0010799565352499485,0.0039657773450016975
1782845874061028600,0.435028564453125,0.002228993456810713,-0.0013757445849478245,0.006712561473250389
1782845874071033600,0.44503369140625,-0.0066647594794631,-0.004831318743526936,0.0031517755705863237
1782845874081038600,0.45503857421875,-0.013898704200983047,-0.0026951974723488092,0.0029981110710650682
1782845874091043600,0.465043701171875,-0.018877075985074043,-0.0011542572174221277,0.001800341298803687
1782845874101048800,0.475048828125,-0.02312934584915638,0.004512150771915913,0.002124448074027896
1782845874111053800,0.4850537109375,-0.02872171625494957,0.006455459166318178,0.004892005119472742
1782845874121058800,0.495058837890625,-0.027990147471427917,0.008872278034687042,0.01112193800508976
1782845874131063800,0.505063720703125,-0.029236268252134323,0.010123765096068382,0.014068223536014557
1782845874141067800,0.51506787109375,-0.02205318957567215,0.01014080923050642,0.018267229199409485
1782845874151072800,0.52507275390625,-0.01652793027460575,0.01305563934147358,0.0179271437227726
1782845874161077800,0.535077880859375,-0.010215438902378082,0.010854803025722504,0.017538322135806084
1782845874171082800,0.545082763671875,-0.00559870945289731,0.008213622495532036,0.011444072239100933
1782845874181089300,0.55508935546875,0.0024432381615042686,0.005403188988566399,0.0057819257490336895
1782845874191094300,0.56509423828125,0.010748377069830894,-0.0007011580746620893,-0.004571719095110893
1782845874201099300,0.575099365234375,0.007932882755994797,-0.004243695177137852,-0.010054102167487144
1782845874211104300,0.585104248046875,0.004412324167788029,0.002092907205224037,-0.01867728866636753
1782845874221109200,0.595109130859375,0.0032788824755698442,0.003011697670444846,-0.022753523662686348
1782845874231113200,0.60511328125,0.0031536004971712828,0.0009431177750229836,-0.023540373891592026
1782845874241118200,0.6151181640625,-0.0002725559752434492,-0.0008614400867372751,-0.025820838287472725
1782845874251123200,0.625123291015625,0.0013400455936789513,0.0011499098036438227,-0.025997469201683998
1782845874261128200,0.635128173828125,-0.001671190606430173,0.004977937322109938,-0.021587539464235306
1782845874271133200,0.64513330078125,0.0008277373854070902,0.0024044294841587543,-0.010716601274907589
1782845874281138200,0.65513818359375,0.00014676712453365326,-0.0007162627298384905,-0.0028352420777082443
1782845874291143200,0.66514306640625,0.0002901987172663212,-0.00612258305773139,0.011321705766022205
1782845874301148200,0.675148193359375,-0.004278986714780331,-0.010514134541153908,0.016700226813554764
1782845874311153200,0.685153076171875,-0.0115548400208354,-0.005177618004381657,0.02202398143708706
1782845874321157000,0.6951572265625,-0.014618806540966034,-0.002816193038597703,0.02202717773616314
1782845874331162000,0.705162109375,-0.02742801047861576,0.00020116101950407028,0.0251145139336586
1782845874341167000,0.7151669921875,-0.03134338930249214,0.003041954943910241,0.02404019422829151
1782845874351172000,0.725172119140625,-0.03507600724697113,0.006292227655649185,0.023567676544189453
1782845874361177000,0.735177001953125,-0.0357884019613266,0.010729053989052773,0.018512465059757233
1782845874371182000,0.74518212890625,-0.037171635776758194,0.01010403037071228,0.010020963847637177
1782845874381187300,0.755187255859375,-0.03463710471987724,0.010193511843681335,0.0066030630841851234
1782845874391192300,0.7651923828125,-0.030789900571107864,0.0026999094989150763,0.0021619757171720266
1782845874401197300,0.775197265625,-0.025075554847717285,-0.006677612662315369,-0.0013723054435104132
1782845874411201300,0.785201171875,-0.019348343834280968,-0.00791341532021761,-0.004469380248337984
1782845874421206300,0.795206298828125,-0.014481416903436184,-0.0065661221742630005,-0.013528122566640377
1782845874431211300,0.805211181640625,-0.00919051468372345,-0.00444038724526763,-0.015704190358519554
1782845874441216300,0.81521630859375,-0.004737976007163525,0.0031943628564476967,-0.023363707587122917
1782845874451221200,0.82522119140625,-0.0010527489939704537,0.014163951389491558,-0.024220658466219902
1782845874461226200,0.835226318359375,-0.0001571278553456068,0.018982408568263054,-0.02041420340538025
1782845874471231200,0.845231201171875,-0.00014220108278095722,0.015137622132897377,-0.009473416954278946
1782845874481236200,0.855236328125,0.001837326679378748,0.004853293765336275,0.0017078644596040249
1782845874491240200,0.865240234375,0.0032656642142683268,-0.006194924935698509,0.011184638366103172
1782845874501245200,0.8752451171875,-0.0027935595717281103,-0.017724283039569855,0.018956009298563004
1782845874511250200,0.885250244140625,-0.004476761911064386,-0.017556939274072647,0.015207694843411446
1782845874521255200,0.895255126953125,-0.006745508871972561,-0.010283581912517548,0.00909866951406002
1782845874531260200,0.90526025390625,-0.009159089997410774,-0.002464588265866041,-0.0024911840446293354
1782845874541265200,0.91526513671875,-0.009051231667399406,0.0024273726157844067,-0.004060585051774979
1782845874551270100,0.925270263671875,-0.009435316547751427,0.0027478868141770363,-0.005261079408228397
1782845874561275100,0.935275146484375,-0.00813276506960392,0.0016514634480699897,0.0022524972446262836
1782845874571280100,0.945280029296875,-0.010070087388157845,-0.00015962962061166763,0.011804064735770226
1782845874581285000,0.95528515625,-0.012789175845682621,-0.0006797448731958866,0.017225461080670357
1782845874591289000,0.9652890625,-0.012596584856510162,-0.00016244850121438503,0.02006860263645649
1782845874601294000,0.975294189453125,-0.012686067260801792,-0.004303131252527237,0.01984196901321411
1782845874611299300,0.98529931640625,-0.009543649852275848,-0.007371461950242519,0.01873740553855896
1782845874621304300,0.99530419921875,-0.008832053281366825,-0.009412243030965328,0.014414828270673752
1782845874631309300,1.005309326171875,-0.00958236400038004,-0.012570676393806934,0.0090505201369524
1782845874641314300,1.015314208984375,-0.011922216974198818,-0.012472406029701233,0.002388089895248413
1782845874651319300,1.0253193359375,-0.011655636131763458,-0.01779116317629814,-0.006662658415734768
1782845874661324300,1.03532421875,-0.011339785531163216,-0.015215086750686169,-0.014319512993097305
1782845874671329300,1.045329345703125,-0.0068372213281691074,-0.008507334627211094,-0.018740585073828697
1782845874681333000,1.0553330078125,-0.002382285427302122,-0.004443351179361343,-0.021082568913698196
1782845874691338000,1.065337890625,-0.0021331245079636574,-0.01000450924038887,-0.007813257165253162
1782845874701343000,1.075343017578125,0.00648513063788414,-0.01734950765967369,0.00024333741748705506
1782845874711348000,1.085347900390625,0.00978903565555811,-0.01950162835419178,0.007380887866020203
1782845874721353000,1.09535302734375,0.015272483229637146,-0.012547049671411514,0.011763385497033596
1782845874731358000,1.10535791015625,0.015292737632989883,-0.006794068031013012,0.014936530031263828
1782845874741363000,1.115363037109375,0.01636412739753723,-0.000513802282512188,0.01593095436692238
1782845874751368000,1.125367919921875,0.019499830901622772,0.005924846976995468,0.015299154445528984
1782845874761372200,1.1353720703125,0.018732041120529175,0.0066550858318805695,0.018191348761320114
1782845874771377200,1.145377197265625,0.018707863986492157,0.0032455711625516415,0.022963404655456543
1782845874781382100,1.155382080078125,0.016785327345132828,-0.0019105749670416117,0.027136579155921936
1782845874791387100,1.16538720703125,0.011279339902102947,-0.004199637565761805,0.024252280592918396
1782845874801392000,1.17539208984375,0.00585101917386055,-0.006333095952868462,0.018222350627183914
1782845874811397000,1.185397216796875,-0.004022874869406223,-0.006381613202393055,0.011562274768948555
1782845874821402000,1.195402099609375,-0.008899388834834099,-0.0029756962321698666,0.00596537534147501
1782845874831407000,1.205406982421875,-0.013127243146300316,0.004346603062003851,0.005735365208238363
1782845874841412000,1.215412109375,-0.013823393732309341,0.006977539509534836,0.0032817949540913105
1782845874851416000,1.225416015625,-0.01487528532743454,0.002761619631201029,0.006258619483560324
1782845874861421000,1.235421142578125,-0.013975669629871845,0.004517974331974983,0.0025216718204319477
1782845874871426000,1.245426025390625,-0.013873010873794556,-0.001134728081524372,0.0068435887806117535
1782845874881431000,1.25543115234375,-0.011332621797919273,0.001274100854061544,0.005596430506557226
1782845874891436000,1.26543603515625,-0.010852131992578506,0.0041942293755710125,0.005040041171014309
1782845874901441000,1.27544091796875,-0.00612262450158596,0.009159693494439125,0.004815004300326109
1782845874911446000,1.285446044921875,-0.0019471670966595411,0.003826876636594534,0.006615947000682354
1782845874921451000,1.295450927734375,0.004815131425857544,-0.004376458004117012,0.00038628035690635443
1782845874931456000,1.3054560546875,0.009796238504350185,-0.006084069609642029,-0.0051301224157214165
1782845874941460200,1.315460205078125,0.008069978095591068,-0.009164015762507915,-0.007706730626523495
1782845874951465200,1.32546533203125,0.006807750556617975,-0.010869558900594711,-0.015087525360286236
1782845874961470200,1.33547021484375,0.0021711871959269047,-0.005390637554228306,-0.022748641669750214
1782845874971475200,1.34547509765625,0.0017236650455743074,0.0006646465044468641,-0.025378668680787086
1782845874981480200,1.355480224609375,-0.0047792415134608746,0.003764566034078598,-0.02306544780731201
1782845874991485200,1.365485107421875,-0.0020035819616168737,0.005240060389041901,-0.01739276386797428
1782845875001490200,1.375490234375,-0.0040369052439928055,0.005980951711535454,-0.012140477076172829
1782845875011495200,1.3854951171875,0.00026836059987545013,0.004345504567027092,-0.007719096262007952
1782845875021500200,1.395500244140625,0.006525990087538958,0.0008093591313809156,-0.01049517560750246
1782845875031505200,1.405505126953125,0.007499893195927143,-0.0033855640795081854,-0.007806430570781231
1782845875041509000,1.415509033203125,0.005357113666832447,-0.0015924579929560423,-0.012012893334031105
1782845875051514000,1.42551416015625,0.0035783194471150637,0.005160527303814888,-0.01596149429678917
1782845875061519000,1.43551904296875,-0.00048033788334578276,0.010298031382262707,-0.017011046409606934
1782845875071524000,1.445524169921875,-0.00657198391854763,0.016447795554995537,-0.01433117501437664
1782845875081529000,1.455529052734375,-0.013321765698492527,0.01977088674902916,-0.013689885847270489
1782845875091534000,1.4655341796875,-0.01655241847038269,0.018434446305036545,-0.008425112813711166
1782845875101539000,1.4755390625,-0.019238747656345367,0.02009253017604351,-0.0027144961059093475
1782845875111544000,1.4855439453125,-0.019757095724344254,0.02479228377342224,0.0008576985565014184
1782845875121549000,1.495549072265625,-0.020808245986700058,0.016328759491443634,0.011899963021278381
1782845875131553300,1.50555322265625,-0.015615910291671753,0.005450080614537001,0.013641434721648693
1782845875141558300,1.515558349609375,-0.01526863407343626,0.0008806288242340088,0.008579031564295292
1782845875151563300,1.525563232421875,-0.012775901705026627,0.0017552310600876808,-0.003810539608821273
1782845875161568300,1.535568359375,-0.008768110536038876,0.008233370259404182,-0.016017936170101166
1782845875171573200,1.5455732421875,-0.009779803454875946,0.009071951732039452,-0.025890585035085678
1782845875181576400,1.555576416015625,-0.012173718772828579,0.007956087589263916,-0.024382969364523888
1782845875191581400,1.56558154296875,-0.02009042724967003,0.00636659748852253,-0.015885425731539726
1782845875201586400,1.57558642578125,-0.023270774632692337,0.0071540940552949905,-0.008914601057767868
1782845875211591400,1.58559130859375,-0.031138060614466667,0.009773893281817436,-0.005162431392818689
1782845875221595600,1.595595703125,-0.030268272385001183,0.008269473910331726,-0.0008800685754977167
1782845875231600600,1.6056005859375,-0.030440423637628555,0.0014705870999023318,-0.0024032830260694027
1782845875241605600,1.615605712890625,-0.0228275116533041,0.00026524043641984463,-0.006803890224546194
1782845875251610600,1.625610595703125,-0.019421149045228958,-0.005674312822520733,-0.005325485486537218
1782845875261615600,1.63561572265625,-0.013010120019316673,-0.009179298765957355,-0.00821581482887268
1782845875271620600,1.64562060546875,-0.010728899389505386,-0.0075600482523441315,-0.011857911013066769
1782845875281625600,1.65562548828125,-0.010733425617218018,-0.00523564126342535,-0.017469724640250206
1782845875291630600,1.665630615234375,-0.014429332688450813,-0.00047983694821596146,-0.015897423028945923
1782845875301635600,1.675635498046875,-0.019978826865553856,0.006910967640578747,-0.005907638929784298
1782845875311639600,1.6856396484375,-0.024027224630117416,0.0063318731263279915,0.007556631229817867
1782845875321644500,1.69564453125,-0.025596626102924347,0.009730599820613861,0.013036618009209633
1782845875331649500,1.7056494140625,-0.02502164989709854,0.0068855443969368935,0.014315733686089516
1782845875341654500,1.715654541015625,-0.025329511612653732,0.001401563291437924,0.013507731258869171
1782845875351659500,1.725659423828125,-0.024078454822301865,-0.001397609943524003,0.004073579795658588
1782845875361664500,1.73566455078125,-0.02339801751077175,-0.004187803715467453,-0.009087229147553444
1782845875371669500,1.74566943359375,-0.023508790880441666,-0.004546511452645063,-0.019715119153261185
1782845875381674500,1.755674560546875,-0.02047252096235752,-0.007037365809082985,-0.03198163956403732
1782845875391679500,1.765679443359375,-0.018976638093590736,-0.006380917504429817,-0.043465178459882736
1782845875401683500,1.775683349609375,-0.01610282063484192,-0.005368117243051529,-0.043989554047584534
1782845875411688400,1.7856884765625,-0.01258824672549963,-0.005661863833665848,-0.03452600911259651
1782845875421693400,1.795693359375,-0.009482468478381634,0.005748183932155371,-0.029374392703175545
1782845875431698700,1.80569873046875,-0.003466192167252302,0.008857274428009987,-0.014187644235789776
1782845875441703700,1.81570361328125,-0.0009276669006794691,0.004510995000600815,-0.0019096728647127748
1782845875451708700,1.825708740234375,0.005281213670969009,-0.002740546828135848,0.009944602847099304
1782845875461713700,1.835713623046875,0.007289236411452293,-0.0032854292076081038,0.01069934293627739
1782845875471718700,1.84571875,0.008211798965930939,-0.008335895836353302,0.008763715624809265
1782845875481723600,1.8557236328125,0.00803549773991108,-0.014418555423617363,0.0015856972895562649
1782845875491728600,1.865728759765625,0.0038344580680131912,-0.01591852307319641,-0.0040355343371629715
1782845875501732600,1.875732666015625,0.0015417425893247128,-0.011317912489175797,-0.011024201288819313
1782845875511737600,1.885737548828125,-0.0015657448675483465,-0.005619757808744907,-0.018176542595028877
1782845875521742600,1.89574267578125,-0.004392690025269985,0.004465899430215359,-0.01958056166768074
1782845875531747600,1.90574755859375,-0.005708194337785244,0.008579875342547894,-0.015629857778549194
1782845875541752600,1.915752685546875,-0.004956383723765612,0.007704760413616896,-0.009182612411677837
1782845875551757600,1.925757568359375,-0.0016348626231774688,-0.0010364926420152187,-0.006201497279107571
1782845875561762600,1.935762451171875,0.005813732743263245,-0.006564149167388678,-0.0029966491274535656
1782845875571767600,1.945767578125,0.0065047405660152435,-0.008514394983649254,-0.005777706392109394
1782845875581772500,1.9557724609375,0.0036578213330358267,-0.010374080389738083,-0.007510625757277012
1782845875591776500,1.965776611328125,0.0009538296144455671,-0.0028950299602001905,-0.015962881967425346
1782845875601781500,1.975781494140625,-0.0029847193509340286,0.003280041506513953,-0.019805291667580605
1782845875611786500,1.985786376953125,-0.009377708658576012,0.005597639828920364,-0.024201298132538795
1782845875621791500,1.99579150390625,-0.0132206492125988,0.0031938706524670124,-0.01924142614006996
1782845875631796500,2.00579638671875,-0.017225734889507294,0.0054503194987773895,-0.010653041303157806
1782845875641801500,2.015801513671875,-0.023666856810450554,0.005667633377015591,0.0072402055375278
1782845875651806700,2.025806640625,-0.025934411212801933,0.006470433436334133,0.025797784328460693
1782845875661811700,2.035811767578125,-0.02284621074795723,0.0003704626578837633,0.03738493099808693
1782845875671816700,2.045816650390625,-0.020698146894574165,0.0024973107501864433,0.04270463436841965
1782845875681820700,2.055820556640625,-0.0184475090354681,0.002806503791362047,0.036800939589738846
1782845875691825700,2.06582568359375,-0.015887383371591568,0.01115757692605257,0.02820662595331669
1782845875701830700,2.07583056640625,-0.015345697291195393,0.015482017770409584,0.022412119433283806
1782845875711835600,2.085835693359375,-0.014151508919894695,0.018053339794278145,0.01617124304175377
1782845875721840600,2.095840576171875,-0.013558156788349152,0.013776303268969059,0.020482899621129036
1782845875731845600,2.105845703125,-0.00770968571305275,0.008632749319076538,0.026846354827284813
1782845875741850600,2.1158505859375,-0.0032060144003480673,0.005945086944848299,0.0347580760717392
1782845875751855600,2.125855712890625,-0.0007394654676318169,0.004571810830384493,0.03862079232931137
1782845875761860600,2.135860595703125,-0.0031570831779390574,0.011296824552118778,0.03489236533641815
1782845875771864300,2.1458642578125,0.004439976532012224,0.012418138794600964,0.02663111686706543
1782845875781869600,2.15586962890625,0.0032420866191387177,0.007992763072252274,0.01185829471796751
1782845875791874600,2.16587451171875,0.004530302248895168,0.003201847430318594,-0.004611272364854813
1782845875801879600,2.175879638671875,0.0034732932690531015,-0.004013987258076668,-0.022784151136875153
1782845875811884500,2.185884521484375,0.0036848592571914196,-0.0034531806595623493,-0.03465157374739647
1782845875821889500,2.1958896484375,0.003551701083779335,-0.0006997387390583754,-0.0438714362680912
1782845875831894500,2.20589453125,0.003609099192544818,0.0033824979327619076,-0.04879948869347572
1782845875841899500,2.2158994140625,0.0030719393398612738,0.00777298491448164,-0.043696340173482895
1782845875851904500,2.225904541015625,0.009083743207156658,0.007676667533814907,-0.03521575406193733
1782845875861909500,2.235909423828125,0.009869376197457314,0.005538415163755417,-0.014464403502643108
1782845875871913500,2.24591357421875,0.012566751800477505,0.001263099373318255,0.0027056694962084293
1782845875881918500,2.25591845703125,0.01428821962326765,-0.0046091703698039055,0.011698631569743156
1782845875891923500,2.26592333984375,0.015284032560884953,-0.004448718391358852,0.011983266100287437
1782845875901928400,2.275928466796875,0.013313028030097485,-0.0037613564636558294,0.00845058262348175
1782845875911933400,2.285933349609375,0.013908229768276215,-0.002820748370140791,0.001364988274872303
1782845875921938400,2.2959384765625,0.013667214661836624,-0.002179458737373352,0.0010219732066616416
1782845875931943400,2.305943359375,0.013196494430303574,-0.002058694837614894,-0.004188096150755882
1782845875941948700,2.31594873046875,0.010883006267249584,-0.0014490971807390451,-0.006651253439486027
1782845875951953700,2.32595361328125,0.008980526588857174,0.005271934904158115,-0.008690515533089638
1782845875961957400,2.335957275390625,0.005438256077468395,0.01050478033721447,-0.007420720532536507
1782845875971962400,2.34596240234375,0.00807931274175644,0.00816386193037033,-0.00587688572704792
1782845875981967400,2.35596728515625,0.008397826924920082,0.009736725129187107,-0.003194283926859498
1782845875991972400,2.365972412109375,0.011193053796887398,0.0032795839942991734,-0.0035026525147259235
1782845876001977300,2.375977294921875,0.013958213850855827,-0.0039650131948292255,-0.002077062614262104
1782845876011982300,2.385982421875,0.016368765383958817,-0.005677726119756699,-0.006629326846450567
1782845876021987300,2.3959873046875,0.015257162973284721,-0.0031716919038444757,-0.008118299767374992
1782845876031992300,2.405992431640625,0.01166339498013258,-0.009640435688197613,-0.006983695551753044
1782845876041997300,2.415997314453125,0.004602556116878986,-0.008549870923161507,-0.008485718630254269
1782845876052002300,2.426002197265625,-0.0021712789312005043,-0.002440749667584896,-0.010439862497150898
1782845876062006500,2.436006591796875,-0.00824941135942936,-0.002557929139584303,-0.007426229305565357
1782845876072011500,2.446011474609375,-0.012860112823545933,0.002801348455250263,-0.004340985789895058
1782845876082016500,2.4560166015625,-0.014351749792695045,0.00527649000287056,0.002902545966207981
1782845876092021500,2.466021484375,-0.008463263511657715,0.004826484248042107,0.006879739463329315
1782845876102026500,2.476026611328125,-0.0008468888700008392,0.003922340925782919,0.004309789277613163
1782845876112031500,2.486031494140625,0.004504509270191193,-0.00026046764105558395,0.0037257159128785133
1782845876122036500,2.496036376953125,0.004912771750241518,-0.00248607131652534,0.002252455335110426
1782845876132041500,2.50604150390625,0.001547546125948429,-0.0005805520340800285,-0.002081783954054117
1782845876142046500,2.51604638671875,0.002230380428954959,0.0025254925712943077,-0.004027223214507103
1782845876152050400,2.526050537109375,0.00019848626106977463,0.007569178007543087,-0.002352458657696843
1782845876162055400,2.536055419921875,0.0001758495345711708,0.009691717103123665,0.003085449803620577
1782845876172060400,2.546060302734375,0.0029473721515387297,0.0045225899666547775,0.004809608682990074
1782845876182065400,2.5560654296875,0.005238223820924759,0.005387584678828716,0.0063284095376729965
1782845876192070400,2.5660703125,0.00493805855512619,0.007537780329585075,0.000679871765896678
1782845876202075400,2.576075439453125,0.0058842794969677925,0.00826082844287157,0.0005541705759242177
1782845876212080400,2.586080322265625,0.010664962232112885,0.0016630656318739057,-0.004658742807805538
1782845876222085400,2.59608544921875,0.010622351430356503,-0.0026698976289480925,-0.011513452976942062
1782845876232090400,2.60609033203125,0.009461281821131706,-0.0033354286570101976,-0.012897566892206669
1782845876242095400,2.616095458984375,0.005535249598324299,-0.0029186441097408533,-0.011568916030228138
1782845876252099600,2.626099609375,-0.00042818207293748856,0.005421830806881189,-0.012158459052443504
1782845876262104600,2.6361044921875,-0.0036527374759316444,0.00797287281602621,-0.009094491600990295
1782845876272109600,2.646109619140625,-0.004494480788707733,0.013939698226749897,-0.006049514748156071
1782845876282114600,2.656114501953125,-0.007382146082818508,0.015928013250231743,0.001783374696969986
1782845876292119600,2.66611962890625,-0.011255980469286442,0.009373708628118038,0.01017579436302185
1782845876302124500,2.67612451171875,-0.012564125470817089,0.007833070121705532,0.01381766702979803
1782845876312129500,2.686129638671875,-0.009383369237184525,0.009766560047864914,0.012867041863501072
1782845876322134500,2.696134521484375,-0.00905979610979557,0.004812547471374273,0.011551973409950733
1782845876332139500,2.706139404296875,-0.004362738691270351,0.005957501009106636,0.01426782552152872
1782845876342143500,2.7161435546875,-0.00005720602348446846,0.00737856375053525,0.015504064038395882
1782845876352148500,2.7261484375,0.000301901251077652,0.008420228958129883,0.01931227371096611
1782845876362153500,2.736153564453125,0.00027500325813889503,0.010009337216615677,0.017357246950268745
1782845876372158500,2.746158447265625,0.0029521104879677296,0.009102455340325832,0.016154730692505836
1782845876382163500,2.75616357421875,0.007523693144321442,0.009576497599482536,0.008124501444399357
1782845876392168400,2.76616845703125,0.006386858411133289,0.009440936148166656,0.006444508675485849
1782845876402173400,2.77617333984375,0.0063035013154149055,0.009017227217555046,0.0011032727779820561
1782845876412178400,2.786178466796875,0.010655374266207218,0.0038900007493793964,-0.006650254596024752
1782845876422183400,2.796183349609375,0.016604876145720482,-0.0036779039073735476,-0.013014943338930607
1782845876432188400,2.8061884765625,0.01681913435459137,-0.014679545536637306,-0.022950004786252975
1782845876442192600,2.816192626953125,0.01802554540336132,-0.012082165107131004,-0.02496016025543213
1782845876452197600,2.82619775390625,0.014843111857771873,-0.007843258790671825,-0.024674978107213974
1782845876462202600,2.83620263671875,0.009719455614686012,-0.002246359596028924,-0.02049221657216549
1782845876472207600,2.84620751953125,0.010567406192421913,0.0010911140125244856,-0.017466066405177116
1782845876482212600,2.856212646484375,0.009320514276623726,0.005577208939939737,-0.014708096161484718
1782845876492217600,2.866217529296875,0.009047849103808403,0.008762035518884659,-0.009608185850083828
1782845876502222600,2.87622265625,0.009795132093131542,0.011167935095727444,0.0008561730501241982
1782845876512227600,2.8862275390625,0.008683232590556145,0.007248895242810249,0.009599359706044197
1782845876522232600,2.896232666015625,0.010181261226534843,0.0029100733809173107,0.019558517262339592
1782845876532236500,2.906236572265625,0.017936736345291138,-0.004099728539586067,0.022439174354076385
1782845876542241500,2.916241455078125,0.02318822406232357,-0.015227747149765491,0.014504818245768547
1782845876552246500,2.92624658203125,0.030156301334500313,-0.01513390801846981,-0.001952900318428874
1782845876562251500,2.93625146484375,0.02869236096739769,-0.009774829261004925,-0.010912040248513222
1782845876572256500,2.946256591796875,0.024502087384462357,-0.000755207845941186,-0.016746437177062035
1782845876582261500,2.956261474609375,0.02084982767701149,0.007393798790872097,-0.023308733478188515
1782845876592266500,2.9662666015625,0.015620755031704903,0.015244483016431332,-0.025659015402197838
1782845876602271500,2.976271484375,0.01019269973039627,0.012259080074727535,-0.020996352657675743
1782845876612276500,2.9862763671875,0.0032337310258299112,0.00647627841681242,-0.011924968101084232
1782845876622281500,2.996281494140625,-0.002271022880449891,-0.003308441722765565,0.0029373345896601677
1782845876632285700,3.00628564453125,-0.005972996354103088,-0.00988505594432354,0.012229553423821926
1782845876642290700,3.016290771484375,-0.009801557287573814,-0.01175086759030819,0.015129469335079193
1782845876652295700,3.026295654296875,-0.010793473571538925,-0.01135304570198059,0.015421506017446518
1782845876662300700,3.03630078125,-0.011739428155124187,-0.010136246681213379,0.005032248795032501
1782845876672305700,3.0463056640625,-0.013464988209307194,-0.006037834100425243,0.006219318136572838
1782845876682310700,3.056310546875,-0.015620017424225807,0.00038091675378382206,-0.0011347351828590035
1782845876692315600,3.066315673828125,-0.015605510212481022,0.008585173636674881,-0.004240639507770538
1782845876702320600,3.076320556640625,-0.0176130011677742,0.009397970512509346,0.0015298975631594658
1782845876712325600,3.08632568359375,-0.01457702461630106,0.006158460862934589,0.008949489332735538
1782845876722329600,3.09632958984375,-0.011249937117099762,0.0006425220053642988,0.01717892475426197
1782845876732334600,3.10633447265625,-0.005132476333528757,-0.00419091060757637,0.0252731554210186
1782845876742339600,3.116339599609375,0.002943027066066861,-0.012619283981621265,0.02642097882926464
1782845876752344600,3.126344482421875,0.004267319105565548,-0.012076988816261292,0.02022363431751728
1782845876762349600,3.136349609375,0.00786258652806282,-0.009863369166851044,0.008231420069932938
1782845876772354600,3.1463544921875,0.004577914718538523,-0.00928691029548645,-0.014945609495043755
1782845876782359600,3.156359619140625,0.005579529795795679,-0.002174406312406063,-0.036067672073841095
1782845876792364500,3.166364501953125,0.0011875422205775976,0.003609904320910573,-0.04651082307100296
1782845876802369500,3.17636962890625,-0.00031314906664192677,0.007085862569510937,-0.05000515654683113
1782845876812374500,3.18637451171875,0.0005776071920990944,0.00531391054391861,-0.04051517695188522
1782845876822378800,3.196378662109375,0.0026181212160736322,-0.006491616368293762,-0.02942311204969883
1782845876832383700,3.2063837890625,0.0052284961566329,-0.008607469499111176,-0.02085513435304165
1782845876842388700,3.216388671875,0.008518565446138382,-0.011355319060385227,-0.004933159798383713
1782845876852393700,3.226393798828125,0.01623436063528061,-0.009058971889317036,0.0057079484686255455
1782845876862398700,3.236398681640625,0.02327735535800457,-0.010562059469521046,0.003718034829944372
1782845876872403700,3.24640380859375,0.023506680503487587,-0.00804932601749897,0.0010404640343040228
1782845876882408700,3.25640869140625,0.02261531911790371,-0.009931914508342743,0.005528423469513655
1782845876892413700,3.26641357421875,0.01576969400048256,-0.00031237886287271976,0.014739204198122025
1782845876902418700,3.276418701171875,0.007528009824454784,0.008578849956393242,0.01874379999935627
1782845876912422400,3.28642236328125,-0.0032099939417093992,0.016268476843833923,0.02353016845881939
1782845876922427400,3.296427490234375,-0.012305222451686859,0.015419993549585342,0.02870415896177292
1782845876932432600,3.3064326171875,-0.01500990055501461,0.01375742256641388,0.02498183399438858
1782845876942437600,3.316437744140625,-0.01742645353078842,0.015440540388226509,0.025478247553110123
1782845876952442600,3.326442626953125,-0.018339037895202637,0.00823190901428461,0.030162397772073746
1782845876962447600,3.336447509765625,-0.01359940879046917,0.0024152989499270916,0.02556285262107849
1782845876972452600,3.34645263671875,-0.01154919434338808,0.00016795960254967213,0.009620524942874908
1782845876982457600,3.35645751953125,-0.010379800572991371,0.0006156370509415865,-0.007626372389495373
1782845876992462600,3.366462646484375,-0.004438132978975773,-0.004110886249691248,-0.02571524865925312
1782845877002466600,3.376466552734375,-0.009663786739110947,-0.0063125211745500565,-0.03268873691558838
1782845877012471600,3.386471435546875,-0.01188264973461628,-0.000927705317735672,-0.031380146741867065
1782845877022476500,3.3964765625,-0.012677602469921112,0.002773822285234928,-0.02393341436982155
1782845877032481500,3.4064814453125,-0.01637890562415123,0.00856278371065855,-0.0195119921118021
1782845877042486500,3.416486572265625,-0.01202330645173788,0.010596639476716518,-0.013634661212563515
1782845877052491500,3.426491455078125,-0.006526121869683266,0.013612566515803337,-0.001103043556213379
1782845877062496500,3.43649658203125,-0.001328962971456349,0.01360404398292303,0.011733392253518105
1782845877072501500,3.44650146484375,0.0033148485235869884,0.007225904148072004,0.014285974204540253
1782845877082506500,3.456506591796875,0.0049039567820727825,-0.0015974147245287895,0.018170727416872978
1782845877092511500,3.466511474609375,0.015104226768016815,-0.00946036446839571,0.009449310600757599
1782845877102515500,3.476515380859375,0.018063263967633247,-0.009267019107937813,-0.006615941412746906
1782845877112520400,3.4865205078125,0.018313953652977943,-0.006617910228669643,-0.022663703188300133
1782845877122525400,3.496525390625,0.017944306135177612,0.0000652919989079237,-0.037597913295030594
1782845877132530400,3.506530517578125,0.018229544162750244,0.005323457531630993,-0.03958065062761307
1782845877142535400,3.516535400390625,0.026797465980052948,0.007871570065617561,-0.03878968954086304
1782845877152540400,3.52654052734375,0.028060954064130783,0.008215288631618023,-0.025913123041391373
1782845877162545400,3.53654541015625,0.0329023152589798,0.0034450343810021877,-0.01380239799618721
1782845877172550400,3.54655029296875,0.03258344903588295,-0.0019850553944706917,0.002746569225564599
1782845877182555400,3.556555419921875,0.03383460268378258,-0.006377406883984804,0.013524116016924381
1782845877192559400,3.566559326171875,0.02718234807252884,-0.00904911756515503,0.015650061890482903
1782845877202564400,3.576564453125,0.023498397320508957,-0.006813393905758858,0.008052862249314785
1782845877212569600,3.586569580078125,0.0218526478856802,-0.007129873149096966,-0.003028369043022394
1782845877222574600,3.59657470703125,0.022241203114390373,-0.009079573675990105,-0.018182286992669106
1782845877232579600,3.60657958984375,0.01623569056391716,-0.006858933717012405,-0.02673308178782463
1782845877242584600,3.61658447265625,0.012182094156742096,-0.00661845039576292,-0.03395211324095726
1782845877252589600,3.626589599609375,0.006881728768348694,0.000424777390435338,-0.03481936454772949
1782845877262594600,3.636594482421875,0.0028217399958521128,0.003575563197955489,-0.028046945109963417
1782845877272599600,3.646599609375,0.0022169805597513914,0.0011226348578929901,-0.014048879966139793
1782845877282604500,3.6566044921875,-0.0035208002664148808,-0.0034002114553004503,0.003718931693583727
1782845877292608500,3.6666083984375,0.000016689999029040337,-0.011568105779588223,0.022665444761514664
1782845877302613500,3.676613525390625,0.0016721109859645367,-0.0114282900467515,0.032538581639528275
1782845877312618500,3.686618408203125,0.005900706630200148,-0.00946321152150631,0.035662706941366196
1782845877322623500,3.69662353515625,0.005504961591213942,-0.00602134270593524,0.03197822347283363
1782845877332628500,3.70662841796875,0.007088097743690014,-0.007851303555071354,0.01575382612645626
1782845877342633500,3.716633544921875,0.014086618088185787,-0.0029257864225655794,0.0036492273211479187
1782845877352638500,3.726638427734375,0.011725572869181633,0.0008293730206787586,-0.0057790083810687065
1782845877362643500,3.7366435546875,0.010061895474791527,0.006693920120596886,-0.00668687978759408
1782845877372648400,3.7466484375,0.010424969717860222,0.005817112047225237,-0.00215799268335104
1782845877382652400,3.75665234375,0.007541830651462078,0.0013824161142110825,0.0016846824437379837
1782845877392657400,3.766657470703125,0.008559957146644592,-0.0036554858088493347,0.002808270277455449
1782845877402662400,3.776662353515625,0.009649456478655338,-0.006295477040112019,0.0019486017990857363
1782845877412667400,3.78666748046875,0.009964648634195328,-0.007838902063667774,0.0026342261116951704
1782845877422672400,3.79667236328125,0.006978712044656277,-0.004830062389373779,-0.0006316083599813282
1782845877432677600,3.806677734375,0.0026277373544871807,-0.005127080716192722,-0.007755928672850132
1782845877442682600,3.8166826171875,0.004519380629062653,0.0002586301416158676,-0.026938676834106445
1782845877452687600,3.8266875,0.004326821304857731,0.0018860676791518927,-0.040805213153362274
1782845877462692600,3.836692626953125,0.004475957714021206,0.003004861529916525,-0.04376424849033356
1782845877472697600,3.846697509765625,0.003347226185724139,0.00855232123285532,-0.037338756024837494
1782845877482701600,3.85670166015625,0.003393831430003047,0.006922733038663864,-0.027362020686268806
1782845877492706600,3.86670654296875,0.011883316561579704,0.00496223708614707,-0.0102489423006773
1782845877502711600,3.876711669921875,0.012626071460545063,0.004498580936342478,0.001956857508048415
1782845877512716500,3.886716552734375,0.01789875142276287,0.009849834255874157,0.01114807277917862
1782845877522721500,3.896721435546875,0.019014082849025726,0.011256249621510506,0.01890213042497635
1782845877532726500,3.9067265625,0.01932084932923317,0.014577279798686504,0.021839892491698265
1782845877542731500,3.9167314453125,0.01847449690103531,0.01299003604799509,0.012144654057919979
1782845877552736500,3.926736572265625,0.020113900303840637,0.004512333776801825,0.0031064595095813274
1782845877562741500,3.936741455078125,0.02435152232646942,0.001977270934730768,-0.004346396774053574
1782845877572745500,3.946745361328125,0.01526004821062088,0.000571961048990488,-0.00651024142280221
1782845877582750500,3.95675048828125,0.010779280215501785,0.008119625970721245,-0.0091470368206501
1782845877592755500,3.96675537109375,0.00551386084407568,0.016462605446577072,-0.007546659559011459
1782845877602760400,3.976760498046875,0.0024922380689531565,0.01945280283689499,-0.008268909528851509
1782845877612765400,3.986765380859375,-0.0025155411567538977,0.019375238567590714,-0.004102688282728195
1782845877622770400,3.9967705078125,-0.006653028540313244,0.010343925096094608,0.0024960923474282026
1782845877632775400,4.006775390625,-0.010698340833187103,0.001098427688702941,0.014351123943924904
1782845877642780400,4.016780517578125,-0.010950276628136635,-0.005785843823105097,0.010372361168265343
1782845877652785700,4.02678564453125,-0.010021352209150791,-0.0015215701423585415,0.005511014722287655
1782845877662790700,4.036790771484375,-0.009540118277072906,-0.004316557664424181,-0.009947037324309349
1782845877672794600,4.046794677734375,-0.00996360369026661,-0.004934895783662796,-0.02187369577586651
1782845877682799600,4.056799560546875,-0.005204268731176853,-0.004169236868619919,-0.032392386347055435
1782845877692804600,4.0668046875,-0.0016452065901830792,-0.0021713131573051214,-0.03413623571395874
1782845877702809600,4.0768095703125,-0.004838869441300631,0.0029102645348757505,-0.0274056289345026
1782845877712814600,4.086814697265625,-0.005015155300498009,0.006350713782012463,-0.01178673654794693
1782845877722819600,4.096819580078125,-0.0036851726472377777,0.01328505203127861,0.0027828854508697987
1782845877732824600,4.106824462890625,-0.0016215313225984573,0.009635504335165024,0.018813559785485268
1782845877742829600,4.11682958984375,0.004079763777554035,0.003071078797802329,0.03692704811692238
1782845877752834600,4.12683447265625,0.0055159227922558784,0.002660781145095825,0.04931829124689102
1782845877762838500,4.136838623046875,0.008375092409551144,0.004273058846592903,0.045842330902814865
1782845877772843500,4.146843505859375,0.01412992924451828,0.002399012679234147,0.03320322185754776
1782845877782848500,4.1568486328125,0.014167480170726776,0.00020589958876371384,0.017025051638484
1782845877792853500,4.166853515625,0.01606803946197033,-0.0012075835838913918,-0.008882837370038033
1782845877802858500,4.1768583984375,0.011517229489982128,0.0028814340475946665,-0.027598734945058823
1782845877812863500,4.186863525390625,0.011691652238368988,0.004760274197906256,-0.041007205843925476
1782845877822868500,4.196868408203125,0.008371755480766296,0.0011530225165188313,-0.04540834575891495
1782845877832873500,4.20687353515625,0.007373477332293987,-0.0009390136692672968,-0.04090667888522148
1782845877842878500,4.21687841796875,0.004333478398621082,-0.002135039074346423,-0.03811648488044739
1782845877852882700,4.226882568359375,-0.0004449754487723112,0.0030144215561449528,-0.027718760073184967
1782845877862887700,4.2368876953125,-0.002339814556762576,0.0038860742934048176,-0.016988083720207214
1782845877872892700,4.246892578125,-0.0074836816638708115,-0.0009327174630016088,-0.003610789543017745
1782845877882897700,4.256897705078125,-0.01250240858644247,-0.0008032878395169973,0.0037073108833283186
1782845877892902700,4.266902587890625,-0.013377507217228413,-0.002885701833292842,0.004178139381110668
1782845877902907600,4.27690771484375,-0.01321159303188324,-0.005530753172934055,-0.002706664614379406
1782845877912912600,4.28691259765625,-0.01291588693857193,-0.00574909895658493,-0.008898872882127762
1782845877922917600,4.296917724609375,-0.011845562607049942,-0.0032233570236712694,-0.016009779646992683
1782845877932922600,4.306922607421875,-0.005195983685553074,0.0046119363978505135,-0.022184249013662338
1782845877942926600,4.316926513671875,-0.0026052608154714108,0.005438847467303276,-0.016203856095671654
1782845877952931600,4.326931640625,0.0007524103857576847,0.011124744080007076,-0.0096044996753335
1782845877962936600,4.3369365234375,0.0022680151741951704,0.009863205254077911,0.002145100850611925
1782845877972941600,4.346941650390625,0.0018741472158581018,0.0030306188855320215,0.014325055293738842
1782845877982946600,4.356946533203125,0.00459589809179306,-0.0033889308106154203,0.02914421446621418
1782845877992951600,4.36695166015625,0.0043847933411598206,-0.012415544129908085,0.03302701935172081
1782845878002956500,4.37695654296875,0.006844488903880119,-0.011870129033923149,0.026564326137304306
1782845878012961500,4.38696142578125,0.007181576453149319,-0.009341716766357422,0.015356479212641716
1782845878022966500,4.396966552734375,0.0048148250207304955,-0.00365799805149436,-0.0026667288038879633
1782845878032971500,4.406971435546875,0.00619853287935257,0.0019557946361601353,-0.02060570940375328
1782845878042975500,4.4169755859375,0.006439282558858395,0.002588828094303608,-0.030133966356515884
1782845878052980500,4.42698046875,0.0018693823367357254,0.004334168508648872,-0.03292291238903999
1782845878062985500,4.4369853515625,-0.002398599637672305,0.006767498794943094,-0.02652999572455883
1782845878072990500,4.446990478515625,-0.0043011195957660675,0.006710725836455822,-0.01646755076944828
1782845878082995500,4.456995361328125,-0.006433246657252312,0.003476316574960947,0.0009750894387252629
1782845878093000700,4.467000732421875,-0.0050460901111364365,-0.002789207035675645,0.01787532866001129
1782845878103005700,4.477005615234375,-0.0018753306940197945,-0.00274473219178617,0.03262391313910484
1782845878113010700,4.4870107421875,0.0011918453965336084,-0.003526882501319051,0.03688682243227959
1782845878123015700,4.497015625,-0.0010161814279854298,-0.0040786899626255035,0.038322266191244125
1782845878133019400,4.507019287109375,-0.0014564153971150517,-0.0013404476922005415,0.026442185044288635
1782845878143024400,4.5170244140625,-0.0015445660101249814,-0.0026390047278255224,0.016684895381331444
1782845878153029400,4.527029296875,0.0011806467082351446,-0.0005215255077928305,0.0033294083550572395
1782845878163034400,4.537034423828125,-0.0003133865538984537,0.0023259264416992664,0.00019619945669546723
1782845878173039400,4.547039306640625,-0.0004521794617176056,-0.0010812743566930294,-0.002023502951487899
1782845878183044600,4.557044677734375,0.0040917061269283295,0.000684667844325304,-0.002151601016521454
1782845878193049600,4.567049560546875,0.006296312436461449,0.0020598764531314373,-0.0015947762876749039
1782845878203054600,4.5770546875,0.005764479748904705,0.00505566643550992,-0.004657145123928785
1782845878213059600,4.5870595703125,0.004450405016541481,0.004811304155737162,-0.006616628263145685
1782845878223064600,4.597064697265625,0.000402932520955801,0.0019135185284540057,-0.0078115882351994514
1782845878233068800,4.60706884765625,-0.004828188102692366,-0.004423616919666529,-0.008502272889018059
1782845878243073800,4.61707373046875,-0.00507932435721159,-0.009492144919931889,-0.009776860475540161
1782845878253078800,4.627078857421875,-0.009952543303370476,-0.008370072580873966,-0.014361594803631306
1782845878263083800,4.637083740234375,-0.014783782884478569,-0.008833728730678558,-0.005367567762732506
1782845878273088800,4.6470888671875,-0.020856058225035667,-0.007304009050130844,0.003514873329550028
1782845878283093800,4.65709375,-0.027397314086556435,0.0006314122583717108,0.009881426580250263
1782845878293098800,4.6670986328125,-0.029046006500720978,0.006894094403833151,0.02297346107661724
1782845878303103700,4.677103759765625,-0.030645236372947693,0.010436898097395897,0.03505222871899605
1782845878313108700,4.687108642578125,-0.02452710084617138,0.006826155818998814,0.043367091566324234
1782845878323112700,4.69711279296875,-0.020043669268488884,0.0037507377564907074,0.04994909465312958
1782845878333117700,4.70711767578125,-0.01525342557579279,-0.006042592227458954,0.04976319149136543
1782845878343122700,4.717122802734375,-0.01014148723334074,-0.00707137119024992,0.04825051501393318
1782845878353127700,4.727127685546875,-0.002438225084915757,-0.007737435400485992,0.03310079127550125
1782845878363132700,4.737132568359375,0.004419680684804916,-0.007672720588743687,0.021753858774900436
1782845878373137700,4.7471376953125,0.01037595421075821,-0.00921378843486309,0.011872883886098862
1782845878383142700,4.757142578125,0.015698546543717384,-0.0031950450502336025,0.0012098533334210515
1782845878393147600,4.767147705078125,0.018922021612524986,0.00035743345506489277,-0.005405955016613007
1782845878403152600,4.777152587890625,0.017117464914917946,0.004786004312336445,-0.011257985606789589
1782845878413156900,4.787156982421875,0.015040633268654346,-0.00047552818432450294,-0.015742383897304535
1782845878423161900,4.797161865234375,0.01184483990073204,-0.0022995269391685724,-0.014171119779348373
1782845878433166800,4.807166748046875,0.004920594394207001,-0.010931670665740967,-0.01546885259449482
1782845878443171800,4.817171875,0.00338980951346457,-0.012788159772753716,-0.01528775691986084
1782845878453176800,4.8271767578125,-0.0036761602386832237,-0.016460277140140533,-0.014402450062334538
1782845878463181800,4.837181884765625,-0.005376854911446571,-0.013659430667757988,-0.020719734951853752
1782845878473186800,4.847186767578125,-0.00823976844549179,-0.012698475271463394,-0.02217407152056694
1782845878483191800,4.85719189453125,-0.015170911327004433,-0.007301046047359705,-0.023639343678951263
1782845878493196800,4.86719677734375,-0.022851942107081413,-0.002263280563056469,-0.020951205864548683
1782845878503201800,4.877201904296875,-0.02518993243575096,-0.004166109021753073,-0.016921577975153923
1782845878513205800,4.887205810546875,-0.023130692541599274,-0.0005570887587964535,-0.011951936408877373
1782845878523210800,4.897210693359375,-0.019473638385534286,0.004094121977686882,0.0027987798675894737
1782845878533215700,4.9072158203125,-0.01711435802280903,-0.0005685603246092796,0.012037563137710094
1782845878543220700,4.917220703125,-0.00906229019165039,-0.0010324828326702118,0.025266284123063087
1782845878553225700,4.927225830078125,-0.002674405463039875,0.0008360310457646847,0.03227170184254646
1782845878563230700,4.937230712890625,0.003654330503195524,0.0022003683261573315,0.033371586352586746
1782845878573235700,4.947235595703125,0.009933307766914368,0.00413350947201252,0.02830674685537815
1782845878583240700,4.95724072265625,0.017181899398565292,0.003927913028746843,0.01434645801782608
1782845878593245700,4.96724560546875,0.02051522582769394,0.007895593531429768,-0.0007292791269719601
1782845878603249700,4.977249755859375,0.02208941988646984,0.015511435456573963,-0.015132719650864601
1782845878613254700,4.987254638671875,0.023538852110505104,0.016568319872021675,-0.02750670351088047
1782845878623259600,4.997259765625,0.019471673294901848,0.011778625659644604,-0.02877250500023365
1782845878633264600,5.0072646484375,0.019636942073702812,0.004489983431994915,-0.022426078096032143
1782845878643270000,5.017269775390625,0.016404129564762115,-0.0011990610510110855,-0.01812800206243992
1782845878653275000,5.02727490234375,0.011532646603882313,-0.007310948334634304,-0.01963718794286251
1782845878663279900,5.03727978515625,0.004311219789087772,-0.004371084272861481,-0.016841666772961617
1782845878673284900,5.047284912109375,-0.0024296322371810675,0.00047004478983581066,-0.016714775934815407
1782845878683289900,5.057289794921875,-0.004279729910194874,0.007763377390801907,-0.01171043049544096
1782845878693293600,5.06729345703125,-0.007642489857971668,0.014259913004934788,-0.004242939408868551
1782845878703298600,5.077298583984375,-0.005288522224873304,0.018015502020716667,0.0009459637803956866
1782845878713303600,5.087303466796875,-0.0016823778860270977,0.013310544192790985,0.00370583962649107
1782845878723308500,5.09730859375,0.008692232891917229,0.0014629390789195895,0.008309912867844105
1782845878733313500,5.1073134765625,0.011374974623322487,-0.001940171467140317,0.008430946618318558
1782845878743318500,5.117318603515625,0.013704975135624409,0.00013203429989516735,0.009746815077960491
1782845878753323500,5.127323486328125,0.014346824958920479,0.005531525705009699,0.00997022446244955
1782845878763328500,5.13732861328125,0.016429150477051735,0.010742799378931522,0.012318599969148636
1782845878773333500,5.14733349609375,0.01152859628200531,0.02216840721666813,0.01865912601351738
1782845878783337500,5.15733740234375,0.012113427743315697,0.01887301169335842,0.027603350579738617
1782845878793342500,5.167342529296875,0.01724950037896633,0.012358730658888817,0.029455412179231644
1782845878803347700,5.17734765625,0.01495758444070816,0.0021889167837798595,0.025923794135451317
1782845878813352700,5.187352783203125,0.015131431631743908,0.00022097700275480747,0.016550853848457336
1782845878823357700,5.197357666015625,0.013849652372300625,-0.008901414461433887,-0.0009325313149020076
1782845878833362700,5.20736279296875,0.00844942219555378,-0.011531006544828415,-0.0111211147159338
1782845878843367700,5.21736767578125,0.005046701990067959,-0.012832226231694221,-0.027115793898701668
1782845878853372700,5.22737255859375,0.00254342844709754,-0.011575289070606232,-0.032821979373693466
1782845878863377700,5.237377685546875,0.00031356350518763065,-0.005964274983853102,-0.02803281880915165
1782845878873382700,5.247382568359375,-0.0028165203984826803,-0.007806533947587013,-0.02088375762104988
1782845878883386600,5.25738671875,-0.0034322431311011314,-0.005507427267730236,-0.011012483388185501
1782845878893391600,5.2673916015625,-0.004005031660199165,-0.0022214888595044613,0.00003558071330189705
1782845878903396600,5.277396728515625,-0.002013519871979952,-0.006957921199500561,0.012203829362988472
1782845878913401600,5.287401611328125,-0.004812208935618401,-0.010887108743190765,0.021493975073099136
1782845878923406600,5.297406494140625,-0.0054444437846541405,-0.01404242217540741,0.01760922186076641
1782845878933411600,5.30741162109375,-0.007093220017850399,-0.01752905361354351,0.014689878560602665
1782845878943416600,5.31741650390625,-0.010303927585482597,-0.014173470437526703,0.005829541943967342
1782845878953421600,5.327421630859375,-0.012928500771522522,-0.008800207637250423,0.001075295964255929
1782845878963426600,5.337426513671875,-0.011217419989407063,-0.0027660175692290068,0.0014864879194647074
1782845878973430500,5.347430419921875,-0.01134328730404377,-0.0021217158064246178,0.00667369132861495
1782845878983435500,5.357435546875,-0.011471651494503021,-0.007127127144485712,0.010160034522414207
1782845878993440500,5.3674404296875,-0.015431803651154041,-0.009503289125859737,0.012435471639037132
1782845879003445500,5.377445556640625,-0.011914832517504692,-0.012486295774579048,0.013552933931350708
1782845879013450500,5.387450439453125,-0.011687159538269043,-0.012768099084496498,0.00924316793680191
1782845879023455700,5.397455810546875,-0.008740637451410294,-0.011751038022339344,0.004352007061243057
1782845879033460700,5.407460693359375,-0.006142542231827974,-0.014639672823250294,-0.0045583127066493034
1782845879043465700,5.4174658203125,0.0006170931737869978,-0.017858637496829033,-0.010289701633155346
1782845879053470700,5.427470703125,-0.00015024608001112938,-0.013592264614999294,-0.018483104184269905
1782845879063474700,5.437474609375,0.0006114179268479347,-0.008527465164661407,-0.026793498545885086
1782845879073479700,5.447479736328125,0.0022296528331935406,-0.0005918531678617001,-0.02355412393808365
1782845879083484700,5.457484619140625,-0.0024045140016824007,-0.003570865374058485,-0.017140699550509453
1782845879093489700,5.46748974609375,-0.0038384729996323586,-0.001940048299729824,-0.011199073866009712
1782845879103494700,5.47749462890625,-0.003774823620915413,-0.0056168087758123875,-0.00922593753784895
1782845879113499600,5.487499755859375,-0.007774624973535538,-0.005151554476469755,-0.0005000904784537852
1782845879123504600,5.497504638671875,-0.00684278504922986,-0.006634402554482222,-0.001892391126602888
1782845879133509600,5.507509521484375,-0.004711765795946121,-0.0021226934622973204,-0.002793296240270138
1782845879143514600,5.5175146484375,-0.004336260259151459,-0.0009192109573632479,0.0004086223489139229
1782845879153518600,5.5275185546875,0.000005267327651381493,-0.0008841049857437611,0.002710616448894143
1782845879163523600,5.537523681640625,0.0020399224013090134,0.0016533550806343555,0.0007571878377348185
1782845879173528600,5.547528564453125,0.006948800757527351,0.00028942711651325226,0.0005309457774274051
1782845879183534000,5.5575341796875,0.008797833696007729,0.003704398637637496,-0.00442919135093689
1782845879193539000,5.5675390625,0.013950742781162262,0.005399282090365887,-0.00399452168494463
1782845879203544000,5.5775439453125,0.013122765347361565,0.002164873294532299,-0.005923183169215918
1782845879213549000,5.587549072265625,0.012173629365861416,-0.0013007866218686104,-0.009589573368430138
1782845879223554000,5.597553955078125,0.013764867559075356,0.0006848662160336971,-0.017156412824988365
1782845879233559000,5.60755908203125,0.01166579406708479,-0.00009896978735923767,-0.01985875330865383
1782845879243563300,5.617563232421875,0.010110241360962391,0.0003961117472499609,-0.023351222276687622
1782845879253568300,5.627568359375,0.013267655856907368,0.0007551736198365688,-0.023471832275390625
1782845879263573200,5.6375732421875,0.0139121413230896,0.004098239820450544,-0.021857690066099167
1782845879273578200,5.647578125,0.009525002911686897,0.002487989841029048,-0.011589492671191692
1782845879283583200,5.657583251953125,0.00978812389075756,0.004220109898597002,-0.001909701619297266
1782845879293588200,5.667588134765625,0.006058801431208849,0.0040089963003993034,0.006082542240619659
1782845879303593200,5.67759326171875,0.005605796817690134,0.006688402965664864,0.016029449179768562
1782845879313598200,5.68759814453125,0.00477517070248723,0.0046500395983457565,0.019101392477750778
1782845879323603200,5.697603271484375,-0.001354094361886382,0.003406875766813755,0.0195876844227314
1782845879333608200,5.707608154296875,-0.0035251721274107695,0.007146227639168501,0.01446622796356678
1782845879343612200,5.717612060546875,-0.005590986460447311,0.010536432266235352,0.003926767967641354
1782845879353617200,5.7276171875,-0.004647750407457352,0.013689110055565834,-0.0017803322989493608
1782845879363622100,5.7376220703125,-0.0077977366745471954,0.01272531133145094,-0.007260585203766823
1782845879373627100,5.747627197265625,-0.006863557733595371,0.012520117685198784,-0.007733236066997051
1782845879383632100,5.757632080078125,-0.011028209701180458,0.006499242968857288,0.001674913102760911
1782845879393637000,5.76763720703125,-0.008890083059668541,0.006193655543029308,0.0037389895878732204
1782845879403642000,5.77764208984375,-0.010310080833733082,0.005195502191781998,0.007042907178401947
1782845879413647000,5.787647216796875,-0.011925160884857178,0.005293097347021103,0.004428621847182512
1782845879423652000,5.797652099609375,-0.01621977612376213,0.008599944412708282,-0.0015272716991603374
1782845879433656000,5.807656005859375,-0.016959838569164276,0.007194526493549347,-0.005293543916195631
1782845879443661000,5.8176611328125,-0.021174024790525436,0.0014090754557400942,-0.011125599965453148
1782845879453666000,5.827666015625,-0.023336807265877724,-0.005382982548326254,-0.01404040027409792
1782845879463671000,5.837671142578125,-0.018224868923425674,-0.00808369368314743,-0.019590428099036217
1782845879473676000,5.847676025390625,-0.015541495755314827,-0.009962860494852066,-0.02694179303944111
1782845879483681000,5.857680908203125,-0.013066086918115616,-0.010370058938860893,-0.03629295155405998
1782845879493686000,5.86768603515625,-0.009306209161877632,-0.0088014155626297,-0.04194393754005432
1782845879503691000,5.87769091796875,-0.004996415227651596,0.00036758091300725937,-0.04520657658576965
1782845879513696300,5.8876962890625,0.00005452241748571396,0.002780651208013296,-0.03889939934015274
1782845879523700000,5.897699951171875,0.0015650673303753138,0.0034823939204216003,-0.021608823910355568
1782845879533705000,5.907705078125,0.003533058799803257,0.001688051619566977,-0.006356284022331238
1782845879543710000,5.9177099609375,0.008724093437194824,0.0006888336502015591,0.004696633201092482
1782845879553715000,5.92771484375,0.0070128003135323524,0.0030688729602843523,0.014784099534153938
1782845879563720000,5.937719970703125,0.016220681369304657,0.004063297063112259,0.015569465234875679
1782845879573725000,5.947724853515625,0.01734541729092598,0.0031374869868159294,0.011767985299229622
1782845879583730000,5.95772998046875,0.023561501875519753,0.0022306805476546288,0.004163328558206558
1782845879593735000,5.96773486328125,0.024767648428678513,0.005147641059011221,-0.0030301357619464397
1782845879603740000,5.977739990234375,0.02053135819733143,0.009040383622050285,-0.007675488013774157
1782845879613744000,5.987744140625,0.019352685660123825,0.015390642918646336,-0.010353604331612587
1782845879623749000,5.9977490234375,0.0201050266623497,0.0208706296980381,-0.012714230455458164
1782845879633754000,6.007754150390625,0.018578937277197838,0.010132573544979095,-0.009360946714878082
1782845879643759000,6.017759033203125,0.018330732360482216,0.001842685742303729,0.002446177415549755
1782845879653764000,6.02776416015625,0.01916475035250187,0.0018712771125137806,0.003006590995937586
1782845879663769000,6.03776904296875,0.012225350365042686,-0.0008323639631271362,0.008960353210568428
1782845879673774000,6.047774169921875,0.0057279388420283794,0.0021081073209643364,0.006349487695842981
1782845879683779000,6.057779052734375,0.0016402527689933777,0.004234908148646355,0.0028668721206486225
1782845879693784000,6.0677841796875,-0.005032717250287533,0.003298643510788679,0.002659828634932637
1782845879703788000,6.0777880859375,-0.006892935372889042,0.006579924374818802,-0.0033525240141898394
1782845879713793000,6.08779296875,-0.006966524291783571,0.005683708004653454,-0.00413220701739192
1782845879723798000,6.097798095703125,-0.005507644731551409,0.009879784658551216,-0.0009886118350550532
1782845879733803000,6.107802978515625,-0.006357024423778057,0.013838648796081543,0.0035503110848367214
1782845879743808000,6.11780810546875,-0.007557311095297337,0.008374374359846115,0.013556073419749737
1782845879753813000,6.12781298828125,-0.005217036232352257,0.0036228180397301912,0.02283570170402527
1782845879763818000,6.13781787109375,-0.003560017328709364,0.0034499787725508213,0.025540407747030258
1782845879773823000,6.147822998046875,-0.004123948514461517,0.005718582309782505,0.028702251613140106
1782845879783828000,6.157827880859375,-0.00589947821572423,0.005228294990956783,0.023683257400989532
1782845879793832000,6.16783203125,-0.00010334746912121773,0.007596950046718121,0.013452434912323952
1782845879803837200,6.177837158203125,0.005035221576690674,0.007056062109768391,0.0007254540687426925
1782845879813842200,6.18784228515625,0.00649677962064743,0.00013495120219886303,-0.00931627955287695
1782845879823847200,6.19784716796875,0.010391386225819588,-0.004953816533088684,-0.014560043811798096
1782845879833852200,6.20785205078125,0.009499549865722656,-0.0031756521202623844,-0.025836719200015068
1782845879843857200,6.217857177734375,0.005198012106120586,-0.002948484383523464,-0.02247314713895321
1782845879853862100,6.227862060546875,0.0069391727447509766,-0.004818042740225792,-0.02461911179125309
1782845879863867100,6.2378671875,0.006232636049389839,-0.0037999169435352087,-0.022125592455267906
1782845879873872100,6.2478720703125,0.010251220315694809,-0.0033433078788220882,-0.01918533630669117
1782845879883876000,6.2578759765625,0.00593583332374692,-0.0011280905455350876,-0.019717436283826828
1782845879893881000,6.267881103515625,0.005755886435508728,-0.0020937398076057434,-0.018750788643956184
1782845879903886000,6.277885986328125,0.01157622504979372,-0.001973098609596491,-0.01626020111143589
1782845879913891000,6.28789111328125,0.0102724963799119,-0.004915570840239525,-0.019432714208960533
1782845879923896000,6.29789599609375,0.00953000783920288,-0.0054290276020765305,-0.024434130638837814
1782845879933901000,6.307901123046875,0.0034760809503495693,-0.005208450369536877,-0.025255419313907623
1782845879943906000,6.317906005859375,0.0023255953565239906,-0.0035892482846975327,-0.025143301114439964
1782845879953911000,6.3279111328125,-0.0025354439858347178,-0.0022076682653278112,-0.02092115581035614
1782845879963916000,6.337916015625,-0.007732336409389973,0.005317892413586378,-0.022290019318461418
1782845879973920000,6.347919921875,-0.0062764836475253105,0.005616507958620787,-0.01754230447113514
1782845879983925000,6.357925048828125,-0.0030364820268005133,-0.0003993066493421793,-0.012356331571936607
1782845879993930000,6.367929931640625,0.000294725876301527,-0.0038357265293598175,-0.010341777466237545
1782845880003935000,6.37793505859375,0.003217278979718685,-0.004790735896676779,-0.014029723592102528
1782845880013940000,6.38793994140625,0.006207629106938839,-0.003794816555455327,-0.0204108078032732
1782845880023945200,6.3979453125,0.0069394661113619804,0.003773088101297617,-0.02672675997018814
1782845880033950200,6.4079501953125,0.003865281818434596,0.0023230724036693573,-0.026512546464800835
1782845880043955200,6.417955078125,0.007206217385828495,0.0024354576598852873,-0.02948649786412716
1782845880053960200,6.427960205078125,0.004036705009639263,-0.001231619855388999,-0.02260693721473217
1782845880063964200,6.437964111328125,-0.000581482658162713,-0.00037035346031188965,-0.012334857136011124
1782845880073969200,6.44796923828125,-0.00224857940338552,0.0008424024563282728,-0.008491957560181618
1782845880083974100,6.45797412109375,-0.004199344664812088,0.002229376696050167,-0.0026913266628980637
1782845880093979100,6.467979248046875,-0.0054864236153662205,0.00347417825832963,-0.00042287225369364023
1782845880103984000,6.477984130859375,-0.00691520981490612,0.004044361412525177,0.0001366579090245068
1782845880113989000,6.487989013671875,-0.009175348095595837,0.004833252169191837,0.004341700114309788
1782845880123994000,6.497994140625,-0.009087730199098587,0.0016110938740894198,0.00027878143009729683
1782845880133999000,6.5079990234375,-0.005974636413156986,0.0006991922855377197,-0.0008752876310609281
1782845880144004000,6.518004150390625,-0.007616208866238594,-0.0006443725433200598,-0.009772642515599728
1782845880154008000,6.528008056640625,-0.006983932573348284,-0.0030804136767983437,-0.012656355276703835
1782845880164013000,6.538012939453125,-0.0038155699148774147,-0.0031693633645772934,-0.01569182612001896
1782845880174018000,6.54801806640625,-0.005012869834899902,0.0017693330300971866,-0.014417564496397972
1782845880184023000,6.55802294921875,-0.0011654007248580456,0.0009940869640558958,-0.012065460905432701
1782845880194028000,6.568028076171875,0.003784545697271824,0.003919951617717743,-0.004013852681964636
1782845880204033000,6.578032958984375,0.00899954792112112,0.011476937681436539,-0.0017722698394209146
1782845880214038000,6.5880380859375,0.012857584282755852,0.016151146963238716,0.0002976235991809517
1782845880224043000,6.59804296875,0.017040612176060677,0.016445692628622055,0.009372876957058907
1782845880234048300,6.60804833984375,0.016914112493395805,0.011807797476649284,0.013625945895910263
1782845880244052200,6.61805224609375,0.017935967072844505,0.006812506355345249,0.014096526429057121
1782845880254057200,6.62805712890625,0.018292102962732315,0.0010527721606194973,0.0070465337485075
1782845880264062200,6.638062255859375,0.015886735171079636,-0.0016303625889122486,-0.0004958048230037093
1782845880274067200,6.648067138671875,0.012090789154171944,-0.0003169267438352108,-0.012531017884612083
1782845880284072200,6.658072265625,0.012025276198983192,0.005414994899183512,-0.023838799446821213
1782845880294077200,6.6680771484375,0.011295683681964874,0.00504491850733757,-0.03242627531290054
1782845880304082200,6.678082275390625,0.008832525461912155,0.005904054269194603,-0.03074049763381481
1782845880314087200,6.688087158203125,0.007209441624581814,0.007992873899638653,-0.021971620619297028
1782845880324092200,6.698092041015625,0.006937799043953419,0.007368362508714199,-0.013132588937878609
1782845880334097200,6.70809716796875,0.00609199283644557,0.0022495212033391,-0.0003848475171253085
1782845880344101000,6.71810107421875,0.009922683238983154,0.0028527271933853626,0.005456796381622553
1782845880354106000,6.728106201171875,0.005111752077937126,-0.00020219245925545692,0.010239233262836933
1782845880364111000,6.738111083984375,0.00636983010917902,-0.0012900938745588064,0.011075465939939022
1782845880374116000,6.7481162109375,0.006274237297475338,-0.00004675169475376606,0.010288750752806664
1782845880384121000,6.75812109375,0.00565398670732975,-0.00001825578510761261,0.0031221844255924225
1782845880394126000,6.7681259765625,0.0027706518303602934,-0.0008342557121068239,-0.0009562477353028953
1782845880404131000,6.778131103515625,0.002328566974028945,0.0039029750041663647,-0.00525645399466157
1782845880414136000,6.788135986328125,-0.0025337045080959797,0.006556031294167042,-0.004534871317446232
1782845880424140300,6.798140380859375,-0.00907842256128788,0.006221005693078041,0.00009769725147634745
1782845880434145300,6.808145263671875,-0.008180644363164902,-0.00048452778719365597,0.002574148355051875
1782845880444150300,6.818150390625,-0.0070772962644696236,-0.0028877644799649715,0.007387545425444841
1782845880454155300,6.8281552734375,-0.00806375965476036,-0.0018173716962337494,0.01128431223332882
1782845880464160300,6.83816015625,-0.010669397190213203,-0.003331379033625126,0.015445767901837826
1782845880474165200,6.848165283203125,-0.004210038110613823,-0.0027055207174271345,0.014629374258220196
1782845880484170200,6.858170166015625,-0.0012872186489403248,-0.0005920359399169683,0.012159026227891445
1782845880494175200,6.86817529296875,0.0019134222529828548,0.001521262340247631,0.0067828563041985035
1782845880504180200,6.87818017578125,0.0038143866695463657,0.00029567559249699116,0.005787366535514593
1782845880514184200,6.88818408203125,0.0047698309645056725,-0.00018574856221675873,-0.0001441948115825653
1782845880524189200,6.898189208984375,0.0009822833817452192,0.0042619965970516205,-0.0030299960635602474
1782845880534194200,6.908194091796875,-0.0004710303619503975,0.004748515784740448,-0.001230474328622222
1782845880544199200,6.91819921875,0.00004775333218276501,0.007785052061080933,-0.0022315566893666983
1782845880554204200,6.9282041015625,-0.0010297195985913277,0.005597750656306744,0.0017301191110163927
1782845880564209200,6.938209228515625,-0.0008403689134865999,0.0000192269217222929,0.004678504541516304
1782845880574214100,6.948214111328125,0.0032985187135636806,-0.0012111607939004898,0.01099066250026226
1782845880584219100,6.95821923828125,0.005663139745593071,-0.005184330977499485,0.013472996652126312
1782845880594224000,6.96822412109375,0.004357602447271347,-0.0026242067106068134,0.009154734201729298
1782845880604228400,6.978228271484375,0.007629828527569771,-0.004060715902596712,0.0010030647972598672
1782845880614233300,6.9882333984375,0.005527065601199865,-0.003051917999982834,-0.009008357301354408
1782845880624238300,6.99823828125,0.002467626240104437,-0.002948054578155279,-0.00956282764673233
1782845880634243300,7.008243408203125,-0.0019514127634465694,0.0004222034476697445,-0.01243658922612667
1782845880644248300,7.018248291015625,-0.007741657085716724,0.00025335908867418766,-0.00954572856426239
1782845880654253300,7.02825341796875,-0.007931315340101719,0.0002714083530008793,-0.008840755559504032
1782845880664258300,7.03825830078125,-0.0077118705958127975,0.0020176428370177746,-0.00102810631506145
1782845880674263300,7.04826318359375,-0.0021280492655932903,-0.0032694630790501833,0.009126825258135796
1782845880684268300,7.058268310546875,0.0006933037657290697,-0.003648164449259639,0.010514065623283386
1782845880694272000,7.06827197265625,0.006220301613211632,-0.0044890474528074265,0.01861552894115448
1782845880704277200,7.07827734375,0.01147791463881731,-0.004053087905049324,0.012972556985914707
1782845880714282200,7.0882822265625,0.014426774345338345,-0.006313975900411606,0.013833084143698215
1782845880724287200,7.098287353515625,0.01605902798473835,-0.004882260225713253,0.0005710751283913851
1782845880734292200,7.108292236328125,0.018140988424420357,-0.0003867694176733494,-0.01017148606479168
1782845880744297200,7.118297119140625,0.015731358900666237,0.003987206146121025,-0.016324453055858612
1782845880754302200,7.12830224609375,0.012386892922222614,0.003998931497335434,-0.017082322388887405
1782845880764307200,7.13830712890625,0.009547164663672447,0.0008524067234247923,-0.014994404278695583
1782845880774312200,7.148312255859375,0.008387118577957153,-0.0014858082868158817,-0.010745355859398842
1782845880784316200,7.158316162109375,0.005318624433130026,-0.0016666371375322342,-0.00566431088373065
1782845880794321200,7.168321044921875,0.0010122638195753098,0.0005827369168400764,-0.000715329369995743
1782845880804326100,7.178326171875,-0.0014546222519129515,0.0006807411555200815,0.0038535897620022297
1782845880814331100,7.1883310546875,-0.004102223552763462,0.0008025504648685455,0.008594435639679432
1782845880824336100,7.198336181640625,-0.01110127754509449,-0.0031919246539473534,0.008939580991864204
1782845880834341000,7.208341064453125,-0.012368354015052319,0.0016491417773067951,0.013468763791024685
1782845880844346000,7.21834619140625,-0.01782809942960739,0.001957269385457039,0.012589921243488789
1782845880854351000,7.22835107421875,-0.02356313355267048,0.0009262643288820982,0.015984302386641502
1782845880864356000,7.238356201171875,-0.02313942462205887,0.005221677012741566,0.017621079459786415
1782845880874360000,7.248360107421875,-0.02685418352484703,0.00702267698943615,0.02478942647576332
1782845880884365000,7.258364990234375,-0.027890419587492943,0.010986260138452053,0.030782870948314667
1782845880894370000,7.2683701171875,-0.02689165063202381,0.009321688674390316,0.04149934649467468
1782845880904375000,7.278375,-0.0233997143805027,0.0057503897696733475,0.04479660838842392
1782845880914380000,7.288380126953125,-0.01792907528579235,0.006487246602773666,0.04215264320373535
1782845880924385000,7.298385009765625,-0.008056203834712505,0.006822804920375347,0.04070441424846649
1782845880934390000,7.30839013671875,-0.0026650421787053347,0.0071519361808896065,0.03331002965569496
1782845880944395000,7.31839501953125,0.0008149105124175549,0.004326322115957737,0.02264939434826374
1782845880954400000,7.32839990234375,0.003758868435397744,0.005853727459907532,0.012415562756359577
1782845880964404200,7.338404296875,0.004947703331708908,0.0016049206024035811,0.00010696501703932881
1782845880974409200,7.3484091796875,0.008904768154025078,0.0020468824077397585,-0.007026983425021172
1782845880984414200,7.358414306640625,0.009303709492087364,0.0027765885461121798,-0.013885954394936562
1782845880994419200,7.368419189453125,0.009512277320027351,0.0002641144674271345,-0.01620827242732048
1782845881004424200,7.378424072265625,0.009198023937642574,0.002020202809944749,-0.01982804201543331
1782845881014429200,7.38842919921875,0.008756794035434723,0.010050138458609581,-0.01863846182823181
1782845881024434200,7.39843408203125,0.007934676483273506,0.007338508032262325,-0.014099104329943657
1782845881034439200,7.408439208984375,0.010339048691093922,0.0051277028396725655,-0.008655676618218422
1782845881044444200,7.418444091796875,0.00976034440100193,0.0050187790766358376,0.004106191452592611
1782845881054448000,7.4284482421875,0.008896203711628914,0.00621291296556592,0.007536555640399456
1782845881064453000,7.438453125,0.003955240827053785,0.006171367596834898,0.015818987041711807
1782845881074458000,7.4484580078125,0.0032418223563581705,0.005754801444709301,0.02403878979384899
1782845881084463000,7.458463134765625,0.0009166162926703691,0.006921798922121525,0.026045480743050575
1782845881094468000,7.468468017578125,0.001664389856159687,0.005431807599961758,0.028851164504885674
1782845881104473000,7.47847314453125,-0.0020565788727253675,0.005438998341560364,0.027343548834323883
1782845881114478000,7.48847802734375,-0.005998113192617893,0.011636201292276382,0.019474495202302933
1782845881124483000,7.498483154296875,-0.0019306669710204005,0.010103552602231503,0.013115931302309036
1782845881134488000,7.508488037109375,-0.0035060818772763014,0.013020990416407585,0.0047047617845237255
1782845881144492000,7.518491943359375,-0.0004327939823269844,0.008856073021888733,0.0009861900471150875
1782845881154497000,7.5284970703125,0.004424223676323891,0.0031409566290676594,0.0019279380794614553
1782845881164502000,7.538501953125,0.009481299668550491,-0.002394157461822033,0.0009497590363025665
1782845881174507300,7.54850732421875,0.015469782054424286,0.0008478995878249407,-0.005725817289203405
1782845881184511200,7.55851123046875,0.017563026398420334,0.0016292710788547993,-0.010473966598510742
1782845881194516200,7.56851611328125,0.0165147352963686,0.006668886169791222,-0.014421764761209488
1782845881204521200,7.578521240234375,0.019634095951914787,0.010318482294678688,-0.022346533834934235
1782845881214526200,7.588526123046875,0.020978741347789764,0.01131228543817997,-0.02182590402662754
1782845881224531200,7.59853125,0.014888358302414417,0.003137180581688881,-0.014346415176987648
1782845881234535200,7.60853515625,0.018213635310530663,-0.001236290205270052,-0.014758726581931114
1782845881244540200,7.6185400390625,0.01513049378991127,-0.007532269228249788,-0.013990137726068497
1782845881254545200,7.628545166015625,0.016991188749670982,-0.00514418538659811,-0.01592886634171009
1782845881264550100,7.638550048828125,0.011855018325150013,-0.0014261461328715086,-0.01616881787776947
1782845881274555100,7.64855517578125,0.012625175528228283,0.000414965208619833,-0.017435651272535324
1782845881284560100,7.65856005859375,0.005851158872246742,-0.0021533872932195663,-0.013110145926475525
1782845881294565000,7.668565185546875,0.00551731139421463,-0.0013759077992290258,-0.00815598201006651
1782845881304570000,7.678570068359375,-0.004332656040787697,-0.004830826073884964,0.004769936203956604
1782845881314575000,7.6885751953125,-0.008761142380535603,-0.005774746648967266,0.010880740359425545
1782845881324579300,7.698579345703125,-0.013128194026648998,-0.003948883153498173,0.023884689435362816
1782845881334584300,7.708584228515625,-0.011684900149703026,-0.003553813323378563,0.028902491554617882
1782845881344589300,7.71858935546875,-0.010285941883921623,-0.0012427219189703465,0.03245727717876434
1782845881354594300,7.72859423828125,-0.0061887395568192005,0.0006865875329822302,0.03545953333377838
1782845881364599300,7.738599365234375,-0.0021396696101874113,-0.002259134780615568,0.037641726434230804
1782845881374604300,7.748604248046875,0.0016667596064507961,-0.004466402344405651,0.027541177347302437
1782845881384609300,7.758609375,0.003882776014506817,-0.003621381940320134,0.01985928975045681
1782845881394614300,7.7686142578125,0.0033652796410024166,-0.0021658088080585003,0.0071390182711184025
1782845881404618200,7.7786181640625,0.0006118377204984426,0.0005583385936915874,-0.003672350663691759
1782845881414623200,7.788623291015625,-0.0010420562466606498,-0.0029281561728566885,-0.012437274679541588
1782845881424628200,7.798628173828125,-0.002259120810776949,0.0011874930933117867,-0.014859420247375965
1782845881434633200,7.80863330078125,-0.005972055718302727,0.00029730843380093575,-0.012763559818267822
1782845881444638200,7.81863818359375,-0.006049820221960545,0.0008547080215066671,-0.007161866873502731
1782845881454643200,7.828643310546875,-0.008627171628177166,-0.00007263221777975559,-0.003661461640149355
1782845881464648200,7.838648193359375,-0.006014344748109579,-0.0029389923438429832,0.002841178560629487
1782845881474653200,7.848653076171875,-0.004011270124465227,-0.008709851652383804,0.008024912327528
1782845881484658200,7.858658203125,-0.0012540994212031364,-0.009843825362622738,0.010884881019592285
1782845881494662100,7.868662109375,-0.0006846158066764474,-0.01085361372679472,0.011151626706123352
1782845881504667100,7.878667236328125,-0.004966712556779385,-0.007189902476966381,0.011877072043716908
1782845881514672000,7.888672119140625,-0.006808008998632431,-0.0024302806705236435,0.010116977617144585
1782845881524677400,7.898677490234375,-0.007574466057121754,0.0006627144757658243,0.006457793526351452
1782845881534682400,7.908682373046875,-0.0102638378739357,0.0032905107364058495,0.004867727868258953
1782845881544687400,7.918687255859375,-0.009285924956202507,0.001040672417730093,0.005277588032186031
1782845881554692400,7.9286923828125,-0.0034588307607918978,0.003374324878677726,0.0024276436306536198
1782845881564697300,7.938697265625,-0.0003288176376372576,-0.0005572999361902475,0.002032963093370199
1782845881574702300,7.948702392578125,0.0023595166858285666,-0.0038940974045544863,0.0036959683056920767
1782845881584706000,7.9587060546875,0.00669434480369091,-0.0080281225964427,-0.0020644492469727993
1782845881594711000,7.9687109375,0.009208942763507366,-0.011025291867554188,-0.0070904092863202095
1782845881604716000,7.978716064453125,0.008176435716450214,-0.004950354807078838,-0.015162982977926731
1782845881614721000,7.988720947265625,0.007216379512101412,0.000501156086102128,-0.02328457124531269
1782845881624726000,7.99872607421875,0.0061844042502343655,0.004605087451636791,-0.02670353651046753
1782845881634731000,8.00873095703125,0.005930099170655012,0.0017547463066875935,-0.021757006645202637
1782845881644736000,8.018736083984376,0.003869345411658287,0.002937456127256155,-0.018924735486507416
1782845881654741000,8.028740966796875,-0.000306546688079834,0.002499127294868231,-0.008791884407401085
1782845881664746000,8.03874609375,0.00016456656157970428,0.002894606674090028,-0.004758527036756277
1782845881674750200,8.048750244140624,0.0017779248300939798,0.005077245645225048,-0.0012136115692555904
1782845881684755200,8.058755126953125,0.008138618431985378,0.0007450813427567482,0.008592680096626282
1782845881694760200,8.06876025390625,0.009456616826355457,-0.0016799930017441511,0.012147467583417892
1782845881704765200,8.07876513671875,0.009037435054779053,-0.00010553235188126564,0.007204374298453331
1782845881714770200,8.088770263671876,0.005850781686604023,0.003410011064261198,0.006949424743652344
1782845881724775200,8.098775146484375,0.004382846876978874,0.00783192366361618,0.000027336471248418093
1782845881734780200,8.1087802734375,0.00003166124224662781,0.010046239010989666,-0.011492317542433739
1782845881744785200,8.11878515625,-0.001922299969010055,0.016147540882229805,-0.01943812519311905
1782845881754790100,8.1287900390625,-0.0011471934849396348,0.020677968859672546,-0.020732814446091652
1782845881764794000,8.138794189453124,0.002166311489418149,0.018211347982287407,-0.014293290674686432
1782845881774799000,8.148799072265625,0.004180278163403273,0.010835628025233746,-0.003935010638087988
1782845881784804000,8.15880419921875,0.008495930582284927,0.0015909969806671143,0.003310651518404484
1782845881794809000,8.16880908203125,0.012993771582841873,0.0009491073433309793,0.01295445952564478
1782845881804814000,8.17881396484375,0.016210071742534637,0.004471138119697571,0.01581496000289917
1782845881814819000,8.188819091796875,0.014988434500992298,0.0052678450010716915,0.0182171817868948
1782845881824824000,8.198823974609375,0.01310824416577816,0.004420427139848471,0.01599264144897461
1782845881834829000,8.2088291015625,0.00854270439594984,0.0025825670454651117,0.011684258468449116
1782845881844834000,8.218833984375,0.006742673926055431,0.0051301466301083565,0.0048596421256661415
1782845881854838000,8.228838134765626,0.0015366000588983297,0.002296154387295246,0.0006434530951082706
1782845881864843000,8.238843017578125,-0.0026650691870599985,0.004124147817492485,-0.00538993813097477
1782845881874848000,8.248847900390626,-0.0029264381155371666,0.002384734572842717,-0.009594421833753586
1782845881884853200,8.258853271484375,-0.001841732650063932,0.004513132851570845,-0.011202438734471798
1782845881894858200,8.268858154296876,-0.0016212782356888056,0.0013043174985796213,-0.01207616738975048
1782845881904863200,8.27886328125,-0.0032074570190161467,-0.003546630498021841,-0.002436855575069785
1782845881914868200,8.2888681640625,-0.0027212193235754967,-0.008305937983095646,0.0025547612458467484
1782845881924873200,8.298873291015624,-0.00039601349271833897,-0.006218818016350269,0.005555344745516777
1782845881934878200,8.308878173828125,-0.0021013200748711824,-0.006010197568684816,0.012357142753899097
1782845881944882200,8.318882080078126,-0.003929846454411745,-0.0038250735960900784,0.010883881710469723
1782845881954887200,8.32888720703125,-0.0011781016364693642,-0.0020400399807840586,0.01024535857141018
1782845881964892200,8.33889208984375,0.001205161213874817,-0.003516496391966939,0.013853409327566624
1782845881974897200,8.348897216796875,0.0052413372322916985,-0.0016455703880637884,0.007080568000674248
1782845881984902100,8.358902099609375,0.010919728316366673,-0.0017704723868519068,0.0015944561455398798
1782845881994907100,8.3689072265625,0.015141794458031654,-0.0000561403576284647,-0.006556839216500521
1782845882004912000,8.378912109375,0.01932988129556179,-0.003207991598173976,-0.017950640991330147
1782845882014917000,8.388917236328124,0.017622554674744606,-0.001726701157167554,-0.01597673073410988
1782845882024921000,8.398921142578125,0.01096571795642376,-0.00614967942237854,-0.017207909375429153
1782845882034926000,8.408926025390626,0.008944083005189896,-0.007658026181161404,-0.013824600726366043
1782845882044931000,8.41893115234375,0.0052979495376348495,-0.004485668148845434,-0.01513301208615303
1782845882054936000,8.42893603515625,0.003820946905761957,-0.006286251824349165,-0.014783059246838093
1782845882064941000,8.438941162109375,-0.002255587838590145,-0.00544575834646821,-0.009334498085081577
1782845882074946000,8.448946044921875,-0.0064987316727638245,0.00029430375434458256,-0.004907330963760614
1782845882084951000,8.458950927734374,-0.008675066754221916,-0.0013416758738458157,0.006625754293054342
1782845882094956000,8.4689560546875,-0.011018326506018639,-0.0023651563096791506,0.007788436021655798
1782845882104961300,8.478961181640624,-0.007032373920083046,-0.0025827365461736917,0.010330955497920513
1782845882114965200,8.48896533203125,-0.009431375190615654,-0.0025803798343986273,0.013904941268265247
1782845882124970200,8.49897021484375,-0.009900358505547047,-0.004716235212981701,0.016388071700930595
1782845882134975200,8.508975341796875,-0.006113146431744099,-0.007074456661939621,0.012387534603476524
1782845882144980200,8.518980224609376,-0.004927240777760744,-0.0044525740668177605,0.00928867980837822
1782845882154985200,8.528985107421875,-0.002046403242275119,-0.0029340076725929976,0.00847899354994297
1782845882164990200,8.538990234375,-0.0005339941708371043,0.00021464773453772068,0.0037359038833528757
1782845882174995200,8.5489951171875,0.00045044999569654465,0.0036737043410539627,0.006976565346121788
1782845882185001700,8.559001708984376,0.005247602239251137,0.0010435665026307106,0.010823234915733337
1782845882195006700,8.5690068359375,0.005825509317219257,-0.00266659096814692,0.015437952242791653
1782845882205010700,8.5790107421875,0.0023178604897111654,-0.0017619153950363398,0.015519978478550911
1782845882215015700,8.589015625,0.003855148097500205,-0.0022155067417770624,0.011968012899160385
1782845882225020700,8.599020751953125,0.0026316919829696417,0.0014079901156947017,0.006275772582739592
1782845882235025700,8.609025634765626,0.0014298497699201107,0.0025477749295532703,0.002679930068552494
1782845882245030700,8.61903076171875,0.0003992062993347645,0.0010257784742861986,0.003634140593931079
1782845882255035600,8.62903564453125,0.001610480947420001,0.0018620037008076906,0.0035107696894556284
1782845882265040600,8.63904052734375,0.0033910705242305994,-0.001677603693678975,0.007420822978019714
1782845882275045600,8.649045654296875,0.008473251014947891,-0.00042337062768638134,0.01440622191876173
1782845882285050600,8.659050537109374,0.008215989917516708,0.01552150771021843,0.05661013722419739
1782845882295054600,8.6690546875,0.008343009278178215,0.017023777589201927,0.036819394677877426
1782845882305059600,8.6790595703125,0.01661026105284691,0.02263985015451908,-0.009545172564685345
1782845882315064600,8.689064697265625,0.02693914622068405,-0.011245399713516235,-0.03184390068054199
1782845882325069600,8.699069580078126,0.03230248764157295,-0.03131311759352684,-0.002766174264252186
1782845882335074600,8.709074462890625,0.026319710537791252,-0.015126512385904789,0.019466673955321312
