time,seconds_elapsed,z,y,x
1782846389583406800,0.07340673828125,-0.028982933378219604,-0.009741075557935982,-0.03316358463030774
1782846389593411800,0.083411865234375,0.15224340234398842,0.00805759771671146,0.038979216673085466
1782846389603416800,0.093416748046875,0.18352467579245565,0.004407514243945479,0.048505325172934675
1782846389613421800,0.103421875,0.03372691303491592,0.009051010934542863,-0.01594230253495043
1782846389623426800,0.1134267578125,0.012772972333431243,0.011299538780003785,-0.011912793573830276
1782846389633431800,0.123431884765625,0.1488064136326313,-0.0014186528925783932,0.03721941762606147
1782846389643436800,0.133436767578125,0.15344517934918403,0.00984265450257808,0.03250720993067371
1782846389653441800,0.14344189453125,0.015320318728685379,0.03274758314136415,-0.02810469380554277
1782846389663446800,0.15344677734375,0.05946399635970592,0.002314615351613611,-0.009632194656250067
1782846389673451800,0.16345166015625,0.14761106636822222,0.006431403020676225,0.040873031063051894
1782846389683456800,0.173456787109375,0.12471417490541935,-0.0036617191116325555,0.009531624925183132
1782846389693461800,0.183461669921875,0.03896598273217678,0.0014619075124152005,-0.016597802735038567
1782846389703466800,0.193466796875,0.079969608771801,-0.0019423845057375728,-0.022003579901868943
1782846389713471700,0.2034716796875,0.1544961497068405,0.014411916913185267,0.01955927375598112
1782846389723476700,0.213476806640625,0.09194470872581005,0.019876009271666405,0.0035608000374049878
1782846389733480700,0.223480712890625,0.05154197118878364,0.008194321039970963,-0.015243871942011173
1782846389743485700,0.233485595703125,0.09763152219057082,0.02313082808284089,-0.0003942645811708644
1782846389753490700,0.24349072265625,0.10122224015891551,0.008650540374871342,0.012759902789304032
1782846389763495700,0.25349560546875,0.0632119507163763,0.009180884391907602,0.008150575513078365
1782846389773500700,0.263500732421875,0.07099193706810474,0.019680285770166665,-0.0294498156710295
1782846389783505700,0.273505615234375,0.10600830539166926,0.01439485618053004,0.011872488962905482
1782846389793510700,0.2835107421875,0.09957271938621998,0.006077036625053733,0.023303513202047904
1782846389803515600,0.293515625,0.06739946553409099,0.010742251957114785,-0.00005317094236379489
1782846389813520600,0.303520751953125,0.0828144768089056,0.004046042254101485,-0.0170908469489892
1782846389823525600,0.313525634765625,0.10990706639587879,-0.006600786504521966,0.0020408695942838676
1782846389833530600,0.323530517578125,0.10317337422668933,0.0016423238469287752,0.010151558338257018
1782846389843535600,0.33353564453125,0.07803601036071776,0.005420308015681803,-0.0015838054425898007
1782846389853540600,0.34354052734375,0.08626841665506363,-0.003816635678708553,0.004056549948384054
1782846389863545600,0.353545654296875,0.10078384874165057,0.012619444005843252,0.0079387023110874
1782846389873550600,0.363550537109375,0.0939028570562601,0.017458992991503327,0.008737392107839696
1782846389883555600,0.3735556640625,0.085223291516304,0.01601843879437074,0.007501648900960571
1782846389893560600,0.383560546875,0.08402619068622588,0.016466219094488768,0.0016235963135724887
1782846389903565600,0.393565673828125,0.0861211171388626,0.022282211896870283,-0.007493280648125801
1782846389913570600,0.403570556640625,0.08043430367410183,0.02007180583840236,-0.00010251280969241633
1782846389923575600,0.413575439453125,0.07534779419004917,0.00548900760402903,-0.02166416676349472
1782846389933580500,0.42358056640625,0.10048924970924854,0.007493899419344962,0.007077598819590639
1782846389943585500,0.43358544921875,0.09361351872086525,0.012261113821156322,0.013751719988381955
1782846389953590500,0.443590576171875,0.08388765899837017,0.010577124523278325,0.001328725569823291
1782846389963595500,0.453595458984375,0.10303834967017172,-0.0032118016533553596,-0.003977966003550682
1782846389973600500,0.4636005859375,0.10318623370826244,-0.006708320265915244,0.019486482514406087
1782846389983605800,0.473605712890625,0.08597966284155845,-0.0008050875714980065,0.004519504984747618
1782846389993610800,0.48361083984375,0.09256254836320876,0.00240817538658157,0.005179701909550931
1782846390003615700,0.49361572265625,0.09794950209856033,0.0036291320162825285,-0.006809821578743867
1782846390013619700,0.50361962890625,0.0798474436968565,0.013896131144464014,0.000781663313426543
1782846390023624700,0.513624755859375,0.0921206498146057,0.014959705255366862,0.00811405431141611
1782846390033629700,0.523629638671875,0.10050094014704226,0.0027819040697999297,0.006837497320247348
1782846390043634700,0.533634765625,0.08972937076389789,0.017209128149971366,0.004107981024810578
1782846390053639700,0.5436396484375,0.0864396815687418,0.007834657414723186,-0.01076705760480836
1782846390063644700,0.553644775390625,0.0814987180352211,0.007812847441714257,-0.00823530378761934
1782846390073649700,0.563649658203125,0.09376900154352187,-0.003081873397063464,-0.0034440737559809347
1782846390083654700,0.573654541015625,0.10110299769341945,0.00655261824754998,-0.016680281970277426
1782846390093659600,0.58365966796875,0.07805997575819491,0.010400745043065398,-0.018790118297678418
1782846390103664600,0.59366455078125,0.08210019105970859,-0.002623206376750022,-0.004304017336852848
1782846390113669600,0.603669677734375,0.07776245411634444,0.0053908627254888415,0.0015058288525324314
1782846390123674600,0.613674560546875,0.08509703478813171,0.014284564206469803,0.0007294810350402257
1782846390133679600,0.6236796875,0.09288052827119826,0.00847918412964791,-0.002825108457286842
1782846390143684600,0.6336845703125,0.08914251078665256,0.0038552323897369204,0.005766833598143421
1782846390153689900,0.64368994140625,0.08016367003917693,0.0122427379142493,0.01301331357808085
1782846390163694800,0.65369482421875,0.08435703007578849,0.0047514323107898234,-0.0021018356840359046
1782846390173699800,0.663699951171875,0.09034078066051006,0.0035069121424108744,0.0101506678556907
1782846390183704800,0.673704833984375,0.09887129311859608,0.008081654445733874,0.0072380592114641325
1782846390193709800,0.683709716796875,0.09842004221975803,0.005210629054065793,0.015881617289700077
1782846390203714800,0.69371484375,0.08929039482474327,-0.0008468078213743865,0.0073616330754943185
1782846390213719800,0.7037197265625,0.09318097252249717,0.004534958282206208,0.0033436501553864217
1782846390223724800,0.713724853515625,0.09587444939017295,-0.003570241435896605,-0.006390141711814794
1782846390233729800,0.723729736328125,0.0913888284087181,0.0037815460990183055,0.004113728062296286
1782846390243734800,0.73373486328125,0.0915413886219263,0.006338537105452269,0.009261799574433825
1782846390253739800,0.74373974609375,0.10216741205453872,0.018675474375486372,-0.014238681521418039
1782846390263744800,0.753744873046875,0.09438801022469998,0.029832554211188106,-0.006957331157498993
1782846390273749800,0.763749755859375,0.07703530888557433,0.02179685779903084,0.008701350396790075
1782846390283754800,0.773754638671875,0.09379296694099902,0.012737261699233204,0.010926757661567534
1782846390293759700,0.783759765625,0.07688684032559394,0.01335150287374854,-0.0047169135532574725
1782846390303763700,0.793763671875,0.08990706541836262,0.017467760819848625,-0.0006796459773671813
1782846390313768700,0.803768798828125,0.08661328456997872,0.01976714206971228,0.0051562708016135725
1782846390323774000,0.81377392578125,0.08870470389127731,-0.007776351356226951,-0.015777787022467234
1782846390333779000,0.823779052734375,0.08526479257047176,0.0024641616238281127,-0.005057447786349803
1782846390343784000,0.833783935546875,0.1060673421025276,0.007148063390050083,-0.0013068242652690969
1782846390353789000,0.843788818359375,0.08347557106614112,0.007133359011262655,0.003939620454271789
1782846390363794000,0.8537939453125,0.09499942012131214,-0.0025257008190266786,0.003077375318459235
1782846390373799000,0.863798828125,0.08422726621627807,0.015510982462577521,0.008726982594968284
1782846390383804000,0.873803955078125,0.07689677719771862,0.0022417327784933147,-0.002525337776134256
1782846390393809000,0.883808837890625,0.09515490294396876,-0.008339465131703763,0.0025036054349387993
1782846390403814000,0.89381396484375,0.09874737447798251,0.009857322348747402,0.017915586785739287
1782846390413819000,0.90381884765625,0.10233984601199626,0.0006909779388457536,-0.0032918765856651587
1782846390423824000,0.913823974609375,0.07705284454226494,0.007787238076422363,-0.007920913209358695
1782846390433828900,0.923828857421875,0.09306114553511143,0.008646795781515539,0.0013285999889485537
1782846390443833900,0.933833740234375,0.09979717579185962,0.024120222712680696,-0.006164342732459772
1782846390453838800,0.9438388671875,0.08932429709434508,0.00906684782449156,0.0011923470231471583
1782846390463843800,0.95384375,0.10248948361575604,0.010839191259257495,0.013630169118079356
1782846390473848800,0.963848876953125,0.07570552158653736,0.002832172952312976,0.010006434796121903
1782846390483853800,0.973853759765625,0.07690379146039486,0.015790986714046447,-0.00446987998962868
1782846390493858800,0.98385888671875,0.1005471173763275,0.0017094707990065216,-0.010855477957066614
1782846390503863800,0.99386376953125,0.07929916216433047,-0.0035517559311352667,-0.012560135583637748
1782846390513868800,1.003868896484375,0.09935060106813907,-0.00969778440548107,-0.011423313573433552
1782846390523873800,1.013873779296875,0.08184417047202587,-0.010053867834154516,0.010985709890746511
1782846390533878800,1.023878662109375,0.08603811503052711,0.012940693583153187,0.006702438514400273
1782846390543883800,1.0338837890625,0.08798691101074219,0.00964451984828338,0.01653030872308882
1782846390553888800,1.043888671875,0.11058277370035648,0.006931004839576781,0.005983063314843457
1782846390563893800,1.053893798828125,0.10459610050618648,0.0014637158770114183,0.011790098775923252
1782846390573897700,1.063897705078125,0.10070376924276352,0.0075448624216020105,0.020739480533474124
1782846390583902700,1.07390283203125,0.09232347891032695,-0.004375237675849348,0.0036523576282430437
1782846390593907700,1.08390771484375,0.09261983150839805,-0.00023196385866031049,0.005338548016361892
1782846390603912700,1.09391259765625,0.09097440238893031,0.009344623586256056,0.016786630704870912
1782846390613918000,1.10391796875,0.09351824165284633,0.005275291788112372,0.00715580830508843
1782846390623923000,1.1139228515625,0.08648585879802703,0.004078209224343299,-0.0004487917969818227
1782846390633928000,1.123927978515625,0.08664017257690429,0.01509390782797709,-0.009088376952998805
1782846390643933000,1.133932861328125,0.08873626807332038,0.004545826736092567,-0.02365060960666742
1782846390653938000,1.14393798828125,0.09292670550048351,0.010183357699029148,-0.012182324380346108
1782846390663943000,1.15394287109375,0.09068272596597671,0.009083744160365313,-0.001690094811678864
1782846390673948000,1.163947998046875,0.08304887008666992,0.0060671545518562195,-0.004127624156908132
1782846390683953000,1.173952880859375,0.08305062365233898,0.00555301275094971,-0.001432167677988764
1782846390693958000,1.1839580078125,0.08769172745645046,0.012181965904030949,-0.006153273349173832
1782846390703963000,1.193962890625,0.0752723908662796,0.01023090490149334,-0.0013843807302182539
1782846390713967900,1.2039677734375,0.09053601097166537,0.0007714775628410279,0.011600487638090271
1782846390723972900,1.213972900390625,0.07273147421181202,0.002184796693176031,0.008045882162742782
1782846390733977900,1.223977783203125,0.0710895522236824,-0.006817059603706002,0.0061930413872702044
1782846390743982800,1.23398291015625,0.09413608129024505,-0.004235865737777203,0.021174456150946205
1782846390753987800,1.24398779296875,0.09533493568599223,-0.005230941189732402,0.007007880884513725
1782846390763992800,1.253992919921875,0.09758242235183716,-0.011045034295972436,0.007572019856586121
1782846390773997800,1.263997802734375,0.1062596498042345,0.00504804063718766,-0.003896272219601087
1782846390784002800,1.2740029296875,0.08396423136591911,0.00023362609278410672,-0.0009208571549854241
1782846390794007800,1.2840078125,0.09100012135207652,0.01686999585609883,0.005684733388817403
1782846390804012800,1.2940126953125,0.09563771802484988,0.009582103870250285,0.0011534968670806848
1782846390814017800,1.304017822265625,0.088304306396842,0.0031882381146773695,-0.006987276487902272
1782846390824022800,1.314022705078125,0.09278934285640716,-0.00186979419356212,-0.002387968282192014
1782846390834026800,1.32402685546875,0.09278583572506904,0.010854589757788925,0.0024175163203733973
1782846390844031700,1.33403173828125,0.08694587752521038,0.002222169561497867,-0.01147920847913483
1782846390854036700,1.34403662109375,0.08978957651853561,0.010278817430138587,-0.0005436715727788396
1782846390864041700,1.354041748046875,0.10579846203327178,0.002748056599125266,-0.006049258135561831
1782846390874046700,1.364046630859375,0.09637304656207561,0.006849591900128871,-0.005390186872053891
1782846390884051700,1.3740517578125,0.08215747420489787,0.008208349565323441,-0.009831007447268348
1782846390894056700,1.384056640625,0.09068798666298389,0.009065002927277237,0.00007949726028600708
1782846390904061700,1.394061767578125,0.10325696085691452,0.014500471979472785,0.013428351519221905
1782846390914066700,1.404066650390625,0.0830535462617874,0.007996149853058158,0.01178742276164703
1782846390924071700,1.41407177734375,0.0826052179723978,0.01022414636714384,-0.002131392855371814
1782846390934076700,1.42407666015625,0.101911391466856,0.011889686692878603,-0.00791443780279951
1782846390944081700,1.43408154296875,0.07991583275794982,-0.0074695321630686515,-0.01394496155513916
1782846390954086700,1.444086669921875,0.08320610647499561,0.003814224525913596,0.004812517131550703
1782846390964092000,1.454091796875,0.08230769633054733,0.005332520134374499,-0.007634365052671637
1782846390974097000,1.464096923828125,0.0963736310839653,-0.007093757653236389,0.011968298037175555
1782846390984102000,1.474101806640625,0.07976677967607974,0.0068250054481439285,-0.006592233305308036
1782846390994107000,1.48410693359375,0.08620061211585998,-0.006171692638564854,-0.01534198713779915
1782846391004112000,1.49411181640625,0.08724807534217834,0.008943093580659478,-0.002218445517739747
1782846391014116900,1.504116943359375,0.07393383573889732,-0.0006262604058720171,-0.006060548997845035
1782846391024121900,1.514121826171875,0.08680559227168559,0.0007413929518312215,-0.016113793494203128
1782846391034126800,1.524126953125,0.09817980372309684,0.007688910534791648,-0.00889240457303822
1782846391044131800,1.5341318359375,0.08710837461054324,0.004023337231948971,0.006568772514618467
1782846391054136800,1.54413671875,0.08605798877477645,-0.0024296930986456573,0.0028683014283305964
1782846391064141800,1.554141845703125,0.10461422068476676,0.01786521743852645,0.013212694907968397
1782846391074146800,1.564146728515625,0.10371814862787723,-0.0001563048065640032,0.020497296674898826
1782846391084151800,1.57415185546875,0.09758300687372684,0.017347276245336978,0.01831908041955903
1782846391094156800,1.58415673828125,0.08815525331497191,0.012272201470751315,0.0013981101447599939
1782846391104160800,1.594160888671875,0.08994973551630973,0.01144687482882291,0.01350822095555486
1782846391114165800,1.604165771484375,0.0850146172016859,0.012809687614627181,-0.0007248208429431542
1782846391124170800,1.614170654296875,0.08576514330804348,0.013884166712034494,0.009845643327396828
1782846391134175700,1.62417578125,0.09564356324374675,0.007499488909915089,0.004288246662274469
1782846391144180700,1.6341806640625,0.08906301580965519,-0.011677249518595636,0.00675385817438364
1782846391154185700,1.644185791015625,0.095201080173254,-0.01181534281503409,-0.010098270948173012
1782846391164190700,1.654190673828125,0.08307984974682331,0.006635419426485896,0.0007681599444593302
1782846391174195700,1.66419580078125,0.08502513859570025,-0.0005402443565428257,0.006504653203266207
1782846391184200700,1.67420068359375,0.0923562121361494,0.020436858024820686,0.008671521514107007
1782846391194205700,1.684205810546875,0.09175824624300002,0.011891677720565349,0.013594515566097106
1782846391204210700,1.694210693359375,0.09296002324819565,0.014660722308792173,0.0006079233148717321
1782846391214215700,1.704215576171875,0.09670271690785884,0.003354698989074677,-0.0094249473970267
1782846391224220700,1.714220703125,0.09610299744904041,0.0036958588432520626,0.002594911864027381
1782846391234225700,1.7242255859375,0.08024199597239494,0.016711645222920922,0.01700865769140655
1782846391244230700,1.734230712890625,0.07859656685292721,0.004547087111417204,-0.0055756287248455915
1782846391254235600,1.744235595703125,0.09370938031077385,-0.004716872454062104,0.003246162863972131
1782846391264240600,1.75424072265625,0.0932628055870533,0.01776151960203424,0.005098012692178599
1782846391274245600,1.76424560546875,0.09685761520862579,-0.003789711139164865,-0.0017273398158373311
1782846391284250600,1.774250732421875,0.0913233619570732,-0.0007626001366414129,0.005610732004267629
1782846391294255600,1.784255615234375,0.09072481154203414,0.00999610976492986,0.007903672096901572
1782846391304260600,1.794260498046875,0.10164777209460735,0.012556370440684259,0.01454557606310118
1782846391314265600,1.804265625,0.08503741355538368,0.005860617395397275,0.0036067261049407533
1782846391324270800,1.814270751953125,0.09431786759793757,-0.008479640787374228,-0.003229346443200484
1782846391334275800,1.82427587890625,0.08309270922839641,-0.003429755252972245,0.0004449239060399122
1782846391344280800,1.83428076171875,0.1020984384715557,-0.00021844678996130822,-0.0014411843847949057
1782846391354285800,1.844285888671875,0.10808861879706382,-0.003727751818858087,0.009474766471679321
1782846391364290800,1.854290771484375,0.08564590084254742,0.00585882729711011,-0.002412509068404324
1782846391374294800,1.864294677734375,0.08923720333278179,0.006752195940259844,-0.002880380025191698
1782846391384299800,1.8742998046875,0.07906067723333834,0.0009730097506195307,0.006129696110764052
1782846391394304800,1.8843046875,0.08893500551581382,-0.0074616593838669355,-0.003455771043640561
1782846391404309800,1.894309814453125,0.09566577507555485,-0.002685859816800803,-0.005090881981782149
1782846391414314800,1.904314697265625,0.08967734831571579,0.005987440379150211,0.007550892586878035
1782846391424319700,1.91431982421875,0.0922217721015215,-0.005970142184477299,0.0023083522908971645
1782846391434324700,1.92432470703125,0.08848024748563765,-0.007018536992557347,0.018902999521046876
1782846391444329700,1.934329833984375,0.08818389488756656,-0.0008758147201500833,0.01609307949973736
1782846391454334700,1.944334716796875,0.08878536791205406,0.01649599317824468,-0.008831726177653763
1782846391464339700,1.954339599609375,0.09462298802435398,0.0002411883447319269,-0.007517581689031794
1782846391474344700,1.9643447265625,0.10045768552720546,0.0006002674480900168,-0.011208734674414153
1782846391484349700,1.974349609375,0.08175181601345538,0.006481142180226743,0.0157933179517393
1782846391494354700,1.984354736328125,0.09132570004463195,0.002725753435771912,0.005522313935298007
1782846391504359700,1.994359619140625,0.09237491683661937,-0.017091438320744782,0.014310730694187803
1782846391514364700,2.00436474609375,0.07725976529121399,-0.012096863170154392,-0.0015031574048334731
1782846391524369700,2.01436962890625,0.08310147705674172,0.0006739537388086318,0.0023230635195504875
1782846391534374700,2.024374755859375,0.08789046489894389,-0.00430065633598715,0.006500502184533979
1782846391544379600,2.034379638671875,0.0932797567218542,0.00965303194830194,-0.011412520468072033
1782846391554384600,2.044384521484375,0.09238426918685436,0.003711787064746022,-0.00426589326657122
1782846391564390000,2.054389892578125,0.08894260430037974,0.011346136134397238,-0.0005074312156182713
1782846391574395000,2.064394775390625,0.0838555102944374,0.0063609681329689916,0.002028813830309082
1782846391584400000,2.07439990234375,0.083707041734457,-0.005496040133014321,-0.0013228301185765302
1782846391594404900,2.08440478515625,0.10690320840477943,-0.004255465487390756,0.0034504144485108554
1782846391604409900,2.094409912109375,0.09253624487817287,0.001634085741546005,0.0027785727516864427
1782846391614414800,2.104414794921875,0.07353460728824138,0.011087667861301451,0.01599987794108456
1782846391624419800,2.114419921875,0.08116963221132754,-0.012989409829396753,0.008666703775094356
1782846391634423800,2.124423828125,0.09478957676291465,-0.0011261544857174158,0.009598034375032875
1782846391644428800,2.1344287109375,0.08431611354351043,0.0033092706784605976,-0.008788065132440534
1782846391654433800,2.144433837890625,0.09239479058086872,0.0031290004744194445,-0.0038060640523442995
1782846391664438800,2.154438720703125,0.09419161086976528,-0.007534980348404496,0.01787295093712164
1782846391674444300,2.1644443359375,0.09658522800803183,-0.0016593845795840024,0.011684485260269138
1782846391684449300,2.17444921875,0.08416647593975067,-0.0011252959691919386,-0.005235162990412209
1782846391694454300,2.184454345703125,0.098233579736948,-0.010472074979916214,-0.002189363270439207
1782846391704459300,2.194459228515625,0.09314122503399848,0.004542045610118657,-0.005103524550935253
1782846391714464300,2.20446435546875,0.09553542669415474,0.0032134273548610507,0.0037646383467013944
1782846391724469200,2.21446923828125,0.08416063072085381,-0.004039301986061036,-0.008450005984224844
1782846391734474200,2.22447412109375,0.09373626831769943,0.009196337689366191,0.01257933119116351
1782846391744479200,2.234479248046875,0.06680325320661068,-0.0027250410497188567,0.02129571247701533
1782846391754484200,2.244484130859375,0.08610650409162043,-0.006331888168957084,-0.002968551498989109
1782846391764489200,2.2544892578125,0.08774959512352942,-0.005907141684554517,0.005913715272524859
1782846391774494200,2.264494140625,0.08625321908593177,0.006367653602082282,-0.015836353375867473
1782846391784499200,2.274499267578125,0.09867489376366138,-0.0032910774346441027,0.008052821076894178
1782846391794504200,2.284504150390625,0.08206804235577583,-0.007334398008696734,-0.0077731570354313585
1782846391804509200,2.29450927734375,0.10900398007631301,0.0019053221646696328,0.004826002234208863
1782846391814514200,2.30451416015625,0.10227087242901324,0.0035164288894273337,0.0039927868300583215
1782846391824519200,2.314519287109375,0.09030044865012168,-0.0016033618097193538,0.0018520187915652057
1782846391834524200,2.324524169921875,0.09269465031027793,-0.0015965119438245891,0.0046074892288772385
1782846391844529200,2.334529052734375,0.09568798690736294,-0.011943517505656927,-0.0001616979343118146
1782846391854534100,2.3445341796875,0.08611527191996574,0.007924655519425868,-0.006572539940860588
1782846391864539100,2.3545390625,0.09075403763651847,-0.0029949805648997424,-0.006501267086225561
1782846391874544000,2.364544189453125,0.08162614380717277,0.00987763448441401,0.009624091264896559
1782846391884548000,2.374548095703125,0.0867138223350048,0.0016528635072521865,0.02192541379885515
1782846391894553000,2.384552978515625,0.08356792552471161,0.014095800168719141,0.019683964148152152
1782846391904558000,2.39455810546875,0.09314648573100566,0.0005357873771339655,0.0025097611810895614
1782846391914563000,2.40456298828125,0.09180150086283684,-0.0032803551112301644,0.01810407911214279
1782846391924568000,2.414568115234375,0.09524784192442894,0.006673888273350894,0.021915323946392163
1782846391934573000,2.424572998046875,0.0722001438140869,-0.00497999863596633,-0.002396176704822574
1782846391944578000,2.434578125,0.0789367585927248,0.0019319544432684777,0.0017865089574363082
1782846391954583300,2.444583251953125,0.09255378053486346,0.0047663741515949366,0.0004191113280598074
1782846391964588300,2.45458837890625,0.08357552430927753,0.009390581619832665,0.0025872400142252444
1782846391974593300,2.46459326171875,0.08627133926451205,0.0009210786339826882,0.012248822878452482
1782846391984598300,2.474598388671875,0.10003566072285175,0.0036953656529076393,-0.009670846166205591
1782846391994603300,2.484603271484375,0.0775900201588869,0.0014709493353962898,0.0005149158357526175
1782846392004608300,2.494608154296875,0.08417582828998565,0.003190996327344328,0.0048220726944738996
1782846392014613200,2.50461328125,0.08642273043394089,0.009814761848654598,-0.007546995013183914
1782846392024618200,2.5146181640625,0.09076280546486377,0.006215148187801242,0.002296737201628275
1782846392034623200,2.524623291015625,0.08896306256651877,0.008485157212708145,0.005798623825761024
1782846392044628200,2.534628173828125,0.08327858718931674,0.0004927154203876853,0.019529348975175526
1782846392054633200,2.54463330078125,0.08716741132140159,-0.008396894407365471,0.0023391744041349736
1782846392064638200,2.55463818359375,0.08657061447203158,-0.002334836155734956,-0.005305040755693335
1782846392074643200,2.564643310546875,0.09345160615742205,-0.0058160841339267785,0.013258922369603533
1782846392084648200,2.574648193359375,0.086269585698843,0.007307583067007363,0.00401567223201273
1782846392094653200,2.584653076171875,0.10063654922544955,-0.004275302699021995,0.003897587393852882
1782846392104658200,2.594658203125,0.09839432325661182,-0.013987115629855542,-0.011617326891748233
1782846392114663200,2.6046630859375,0.08672317468523978,-0.005781761739216745,0.011015187146980314
1782846392124667100,2.614667236328125,0.08402852877378464,0.0023815979069098827,0.006163712544797454
1782846392134672100,2.624672119140625,0.10003975237607955,0.005666757057420909,-0.007236428943381178
1782846392144677000,2.634677001953125,0.10168810410499572,0.01320149994380772,-0.02183669205249753
1782846392154682000,2.64468212890625,0.0885176568865776,0.014531944829970597,-0.014286080310121178
1782846392164687000,2.65468701171875,0.09375614206194877,0.0026408516312949356,-0.002248918287816923
1782846392174692000,2.664692138671875,0.09001344840228558,0.004814743337966502,0.013919174093334003
1782846392184697000,2.674697021484375,0.09794307235777377,0.011139361515920609,0.006107879287889227
1782846392194702000,2.6847021484375,0.08911620730161667,0.0041889213235117495,0.012486193564592395
1782846392204707000,2.69470703125,0.07445639830827712,0.004268014441709965,0.01207661953314673
1782846392214712000,2.704712158203125,0.09660510175228118,0.0020878573910333214,-0.005463599168136716
1782846392224717000,2.714717041015625,0.08403729660212993,0.014000048176664857,0.00015419048129115253
1782846392234722000,2.72472216796875,0.08763035265803337,0.005096081029996276,0.006148925967619288
1782846392244727000,2.73472705078125,0.09451192886531352,0.004767068271338939,-0.00577851946935989
1782846392254732000,2.74473193359375,0.08283844220638274,0.006951481372024864,0.0021380075425375253
1782846392264737000,2.754737060546875,0.09944938526749611,0.0037447212199680506,0.00409298895165557
1782846392274742000,2.764741943359375,0.09780395614802836,-0.004937072809692472,0.0035203218965441916
1782846392284747000,2.7747470703125,0.0891232215642929,-0.001426233410835266,0.006294154541031457
1782846392294752000,2.784751953125,0.09406126248836517,-0.0036694092277437446,-0.001136095924419351
1782846392304757000,2.794757080078125,0.09106909493505955,0.0007873875180259346,0.003173508619714994
1782846392314762200,2.80476220703125,0.0992974095761776,0.004755706627108156,0.0029690972049720584
1782846392324767200,2.814767333984375,0.0937590646713972,-0.0029511414231732486,-0.00920261901639169
1782846392334772200,2.824772216796875,0.09570610708594321,-0.021598759677354244,-0.004738440398476086
1782846392344777200,2.834777099609375,0.07640460976660252,-0.014495284347701818,-0.005166652915021404
1782846392354781200,2.84478125,0.07910042472183704,0.00364149830751121,0.0142409556768951
1782846392364786200,2.8547861328125,0.09810673848688602,0.0021594430562108754,0.010104499759559986
1782846392374791200,2.864791259765625,0.09466390455663204,0.002068951761163771,0.003843480303150136
1782846392384796200,2.874796142578125,0.08658405847549439,0.005508716951496899,-0.0014286696798051707
1782846392394801200,2.88480126953125,0.09182429721653461,0.008073233677260577,0.002619603347289376
1782846392404806100,2.89480615234375,0.07207154899835586,-0.007040913221146911,0.005041524131433107
1782846392414811100,2.90481103515625,0.0874853912293911,-0.0011088928236626088,-0.005358745987596922
1782846392424816000,2.914816162109375,0.10873217739760875,0.01676366767110303,0.021880439862678756
1782846392434821000,2.924821044921875,0.07670914567112923,0.0010924166128970683,-0.0011641552584129385
1782846392444826000,2.934826171875,0.09316752851903438,-0.005133289501536637,0.0025207780487369745
1782846392454831000,2.9448310546875,0.09107026397883891,0.005444675271958113,-0.0031888568858965296
1782846392464836000,2.954836181640625,0.09496142619848251,-0.008785309203062206,-0.0025087725171120834
1782846392474841000,2.964841064453125,0.09391747010350227,0.0062946979637257755,0.008686139127926434
1782846392484846000,2.97484619140625,0.0828448719471693,0.0027025734895840285,-0.0017347513707354663
1782846392494851000,2.98485107421875,0.07536357628107071,-0.0004843129182234406,-0.009602546153368894
1782846392504856000,2.99485595703125,0.0849409674435854,0.0027813560805283483,-0.0043540830066776835
1782846392514861000,3.004861083984375,0.08389408873915671,0.00007171352934092283,-0.003717458753706887
1782846392524866000,3.014865966796875,0.09317162017226219,0.008449811904691159,-0.010143658159591723
1782846392534871000,3.02487109375,0.07431552853286266,0.0028485395652242005,0.00831881506931968
1782846392544876000,3.0348759765625,0.0937678324997425,0.005578037594351918,0.009718338569742626
1782846392554881000,3.044881103515625,0.08239303652644157,0.0050813766512088476,0.008169003935623913
1782846392564886000,3.054885986328125,0.09541150805354118,0.007917422061040997,-0.007307092159951571
1782846392574891000,3.06489111328125,0.09945230787694453,0.004451426450908184,0.0076695642302162005
1782846392584896000,3.07489599609375,0.08089782953262328,0.00009027209933847189,0.01024995437854668
1782846392594900200,3.084900146484375,0.08613631470799446,0.0021363361752592025,-0.004467978010198567
1782846392604905200,3.0949052734375,0.09167349056899547,0.000763586517330259,0.004795200670568738
1782846392614910200,3.10491015625,0.09107552467584609,-0.011363014203961939,0.0000905004282016307
1782846392624915200,3.114915283203125,0.09795885444879532,0.005846461005881428,-0.007131151071155909
1782846392634920200,3.124920166015625,0.08194646180272101,-0.0020477445763535797,-0.00734030030980939
1782846392644925200,3.13492529296875,0.10513912134170532,0.007717588640004396,-0.003999732594075612
1782846392654930200,3.14493017578125,0.0979553473174572,-0.002692600084841251,0.011827282131288665
1782846392664935200,3.15493505859375,0.06907587431371212,-0.005711966172326356,0.005924572309968061
1782846392674940400,3.1649404296875,0.0981032313555479,0.008474325291439891,0.003653693352092523
1782846392684945400,3.1749453125,0.09630641106665133,-0.007175261924229562,0.011329344829800539
1782846392694950400,3.184950439453125,0.08238952939510345,0.0018264299758709965,-0.005742635305225849
1782846392704955400,3.194955322265625,0.08762626100480556,-0.009082483785040675,-0.003584354442928452
1782846392714960400,3.20496044921875,0.09570727612972259,-0.003715440326556563,0.000966121068818029
1782846392724965400,3.21496533203125,0.08582827167212963,0.0027084187084808944,0.004680682329251431
1782846392734970600,3.224970703125,0.10542787515521049,0.0144998874575831,-0.010072515452408696
1782846392744975600,3.2349755859375,0.09809621709287165,0.007756989068631082,0.004018985283817164
1782846392754980600,3.244980712890625,0.08972177197933197,-0.0028270583857782183,0.00025693618642399086
1782846392764985600,3.254985595703125,0.09406476961970328,0.004666073848586529,-0.002364030284178443
1782846392774990600,3.264990478515625,0.10079787726700305,0.005291311341151595,-0.01428606889367802
1782846392784995600,3.27499560546875,0.09331307446956634,-0.002505315618123859,0.007141163291805423
1782846392795000600,3.28500048828125,0.10139350507259369,0.006752049809787422,-0.005699830493249464
1782846392805005600,3.295005615234375,0.09630115036964416,0.0006930785643868148,0.003650293535320088
1782846392815009300,3.30500927734375,0.08791969099342822,-0.010306125562172383,0.010699654924403876
1782846392825014300,3.31501416015625,0.09973989264667034,-0.006066204703785479,-0.0010130905992584303
1782846392835019300,3.325019287109375,0.08866670996844768,-0.00008013429781422019,-0.006886432762199547
1782846392845024300,3.335024169921875,0.08043488819599151,0.009457436310965567,-0.004271797850972507
1782846392855029200,3.345029296875,0.089859719145298,0.018668953303154556,0.004500503456755541
1782846392865034200,3.3550341796875,0.09749006789326667,0.005253244353085756,-0.013690194492915178
1782846392875039200,3.365039306640625,0.09284662600159645,0.009956654537376016,-0.0062130977946100755
1782846392885044200,3.375044189453125,0.09239712866842746,-0.006785312758572399,0.0031398803447489623
1782846392895049200,3.38504931640625,0.09733692315816879,-0.00388803868079558,-0.013361243383050895
1782846392905054500,3.395054443359375,0.09404664944112301,0.008774623412266373,0.0024949472044478167
1782846392915059500,3.4050595703125,0.09374854327738284,0.002877911790180951,-0.014582225128926802
1782846392925064400,3.415064453125,0.08521627725362778,0.00017004107097163794,0.013031477139145134
1782846392935069400,3.4250693359375,0.08461655779480934,0.003974547920469194,0.010737781277974135
1782846392945074400,3.435074462890625,0.07848258508443832,0.0028764504854567347,-0.0118940957232262
1782846392955079700,3.44507958984375,0.08312310436666011,-0.0006226254103705287,0.012076356954954098
1782846392965084700,3.455084716796875,0.09090425976216793,0.010750015138462186,0.0022860833768732843
1782846392975089700,3.465089599609375,0.08700842136740684,0.008296082647703587,-0.003034015667345375
1782846392985094700,3.4750947265625,0.11079904679954052,-0.0006036467152647673,-0.00508323524815496
1782846392995099600,3.485099609375,0.09957447295188904,0.004441051187366247,0.012655736878642345
1782846393005104600,3.495104736328125,0.09074234719872475,0.010449790082871913,-0.0029306215082411653
1782846393015109600,3.505109619140625,0.09627660045027732,0.008310622629709542,0.00322271348972572
1782846393025113300,3.51511328125,0.09268705152571201,-0.008838281499315053,0.012676035314577165
1782846393035118300,3.525118408203125,0.08445756784081458,-0.007952968298457562,0.009622892538364977
1782846393045123300,3.535123291015625,0.09418518112897872,0.003352360901515931,0.005540657876164186
1782846393055128300,3.54512841796875,0.08385960194766522,0.007435173235740512,-0.0021258239143993702
1782846393065133300,3.55513330078125,0.08326046701073646,-0.014236487281043082,-0.0028330725680338216
1782846393075138600,3.565138671875,0.08745148895978927,-0.0014390015608631073,-0.013950717725779395
1782846393085143600,3.5751435546875,0.08760404917299747,0.011170998763199895,-0.008708382925775367
1782846393095148500,3.5851484375,0.08984627514183521,0.015146204270794987,-0.007693299015541561
1782846393105153500,3.595153564453125,0.10196692104637622,0.0066010239665396505,0.0031377249202807433
1782846393115158500,3.605158447265625,0.09074468528628349,0.008694890973251313,0.004817284638213459
1782846393125163500,3.61516357421875,0.09119476714134216,0.017023359786905348,0.013022645378718152
1782846393135168500,3.62516845703125,0.09867664732933044,0.012860997676756232,0.00956611171667464
1782846393145173500,3.635173583984375,0.1033142440021038,-0.000986892145499587,0.014916628732043318
1782846393155178500,3.645178466796875,0.07652911292910576,-0.01549653381211683,-0.0004334161313367076
1782846393165183500,3.65518359375,0.08685410758852959,0.004702186341583729,-0.0037348345801932734
1782846393175188500,3.6651884765625,0.09538345100283623,0.006966021354030817,0.005086945592181291
1782846393185193500,3.675193359375,0.08386369360089302,-0.0020965886867605147,0.01559079938327195
1782846393195198500,3.685198486328125,0.09059680124819278,0.004639185841660946,0.01358773419886129
1782846393205203500,3.695203369140625,0.10810323184430598,-0.006086096714343875,0.002928310820145998
1782846393215208400,3.70520849609375,0.08745616513490677,-0.005917389083933085,0.010405704345973208
1782846393225213400,3.71521337890625,0.08670914615988731,0.0046478806047700345,0.006139920677256304
1782846393235217400,3.725217529296875,0.08236673304140567,0.005964570960216224,0.00752335384269245
1782846393245222700,3.73522265625,0.10121931754946709,0.005290891216043383,0.000036512068507727234
1782846393255227600,3.7452275390625,0.08506020990908146,-0.00019974208949133753,0.009891475780098698
1782846393265232600,3.755232666015625,0.09179565564393996,0.010507036695443093,-0.0039394537742016835
1782846393275237600,3.765237548828125,0.08745324252545833,0.008095555106922983,0.004626118580822367
1782846393285242600,3.77524267578125,0.0928396117389202,0.010678210277575999,0.009952206691121682
1782846393295247600,3.78524755859375,0.08595511292219161,0.0031043409571982917,-0.013254269027372355
1782846393305252600,3.795252685546875,0.09284136530458927,0.004176153173483908,-0.010747590285935438
1782846393315257600,3.805257568359375,0.08715455183982848,0.015729392719920722,0.009933677803876344
1782846393325262600,3.8152626953125,0.09283844269514083,0.011336217528581619,0.0004001531825517304
1782846393335267600,3.825267578125,0.09104220692813396,0.011075265037454663,-0.00484120893649524
1782846393345272600,3.8352724609375,0.08430734571516513,0.004714369969721883,-0.005094101418752689
1782846393355277600,3.845277587890625,0.08461071257591248,0.004230294513516128,0.008927450770244467
1782846393365282600,3.855282470703125,0.09433715682029724,-0.0015987404335290193,0.027569047992303967
1782846393375287600,3.86528759765625,0.093293200725317,0.0037814547674730418,0.0076409432072192425
1782846393385292500,3.87529248046875,0.0826706844240427,-0.00020178791610524056,0.007092428779252804
1782846393395297500,3.885297607421875,0.08132336146831512,-0.00420073962546885,-0.00025966471633873876
1782846393405302500,3.895302490234375,0.0988262849330902,-0.006080616821628064,0.015185531634185461
1782846393415307500,3.9053076171875,0.09762976862490176,-0.009382909770030527,0.015334504800953436
1782846393425312500,3.9153125,0.08940028494000435,0.00045276700248941777,0.0028449502354953434
1782846393435317500,3.9253173828125,0.09448504085838794,-0.009016122284252196,0.00885981291111093
1782846393445321500,3.935321533203125,0.10211714317202568,-0.004416629132162779,-0.0030319424412678926
1782846393455326500,3.945326416015625,0.09702946464419364,0.01383493900913745,0.005250753285188693
1782846393465331500,3.95533154296875,0.09134498926699161,0.007305701637174934,-0.006243958723754621
1782846393475336400,3.96533642578125,0.0970318027317524,-0.0011162906788289547,-0.004985008171224035
1782846393485341400,3.975341552734375,0.0964350058823824,-0.004788348521385342,-0.0008708691169740632
1782846393495346400,3.985346435546875,0.08880407261252403,-0.0033226964156143363,-0.00026839144548866894
1782846393505351400,3.995351318359375,0.08970540536642074,-0.005436802492756397,0.004038614716182928
1782846393515356400,4.0053564453125,0.09269932648539543,-0.007899740273877978,-0.00046885505418758835
1782846393525361700,4.015361572265625,0.09733867672383785,0.010781707184668629,-0.012453238859772682
1782846393535366700,4.02536669921875,0.08058277223408222,0.015106986505258827,-0.008512570376018993
1782846393545371600,4.03537158203125,0.07160860766172408,0.0009870017433539033,0.000007208342209924012
1782846393555376600,4.045376708984375,0.09196341342628002,0.004978756526950747,-0.0024131438226439057
1782846393565381600,4.055381591796875,0.08732698579728602,0.008474380090367049,-0.0029892906096298244
1782846393575386600,4.06538671875,0.0868751503765583,-0.005181421225890517,0.011023190073634032
1782846393585391600,4.0753916015625,0.09285890096127987,-0.004042169796582311,-0.0011845815585111268
1782846393595396600,4.085396728515625,0.0820820708811283,0.009119546126108616,0.0025759263190557246
1782846393605401600,4.095401611328125,0.09779518831968306,0.002644176099542528,0.005926225410937331
1782846393615406600,4.105406494140625,0.10108663108050822,0.01225340543873608,0.00039841788319172335
1782846393625411600,4.11541162109375,0.08896715421974659,-0.0024715594789944586,0.017349269556312354
1782846393635415600,4.12541552734375,0.08986497984230518,0.005027765034139156,0.024026690077176317
1782846393645420500,4.135420654296875,0.09450316103696822,0.006411529276426881,0.016363605820096563
1782846393655425500,4.145425537109375,0.0964478653639555,0.020172307070810348,-0.004511967848974745
1782846393665430500,4.155430419921875,0.09435410795509815,-0.00680712273158133,0.00897472397807287
1782846393675435000,4.16543505859375,0.0835813695281744,0.011396861674636601,0.005620002156111877
1782846393685440000,4.17543994140625,0.08746960913836956,0.005503638917580247,-0.004346755933458917
1782846393695445000,4.185445068359375,0.08253332177996635,-0.0001198087210766971,-0.005067318443104159
1782846393705450000,4.195449951171875,0.07939034757912158,-0.009215133721381425,0.012723938710067885
1782846393715455000,4.205455078125,0.10752104804217814,0.00041217926377430555,-0.00891898661928717
1782846393725460000,4.2154599609375,0.10213292526304721,0.01706414845502004,0.002229288855451159
1782846393735465000,4.22546484375,0.10228373191058635,-0.014404500791709868,0.008496347610291558
1782846393745470000,4.235469970703125,0.09240589649677276,-0.000568465804029256,0.009519151319388765
1782846393755475000,4.245474853515625,0.0861217016607523,-0.004319799427874386,-0.010404128876817412
1782846393765480000,4.25547998046875,0.09464929150938987,-0.0109688455209136,-0.028058527992700692
1782846393775485000,4.26548486328125,0.0897112505853176,-0.00018649901542812584,-0.0050648524913820435
1782846393785490000,4.275489990234375,0.08327683362364768,0.009088822194281965,-0.009174335920112207
1782846393795495000,4.285494873046875,0.10018938997983932,-0.0100537582363002,-0.0015920229983748867
1782846393805500000,4.2955,0.10557459014952182,0.005889386832155287,0.013870110787218436
1782846393815505200,4.305505126953125,0.08402385259866714,0.001956650493107736,0.005312456877168734
1782846393825510100,4.31551025390625,0.08551613698303699,-0.0056391566644422705,-0.00037634761527879164
1782846393835514000,4.32551416015625,0.08656360020935534,0.002447338353190571,-0.0031443647236214017
1782846393845519000,4.33551904296875,0.08746142583191395,0.0092038268760778,-0.00940787068135105
1782846393855524000,4.345524169921875,0.09808452665507793,0.00370427961172536,0.002819347720069345
1782846393865529000,4.355529052734375,0.08626490952372551,0.004075030886568129,-0.010512959546153434
1782846393875534000,4.3655341796875,0.08132745312154292,0.00524321614941582,0.006749369228933938
1782846393885539000,4.3755390625,0.08132511503398418,-0.0005111461262218654,-0.0001978081440203823
1782846393895544000,4.3855439453125,0.10481588073670864,0.001400350050907582,0.011133443231787532
1782846393905549000,4.395549072265625,0.08551204532980919,0.0019139073299244045,0.0024182789387763477
1782846393915554000,4.405553955078125,0.09718085581362247,0.0023618702931329605,0.0015014997372869402
1782846393925559000,4.41555908203125,0.07862813103497028,0.008989471739344298,-0.0005947304731584154
1782846393935564000,4.42556396484375,0.08087269509136677,0.010202975714951754,0.008571426707075443
1782846393945569000,4.435569091796875,0.09299158743023872,-0.0010822422787547111,0.0008754471106803976
1782846393955574000,4.445573974609375,0.084313190934062,-0.009947813643794505,-0.0040826525040203706
1782846393965579000,4.4555791015625,0.09059680124819278,0.008230597929749638,0.00136436313878512
1782846393975584000,4.465583984375,0.10226970338523388,0.006374302538577467,0.003357758595841005
1782846393985589000,4.475589111328125,0.09972644864320754,0.00919093086188659,0.0024522223075735382
1782846393995594000,4.485593994140625,0.08446399758160114,0.007810253625828772,0.008679994798218831
1782846394005599000,4.495598876953125,0.09389175114035606,0.003754932086728513,0.010149665491981432
1782846394015603000,4.50560302734375,0.09359539854228496,0.0006446363127790391,0.004743107440439052
1782846394025608000,4.51560791015625,0.0911976897507906,-0.0006995083051733672,0.009513849523186218
1782846394035613200,4.52561328125,0.07773147445619105,0.000581507948692888,0.006232766042882576
1782846394045618200,4.5356181640625,0.0955365957379341,0.004535506271477788,0.004457835642097052
1782846394055623200,4.545623046875,0.10361410373151302,-0.0015973156614229082,0.013829461399710271
1782846394065628200,4.555628173828125,0.08640577929913996,-0.004280070205684751,-0.003742501863418147
1782846394075633200,4.565633056640625,0.07758066780865192,0.002443429363053292,0.010353560883493628
1782846394085638100,4.57563818359375,0.10167407557964324,0.01266439739242196,-0.002511612928169779
1782846394095643100,4.58564306640625,0.09419219539165496,0.0012744951815344392,0.021396542502986265
1782846394105648000,4.595648193359375,0.08910451686382294,0.003982658161688596,0.00803176230584504
1782846394115653000,4.605653076171875,0.09179916277527808,0.006478292636014521,-0.0019120190502260812
1782846394125658000,4.615658203125,0.09494155245423316,0.008428056730609387,0.0051723451535799535
1782846394135663000,4.6256630859375,0.08686287541687487,-0.002100899535696953,0.010543656078516504
1782846394145668000,4.635668212890625,0.07564005513489246,0.000882098330464214,-0.0013283145778696052
1782846394155673000,4.645673095703125,0.08880874878764151,-0.00572475258866325,0.002480146927537862
1782846394165678000,4.655677978515625,0.10242752429544925,0.004805829379148781,0.005183119992632419
1782846394175683000,4.66568310546875,0.09868483063578605,0.010876326665561646,-0.0015077468149829656
1782846394185688000,4.67568798828125,0.0912017814040184,0.002403864537645131,0.024874536794878076
1782846394195692000,4.685692138671875,0.10362520964741706,0.0033159196149557825,0.01306751200032886
1782846394205697000,4.695697021484375,0.09674421796202659,0.005890994267351925,0.009587928539549465
1782846394215702000,4.705701904296875,0.09449731581807136,-0.0029551965437829494,0.01323128772729542
1782846394225707000,4.71570703125,0.08491934013366699,-0.005005005213059485,0.018503953733481467
1782846394235712000,4.7257119140625,0.08641571617126464,-0.00784311471581459,0.004139383093360811
1782846394245717000,4.735717041015625,0.10467442643940449,-0.004830287966970354,0.015490757091878913
1782846394255722000,4.745721923828125,0.10168167436420916,0.004457344735041261,-0.011355986241553909
1782846394265727000,4.75572705078125,0.09180851512551307,-0.011695296631939708,0.0067665829419274815
1782846394275732000,4.76573193359375,0.07818857057392596,0.010579645273927598,0.015962991413241253
1782846394285737000,4.775737060546875,0.09764379715025424,0.01574132061973214,0.005597132737177889
1782846394295742000,4.785741943359375,0.09016133244037627,0.00828044668715447,0.0041355380353052165
1782846394305747000,4.795746826171875,0.09450316103696822,0.009226769360247999,-0.013418811939319129
1782846394315752000,4.805751953125,0.08522446056008338,-0.0011879859418608247,-0.00624842711960664
1782846394325757000,4.8157568359375,0.07639350385069847,-0.0072192289301194245,0.004168186779448297
1782846394335762000,4.825761962890625,0.08312427341043949,0.011787961617764084,0.007481421246973332
1782846394345767000,4.835766845703125,0.09120411949157714,0.011973200257867574,0.01751462075243471
1782846394355772000,4.84577197265625,0.08881108687520027,0.018492354627232997,0.005766105229069944
1782846394365776100,4.855776123046875,0.08910919303894042,0.009566833235882222,0.0076696121792774645
1782846394375781000,4.865781005859375,0.09793255096375941,-0.0008125950245186686,0.001765849761897698
1782846394385786000,4.8757861328125,0.08955050706565379,0.00019440832724794744,0.003313928587269038
1782846394395791000,4.885791015625,0.07622983772158622,0.008575703306682407,-0.0050295939483330585
1782846394405796000,4.895796142578125,0.09313771790266036,0.0011417356473393738,0.011557274117448833
1782846394415801000,4.905801025390625,0.09822890356183052,0.0011523666392080484,0.007108471165178343
1782846394425806000,4.91580615234375,0.0846095435321331,0.006037490065954625,0.012155621319799683
1782846394435811000,4.92581103515625,0.09642857614159583,-0.0037529775916598737,0.010428379685373511
1782846394445816000,4.935816162109375,0.11557985133528709,0.0074154273556545375,0.00433628020521719
1782846394455821000,4.945821044921875,0.07981587951481342,-0.001389846923202276,0.0023558720938977786
1782846394465826000,4.955825927734375,0.09268120630681514,0.0058081930884160094,0.001602628874068614
1782846394475831000,4.9658310546875,0.09103343909978866,-0.0066783452527597546,-0.006271161824511364
1782846394485836000,4.9758359375,0.08968728518784046,0.006480155799537896,0.0037961911123013123
1782846394495841000,4.985841064453125,0.10704700078964233,-0.003934599502570927,0.005789529487141408
1782846394505846000,4.995845947265625,0.09417582877874374,0.004385357211064547,0.007514458150183781
1782846394515851000,5.00585107421875,0.0795072519570589,0.0012696546096354721,0.012499521120334974
1782846394525856000,5.01585595703125,0.0886310541331768,0.010436108617391436,0.006119651924073695
1782846394535861000,5.025861083984375,0.08070259922146797,0.0038814993421547113,-0.006044148135604337
1782846394545865000,5.035864990234375,0.09073007223904132,-0.006209759626630693,0.013934832886769435
1782846394555870000,5.045869873046875,0.10195172347724438,0.008683839856274425,0.007806417700927704
1782846394565875000,5.055875,0.08594108439683913,-0.0009324220119044184,0.005660984903760254
1782846394575880000,5.0658798828125,0.09896072496771811,0.0010936769882217048,0.006316708866134286
1782846394585885000,5.075885009765625,0.08758826708197594,-0.0014610124632716177,-0.006217442892875988
1782846394595890000,5.085889892578125,0.09552139816880226,0.017734905589744446,0.008634799383045174
1782846394605895200,5.095895263671875,0.09148176738917826,0.0036579927845858035,0.0183957053027465
1782846394615900200,5.105900146484375,0.08429799336493014,0.013152180909365414,0.0032367694145417772
1782846394625905200,5.1159052734375,0.08713993879258632,-0.0026276998887769876,0.008407420367957092
1782846394635910100,5.12591015625,0.08953589401841162,-0.004213343378715217,-0.008704149708652402
1782846394645915100,5.1359150390625,0.08549509419500827,0.005545340901147574,0.00236130860412959
1782846394655920000,5.145920166015625,0.09103110101222991,0.004087616373505443,-0.004278095161018427
1782846394665925000,5.155925048828125,0.08923720333278179,0.012410733158607036,0.018297676871926523
1782846394675930400,5.165930419921875,0.08280687802433967,0.010416965525504201,0.0010287242765189147
1782846394685935400,5.175935302734375,0.09821838216781616,0.007752933948021382,0.011856476259732152
1782846394695940400,5.1859404296875,0.08190612979233264,0.0075083298034965985,0.0018945541754830627
1782846394705945300,5.1959453125,0.08968670066595077,0.0016893413264304398,-0.001923613589897286
1782846394715949300,5.20594921875,0.09642214640080929,0.002061261645052582,0.010150035384739749
1782846394725954300,5.215954345703125,0.09627484688460826,0.0032686829397454856,-0.004246754741261247
1782846394735959300,5.225959228515625,0.08355565056502819,0.00027680764738470314,0.0023411174827604555
1782846394745964300,5.23596435546875,0.1065992570221424,0.0014945676730014382,0.0066359285998507395
1782846394755969300,5.24596923828125,0.09013970513045787,0.010749942073225974,-0.0005758453928865492
1782846394765974300,5.255974365234375,0.0760743548989296,0.003839980021677911,-0.006191214756364934
1782846394775979300,5.265979248046875,0.08639876503646374,-0.010332885704934597,0.011162235501431859
1782846394785984300,5.275984375,0.08325695987939834,0.0072894263558089725,-0.003333820597827434
1782846394795989200,5.2859892578125,0.09447802659571171,0.0031795981504954395,-0.0074483706440310925
1782846394805994200,5.295994140625,0.09687164373397826,-0.0015858809519559145,0.008212619315064512
1782846394815999200,5.305999267578125,0.08954407732486724,-0.0007291179921478033,0.0027148005002061836
1782846394826004200,5.316004150390625,0.09373393023014068,0.005550017076265066,0.0042952221090439705
1782846394836009200,5.32600927734375,0.09403320543766021,0.0026867365996353326,0.00787940073874779
1782846394846014200,5.33601416015625,0.08879822739362717,0.0018633461864665149,0.006795025868411175
1782846394856019200,5.346019287109375,0.0813157626837492,0.0027939598337747154,0.0021979963847552427
1782846394866024200,5.356024169921875,0.09808218856751919,-0.005327624763548374,0.011164706019731237
1782846394876028400,5.3660283203125,0.09164835612773894,0.006641629971563816,-0.007306423156382516
1782846394886033400,5.376033447265625,0.09254501270651817,0.007427793646883219,-0.0086596666795318
1782846394896038400,5.386038330078125,0.10167115297019481,0.013625497509539126,0.021636338041652926
1782846394906043400,5.39604345703125,0.09029694151878356,-0.0036260267437435685,0.004901378158514854
1782846394916048400,5.40604833984375,0.10047229857444763,-0.018898140682838856,-0.002736640155967325
1782846394926053400,5.416053466796875,0.10241700290143489,0.0029959852118976414,0.014999544075410811
1782846394936058400,5.426058349609375,0.09253566035628319,-0.004840261371713131,-0.003293922412279062
1782846394946063400,5.4360634765625,0.07921382196843624,0.0013280885322950779,0.004219649821915664
1782846394956068400,5.446068359375,0.0907353329360485,0.012730229170247912,-0.00004856783248251304
1782846394966073300,5.4560732421875,0.06933540203273296,-0.004365081608016044,0.00592180953072384
1782846394976078300,5.466078369140625,0.08026128519475459,-0.011804364763293414,0.012707521864806767
1782846394986083300,5.476083251953125,0.1054015716701746,0.007006481228582561,0.0035300441395374944
1782846394996088300,5.48608837890625,0.08983750731348991,0.015927874434087424,0.01663205434780102
1782846395006093300,5.49609326171875,0.08415069384872913,0.00036527138212695716,0.0028739069019211453
1782846395016098300,5.506098388671875,0.0937245778799057,0.0019942242908291517,0.001511005067860242
1782846395026103300,5.516103271484375,0.09072831867337226,0.009488123710174113,-0.002698084544134326
1782846395036107300,5.526107177734375,0.0925216318309307,0.007805796646419912,0.0042015022438718005
1782846395046112300,5.5361123046875,0.09326572819650172,0.006785879014153033,0.002249495959840715
1782846395056117200,5.5461171875,0.08189093222320079,0.004505768720339983,0.007637600472662597
1782846395066122200,5.556122314453125,0.09461071306467056,-0.0063164714041166,0.014320726931816897
1782846395076127200,5.566127197265625,0.0944604909390211,0.0031403073197230694,0.009001758115470875
1782846395086132200,5.57613232421875,0.07919511726796627,0.003834901987761259,0.020404170464770867
1782846395096137200,5.58613720703125,0.08967033405303955,0.007872267745062708,0.002753860718826763
1782846395106142200,5.59614208984375,0.09131400960683822,-0.0002480564769357443,-0.0031699740889132954
1782846395116147200,5.606147216796875,0.09295885420441627,0.009837174609862267,0.014681641799234785
1782846395126152200,5.616152099609375,0.08816752827465534,0.018485102902539075,0.01660752497803187
1782846395136157200,5.6261572265625,0.1014841059654951,-0.001062076273560524,0.006859213678422384
1782846395146162200,5.636162109375,0.09804185655713081,-0.0011844605442136525,0.010567744773579761
1782846395156167200,5.646167236328125,0.09070727588534355,0.014633012317959219,0.0003385523385601118
1782846395166172200,5.656172119140625,0.08666764510571956,0.014312055001594125,-0.006934007364127319
1782846395176177200,5.66617724609375,0.0878682530671358,-0.002000562700070441,0.0069454192407079965
1782846395186182100,5.67618212890625,0.09086334322988987,-0.0077820869772695,0.000242795779928565
1782846395196186400,5.686186279296875,0.10582710360586643,-0.0011840952180325985,0.006992329405643977
1782846395206191400,5.69619140625,0.09640051909089088,-0.0031557423508726057,0.00535049189919373
1782846395216196400,5.7061962890625,0.08353110064566135,0.004483648220077157,-0.008942776203539688
1782846395226201300,5.716201416015625,0.07724690580964089,0.001318590051587671,-0.0037844139095395803
1782846395236206300,5.726206298828125,0.08323124091625213,0.005403338614571839,-0.0012686362629057838
1782846395246211300,5.73621142578125,0.08398001345694064,0.0019277166595682502,0.01742752699087141
1782846395256216300,5.74621630859375,0.0835334387332201,0.004086374264489859,0.007705610507843084
1782846395266221300,5.75622119140625,0.10104220741689204,0.01795830254945904,0.0007424067319836467
1782846395276226300,5.766226318359375,0.10044131891429424,0.0005691416574642062,0.014596614413883071
1782846395286231300,5.776231201171875,0.07410217804312706,0.0006924392435699701,0.012370047238480765
1782846395296236300,5.786236328125,0.07365677236318588,0.011774755076318979,0.003725128320220392
1782846395306241300,5.7962412109375,0.07979425220489501,-0.00016918255444616078,0.013026778131141326
1782846395316246300,5.806246337890625,0.08308394140005111,0.006543612957186996,-0.013364828146202488
1782846395326251300,5.816251220703125,0.08562602709829807,0.017103402753174304,0.0011645982164074666
1782846395336256300,5.82625634765625,0.08412789749503136,0.0026684885568916796,-0.0021569793877773916
1782846395346261200,5.83626123046875,0.09490180496573447,0.002693038476258516,0.0047451943662483245
1782846395356265200,5.84626513671875,0.09100947370231151,0.0019927447197958825,-0.01181952579980716
1782846395366270200,5.856270263671875,0.0917594152867794,-0.005266797954402863,-0.007598405540012754
1782846395376275200,5.866275146484375,0.10912029993236064,-0.015403065108694136,-0.002662807734776288
1782846395386280200,5.8762802734375,0.0811368989855051,0.004080602110829204,0.015633935272099914
1782846395396285200,5.88628515625,0.08846738800406455,0.00717403808152303,0.0015551319039543159
1782846395406290200,5.896290283203125,0.08637070798575877,0.007404029178805649,0.004437516656564548
1782846395416295200,5.906295166015625,0.08666764510571956,0.003917757965624332,0.02745271900310181
1782846395426300200,5.916300048828125,0.09025777855217457,0.005933171174954623,-0.0041473426375305275
1782846395436305400,5.926305419921875,0.08950842148959637,0.009558576864190399,0.006922773584059905
1782846395446310400,5.936310302734375,0.07080138293206692,-0.0024438312218524514,0.018242791179800405
1782846395456315400,5.9463154296875,0.11210369965732098,0.004003719216026365,0.018252476890175603
1782846395466320400,5.9563203125,0.10462415755689143,-0.002088496711850166,0.0008070648994529619
1782846395476325400,5.966325439453125,0.0899602569103241,0.0052245114489458495,-0.0051919654527911915
1782846395486330400,5.976330322265625,0.09744213709831237,0.007007339745108037,0.010975894032919313
1782846395496335400,5.98633544921875,0.09160627055168151,0.01014881610861048,0.016151942680659705
1782846395506339300,5.99633935546875,0.0841255594074726,0.018166136613860726,0.008495000469998923
1782846395516344300,6.00634423828125,0.09549743277132511,0.015049319767579436,0.007086001321754884
1782846395526349300,6.016349365234375,0.09474866023063659,0.002942793719936162,0.0004503786825807765
1782846395536354300,6.026354248046875,0.10013444492220878,0.01226272125635296,0.013966773811436723
1782846395546359300,6.036359375,0.08696750483512877,0.014013912305235863,0.01307260145068867
1782846395556364300,6.0463642578125,0.0887619870364666,0.009423753237072377,0.0013031869864789769
1782846395566369300,6.056369384765625,0.08696808935701847,0.003958802362065762,0.003455766477063298
1782846395576374300,6.066374267578125,0.09145780199170112,-0.0012980587202124298,0.0022222175105591304
1782846395586379300,6.076379150390625,0.10283142892122268,0.007307035077735781,0.022207413644588087
1782846395596384300,6.08638427734375,0.09789572608470916,-0.0068661959750577805,0.00316683228375623
1782846395606389200,6.09638916015625,0.08577566470205783,-0.008674816299602388,0.005642015341809019
1782846395616394200,6.106394287109375,0.10747545533478259,-0.000402717315685004,0.01716692612619372
1782846395626399200,6.116399169921875,0.09849661458730698,-0.0035168855471536514,0.016262784927280154
1782846395636404200,6.126404296875,0.08921849863231182,-0.005736643955856561,0.003265863078285474
1782846395646409200,6.1364091796875,0.0938590179145336,0.0031879275874234733,0.010421123394102323
1782846395656413400,6.146413330078125,0.09251169495880603,0.013675328000634908,0.013932974289823322
1782846395666418400,6.15641845703125,0.09670388595163822,-0.00048571942402049896,0.0023336465623578985
1782846395676423000,6.1664228515625,0.09580547580718994,0.017348463555425405,-0.002029396068910137
1782846395686428000,6.176427978515625,0.09370938031077385,0.007532149070501327,0.00872208722414216
1782846395696433000,6.186432861328125,0.0845785638719797,0.008873279747460036,-0.0028793982110801152
1782846395706438000,6.19643798828125,0.09639993456900119,0.0018171872234903274,0.010287909485469572
1782846395716443000,6.20644287109375,0.07395429400503635,0.006761292562168091,-0.004669809308787807
1782846395726447900,6.21644775390625,0.07694470799267292,0.0028377807091921566,-0.0015058402689755892
1782846395736452900,6.226452880859375,0.08577449565827847,0.011272541175223886,0.011049607723101507
1782846395746457900,6.236457763671875,0.08068740165233612,-0.00102532445974648,0.0005611798300058581
1782846395756462800,6.246462890625,0.10044657961130142,0.014676449600886553,0.006529963457747362
1782846395766467800,6.2564677734375,0.09520926347970962,0.004496197174396366,-0.016471710403647737
1782846395776472800,6.266472900390625,0.1004471641331911,0.008818681749701499,0.021096621124783995
1782846395786477800,6.276477783203125,0.0901250920832157,0.003760941702406853,0.003639148803509306
1782846395796481800,6.286481689453125,0.08593523917794227,0.014361739362217485,0.008991165939508937
1782846395806486800,6.29648681640625,0.09131810126006602,0.009474880636110902,0.009229680553253274
1782846395816491800,6.30649169921875,0.09071662823557854,0.0064425454691983755,-0.007974844486836809
1782846395826496800,6.316496826171875,0.09445756832957267,0.007208141280524432,-0.0018053712048218585
1782846395836501800,6.326501708984375,0.0965524947822094,0.0006277399769052863,-0.005903310326230712
1782846395846506800,6.3365068359375,0.0865261908084154,0.0027740860895253718,0.002976878652628511
1782846395856511700,6.34651171875,0.10149053570628165,0.007989720112271606,0.008287367334996815
1782846395866516700,6.356516845703125,0.07739537436962127,0.0020182627535425125,-0.0005014101834967732
1782846395876521700,6.366521728515625,0.09131284056305884,0.01363996442630887,0.01271373697646195
1782846395886526700,6.376526611328125,0.10597674120962619,0.015614680299069731,0.008006082158605567
1782846395896531700,6.38653173828125,0.09909399595856666,0.0013789419366978107,0.010977348487777636
1782846395906536700,6.39653662109375,0.09565116202831268,0.008594115746207534,0.011261341644485947
1782846395916541700,6.406541748046875,0.09714344641268252,0.0036924430434592064,-0.0036468868686817583
1782846395926546700,6.416546630859375,0.10686755256950854,0.006044833122193813,0.0010785091018420644
1782846395936552000,6.426552001953125,0.09025777855217457,-0.01100678464481607,0.016388539331953507
1782846395946556000,6.436555908203125,0.08771919998526573,-0.002417345073726028,0.005344121523911598
1782846395956561000,6.446560791015625,0.09595277532339096,0.015809892343916,-0.010088201645307708
1782846395966566000,6.45656591796875,0.08667641293406486,-0.0005650682705454529,0.0013167223214870319
1782846395976571000,6.46657080078125,0.08173895653188228,-0.009721238346304744,0.00043403261926723644
1782846395986576000,6.476575927734375,0.0794938079535961,0.003942691477481276,-0.009868455664115027
1782846395996580900,6.486580810546875,0.10672843635976315,0.010930760266538709,0.014062911679269745
1782846396006585900,6.4965859375,0.09909574952423572,-0.00488075777888298,-0.0014254776422982104
1782846396016590800,6.5065908203125,0.10014204370677471,0.014780220502614974,-0.000862153804267291
1782846396026595800,6.516595947265625,0.10073825603425503,0.00783049269625917,0.002955246776132844
1782846396036600800,6.526600830078125,0.0898158800035715,0.007485131590999662,0.0009269307027454487
1782846396046605800,6.536605712890625,0.10013970561921597,0.008879179765284061,-0.006694207258883398
1782846396056610800,6.54661083984375,0.09460194523632526,-0.002113959946669638,0.005999192465736996
1782846396066615800,6.55661572265625,0.09624562079012393,0.014434603669028729,0.004238427587621845
1782846396076620800,6.566620849609375,0.10238076254427432,0.012349833284225314,-0.0008977205912815406
1782846396086624800,6.576624755859375,0.09400222577750682,0.014390892391465604,0.01186347225609934
1782846396096629800,6.586629638671875,0.08367898468375205,0.018954747974593192,0.003426850909832865
1782846396106634800,6.596634765625,0.07589782928824425,0.01879442458003759,0.004563444591173902
1782846396116639700,6.6066396484375,0.0757470226407051,0.0038886232026852665,-0.0038353312460239976
1782846396126644700,6.616644775390625,0.09056056089103222,-0.005947711156960576,0.00621477144517703
1782846396136649700,6.626649658203125,0.08921206889152526,0.010879285807628184,0.012952721947664394
1782846396146654700,6.63665478515625,0.10073299533724785,0.012139862061664461,-0.012394622274022549
1782846396156660000,6.646659912109375,0.10148352144360542,-0.0032525537888519465,-0.005517126303527038
1782846396166665000,6.6566650390625,0.0977455039590597,0.007253204264957457,0.009411891552631278
1782846396176670000,6.666669921875,0.08637304607331753,0.006486530741397291,0.01582350987731479
1782846396186675000,6.676675048828125,0.08338438565135002,0.006154686704836786,0.0009040749835432507
1782846396196680000,6.686679931640625,0.07545300813019275,-0.007157689734920859,0.012537142867117653
1782846396206685000,6.696684814453125,0.10941606800854206,-0.0017117175550200043,0.013489123529440258
1782846396216690000,6.70668994140625,0.10747253272533416,-0.0008947568826377392,0.013629271785647141
1782846396226693600,6.716693603515625,0.08667524389028548,-0.00204734271755442,0.01971005072076805
1782846396236698600,6.72669873046875,0.10568155765533446,-0.007660415092669427,0.017278154248592907
1782846396246703600,6.73670361328125,0.10643149923980236,0.0046855640003457665,-0.004363362291676458
1782846396256708900,6.746708984375,0.09057108228504657,0.00970467080399394,0.012929320522479247
1782846396266713900,6.7567138671875,0.09011924686431884,-0.006629866468533873,0.002524917651026044
1782846396276718800,6.76671875,0.08862170178294182,0.008546641608979553,0.0010842538560391403
1782846396286723800,6.776723876953125,0.09131693221628666,0.0238870167450048,-0.0007784986753831617
1782846396296728800,6.786728759765625,0.08922142124176025,-0.007042155330162495,0.003211301613145042
1782846396306733800,6.79673388671875,0.086827219581604,0.00627252266453579,0.003209395067137666
1782846396316738800,6.80673876953125,0.09431026881337165,0.013571520566288381,0.007543474182114005
1782846396326743800,6.816743896484375,0.09341010510325432,0.005746708692144603,0.006234537874860688
1782846396336748800,6.826748779296875,0.08847206417918205,0.009330229734722525,-0.005932472488633356
1782846396346753800,6.83675390625,0.09011866234242916,0.0028706235328689214,0.008056725500454194
1782846396356758800,6.8467587890625,0.08877250843048096,-0.0044442843240685755,0.023454950037249362
1782846396366762800,6.8567626953125,0.09490881922841071,0.0040355391263961786,0.01580956355035305
1782846396376767700,6.866767822265625,0.08757306951284408,0.008821019837260245,0.007516232265450526
1782846396386772700,6.876772705078125,0.09385551078319548,0.006842047914490103,0.010183631693664938
1782846396396777700,6.88677783203125,0.09595219080150127,0.005724442061409354,-0.0007302482200204394
1782846396406782700,6.89678271484375,0.09430909976959229,-0.009675262046419084,0.006991827082145028
1782846396416787700,6.90678759765625,0.09924655617177486,0.0018570443098433315,0.0013499259047675878
1782846396426793000,6.91679296875,0.09894552739858627,0.010761705576255916,0.00668825929199811
1782846396436798000,6.9267978515625,0.09340542892813682,0.008083608940802515,-0.012614776963880284
1782846396446803000,6.936802978515625,0.09968845472037792,0.007266958795674145,-0.001247237281850539
1782846396456808000,6.946807861328125,0.10986322725415229,0.005938943328615278,-0.0012794019688037222
1782846396466813000,6.95681298828125,0.09864040697216987,0.013857187373563647,0.0027346011792193166
1782846396476818000,6.96681787109375,0.077093761074543,0.002440890346094966,0.004296740495983976
1782846396486823000,6.976822998046875,0.08487783907949924,0.01097728455569595,-0.0031798881281516513
1782846396496828000,6.986827880859375,0.09579963058829306,-0.00227612823843956,0.0021442934361402878
1782846396506831600,6.99683154296875,0.08488076168894768,-0.0005276954022236168,-0.009058285492123104
1782846396516836600,7.006836669921875,0.08757131594717502,0.00963723159097135,0.0044325276709045285
1782846396526841600,7.016841552734375,0.09325696036815642,0.009220467483624815,0.006073118501761928
1782846396536846600,7.0268466796875,0.1016366661787033,0.006211988116335124,0.014245547370333223
1782846396546851600,7.0368515625,0.09370411961376666,0.002374821106251329,0.021049980387906543
1782846396556856600,7.046856689453125,0.09340425988435745,0.0013420439924113452,0.012334293221798725
1782846396566861600,7.056861572265625,0.09849193841218948,0.0073284249256365,0.013047462442854884
1782846396576866600,7.066866455078125,0.10088438650667667,0.00021123159788548945,-0.002038266645243857
1782846396586871600,7.07687158203125,0.0884650499165058,0.000791333040781319,-0.01095708658446092
1782846396596876800,7.086876708984375,0.08891396272778511,0.007532496130373328,-0.010692215970042161
1782846396606881800,7.0968818359375,0.10312661247551441,-0.0010378368814475834,0.020790329371299595
1782846396616886800,7.10688671875,0.08382336159050464,0.008399798750504851,0.004064689872355666
1782846396626891800,7.116891845703125,0.08502221598625183,-0.00229145367173478,-0.006364379366184584
1782846396636895700,7.126895751953125,0.08816402114331721,0.0054921859418042,-0.0035653003992978482
1782846396646900700,7.136900634765625,0.09624562079012393,-0.0004044343487359583,-0.0024111208289163185
1782846396656905700,7.14690576171875,0.08397592180371284,-0.0016128054914996027,0.015982230403251012
1782846396666910700,7.15691064453125,0.08188099535107612,0.010059110264852643,0.00005067987446673214
1782846396676915700,7.166915771484375,0.0893634600609541,0.010477408742159605,0.0024124702524975874
1782846396686920700,7.176920654296875,0.09744330614209175,0.008105017055012285,0.00866788880189415
1782846396696925700,7.18692578125,0.07454641467928887,0.0007413564192131161,-0.0013407105518504975
1782846396706930700,7.1969306640625,0.08696750483512877,-0.0017133980554528533,0.006713071789557579
1782846396716935700,7.206935791015625,0.09310615372061729,0.006498769168462604,0.010817397269268985
1782846396726940700,7.216940673828125,0.0854763894945383,0.001626505223289132,0.0077900373882846905
1782846396736945700,7.226945556640625,0.09804477916657924,-0.008465740126185119,0.00873317259044852
1782846396746950700,7.23695068359375,0.0905658215880394,-0.0015457864035852253,0.010406875673041212
1782846396756955600,7.24695556640625,0.09460545236766338,-0.0025910028738901016,0.006650580462999642
1782846396766959600,7.256959716796875,0.09819733937978745,0.0051644335584715,0.015610152537713293
1782846396776964600,7.266964599609375,0.0908662658393383,0.002998688625637442,0.01983551743107382
1782846396786969600,7.276969482421875,0.08443243339955807,0.008489687257353216,0.0063096078384900466
1782846396796974600,7.286974609375,0.08293430379629135,0.009925674877222627,0.010851975392305757
1782846396806979600,7.2969794921875,0.0917588307648897,0.012217932266555726,0.015895122941955924
1782846396816984600,7.306984619140625,0.09026128568351269,0.013899437346402555,0.004101971409132238
1782846396826989600,7.316989501953125,0.09085925157666205,0.018281999812182037,0.006567516705871094
1782846396836994600,7.32699462890625,0.08083470116853714,0.011358319762535393,0.02060485326917842
1782846396846999600,7.33699951171875,0.08502689216136931,0.004678020014706998,-0.0038968567414907735
1782846396857004500,7.347004638671875,0.08113397637605667,0.008238233246933669,0.001828528318123426
1782846396867009500,7.357009521484375,0.08846738800406455,0.0018929376071318983,-0.003005447159986943
1782846396877014500,7.3670146484375,0.0703618224710226,0.007121029252652078,0.010193452118069398
1782846396887019500,7.37701953125,0.094007486474514,0.009823237416055054,0.006738959716062527
1782846396897023700,7.387023681640625,0.10792670623362063,-0.005578549051005393,0.007130043676169589
1782846396907028700,7.39702880859375,0.08488602238595486,-0.009925236485805362,0.005047768925840501
1782846396917033700,7.40703369140625,0.09595628245472908,-0.004117627919279039,0.004697489616868552
1782846396927038700,7.417038818359375,0.10343991620838641,-0.0025437113997526465,-0.006091944216529373
1782846396937043700,7.427043701171875,0.09087152653634548,0.0015937537311576306,0.01719404017869383
1782846396947048700,7.437048583984375,0.0896767637938261,0.005379702010657638,0.011617607736249919
1782846396957053700,7.4470537109375,0.09057692750394344,0.002758906786702573,-0.002455711172602605
1782846396967058700,7.45705859375,0.09177344381213187,-0.00048595688603818413,0.007407629924977664
1782846396977063700,7.467063720703125,0.0991010102212429,0.001360675627645105,0.005411142895114608
1782846396987068700,7.477068603515625,0.08757482307851314,0.004966591165121644,0.0023219972237595358
1782846396997073700,7.48707373046875,0.08907003007233143,0.0026339104338549075,0.001274486048379913
1782846397007078700,7.49707861328125,0.09550444703400135,0.0059255175914615385,0.017352098550926894
1782846397017083600,7.507083740234375,0.09116612556874752,0.0100382318736054,0.00976873303313041
1782846397027087600,7.517087646484375,0.09745265849232673,0.005315331537555903,-0.0083265508512035
1782846397037092600,7.527092529296875,0.07979249863922595,0.019973971487116066,-0.0005993427161942236
1782846397047097600,7.53709765625,0.07784896335601806,0.00700748587558046,0.00572722539025126
1782846397057102600,7.5471025390625,0.0964034417003393,0.004640738477930426,-0.0013613217983278446
1782846397067107600,7.557107666015625,0.10747837794423103,0.005293594629783183,-0.004399187090306077
1782846397077112600,7.567112548828125,0.08593173204660415,-0.0020889168369583786,-0.006454055527190212
1782846397087117600,7.57711767578125,0.09341711936593056,-0.002979180207569152,-0.0023959620756912044
1782846397097122600,7.58712255859375,0.0901256766051054,0.009091470809094608,0.012699671918491367
1782846397107127600,7.59712744140625,0.0980553005605936,0.005845127565320581,-0.013736223308439365
1782846397117132500,7.607132568359375,0.08219605264961719,0.0055956645825877786,-0.001061094459448941
1782846397127137500,7.617137451171875,0.09521803130805492,0.016951372262928633,-0.006709617173857986
1782846397137142800,7.627142822265625,0.08893442099392414,0.007768277647625654,-0.0030903809305047616
1782846397147147800,7.637147705078125,0.09342647171616554,0.0034467977193184196,0.02108393060656963
1782846397157151500,7.6471513671875,0.08474515261054039,0.006995978100877254,0.00795822671217611
1782846397167156500,7.657156494140625,0.08145254080593585,0.0023951332419179377,0.021249567213770932
1782846397177161700,7.66716162109375,0.082200144302845,-0.004601447647158056,0.025056670162442604
1782846397187166700,7.677166748046875,0.10105565142035483,0.011063939925841986,-0.009114493208366912
1782846397197171700,7.687171630859375,0.08938391832709312,-0.003776723793428391,0.00998135743708117
1782846397207176700,7.6971767578125,0.0953752676963806,0.005690284063480794,0.005232961900171358
1782846397217181700,7.707181640625,0.0850537801682949,0.005973886777833104,0.00214888284628978
1782846397227186700,7.717186767578125,0.09851941094100475,0.0006636515405029058,0.007129203425953164
1782846397237191700,7.727191650390625,0.10465689078271388,0.0071454878404736515,0.008810050918674097
1782846397247196700,7.73719677734375,0.09463409394025803,-0.0005974909691140055,0.004066660350444727
1782846397257201700,7.74720166015625,0.08535773155093193,0.007697605297900736,0.014481988758000079
1782846397267206700,7.75720654296875,0.0844610749721527,0.020664638898707927,0.013528966916061471
1782846397277211600,7.767211669921875,0.07547989613711834,0.006291866685822605,0.00956264568453189
1782846397287215400,7.77721533203125,0.09239011440575122,0.005631210820004343,0.014711792625614907
1782846397297220400,7.787220458984375,0.0795247876137495,0.0011344291237182914,0.0023519790867809207
1782846397307225300,7.797225341796875,0.09478782319724559,0.005935436197277158,0.0026437696741661056
1782846397317230300,7.807230224609375,0.0883522371917963,-0.0025324776196852324,0.0097870632742648
1782846397327235600,7.817235595703125,0.08925064733624458,-0.0077892473704181606,0.007505046434444375
1782846397337240600,7.827240478515625,0.08550736915469169,-0.006175729492865502,0.001797893434553407
1782846397347245600,7.83724560546875,0.09463701654970645,-0.002075783360749483,0.00823485626304755
1782846397357250800,7.847250732421875,0.08296411441266537,0.003654248191229999,-0.008104754476819652
1782846397367255800,7.857255859375,0.08939736233055591,0.011195585215184836,0.014928431050979997
1782846397377260800,7.8672607421875,0.09224339941143989,0.015850936740357428,0.01787261986027006
1782846397387265800,7.877265869140625,0.09403320543766021,0.006219787830300629,0.013925432587473186
1782846397397270800,7.887270751953125,0.10226561173200607,-0.0006232464648783207,0.01082778394925408
1782846397407274500,7.8972744140625,0.08237140921652317,-0.008170446974039076,0.0027506709646084346
1782846397417279500,7.907279541015625,0.08326923483908176,-0.0000672200173139572,0.0017467272196081466
1782846397427284500,7.917284423828125,0.0814724145501852,-0.001070259580016136,-0.012295052623376249
1782846397437289500,7.92728955078125,0.0877554403424263,0.011742131448350845,-0.009320555440790485
1782846397447294500,7.93729443359375,0.09628536827862262,0.009919409533217549,-0.0015318971588392741
1782846397457299500,7.947299560546875,0.08296820606589317,0.007051124087907374,-0.007668207956769038
1782846397467304400,7.957304443359375,0.09059913933575153,0.009015665626525879,0.007952153164416085
1782846397477309400,7.967309326171875,0.1060112280011177,-0.0014137392554432152,0.018908312733692582
1782846397487314400,7.977314453125,0.0813239459902048,-0.011455185999441892,0.01667990979423048
1782846397497319400,7.9873193359375,0.07758768207132816,-0.0073153462483547625,-0.0009661918507656082
1782846397507324700,7.99732470703125,0.1022813938230276,-0.001076725853420794,-0.006110468537197448
1782846397517329700,8.00732958984375,0.09479776006937027,-0.006390249026380479,0.00450632355947746
1782846397527334700,8.017334716796874,0.08342705574929714,-0.0033293453521095213,0.006265168191853444
1782846397537338400,8.02733837890625,0.09704524673521518,-0.0027766433727927503,0.001976884996960871
1782846397547343600,8.037343505859376,0.0873193870127201,0.0006425174209289253,0.006163762777147349
1782846397557348600,8.0473486328125,0.09166004656553269,0.004295888829324394,-0.006520743538253009
1782846397567353600,8.057353515625,0.09734686003029346,-0.005023929109238088,0.01964067071240861
1782846397577358600,8.067358642578125,0.09360475089251995,0.0010411065507680178,0.010451356418873183
1782846397587363600,8.077363525390625,0.09764321262836456,-0.004261237641051412,-0.003314225414791144
1782846397597368600,8.08736865234375,0.09210662128925323,0.0005111643925309181,-0.00793758349965792
1782846397607373600,8.09737353515625,0.09405249466001987,-0.002628375742211938,-0.0009202315339003689
1782846397617378600,8.107378662109374,0.09285480930805205,-0.0009622143619693815,-0.0059490925465826875
1782846397627383600,8.117383544921875,0.09225625889301299,0.009657123601529746,0.005873063601728063
1782846397637388500,8.127388427734376,0.08552198220193385,-0.00016191256344318388,0.00025988847862463445
1782846397647393500,8.1373935546875,0.08267769868671894,0.011414506929181516,0.01441524138143286
1782846397657397500,8.1473974609375,0.08656476925313472,-0.004002531905937939,0.01647819494336145
1782846397667402500,8.157402587890624,0.09598901568055153,0.006331267114449292,-0.011267983731115237
1782846397677408800,8.16740869140625,0.07982815447449684,0.009756126996595412,0.002528854040626902
1782846397687413800,8.177413818359375,0.08326865031719208,-0.004707447038590907,0.011205296041734982
1782846397697418800,8.187418701171875,0.10870236678123474,-0.005368267301190644,0.01058301084137056
1782846397707423700,8.197423828125,0.08415887715518475,0.003291333162970841,0.009012603736470918
1782846397717428700,8.2074287109375,0.0825093563824892,0.011230455599166453,0.00964154472319642
1782846397727433700,8.217433837890624,0.09986614937484264,-0.010010028692428022,0.0038412358304252847
1782846397737438700,8.227438720703125,0.08983926087915897,-0.009071049075573682,-0.0026334857421694323
1782846397747443700,8.237443603515626,0.09373568379580974,0.0015871047946624456,0.0008115789610776119
1782846397757448700,8.24744873046875,0.09268880509138107,0.006045308046229183,0.008644622090738267
1782846397767453700,8.25745361328125,0.09403437448143959,0.011795432538166641,0.007565818444662727
1782846397777457700,8.267457763671874,0.095680388122797,0.014328330282960086,0.004559900927217677
1782846397787462700,8.277462646484375,0.07757540711164473,0.01738671320658177,-0.0014327499165898189
1782846397797467600,8.287467529296874,0.09702654203474521,0.005651796950306743,0.00786590193635784
1782846397807472600,8.29747265625,0.08894611143171786,0.005955602202471345,-0.00389055486486759
1782846397817477600,8.3074775390625,0.08460194474756717,-0.008179050405602902,0.01322317976936465
1782846397827482600,8.317482666015625,0.08804127154648303,0.006750679836608469,-0.0010463718143524602
1782846397837487600,8.327487548828126,0.08295534658432006,-0.0011196151470765471,-0.0004450129542965442
1782846397847492600,8.33749267578125,0.08325169918239116,0.016676519110612572,-0.003593512713629752
1782846397857497600,8.34749755859375,0.07636836940944194,-0.006074479341786354,0.007145248095167335
1782846397867502600,8.357502685546875,0.09881284092962742,-0.001540836233831942,0.01492981472389074
1782846397877507600,8.367507568359375,0.10210428369045257,0.002226809203997254,-0.005477282916905824
1782846397887512600,8.3775126953125,0.08160451649725436,0.017602493115421385,0.0067947815565275954
1782846397897516800,8.387516845703125,0.08803250371813774,0.020747969800606367,-0.00521404485385865
1782846397907521800,8.397521728515626,0.0889274067312479,0.008473978231567888,0.0007189208251191303
1782846397917526800,8.40752685546875,0.08009469645619392,0.01090376266175881,-0.005025698657927569
1782846397927531800,8.41753173828125,0.0814420194119215,0.003227876005321741,-0.0006815959058585577
1782846397937536800,8.427536865234375,0.09281447729766368,0.016824074355140328,-0.005259772275283466
1782846397947541800,8.437541748046876,0.09595745149850844,0.017410696870367972,0.0022340540788252836
1782846397957546800,8.447546630859375,0.07949673056304454,-0.0009689728963188826,0.0012344166161841713
1782846397967551700,8.4575517578125,0.09401099360585212,0.005328665943164378,0.0009300656580366193
1782846397977556700,8.467556640625,0.097157474938035,0.00007527545960620046,0.0008841898228507489
1782846397987561700,8.477561767578125,0.0854851573228836,-0.001846084524411708,0.011685987664188723
1782846397997566700,8.487566650390624,0.08623276081979274,-0.0019576186074875294,0.004364325839478988
1782846398007571700,8.49757177734375,0.08114683585762977,0.0033460407585836943,0.01001422309364425
1782846398017575400,8.507575439453126,0.10433891087472438,0.005356065406743437,-0.00227155709459912
1782846398027580400,8.517580322265625,0.08982230974435806,-0.006519227434601634,-0.006073255499079823
1782846398037585700,8.527585693359375,0.10508242271840572,0.016197448623087255,0.00597442791723879
1782846398047590700,8.537590576171874,0.09041676850616931,0.003359977952390909,-0.0004908636733074672
1782846398057595600,8.547595703125,0.0854763894945383,0.00003499824814498424,-0.00012664945381693542
1782846398067600600,8.5576005859375,0.08412731297314166,0.014523688458278774,0.0008266189832938835
1782846398077605600,8.567605712890625,0.0827794054955244,-0.006229249778389931,0.009970559765142387
1782846398087610600,8.577610595703124,0.089214406979084,-0.0002436908290721476,0.01112554990298813
1782846398097615600,8.58761572265625,0.0984913538902998,-0.002319328059349209,-0.006154451526107732
1782846398107620600,8.59762060546875,0.09639642743766308,0.010871687023062258,0.008340878487366718
1782846398117625600,8.60762548828125,0.07904021896719932,-0.0005776354911737144,-0.001856852513598278
1782846398127630600,8.617630615234376,0.09864274505972861,0.010476276230998336,-0.006759602928580716
1782846398137634600,8.627634521484374,0.0972971756696701,0.008333345918171108,0.012722386073798405
1782846398147639600,8.6376396484375,0.08727437882721424,0.011060999050084501,0.031244765946536787
1782846398157644500,8.64764453125,0.09233692291378974,0.013617332469392568,0.007944154804339632
1782846398167649500,8.6576494140625,0.010505027401447296,0.02336028945716098,-0.009933360426756552
1782846398177654500,8.667654541015626,-0.4784726677626371,-0.009139054544176906,-0.19656945080459118
1782846398187659500,8.677659423828125,1.1627800428032875,-0.035079715883359314,0.39375279572382565
1782846398197664500,8.68766455078125,-0.39188393311202524,0.044852227759175,-0.254480080242455
1782846398207669800,8.697669677734375,0.5622516056895256,-0.029412648298684507,0.1808888839287683
