time,seconds_elapsed,z,y,x
1782846389583406800,0.07340673828125,1.2200325727462769e-7,-0.004754332359880209,0.0003853578818961978
1782846389593411800,0.083411865234375,0.0007753681857138872,-0.023180479183793068,-0.0051452284678816795
1782846389603416800,0.093416748046875,-0.0013787684729322791,0.00511071877554059,0.0020902338437736034
1782846389613421800,0.103421875,0.0001586743164807558,0.015835268422961235,0.004998405929654837
1782846389623426800,0.1134267578125,0.0005646455101668835,-0.00791221298277378,-0.004544073715806007
1782846389633431800,0.123431884765625,-0.0005589420907199383,-0.010438486933708191,-0.004057514015585184
1782846389643436800,0.133436767578125,0.0004914870951324701,0.007259697187691927,0.0010599637171253562
1782846389653441800,0.14344189453125,0.0011287815868854523,0.006805095821619034,0.0024535958655178547
1782846389663446800,0.15344677734375,0.0016992907039821148,-0.006274512968957424,-0.003583590965718031
1782846389673451800,0.16345166015625,0.002368542831391096,-0.006212728098034859,-0.002241624053567648
1782846389683456800,0.173456787109375,-0.0005986087489873171,0.009138941764831543,0.0022781461011618376
1782846389693461800,0.183461669921875,0.0013146060518920422,0.003139639273285866,0.0008200654410757124
1782846389703466800,0.193466796875,0.0013725135941058397,-0.006985865533351898,-0.003736162791028619
1782846389713471700,0.2034716796875,0.00012535532005131245,-0.00020039756782352924,-0.0020421261433511972
1782846389723476700,0.213476806640625,-0.0021919438149780035,0.005713514052331448,0.0008847676799632609
1782846389733480700,0.223480712890625,0.0007164943963289261,0.0017443387769162655,-0.0008124649175442755
1782846389743485700,0.233485595703125,0.000040378421545028687,-0.002956014359369874,0.00029564875876531005
1782846389753490700,0.24349072265625,0.00003531854599714279,0.0013077064650133252,0.0008426620624959469
1782846389763495700,0.25349560546875,-0.0021401490084826946,0.005737870931625366,0.00031632930040359497
1782846389773500700,0.263500732421875,-0.001269561587832868,-0.0005221555475145578,-0.001686634263023734
1782846389783505700,0.273505615234375,0.0010568804573267698,-0.001993744168430567,-0.0002263166243210435
1782846389793510700,0.2835107421875,0.0006725862622261047,0.003993308171629906,0.0010831597028300166
1782846389803515600,0.293515625,0.0014623962342739105,0.001464999164454639,-0.0005138579290360212
1782846389813520600,0.303520751953125,0.00008740625344216824,-0.002405106322839856,-0.003378620371222496
1782846389823525600,0.313525634765625,-0.0013984129764139652,-0.0026854893658310175,-0.001591332838870585
1782846389833530600,0.323530517578125,0.0003052111715078354,0.0008988592308014631,0.0003019082359969616
1782846389843535600,0.33353564453125,0.000005406560376286507,0.0022642582189291716,-0.0014124625595286489
1782846389853540600,0.34354052734375,-0.0009344228310510516,-0.0003067576326429844,-0.0015695890178903937
1782846389863545600,0.353545654296875,0.00032612401992082596,-0.002035001292824745,-0.0005576403345912695
1782846389873550600,0.363550537109375,-0.0010536598274484277,0.00150860077701509,-0.00036402849946171045
1782846389883555600,0.3735556640625,0.00019288435578346252,-0.0010905482340604067,0.0006573735736310482
1782846389893560600,0.383560546875,0.0014552227221429348,0.0011142827570438385,-0.0012118990998715162
1782846389903565600,0.393565673828125,0.0012733307667076588,0.0011789975687861443,-0.0004030971322208643
1782846389913570600,0.403570556640625,-0.00030033127404749393,0.0006676707416772842,0.0003367289900779724
1782846389923575600,0.413575439453125,0.0003854767419397831,-0.00040137022733688354,-0.0035816198214888573
1782846389933580500,0.42358056640625,0.001087752403691411,-0.0024498736020177603,-0.002818624023348093
1782846389943585500,0.43358544921875,0.00020176125690340996,-0.0002008823212236166,-0.002303076209500432
1782846389953590500,0.443590576171875,-0.0008576441323384643,0.0004545217379927635,0.0011768764816224575
1782846389963595500,0.453595458984375,-0.00040603859815746546,-0.001099694985896349,0.00019293103832751513
1782846389973600500,0.4636005859375,0.0013460551854223013,-0.001036844216287136,0.00045738290646113455
1782846389983605800,0.473605712890625,0.000464683398604393,-0.00031140679493546486,-0.000977182760834694
1782846389993610800,0.48361083984375,0.0017563165165483952,-0.0012975751888006926,0.0007916888571344316
1782846390003615700,0.49361572265625,-0.00027490267530083656,-0.000035281525924801826,-0.0037713164929300547
1782846390013619700,0.50361962890625,-0.0016842475160956383,0.0005876317154616117,-0.0005685991491191089
1782846390023624700,0.513624755859375,0.0012677006889134645,0.001082258764654398,0.00039033679058775306
1782846390033629700,0.523629638671875,0.0010927310213446617,-0.0022871727123856544,-0.0005167358904145658
1782846390043634700,0.533634765625,0.00008590868674218655,-0.0004709267523139715,-0.0010724293533712626
1782846390053639700,0.5436396484375,-0.0023879017680883408,-0.001037647482007742,-0.000570956151932478
1782846390063644700,0.553644775390625,-0.001730791525915265,-0.0028604811523109674,0.0008822372765280306
1782846390073649700,0.563649658203125,0.00016378122381865978,-0.00113049172796309,0.0010036773746833205
1782846390083654700,0.573654541015625,-0.00003574485890567303,0.0007002355996519327,-0.002281051827594638
1782846390093659600,0.58365966796875,-0.0005995361134409904,0.0009132884442806244,0.00036107044434174895
1782846390103664600,0.59366455078125,-0.00042246689554303885,-0.0006920651067048311,0.0009315195493400097
1782846390113669600,0.603669677734375,-0.002722639124840498,-0.0022950218990445137,-0.0005654433625750244
1782846390123674600,0.613674560546875,0.0017739019822329283,0.000038876431062817574,-0.004270246718078852
1782846390133679600,0.6236796875,0.0005951870698481798,-0.001123593421652913,0.0007181203691288829
1782846390143684600,0.6336845703125,0.000008995877578854561,0.0006103909108787775,-0.0010866235243156552
1782846390153689900,0.64368994140625,0.0024186240043491125,0.00032490002922713757,-0.0013428196543827653
1782846390163694800,0.65369482421875,0.0009942329488694668,0.002560187131166458,0.0007580950623378158
1782846390173699800,0.663699951171875,0.0018842616118490696,0.0019244906725361943,0.00023611553478986025
1782846390183704800,0.673704833984375,0.0013501946814358234,-0.0007279473356902599,0.00017615966498851776
1782846390193709800,0.683709716796875,-0.0016365404007956386,-0.00044298917055130005,0.0022201358806341887
1782846390203714800,0.69371484375,-0.001522958860732615,0.0007948516868054867,0.0007100282819010317
1782846390213719800,0.7037197265625,-0.0005929829785600305,0.0035248580388724804,0.0007619599346071482
1782846390223724800,0.713724853515625,-0.0005498193204402924,-0.00008142436854541302,-0.0023591644130647182
1782846390233729800,0.723729736328125,0.001096014166250825,-0.0022995711769908667,0.0004041314823552966
1782846390243734800,0.73373486328125,-0.0014353044098243117,-0.001224573701620102,-0.00038338376907631755
1782846390253739800,0.74373974609375,-0.00034101144410669804,0.0032253023236989975,-0.0009615560411475599
1782846390263744800,0.753744873046875,-0.0006182893412187696,-0.001530767884105444,-0.0011349644046276808
1782846390273749800,0.763749755859375,0.0010762799065560102,0.0010825921781361103,-0.0015538795851171017
1782846390283754800,0.773754638671875,-0.0011090426705777645,0.00011448352597653866,0.0027783566620200872
1782846390293759700,0.783759765625,-0.0006043736357241869,0.0009850708302110434,-0.001251006149686873
1782846390303763700,0.793763671875,0.001230748137459159,0.0015146703226491809,0.000001948326826095581
1782846390313768700,0.803768798828125,-0.0008158910786733031,0.0014773859875276685,0.00037345930468291044
1782846390323774000,0.81377392578125,0.0007678766269236803,0.0025503141805529594,0.0013648351887241006
1782846390333779000,0.823779052734375,-0.0015043325256556273,0.00007384060882031918,-0.0008706222870387137
1782846390343784000,0.833783935546875,-0.0006871878867968917,-0.0011148147750645876,-0.0012279382208362222
1782846390353789000,0.843788818359375,0.0012585176154971123,0.00008627073839306831,-0.0002841140376403928
1782846390363794000,0.8537939453125,0.0008680177852511406,0.0014460589736700058,-0.001167692244052887
1782846390373799000,0.863798828125,-0.00021455716341733932,-0.00031695375218987465,0.0002501746639609337
1782846390383804000,0.873803955078125,-0.00103723572101444,0.00035572610795497894,-0.002744508208706975
1782846390393809000,0.883808837890625,-0.0022729425691068172,-0.0011207305360585451,0.00053091358859092
1782846390403814000,0.89381396484375,0.0013588846195489168,0.0009763254784047604,-0.0003053477848879993
1782846390413819000,0.90381884765625,0.00025473814457654953,0.0002881644759327173,-0.0008824548567645252
1782846390423824000,0.913823974609375,0.002658564131706953,0.0024595048744231462,0.0006732348119840026
1782846390433828900,0.923828857421875,0.0009647938422858715,0.0022877310402691364,-0.002690337598323822
1782846390443833900,0.933833740234375,-0.000012142118066549301,0.00044058659113943577,-0.0002320136409252882
1782846390453838800,0.9438388671875,0.0008552493527531624,-0.0009919276926666498,-0.0006679730722680688
1782846390463843800,0.95384375,0.0014137544203549623,0.0011588844936341047,0.001359384274110198
1782846390473848800,0.963848876953125,0.00029682484455406666,0.0024875355884432793,-0.0006062948377802968
1782846390483853800,0.973853759765625,0.0023892975877970457,0.00011429097503423691,-0.002657679608091712
1782846390493858800,0.98385888671875,-0.00205977912992239,-0.0008806658443063498,0.001795658259652555
1782846390503863800,0.99386376953125,0.0009987370576709509,0.0002216098364442587,-0.0015394348884001374
1782846390513868800,1.003868896484375,0.0008184409234672785,0.001091398298740387,0.0013484969967976213
1782846390523873800,1.013873779296875,-0.0006347802700474858,-0.0005733398720622063,-0.0015704948455095291
1782846390533878800,1.023878662109375,0.0025042875204235315,-0.0007634896319359541,-0.0015635706949979067
1782846390543883800,1.0338837890625,-0.0005867852596566081,-0.0011832821182906628,-0.00039287132676690817
1782846390553888800,1.043888671875,-0.0015519147273153067,-0.0019726427271962166,0.0007799847517162561
1782846390563893800,1.053893798828125,0.0008965975139290094,-0.0021838757675141096,0.0036392640322446823
1782846390573897700,1.063897705078125,0.0004672959912568331,0.00007182173430919647,-0.000529115553945303
1782846390583902700,1.07390283203125,0.00016009225510060787,-0.0009037998970597982,0.000777498004026711
1782846390593907700,1.08390771484375,0.0008075067307800055,-0.0002803539391607046,0.0001860099146142602
1782846390603912700,1.09391259765625,0.0020391594152897596,-0.0007895680610090494,-0.0000738973612897098
1782846390613918000,1.10391796875,-0.00022399495355784893,0.0009721128735691309,-0.0010275754611939192
1782846390623923000,1.1139228515625,0.003144150599837303,-0.0037186634726822376,-0.0025076675228774548
1782846390633928000,1.123927978515625,0.0007260006386786699,0.00027900771237909794,0.00010835553985089064
1782846390643933000,1.133932861328125,0.00011306954547762871,0.002504357835277915,0.0008823595126159489
1782846390653938000,1.14393798828125,-0.0006746936123818159,0.0018867708276957273,-0.0006052822573110461
1782846390663943000,1.15394287109375,-0.0023770169354975224,0.0005966837052255869,0.001235729199834168
1782846390673948000,1.163947998046875,0.0017841719090938568,0.00014953897334635258,-0.0004705580649897456
1782846390683953000,1.173952880859375,0.0016378590371459723,-0.0006344630382955074,0.0009866601321846247
1782846390693958000,1.1839580078125,-0.001036753412336111,0.0004939183127135038,-0.0012810215121135116
1782846390703963000,1.193962890625,-0.0003247589338570833,-0.001893424428999424,0.0005040382966399193
1782846390713967900,1.2039677734375,-0.00099267961923033,-0.0027874475345015526,0.000040648330468684435
1782846390723972900,1.213972900390625,0.0009126192890107632,0.002032188232988119,-0.0033042198047041893
1782846390733977900,1.223977783203125,0.00033817533403635025,-0.00019954098388552666,0.0007307353662326932
1782846390743982800,1.23398291015625,-0.0012531955726444721,-0.0012761596590280533,-0.0016985583351925015
1782846390753987800,1.24398779296875,0.0023077172227203846,0.0006093583069741726,-0.001286567305214703
1782846390763992800,1.253992919921875,-0.0017826005350798368,-0.0006342986598610878,-0.0005929932231083512
1782846390773997800,1.263997802734375,-0.0007213308708742261,-0.001545366132631898,0.0017838780768215656
1782846390784002800,1.2740029296875,0.0021774661727249622,-0.0019012948032468557,-0.0015959241427481174
1782846390794007800,1.2840078125,-0.0006553385173901916,0.0008020801469683647,-0.00003318133531138301
1782846390804012800,1.2940126953125,0.0033278174232691526,0.0035359824541956186,-0.0024210158735513687
1782846390814017800,1.304017822265625,0.0031200910452753305,-0.0005967109464108944,0.0018733312608674169
1782846390824022800,1.314022705078125,-0.0001832256093621254,0.0011019110679626465,0.002037324011325836
1782846390834026800,1.32402685546875,-0.0010942929657176137,-0.0005953214131295681,-0.0000625785905867815
1782846390844031700,1.33403173828125,0.00038475263863801956,-0.002632830524817109,0.002210435224696994
1782846390854036700,1.34403662109375,0.001450549578294158,0.00018905499018728733,-0.0004942711675539613
1782846390864041700,1.354041748046875,0.000970836728811264,0.00012933998368680477,0.0009348281309939921
1782846390874046700,1.364046630859375,0.00037162541411817074,0.0003021792508661747,-0.001510486239567399
1782846390884051700,1.3740517578125,-0.00013692351058125496,-0.003157460130751133,0.00021981762256473303
1782846390894056700,1.384056640625,-0.00194254657253623,0.0002636366989463568,0.0005575064569711685
1782846390904061700,1.394061767578125,-0.0017058702651411295,-0.0008732031565159559,0.0008483911515213549
1782846390914066700,1.404066650390625,-0.00009279372170567513,0.0025028858799487352,0.00033946108305826783
1782846390924071700,1.41407177734375,-0.0008279109606519341,-0.0006939424201846123,-0.00008339295163750648
1782846390934076700,1.42407666015625,-0.001104080816730857,0.0012368494644761086,-0.0016250968910753727
1782846390944081700,1.43408154296875,-0.0013687271857634187,-0.0002260776236653328,0.001523585058748722
1782846390954086700,1.444086669921875,0.0010086765978485346,0.0011324009392410517,-0.00041253305971622467
1782846390964092000,1.454091796875,0.0002905065193772316,0.00012020510621368885,0.0013605819549411535
1782846390974097000,1.464096923828125,-0.00038274063263088465,0.002900012768805027,-0.0027332291938364506
1782846390984102000,1.474101806640625,0.0034952370915561914,0.0005426562856882811,-0.0016865782672539353
1782846390994107000,1.48410693359375,-0.00017353356815874577,-0.0003907817881554365,0.0023105600848793983
1782846391004112000,1.49411181640625,-0.0013480708003044128,-0.0036460731644183397,-0.0018930616788566113
1782846391014116900,1.504116943359375,-0.002830119803547859,-0.0004904936067759991,-0.0006498981965705752
1782846391024121900,1.514121826171875,0.00018648384138941765,-0.001226687803864479,-0.0022361755836755037
1782846391034126800,1.524126953125,-0.00038503040559589863,0.0025014712009578943,-0.001490756869316101
1782846391044131800,1.5341318359375,-0.0004062108928337693,0.0010955464094877243,-0.0013519618660211563
1782846391054136800,1.54413671875,-0.00036919291596859694,0.0008729060646146536,0.001379908761009574
1782846391064141800,1.554141845703125,0.0007300830911844969,-0.000023658387362957,-0.0013318925630301237
1782846391074146800,1.564146728515625,0.003071800572797656,-0.0003056870773434639,-0.0007926024263724685
1782846391084151800,1.57415185546875,-0.0007442014757543802,0.001244076294824481,-0.00009527697693556547
1782846391094156800,1.58415673828125,-0.0023953611962497234,0.0006187660619616508,0.0031495182774960995
1782846391104160800,1.594160888671875,0.0009479864966124296,0.000003180932253599167,0.00007342838216573
1782846391114165800,1.604165771484375,0.0013408027589321136,-0.001538523007184267,-0.0015534966951236129
1782846391124170800,1.614170654296875,0.0020737501326948404,-0.00035110441967844963,-0.0015240841312333941
1782846391134175700,1.62417578125,0.0008657404687255621,-0.0004757405258715153,0.00029751803958788514
1782846391144180700,1.6341806640625,-0.0019833098631352186,0.000162940239533782,-0.0034237834624946117
1782846391154185700,1.644185791015625,0.00093444949015975,0.00009822542779147625,0.0003523124032653868
1782846391164190700,1.654190673828125,0.0011230695527046919,-0.00037818774580955505,0.0014218718279153109
1782846391174195700,1.66419580078125,-0.0011552647920325398,-0.0002980264835059643,-0.0008138519478961825
1782846391184200700,1.67420068359375,-0.0003792978823184967,0.00038853101432323456,0.0009448467171750963
1782846391194205700,1.684205810546875,0.0008968890178948641,-0.00016940105706453323,-0.002093287417665124
1782846391204210700,1.694210693359375,0.0011126569006592035,0.0030068797059357166,-0.0013523827074095607
1782846391214215700,1.704215576171875,-0.0017345284577459097,0.000533335842192173,-0.0010775445261970162
1782846391224220700,1.714220703125,-0.0010114386677742004,-0.0011378531344234943,0.0002380901132710278
1782846391234225700,1.7242255859375,0.0011960556730628014,-0.0013953805901110172,-0.0013393003027886152
1782846391244230700,1.734230712890625,0.00045401533134281635,0.0023130448535084724,-0.0001681401627138257
1782846391254235600,1.744235595703125,-0.00029326765798032284,-0.00014771590940654278,0.00034611625596880913
1782846391264240600,1.75424072265625,0.00005004904232919216,-0.0013270608615130186,-0.0017081215046346188
1782846391274245600,1.76424560546875,0.001278565265238285,0.0007880218327045441,-0.0008852046448737383
1782846391284250600,1.774250732421875,0.00038822530768811703,0.0007382240146398544,-0.0005074588116258383
1782846391294255600,1.784255615234375,-0.0008109960472211242,0.000995218986645341,0.0013777929125353694
1782846391304260600,1.794260498046875,-0.000571871642023325,0.0005114665254950523,0.0006705253617838025
1782846391314265600,1.804265625,0.0006249528378248215,-0.000024627894163131714,-0.0005689098034054041
1782846391324270800,1.814270751953125,0.0018747446592897177,-0.002736517461016774,-0.0012191631831228733
1782846391334275800,1.82427587890625,-0.0013641916448250413,-0.00004432792775332928,0.00059631367912516
1782846391344280800,1.83428076171875,-0.0021392968483269215,0.00047260895371437073,-0.00035219069104641676
1782846391354285800,1.844285888671875,-0.0022503507789224386,-0.002617989433929324,-0.0030896540265530348
1782846391364290800,1.854290771484375,0.0011528348550200462,-0.0008902903646230698,0.0003421134897507727
1782846391374294800,1.864294677734375,0.0011677485890686512,0.0025169579312205315,0.0012289461446925998
1782846391384299800,1.8742998046875,0.0000314624048769474,0.0004654419608414173,0.0010520286159589887
1782846391394304800,1.8843046875,0.001238140743225813,-0.0016757394187152386,0.0014413828030228615
1782846391404309800,1.894309814453125,-0.0006899487925693393,-0.0016770439688116312,0.0020147887989878654
1782846391414314800,1.904314697265625,0.0015878528356552124,-0.0006709019653499126,0.0012235637987032533
1782846391424319700,1.91431982421875,-0.0014693387784063816,-0.0011206604540348053,-0.0008593632373958826
1782846391434324700,1.92432470703125,0.0008177838753908873,0.0023931143805384636,-0.00007772538810968399
1782846391444329700,1.934329833984375,-0.0006744185229763389,-0.0003331506159156561,-0.0014083400601521134
1782846391454334700,1.944334716796875,-0.0016086554387584329,-0.00007935124449431896,0.0005549421766772866
1782846391464339700,1.954339599609375,0.0014091143384575844,-0.0015460536815226078,0.0007525378605350852
1782846391474344700,1.9643447265625,-0.00031341821886599064,0.0023232530802488327,0.00044068164424970746
1782846391484349700,1.974349609375,-0.00008129607886075974,-0.002247606171295047,-0.0007044230587780476
1782846391494354700,1.984354736328125,-0.0015766608994454145,0.003807623405009508,0.0001826758962124586
1782846391504359700,1.994359619140625,-0.003774460405111313,-0.0011874586343765259,-0.0010240002302452922
1782846391514364700,2.00436474609375,0.0019255031365901232,0.00203762948513031,-0.0017659569857642055
1782846391524369700,2.01436962890625,0.00014517945237457752,-0.0016316212713718414,-0.0010268293553963304
1782846391534374700,2.024374755859375,-0.0006811994826421142,-0.000014816178008913994,-0.0003642349038273096
1782846391544379600,2.034379638671875,0.00006689107976853848,-0.0016495066229254007,-0.0011186510091647506
1782846391554384600,2.044384521484375,-0.00011873128823935986,0.0006290939636528492,-0.0014712534612044692
1782846391564390000,2.054389892578125,-0.0016436809673905373,0.0009457978885620832,0.002016304759308696
1782846391574395000,2.064394775390625,0.001049573766067624,-0.0013232151977717876,-0.0023408932611346245
1782846391584400000,2.07439990234375,0.0012382424902170897,-0.0018740640953183174,-0.0011467273579910398
1782846391594404900,2.08440478515625,-0.00048695318400859833,0.0003438163548707962,0.0023803631775081158
1782846391604409900,2.094409912109375,0.00007486785762012005,0.0008533550426363945,-0.0025077343452721834
1782846391614414800,2.104414794921875,0.001577157061547041,0.0012682756641879678,-0.0033692670986056328
1782846391624419800,2.114419921875,-0.0018019953276962042,-0.0011996040120720863,-0.0004649953916668892
1782846391634423800,2.124423828125,-0.00009384378790855408,-0.000020356150344014168,0.00040905404603108764
1782846391644428800,2.1344287109375,0.0011642803438007832,-0.0008087630849331617,0.0011155623942613602
1782846391654433800,2.144433837890625,-0.000251988647505641,-0.0023454069159924984,0.001055641216225922
1782846391664438800,2.154438720703125,-0.001612023450434208,-0.002458986360579729,-0.0001310874940827489
1782846391674444300,2.1644443359375,-0.0006381055573001504,0.0011780927889049053,0.0003123288042843342
1782846391684449300,2.17444921875,0.001105905743315816,0.0017634048126637936,-0.0028442759066820145
1782846391694454300,2.184454345703125,0.000650238711386919,0.0016574111068621278,-0.000195762375369668
1782846391704459300,2.194459228515625,0.00033886288292706013,0.0012530542444437742,0.000635011587291956
1782846391714464300,2.20446435546875,-0.0006121518090367317,-0.00014590425416827202,0.0021024132147431374
1782846391724469200,2.21446923828125,0.0018157383892685175,0.0008725749794393778,-0.0009722653776407242
1782846391734474200,2.22447412109375,0.002390980953350663,0.003343189600855112,-0.0006955629214644432
1782846391744479200,2.234479248046875,-0.000527414376847446,-0.0001066217664629221,-0.0033470571506768465
1782846391754484200,2.244484130859375,-0.00011702114716172218,-0.0008682857733219862,0.0007723203161731362
1782846391764489200,2.2544892578125,0.0015228684060275555,0.0009845977183431387,0.001236285432241857
1782846391774494200,2.264494140625,-0.0013520140200853348,0.000524936243891716,-0.0015504461480304599
1782846391784499200,2.274499267578125,0.001402663765475154,-0.0006631338037550449,-0.0013827300863340497
1782846391794504200,2.284504150390625,0.002170985797420144,-0.0006199905183166265,-0.0018059065332636237
1782846391804509200,2.29450927734375,-0.0009092860855162144,0.00016402150504291058,0.0010182299884036183
1782846391814514200,2.30451416015625,-0.0015095626004040241,-0.0016354764811694622,-0.00004011020064353943
1782846391824519200,2.314519287109375,-0.00010314909741282463,-0.001231576083227992,-0.00020599947310984135
1782846391834524200,2.324524169921875,-0.0002711943816393614,-0.0013381026219576597,0.00032343692146241665
1782846391844529200,2.334529052734375,-0.0005475808866322041,0.0011431177845224738,-0.001902140211313963
1782846391854534100,2.3445341796875,-0.0010362709872424603,0.00019157025963068008,-0.0008973295334726572
1782846391864539100,2.3545390625,-0.0030300584621727467,-0.002170631429180503,-0.0006069077644497156
1782846391874544000,2.364544189453125,-0.001090744510293007,-0.00000787852331995964,0.0008101602434180677
1782846391884548000,2.374548095703125,0.001141315558925271,-0.000257610809057951,0.0009102487238124013
1782846391894553000,2.384552978515625,-0.0005226274952292442,0.0010803613113239408,0.0014343587681651115
1782846391904558000,2.39455810546875,-0.0014537926763296127,0.0009557532612234354,0.00014603883028030396
1782846391914563000,2.40456298828125,0.0000029564835131168365,-0.0024475003592669964,-0.0015687706181779504
1782846391924568000,2.414568115234375,-0.0015199913177639246,-0.0012062108144164085,-0.0012080785818397999
1782846391934573000,2.424572998046875,-0.00039800163358449936,0.0013384395278990269,0.0006065992638468742
1782846391944578000,2.434578125,0.0024313894100487232,0.00030658417381346226,-0.0009919676231220365
1782846391954583300,2.444583251953125,-0.0009289871668443084,0.001195014570839703,-0.0004233826184645295
1782846391964588300,2.45458837890625,0.0009821266867220402,-0.0015053779352456331,-0.0002103494480252266
1782846391974593300,2.46459326171875,-0.0012935444246977568,0.002271251054480672,0.001880232011899352
1782846391984598300,2.474598388671875,-0.0012056193081662059,0.0008588489145040512,0.0006910259835422039
1782846391994603300,2.484603271484375,0.0005187774077057838,-0.0012056336272507906,-0.0014083439018577337
1782846392004608300,2.494608154296875,0.000012619653716683388,0.0012284215772524476,-0.0021420642733573914
1782846392014613200,2.50461328125,0.0013551192823797464,-0.0005210090894252062,-0.0011095566442236304
1782846392024618200,2.5146181640625,-0.0010611898032948375,0.0002976988907903433,0.00013885617954656482
1782846392034623200,2.524623291015625,-0.00039593211840838194,0.0003762620035558939,0.00013592670438811183
1782846392044628200,2.534628173828125,0.000511873746290803,-0.0005745585076510906,-0.00043331808410584927
1782846392054633200,2.54463330078125,-0.0003403378650546074,0.00017538759857416153,0.00006842135917395353
1782846392064638200,2.55463818359375,0.00040463986806571484,-0.0007410640828311443,0.0012327006552368402
1782846392074643200,2.564643310546875,-0.0005074928048998117,-0.0008278831373900175,0.000023359199985861778
1782846392084648200,2.574648193359375,-0.0009490505326539278,-0.0006826978642493486,0.0006575632723979652
1782846392094653200,2.584653076171875,-0.0006361290579661727,0.0019506358075886965,-0.001196263125166297
1782846392104658200,2.594658203125,-0.0012140583712607622,-0.0019981584046036005,-0.00020086520817130804
1782846392114663200,2.6046630859375,0.0007460282649844885,-0.0014921578112989664,-0.0002594548277556896
1782846392124667100,2.614667236328125,-0.0010434972355142236,0.00006570550613105297,0.0012634589802473783
1782846392134672100,2.624672119140625,0.00024174433201551437,-0.0005044771824032068,-0.001420740969479084
1782846392144677000,2.634677001953125,-0.0005049753235653043,-0.0019813664257526398,0.000656230840831995
1782846392154682000,2.64468212890625,-0.0031002257019281387,-0.000608507078140974,-0.0023563369177281857
1782846392164687000,2.65468701171875,0.0020235078409314156,0.0013233255594968796,-0.0006716203643009067
1782846392174692000,2.664692138671875,0.0005281427875161171,0.0008234502747654915,0.0014178957790136337
1782846392184697000,2.674697021484375,0.0034511967096477747,-0.0005014045163989067,-0.0014545498415827751
1782846392194702000,2.6847021484375,-0.00031424686312675476,-0.00010619126260280609,-0.0040391478687524796
1782846392204707000,2.69470703125,-0.0008547467878088355,-0.0011692221742123365,-0.002336231991648674
1782846392214712000,2.704712158203125,-0.0012736620847135782,-0.00134019716642797,-0.000523684429936111
1782846392224717000,2.714717041015625,-0.0007420728215947747,0.002336669247597456,-0.0020619225688278675
1782846392234722000,2.72472216796875,-0.0008320877095684409,-0.00267859548330307,0.00028751802165061235
1782846392244727000,2.73472705078125,-0.0012308831792324781,-0.0016874626744538546,0.001354798674583435
1782846392254732000,2.74473193359375,0.003263201331719756,0.0005645065102726221,0.001497544115409255
1782846392264737000,2.754737060546875,-0.0021954544354230165,-0.0015622938517481089,-0.001955061685293913
1782846392274742000,2.764741943359375,0.0002860790118575096,-0.0009636154863983393,-0.0013153704348951578
1782846392284747000,2.7747470703125,0.00030735484324395657,0.001138702966272831,0.0027068855706602335
1782846392294752000,2.784751953125,-0.0015645810635760427,-0.00017396919429302216,-0.0013664193684235215
1782846392304757000,2.794757080078125,-0.0006803327705711126,0.0022139635402709246,0.00010135420598089695
1782846392314762200,2.80476220703125,0.0013796223793178797,0.0022816078271716833,0.0016449224203824997
1782846392324767200,2.814767333984375,0.0005299211479723454,0.0004299881402403116,0.0011393014574423432
1782846392334772200,2.824772216796875,-0.0006298853550106287,0.0008004340343177319,-0.0020972383208572865
1782846392344777200,2.834777099609375,0.001187504269182682,-0.0006330714095383883,-0.00018980016466230154
1782846392354781200,2.84478125,-0.0006301031680777669,0.0009885274339467287,-0.0012071275850757957
1782846392364786200,2.8547861328125,-0.0015326720895245671,0.0009054956026375294,0.00043362798169255257
1782846392374791200,2.864791259765625,-0.0005100182024762034,-0.0018578004091978073,0.000473575375508517
1782846392384796200,2.874796142578125,-0.000892841606400907,-0.0008987979963421822,-0.00011835305485874414
1782846392394801200,2.88480126953125,-0.0001570102758705616,0.0017387968255206943,0.000057948287576436996
1782846392404806100,2.89480615234375,0.0013841621112078428,0.000777494627982378,-0.0009977702284231782
1782846392414811100,2.90481103515625,0.000056576449424028397,-0.00005580834113061428,-0.002717906143516302
1782846392424816000,2.914816162109375,-0.0007927429396659136,0.0002647635992616415,0.00027018546825274825
1782846392434821000,2.924821044921875,0.0012315257918089628,-0.000048424117267131805,-0.000012908480130136013
1782846392444826000,2.934826171875,0.0012940443120896816,0.00043004960753023624,0.00040535995503887534
1782846392454831000,2.9448310546875,0.0022637012880295515,0.0022007853258401155,-0.001470304443500936
1782846392464836000,2.954836181640625,-0.0011309016263112426,-0.00015617907047271729,0.0012879743007943034
1782846392474841000,2.964841064453125,-0.000013971934095025063,-0.000625428045168519,-0.0017674705013632774
1782846392484846000,2.97484619140625,0.0018844145815819502,-0.0013760044239461422,-0.0015199807239696383
1782846392494851000,2.98485107421875,0.0033408973831683397,0.0008349516429007053,0.0026361483614891768
1782846392504856000,2.99485595703125,-0.0016774291871115565,0.0013581610983237624,0.0021315820049494505
1782846392514861000,3.004861083984375,-0.0004254771629348397,-0.001648547826334834,-0.0004389011301100254
1782846392524866000,3.014865966796875,0.0001701179426163435,-0.0003194755408912897,-0.00010990852024406195
1782846392534871000,3.02487109375,0.001492111012339592,0.0016041257185861468,0.0006075471173971891
1782846392544876000,3.0348759765625,-0.0029887084383517504,-0.0016321961302310228,0.0003590284613892436
1782846392554881000,3.044881103515625,0.0003074859268963337,0.00017129676416516304,0.0010360039304941893
1782846392564886000,3.054885986328125,-0.0015541794709861279,0.00028624385595321655,-0.0007785902125760913
1782846392574891000,3.06489111328125,0.0020373596344143152,-0.0017534713260829449,-0.00029788969550281763
1782846392584896000,3.07489599609375,0.0002864242997020483,-0.000777105800807476,0.0008599619613960385
1782846392594900200,3.084900146484375,0.0002805653493851423,-0.0005779012572020292,-0.0024812398478388786
1782846392604905200,3.0949052734375,-0.0012213544687256217,-0.0008097488898783922,0.0006358778337016702
1782846392614910200,3.10491015625,-0.00032573333010077477,0.00012448802590370178,-0.0011870558373630047
1782846392624915200,3.114915283203125,-0.0003714185440912843,-0.0002804468385875225,0.0015258175553753972
1782846392634920200,3.124920166015625,-0.00010164035484194756,0.0010452746646478772,0.0005644164048135281
1782846392644925200,3.13492529296875,0.0000490676611661911,-0.00023462623357772827,-0.0013822842156514525
1782846392654930200,3.14493017578125,-0.0006430879002436996,0.0007273075170814991,0.0012278800131753087
1782846392664935200,3.15493505859375,0.000004300614818930626,-0.00017043109983205795,-0.00019652326591312885
1782846392674940400,3.1649404296875,-0.0022543263621628284,-0.000020495150238275528,-0.00008067581802606583
1782846392684945400,3.1749453125,0.0013249488547444344,0.0011613175738602877,-0.002068678382784128
1782846392694950400,3.184950439453125,-0.0000018379651010036469,0.00019538914784789085,0.0019058232428506017
1782846392704955400,3.194955322265625,-0.0006942523177713156,-0.0008341108914464712,-0.0018740113591775298
1782846392714960400,3.20496044921875,0.0005371933802962303,-0.0018421171698719263,0.00021417310927063227
1782846392724965400,3.21496533203125,0.0006241651717573404,0.0011591090587899089,0.004335485864430666
1782846392734970600,3.224970703125,-0.002036865334957838,-0.0009399943519383669,0.003696327330544591
1782846392744975600,3.2349755859375,0.0010610718745738268,-0.0006142307538539171,-0.001991256605833769
1782846392754980600,3.244980712890625,0.0006285745184868574,-0.001306119840592146,-0.0023603704757988453
1782846392764985600,3.254985595703125,-0.0011622576275840402,0.000346791697666049,0.00006326695438474417
1782846392774990600,3.264990478515625,0.00027638208121061325,-0.00012352247722446918,0.0014369254931807518
1782846392784995600,3.27499560546875,0.001304921694099903,0.0005662618204951286,0.001820496516302228
1782846392795000600,3.28500048828125,-0.00022533070296049118,0.002340459730476141,0.00003830913919955492
1782846392805005600,3.295005615234375,0.0013872392009943724,0.0017069170717149973,0.0016714527737349272
1782846392815009300,3.30500927734375,0.00029081571847200394,-0.0006608995608985424,0.002918078564107418
1782846392825014300,3.31501416015625,0.0006287435535341501,-0.0020190998911857605,-0.001175562385469675
1782846392835019300,3.325019287109375,-0.001002176315523684,-0.0012747463770210743,0.0009507054928690195
1782846392845024300,3.335024169921875,0.0018202406354248524,-0.00016796193085610867,0.0017792845610529184
1782846392855029200,3.345029296875,0.0010306134354323149,0.00012338790111243725,0.0007225422887131572
1782846392865034200,3.3550341796875,0.00010235561057925224,0.0002707915846258402,0.001661872724071145
1782846392875039200,3.365039306640625,0.0008283334318548441,0.0022007846273481846,-0.00015227263793349266
1782846392885044200,3.375044189453125,0.0019374375697225332,0.0011103160213679075,0.00014113180804997683
1782846392895049200,3.38504931640625,0.0006852191872894764,0.0006796829402446747,-0.0007992304163053632
1782846392905054500,3.395054443359375,0.001991502707824111,-0.00018457695841789246,-0.001688770717009902
1782846392915059500,3.4050595703125,0.00038375239819288254,-0.00033664354123175144,0.0015624163206666708
1782846392925064400,3.415064453125,0.0010563370306044817,-0.000040381914004683495,0.0014313424471765757
1782846392935069400,3.4250693359375,-0.0016030955594033003,-0.002234293846413493,-0.0006139652105048299
1782846392945074400,3.435074462890625,-0.00023361598141491413,-0.00150032970122993,0.0001370391109958291
1782846392955079700,3.44507958984375,0.0018441821448504925,-0.0017615857068449259,-0.002198819536715746
1782846392965084700,3.455084716796875,0.00014241226017475128,0.00006379373371601105,0.004760385490953922
1782846392975089700,3.465089599609375,-0.0003681157249957323,-0.00037855724804103374,0.0014692513504996896
1782846392985094700,3.4750947265625,0.0012096702121198177,-0.00038340198807418346,0.0009302280377596617
1782846392995099600,3.485099609375,0.0006549337413161993,-0.00024651549756526947,0.002571268007159233
1782846393005104600,3.495104736328125,0.0005338308401405811,-0.0008965125307440758,0.00044091104064136744
1782846393015109600,3.505109619140625,0.0012736569624394178,-0.0002008948940783739,-0.000494657433591783
1782846393025113300,3.51511328125,0.0017629573121666908,-0.0004005644004791975,-0.0014754972653463483
1782846393035118300,3.525118408203125,0.0002343025989830494,0.0018197129247710109,0.0004465059610083699
1782846393045123300,3.535123291015625,0.0005607318598777056,0.0008039465174078941,0.001040167990140617
1782846393055128300,3.54512841796875,-0.0011956229573115706,-0.0011667923536151648,0.0006729180458933115
1782846393065133300,3.55513330078125,0.00029149511829018593,-0.00045814993791282177,0.00011914479546248913
1782846393075138600,3.565138671875,0.0005636701826006174,-0.0012549678795039654,-0.002615655306726694
1782846393085143600,3.5751435546875,0.0009376092348247766,-0.00035177753306925297,-0.00034482916817069054
1782846393095148500,3.5851484375,0.00017514638602733612,0.000442110700532794,-0.0012433796655386686
1782846393105153500,3.595153564453125,0.0012929481454193592,0.0005074827931821346,0.002084955107420683
1782846393115158500,3.605158447265625,0.0000577741302549839,0.00007871375419199467,-0.0013710290659219027
1782846393125163500,3.61516357421875,0.0013667016755789518,-0.0008774024900048971,-0.0005088100442662835
1782846393135168500,3.62516845703125,0.0014242259785532951,-0.0010848629754036665,-0.00032238871790468693
1782846393145173500,3.635173583984375,0.002868728479370475,0.000028363894671201706,0.0007782881148159504
1782846393155178500,3.645178466796875,-0.0004684785380959511,0.00011704722419381142,-0.002030281350016594
1782846393165183500,3.65518359375,-0.002470944542437792,-0.0028548340778797865,0.0016387745272368193
1782846393175188500,3.6651884765625,-0.00041125575080513954,0.001628331490792334,-0.0014667377108708024
1782846393185193500,3.675193359375,-0.0007986344862729311,-0.0013733841478824615,0.0011004015104845166
1782846393195198500,3.685198486328125,0.0005798176862299442,0.002018950181081891,0.0015973473200574517
1782846393205203500,3.695203369140625,-0.0007884097285568714,0.0004639693070203066,-0.001315467874519527
1782846393215208400,3.70520849609375,0.00038817478343844414,-0.00016027572564780712,-0.0005934849614277482
1782846393225213400,3.71521337890625,-0.0011843695538118482,-0.00014833267778158188,0.0009252503514289856
1782846393235217400,3.725217529296875,-0.0005095246015116572,-0.000246869632974267,0.0015873122029006481
1782846393245222700,3.73522265625,0.0008778299670666456,0.0012318688677623868,0.0012583078350871801
1782846393255227600,3.7452275390625,0.0020946285221725702,0.0006683440878987312,-0.0030727910343557596
1782846393265232600,3.755232666015625,0.00011720042675733566,0.0016878244932740927,-0.0012472654925659299
1782846393275237600,3.765237548828125,-0.0012790948385372758,-0.0007609520107507706,0.0026353569701313972
1782846393285242600,3.77524267578125,-0.0008649234659969807,-0.0027084876783192158,-0.0004824943607673049
1782846393295247600,3.78524755859375,0.0007926279213279486,-0.0023417705669999123,0.00016172428149729967
1782846393305252600,3.795252685546875,-0.0016483603976666927,-0.003185749053955078,-0.00028437969740480185
1782846393315257600,3.805257568359375,0.00016445317305624485,0.001130702206864953,0.001187815796583891
1782846393325262600,3.8152626953125,-0.001282867044210434,-0.0011870069429278374,0.000796305132098496
1782846393335267600,3.825267578125,-0.0009233403252437711,-0.0014045871794223785,0.00107620342168957
1782846393345272600,3.8352724609375,0.0005806838162243366,-0.0016636913642287254,0.0017626695334911346
1782846393355277600,3.845277587890625,-0.0006054880796000361,-0.0016453154385089874,-0.0013473699800670147
1782846393365282600,3.855282470703125,-0.0013878820464015007,-0.00028887251392006874,-0.0028050891123712063
1782846393375287600,3.86528759765625,-0.00036709243431687355,-0.00047476100735366344,0.0007664760341867805
1782846393385292500,3.87529248046875,0.0013225083239376545,-0.002837802516296506,-0.00027551583480089903
1782846393395297500,3.885297607421875,-0.0018192226998507977,-0.00010699708946049213,0.00011809938587248325
1782846393405302500,3.895302490234375,-0.00036201393231749535,-0.0012288943398743868,0.0015213140286505222
1782846393415307500,3.9053076171875,0.0008172336965799332,0.0012694171164184809,0.0003212937153875828
1782846393425312500,3.9153125,0.0019025863148272038,0.0020458423532545567,-0.0011554780649021268
1782846393435317500,3.9253173828125,0.00037979078479111195,0.002948121400550008,0.001173722674138844
1782846393445321500,3.935321533203125,0.0007006698288023472,0.0000956566073000431,0.0016527650877833366
1782846393455326500,3.945326416015625,-0.0013270609779283404,-0.001260158373042941,-0.0015691271983087063
1782846393465331500,3.95533154296875,0.0007684614975005388,0.0022266008891165257,-0.000884883338585496
1782846393475336400,3.96533642578125,-0.0002118479460477829,0.0014976937090978026,0.0016869313549250364
1782846393485341400,3.975341552734375,-0.0006986281368881464,-0.0006210855208337307,0.00036208174424245954
1782846393495346400,3.985346435546875,0.001986370887607336,0.0010668259346857667,-0.0004248823970556259
1782846393505351400,3.995351318359375,-0.00021359859965741634,-0.0007379779126495123,-0.0017657848075032234
1782846393515356400,4.0053564453125,-0.0018525078194215894,0.0024596794974058867,0.0003010944928973913
1782846393525361700,4.015361572265625,-0.0008071389747783542,0.0005600543227046728,-0.002294599311426282
1782846393535366700,4.02536669921875,0.00011777691543102264,0.001378710032440722,-0.0036307070404291153
1782846393545371600,4.03537158203125,-0.0012802296550944448,-0.0011897319927811623,-0.0008838858921080828
1782846393555376600,4.045376708984375,0.0009317919611930847,0.00214880658313632,-0.0013856254518032074
1782846393565381600,4.055381591796875,0.00024919817224144936,0.00005798810161650181,-0.0003476855345070362
1782846393575386600,4.06538671875,-0.0014107502065598965,-0.00034574721939861774,0.0018851087661460042
1782846393585391600,4.0753916015625,0.0017725417856127024,0.0007021145429462194,0.002031808951869607
1782846393595396600,4.085396728515625,-0.00046930729877203703,0.00019478239119052887,0.0025207651779055595
1782846393605401600,4.095401611328125,0.0005984273739159107,0.0005174912512302399,-0.00239180657081306
1782846393615406600,4.105406494140625,0.0017529078759253025,-0.0015714922919869423,-0.0010434479918330908
1782846393625411600,4.11541162109375,-0.00009545241482555866,0.0007431586273014545,0.0001780879683792591
1782846393635415600,4.12541552734375,-0.0006129046669229865,-0.0017708656378090382,0.001921393210068345
1782846393645420500,4.135420654296875,0.0002238103188574314,-0.0016068450640887022,0.000675011076964438
1782846393655425500,4.145425537109375,-0.00006860471330583096,0.0013050554553046823,-0.0014070483157411218
1782846393665430500,4.155430419921875,-0.0012158373137935996,-0.001549518434330821,-0.0008935928344726562
1782846393675435000,4.16543505859375,0.00017353380098938942,0.00005743303336203098,-0.0014456661883741617
1782846393685440000,4.17543994140625,0.0001952783204615116,0.0002961352001875639,0.001782045466825366
1782846393695445000,4.185445068359375,-0.00031498330645263195,-0.0007885701488703489,-0.0022385288029909134
1782846393705450000,4.195449951171875,0.0008831541053950787,0.0013313102535903454,0.0043005309998989105
1782846393715455000,4.205455078125,-0.00019116513431072235,-0.0014594164676964283,0.0016086080577224493
1782846393725460000,4.2154599609375,0.000594018492847681,-0.0002760537900030613,0.0002560410648584366
1782846393735465000,4.22546484375,-0.0014811165165156126,0.00032475520856678486,-0.0014313377905637026
1782846393745470000,4.235469970703125,0.0003903720062226057,0.0007967539131641388,0.0006094776326790452
1782846393755475000,4.245474853515625,-0.0025652041658759117,0.00009341305121779442,0.0008374442113563418
1782846393765480000,4.25547998046875,-0.0006854566745460033,-0.0009510340169072151,0.00012699479702860117
1782846393775485000,4.26548486328125,0.0012951362878084183,-0.0010245372541248798,-0.001343602780252695
1782846393785490000,4.275489990234375,0.00005406630225479603,-0.0006778195966035128,0.0006615132442675531
1782846393795495000,4.285494873046875,0.0022208138834685087,-0.001340946415439248,-0.0016823348123580217
1782846393805500000,4.2955,-0.0011677801376208663,0.0013160314410924911,0.003666900796815753
1782846393815505200,4.305505126953125,-0.0014900225214660168,-0.001201454782858491,0.0014788476983085275
1782846393825510100,4.31551025390625,-0.0004017823375761509,0.0008548502810299397,-0.00008967251051217318
1782846393835514000,4.32551416015625,-0.00036822655238211155,0.0009584473446011543,-0.0010215125512331724
1782846393845519000,4.33551904296875,-0.0001225846353918314,-0.000663175480440259,-0.00005805899854749441
1782846393855524000,4.345524169921875,0.0006156435701996088,0.0017416590126231313,0.0003376867389306426
1782846393865529000,4.355529052734375,-0.0002066860906779766,0.0010736368130892515,-0.002525419695302844
1782846393875534000,4.3655341796875,0.00012567639350891113,0.001553804730065167,0.0013292396906763315
1782846393885539000,4.3755390625,0.00022805668413639069,-0.0007064805831760168,0.001745662884786725
1782846393895544000,4.3855439453125,0.0021761590614914894,-0.0013504328671842813,-0.0006623673252761364
1782846393905549000,4.395549072265625,-0.0005475411890074611,-0.001522009028121829,0.0004576711799018085
1782846393915554000,4.405553955078125,0.0003246439155191183,-0.000748360762372613,-0.0016811133828014135
1782846393925559000,4.41555908203125,-0.0008996231481432915,-0.001026443438604474,-0.00012364459689706564
1782846393935564000,4.42556396484375,0.0013885647058486938,-0.00010498962365090847,0.001582642667926848
1782846393945569000,4.435569091796875,0.0003920239396393299,0.0001969747245311737,-0.0002602116437628865
1782846393955574000,4.445573974609375,-0.001229308545589447,-0.0002650837413966656,0.001059384667314589
1782846393965579000,4.4555791015625,-0.001216801698319614,0.00002848450094461441,-0.0011642634635791183
1782846393975584000,4.465583984375,0.0008468818850815296,0.000301724998280406,0.0016408441588282585
1782846393985589000,4.475589111328125,-0.0009381421841681004,0.0009031596127897501,-0.0000550784170627594
1782846393995594000,4.485593994140625,-0.0016468093963339925,0.0019183566328138113,0.0007963341777212918
1782846394005599000,4.495598876953125,-0.0006320012034848332,-0.001731089549139142,-0.0006795114604756236
1782846394015603000,4.50560302734375,0.0015621772035956383,-0.0012064471375197172,-0.0025101685896515846
1782846394025608000,4.51560791015625,0.0007222010754048824,0.0021109101362526417,0.0008084438741207123
1782846394035613200,4.52561328125,-0.0002820771187543869,0.00142860843334347,-0.0005156798288226128
1782846394045618200,4.5356181640625,-0.00011343182995915413,-0.0006778016686439514,0.0017626597546041012
1782846394055623200,4.545623046875,0.0015539734158664942,0.0011736280284821987,0.00010723888408392668
1782846394065628200,4.555628173828125,-0.0011950443731620908,-0.0019746539182960987,-0.00010981806553900242
1782846394075633200,4.565633056640625,0.00274004228413105,0.0013732057996094227,-0.002134619513526559
1782846394085638100,4.57563818359375,-0.003199661383405328,0.0009387761820107698,-0.0002479881513863802
1782846394095643100,4.58564306640625,-0.0003125285729765892,0.0023364031221717596,-0.0011886167339980602
1782846394105648000,4.595648193359375,-0.0008781981887295842,-0.0025852425023913383,0.0015062496531754732
1782846394115653000,4.605653076171875,0.0020241145975887775,-0.000005970941856503487,0.0014204959152266383
1782846394125658000,4.615658203125,0.00015815673395991325,-0.00306214252486825,0.0019617569632828236
1782846394135663000,4.6256630859375,-0.0012338774977251887,0.0007728093769401312,-0.0010942203225567937
1782846394145668000,4.635668212890625,0.00022843084298074245,-0.0007287266198545694,-0.00028433441184461117
1782846394155673000,4.645673095703125,-0.0004586647264659405,0.0007682363502681255,0.0004408442764542997
1782846394165678000,4.655677978515625,-0.001267384272068739,-0.0005379961803555489,0.0013159497175365686
1782846394175683000,4.66568310546875,0.0010799258016049862,-0.0022887582890689373,0.0022078424226492643
1782846394185688000,4.67568798828125,0.002435530535876751,-0.0012446281034499407,-0.0007965823169797659
1782846394195692000,4.685692138671875,-0.00020392844453454018,-0.0017863151151686907,-0.0019294910598546267
1782846394205697000,4.695697021484375,-0.0012281406670808792,0.0012813174398615956,0.000060504768043756485
1782846394215702000,4.705701904296875,-0.00046700926031917334,-0.0005304310470819473,-0.0006154055008664727
1782846394225707000,4.71570703125,-0.0006444522878155112,-0.0023687034845352173,0.0021965154446661472
1782846394235712000,4.7257119140625,0.002839228603988886,-0.0003614791203290224,-0.0021606823429465294
1782846394245717000,4.735717041015625,0.0010896725580096245,-0.00268050329759717,-0.0019384778570383787
1782846394255722000,4.745721923828125,0.00046303076669573784,-0.00045010587200522423,0.00046822079457342625
1782846394265727000,4.75572705078125,0.0028810501098632812,0.001998242922127247,-0.0005858909571543336
1782846394275732000,4.76573193359375,0.0010005920194089413,-0.0004199075046926737,-0.00048256036825478077
1782846394285737000,4.775737060546875,-0.00031978427432477474,-0.0012978576123714447,-0.0011961777927353978
1782846394295742000,4.785741943359375,0.0003939429298043251,-0.000122870784252882,0.00248004961758852
1782846394305747000,4.795746826171875,0.0002379997167736292,-0.0004546970594674349,-0.0007658245740458369
1782846394315752000,4.805751953125,0.0010369480587542057,0.00046995258890092373,-0.00036635040305554867
1782846394325757000,4.8157568359375,-0.0007984425174072385,-0.0009106588549911976,0.0016966515686362982
1782846394335762000,4.825761962890625,-0.0012445219326764345,-0.0008587271440774202,0.00028677412774413824
1782846394345767000,4.835766845703125,-0.000739438459277153,0.00007821223698556423,0.00011106254532933235
1782846394355772000,4.84577197265625,0.0015474178362637758,-0.0006312539335340261,-0.0008420827798545361
1782846394365776100,4.855776123046875,0.00032258592545986176,0.001775385462678969,0.0011099239345639944
1782846394375781000,4.865781005859375,-0.0006409457419067621,-0.0013133487664163113,0.0014814349124208093
1782846394385786000,4.8757861328125,-0.001743968459777534,-0.0003766969311982393,0.0010225162841379642
1782846394395791000,4.885791015625,-0.0013823112240061164,-0.0017932325135916471,0.0005649852682836354
1782846394405796000,4.895796142578125,0.001003665616735816,0.00020200246945023537,-0.003482735948637128
1782846394415801000,4.905801025390625,-0.00258973753079772,0.0021128205116838217,0.000002276734448969364
1782846394425806000,4.91580615234375,-0.0004802847979590297,0.0011192234233021736,0.0042573874816298485
1782846394435811000,4.92581103515625,-0.00043634267058223486,0.001281409990042448,-0.001139508793130517
1782846394445816000,4.935816162109375,-0.0012563759228214622,-0.0010272753424942493,0.0006281447713263333
1782846394455821000,4.945821044921875,0.0006800084374845028,-0.00014710030518472195,0.0015181731432676315
1782846394465826000,4.955825927734375,-0.0003020314034074545,0.00013058003969490528,0.0017184170428663492
1782846394475831000,4.9658310546875,-0.00018937978893518448,-0.002213534200564027,0.0025147022679448128
1782846394485836000,4.9758359375,0.0029569731559604406,0.001145423506386578,-0.0013454044237732887
1782846394495841000,4.985841064453125,0.004068843089044094,0.00025832466781139374,0.0014426589477807283
1782846394505846000,4.995845947265625,0.002786896424368024,0.000904769403859973,0.0014520115219056606
1782846394515851000,5.00585107421875,-0.0025045382790267467,0.0009156884625554085,0.0030757407657802105
1782846394525856000,5.01585595703125,-0.0002802575472742319,0.0009582042694091797,-0.00010379229206591845
1782846394535861000,5.025861083984375,-0.0008163518505170941,-0.0024786051362752914,-0.0025757383555173874
1782846394545865000,5.035864990234375,-0.0010402402840554714,0.00018752692267298698,0.0019115607719868422
1782846394555870000,5.045869873046875,-0.0005467565497383475,0.0011060511460527778,0.001224198960699141
1782846394565875000,5.055875,-0.0018227160908281803,0.0006673934403806925,-0.0023118508979678154
1782846394575880000,5.0658798828125,0.0007461691275238991,0.0008594072423875332,0.0017223055474460125
1782846394585885000,5.075885009765625,0.00024830340407788754,0.0006678847130388021,0.001434601959772408
1782846394595890000,5.085889892578125,-0.0037506993394345045,0.0005946478340774775,-0.0011880791280418634
1782846394605895200,5.095895263671875,-0.0017959631513804197,-0.003578286152333021,-0.00007252278737723827
1782846394615900200,5.105900146484375,0.00006452132947742939,-0.00009939889423549175,0.0017022077227011323
1782846394625905200,5.1159052734375,0.004004695452749729,-0.0003687164280563593,-0.000536416657269001
1782846394635910100,5.12591015625,-0.0017972671194002032,-0.0014965650625526905,-0.00015505205374211073
1782846394645915100,5.1359150390625,-0.0017631144728511572,-0.0009935719426721334,0.0006303508998826146
1782846394655920000,5.145920166015625,-0.0015860141720622778,-0.0014910504687577486,-0.0017073717899620533
1782846394665925000,5.155925048828125,0.0005710693076252937,0.00023817643523216248,-0.0026438210625201464
1782846394675930400,5.165930419921875,0.00007652025669813156,0.00250852108001709,-0.00003418943379074335
1782846394685935400,5.175935302734375,-0.001003637327812612,0.0017691333778202534,0.0024294578470289707
1782846394695940400,5.1859404296875,0.0007375373970717192,-0.000513461884111166,0.0008786990656517446
1782846394705945300,5.1959453125,-0.0000017844140529632568,0.001078286673873663,-0.0011675698915496469
1782846394715949300,5.20594921875,-0.0003328153397887945,-0.0001196032389998436,-0.0020988774485886097
1782846394725954300,5.215954345703125,0.000918990233913064,0.0010641907574608922,-0.0007331056986004114
1782846394735959300,5.225959228515625,0.0005642571486532688,0.0003360824193805456,0.0008970152121037245
1782846394745964300,5.23596435546875,-0.00012594950385391712,-0.0013945505488663912,-0.0009709747973829508
1782846394755969300,5.24596923828125,0.0009592885617166758,-0.0027690075803548098,0.000041026389226317406
1782846394765974300,5.255974365234375,-0.00008581276051700115,-0.0012419861741364002,0.0008845034753903747
1782846394775979300,5.265979248046875,0.0011253927368670702,-0.00009735953062772751,-0.000979709206148982
1782846394785984300,5.275984375,0.0017699974123388529,0.000791133614256978,-0.0010989898582920432
1782846394795989200,5.2859892578125,0.0002826221752911806,-0.0005915795918554068,0.0026866935659199953
1782846394805994200,5.295994140625,0.001179443672299385,0.00016374909318983555,-0.001762594562023878
1782846394815999200,5.305999267578125,0.0023403156083077192,0.0008026412688195705,0.0010156151838600636
1782846394826004200,5.316004150390625,0.0007333345711231232,0.0014863781398162246,-0.00009384611621499062
1782846394836009200,5.32600927734375,0.001200985861942172,0.0007308393251150846,-0.002305601490661502
1782846394846014200,5.33601416015625,0.0004216639790683985,-0.0017711680848151445,0.0009508001385256648
1782846394856019200,5.346019287109375,0.0020267509389668703,-0.0012814125511795282,-0.002481481758877635
1782846394866024200,5.356024169921875,0.000027096830308437347,-0.000007840339094400406,-0.00181514210999012
1782846394876028400,5.3660283203125,0.0005589299835264683,0.0022614391054958105,0.002674148418009281
1782846394886033400,5.376033447265625,-0.0001085416879504919,-0.0005569441709667444,0.0005874272901564837
1782846394896038400,5.386038330078125,-0.002848934382200241,-0.0015854567755013704,0.0012108732480555773
1782846394906043400,5.39604345703125,0.0021987210493534803,0.001409228309057653,0.0013923047808930278
1782846394916048400,5.40604833984375,0.0013845926150679588,0.0007796571590006351,-0.00017469911836087704
1782846394926053400,5.416053466796875,0.000836116261780262,-0.0012503662146627903,0.004531255457550287
1782846394936058400,5.426058349609375,0.001999917905777693,0.0019534165039658546,0.002753595355898142
1782846394946063400,5.4360634765625,-0.0006989685352891684,-0.00020628911443054676,0.00021675991592928767
1782846394956068400,5.446068359375,-0.00045768613927066326,-0.0018364100251346827,0.003829337889328599
1782846394966073300,5.4560732421875,0.0005306829698383808,0.000029267044737935066,-0.0014813735615462065
1782846394976078300,5.466078369140625,-0.0006805226439610124,-0.0016349423676729202,-0.00016790255904197693
1782846394986083300,5.476083251953125,0.0015550719108432531,-0.0013357377611100674,-0.0011094389483332634
1782846394996088300,5.48608837890625,0.00020591448992490768,0.0014206338673830032,-0.0003831950016319752
1782846395006093300,5.49609326171875,0.001853726338595152,0.00002674851566553116,-0.0004102113889530301
1782846395016098300,5.506098388671875,0.000027064234018325806,0.00047975219786167145,0.0010454724542796612
1782846395026103300,5.516103271484375,0.0010855195578187704,-0.0001225932501256466,0.0033905538730323315
1782846395036107300,5.526107177734375,-0.00027455692179501057,0.0017016720958054066,-0.0007658418035134673
1782846395046112300,5.5361123046875,0.0009538216982036829,-0.0028314515948295593,0.002502510789781809
1782846395056117200,5.5461171875,0.00036473036743700504,-0.0024868384934961796,0.002958443947136402
1782846395066122200,5.556122314453125,-0.0016503218794241548,0.00039619230665266514,-0.0008969707414507866
1782846395076127200,5.566127197265625,-0.0023909469600766897,0.00017248676158487797,0.0016085312236100435
1782846395086132200,5.57613232421875,0.001936039188876748,0.002087436616420746,-0.0014968293253332376
1782846395096137200,5.58613720703125,-0.0013327248161658645,-0.00022578495554625988,0.0020821928046643734
1782846395106142200,5.59614208984375,0.0003847696352750063,-0.0027884007431566715,0.0027127282228320837
1782846395116147200,5.606147216796875,0.0007909017149358988,0.00013654888607561588,-0.00038825650699436665
1782846395126152200,5.616152099609375,0.0008368669077754021,-0.001533631468191743,0.000599138846155256
1782846395136157200,5.6261572265625,0.0019300943240523338,0.002075484488159418,0.00016371207311749458
1782846395146162200,5.636162109375,-0.0006579331820830703,-0.0022071697749197483,-0.000192005536518991
1782846395156167200,5.646167236328125,-0.0012534159468486905,0.00026823836378753185,0.0015228039119392633
1782846395166172200,5.656172119140625,0.0019043642096221447,0.0012235540198162198,0.00042287324322387576
1782846395176177200,5.66617724609375,-0.0019321857253089547,0.0010350022930651903,-0.0022978121414780617
1782846395186182100,5.67618212890625,0.0004389546811580658,-0.000251218443736434,0.0004547330900095403
1782846395196186400,5.686186279296875,0.0007854318246245384,-0.0013058304321020842,0.0010616674553602934
1782846395206191400,5.69619140625,0.0003222965169698,-0.001021313713863492,-0.0021192478016018867
1782846395216196400,5.7061962890625,0.00042003439739346504,0.0005603374447673559,-0.0007168269949033856
1782846395226201300,5.716201416015625,0.0023938959930092096,0.0003332030028104782,0.0009189127013087273
1782846395236206300,5.726206298828125,-0.00035608396865427494,0.0020930198952555656,-0.00054289645049721
1782846395246211300,5.73621142578125,0.0009545045904815197,-0.0005154225509613752,-0.0015079613076522946
1782846395256216300,5.74621630859375,-0.0029459611978381872,-0.00048160040751099586,0.0006888802745379508
1782846395266221300,5.75622119140625,-0.0003512892872095108,0.0003386859316378832,-0.0006229350110515952
1782846395276226300,5.766226318359375,-0.001601643394678831,-0.0009678609203547239,-2.1653249859809875e-8
1782846395286231300,5.776231201171875,0.00019666925072669983,-0.0016558787319809198,-0.00017000746447592974
1782846395296236300,5.786236328125,0.0010518103372305632,-0.0016406986396759748,-0.002405997598543763
1782846395306241300,5.7962412109375,-0.0016643800772726536,-0.0003903487231582403,-0.0008461612742394209
1782846395316246300,5.806246337890625,0.0006701468955725431,-0.0005488067399710417,0.0013125970726832747
1782846395326251300,5.816251220703125,-0.0003937657456845045,0.00041637266986072063,0.000630133377853781
1782846395336256300,5.82625634765625,0.00020011910237371922,-0.00032265461049973965,0.0012320077512413263
1782846395346261200,5.83626123046875,-0.0018407349707558751,0.0021896124817430973,0.00037298648385331035
1782846395356265200,5.84626513671875,-0.00011607189662754536,0.001246054656803608,-0.0004019933985546231
1782846395366270200,5.856270263671875,-0.00007869908586144447,-0.002627598587423563,-0.002556626684963703
1782846395376275200,5.866275146484375,-0.0006922914180904627,0.001356490422040224,-0.0010543374810367823
1782846395386280200,5.8762802734375,-0.00010681501589715481,0.0003356474917382002,0.001952647464349866
1782846395396285200,5.88628515625,-0.0015603682259097695,-0.0004931280855089426,0.002386742737144232
1782846395406290200,5.896290283203125,0.0008169335778802633,0.00030962610617280006,0.0017466444987803698
1782846395416295200,5.906295166015625,0.0015628847759217024,0.000321077648550272,0.002699523465707898
1782846395426300200,5.916300048828125,-0.0015071416273713112,0.0010368360672146082,0.0010952996090054512
1782846395436305400,5.926305419921875,-0.0017364398809149861,-0.00036531826481223106,0.000811939244158566
1782846395446310400,5.936310302734375,-0.0012411007191985846,0.0002376539632678032,-0.001489828573539853
1782846395456315400,5.9463154296875,-0.0003729101736098528,0.002117845695465803,-0.003516494296491146
1782846395466320400,5.9563203125,0.0023130816407501698,0.0011099003022536635,0.001888762228190899
1782846395476325400,5.966325439453125,0.0021405089646577835,0.0007634230423718691,-0.0014929196331650019
1782846395486330400,5.976330322265625,-0.001240560202859342,0.0000031047966331243515,0.0016156325582414865
1782846395496335400,5.98633544921875,0.00021006353199481964,0.0009200309868901968,-0.0007897345349192619
1782846395506339300,5.99633935546875,0.0009076080750674009,-0.0016662308480590582,0.00005038699600845575
1782846395516344300,6.00634423828125,-0.0004692462971433997,0.00007121521048247814,-0.00022072286810725927
1782846395526349300,6.016349365234375,-0.0009262437233701348,-0.00018461979925632477,0.0008300876943394542
1782846395536354300,6.026354248046875,-0.0024040318094193935,-0.00009007775224745274,-0.0014362623915076256
1782846395546359300,6.036359375,0.0007506420370191336,0.0006231991574168205,0.0007168799638748169
1782846395556364300,6.0463642578125,0.0012976552825421095,-0.0011810923460870981,-0.0026150010526180267
1782846395566369300,6.056369384765625,-0.0015308791771531105,-0.0028945032972842455,0.0010795023990795016
1782846395576374300,6.066374267578125,-0.00029517244547605515,0.0006672085728496313,-0.0002978844568133354
1782846395586379300,6.076379150390625,-0.0010784368496388197,0.0023270738311111927,-0.001490425900556147
1782846395596384300,6.08638427734375,-0.000713317422196269,-0.0024666162207722664,-0.0006808248581364751
1782846395606389200,6.09638916015625,0.00047063734382390976,0.0006596008315682411,0.0001052049919962883
1782846395616394200,6.106394287109375,0.000007247319445014,-0.0003995383158326149,0.0009696671040728688
1782846395626399200,6.116399169921875,0.0016389014199376106,0.0002869879826903343,0.002153094159439206
1782846395636404200,6.126404296875,0.0021345154382288456,-0.000848051393404603,-0.0010501560755074024
1782846395646409200,6.1364091796875,0.0008578363340348005,-0.0008454716298729181,-0.0023033232428133488
1782846395656413400,6.146413330078125,-0.00032407441176474094,-0.00154135562479496,-0.0012902566231787205
1782846395666418400,6.15641845703125,0.0010620318353176117,-0.0015361804980784655,0.0005737332976423204
1782846395676423000,6.1664228515625,0.0005459112580865622,0.0014715935103595257,-0.0018241768702864647
1782846395686428000,6.176427978515625,-0.0036758328787982464,-0.00151293003000319,0.0024777669459581375
1782846395696433000,6.186432861328125,-0.0003862963058054447,-0.0013478139881044626,0.0012492507230490446
1782846395706438000,6.19643798828125,-0.0006275828927755356,0.0010793963447213173,-0.0010733959497883916
1782846395716443000,6.20644287109375,-0.0015493029495701194,-0.001129962271079421,0.0020566172897815704
1782846395726447900,6.21644775390625,0.0007651075720787048,0.003340474795550108,-0.00039163848850876093
1782846395736452900,6.226452880859375,-0.0003187991678714752,0.0005822388920933008,0.00044299615547060966
1782846395746457900,6.236457763671875,-0.0008229628438130021,0.0010003694333136082,-0.0031881111208349466
1782846395756462800,6.246462890625,-0.0016749080969020724,0.001118880114518106,-0.0031526910606771708
1782846395766467800,6.2564677734375,0.0020815222524106503,-0.0002936054952442646,0.00040892563993111253
1782846395776472800,6.266472900390625,-0.0000740403775125742,0.000978586496785283,-0.0012454300886020064
1782846395786477800,6.276477783203125,-0.0013948712730780244,-0.00016024545766413212,0.0006059586885385215
1782846395796481800,6.286481689453125,-0.0024276450276374817,0.0018230106215924025,0.0006783966673538089
1782846395806486800,6.29648681640625,-0.0005927752936258912,0.0011217419523745775,0.0034504879731684923
1782846395816491800,6.30649169921875,0.0006953957490622997,-0.00046523567289114,-0.0005479820538312197
1782846395826496800,6.316496826171875,0.0007562693208456039,-0.0004579538945108652,0.0007607417646795511
1782846395836501800,6.326501708984375,0.0015834469813853502,-0.0007365203928202391,-0.000676832627505064
1782846395846506800,6.3365068359375,0.00005066557787358761,0.001175711047835648,-0.00015323073603212833
1782846395856511700,6.34651171875,0.0004040671046823263,0.00028328574262559414,-0.0007353977998718619
1782846395866516700,6.356516845703125,-0.0008160696597769856,-0.0007842255290597677,0.002665798645466566
1782846395876521700,6.366521728515625,-0.0011678732698783278,-0.002087310189381242,0.0013826875947415829
1782846395886526700,6.376526611328125,-0.003831685520708561,-0.00008085230365395546,0.000054911128245294094
1782846395896531700,6.38653173828125,-0.0003464065957814455,0.0010078479535877705,0.00036570208612829447
1782846395906536700,6.39653662109375,0.0036583011969923973,0.001014784211292863,-0.0004411473637446761
1782846395916541700,6.406541748046875,-0.002790277125313878,0.0008925450965762138,0.0026342710480093956
1782846395926546700,6.416546630859375,-0.0024366765283048153,0.00026158872060477734,0.0005332424771040678
1782846395936552000,6.426552001953125,0.0012861562427133322,-0.0027901274152100086,-0.004069498740136623
1782846395946556000,6.436555908203125,0.0003101907204836607,0.0008787063416093588,-0.00016508717089891434
1782846395956561000,6.446560791015625,0.0009805085137486458,-0.00004301359876990318,-0.0006678919307887554
1782846395966566000,6.45656591796875,-0.0014636169653385878,0.0008752283174544573,-0.0018702693050727248
1782846395976571000,6.46657080078125,-0.0029802871868014336,-0.0006710030138492584,0.001024320488795638
1782846395986576000,6.476575927734375,-0.0024939219001680613,-0.0009959922172129154,-0.00003032991662621498
1782846395996580900,6.486580810546875,-0.00009494624100625515,0.0005827294662594795,0.0016264226287603378
1782846396006585900,6.4965859375,0.0015693630557507277,0.0032536096405237913,0.0023746262304484844
1782846396016590800,6.5065908203125,0.0008431188762187958,-0.0026580754201859236,0.0031344261951744556
1782846396026595800,6.516595947265625,0.00015339255332946777,0.0006151467096060514,-0.0011558400001376867
1782846396036600800,6.526600830078125,-0.002454108325764537,-0.0006802149582654238,0.00021195964654907584
1782846396046605800,6.536605712890625,-0.0000811705831438303,0.00008101295679807663,-0.0005847396096214652
1782846396056610800,6.54661083984375,-0.00037331925705075264,-0.00177094922401011,-0.00007820629980415106
1782846396066615800,6.55661572265625,0.0010863246861845255,0.000615220982581377,0.0012685342226177454
1782846396076620800,6.566620849609375,0.000022658146917819977,0.0004493060987442732,-0.00123430450912565
1782846396086624800,6.576624755859375,0.0013716351240873337,-0.0013271612115204334,-0.0009216776816174388
1782846396096629800,6.586629638671875,-0.0015418629627674818,-0.0021239789202809334,0.0008149696514010429
1782846396106634800,6.596634765625,0.0032449092250317335,-0.000760749913752079,-0.0014180109137669206
1782846396116639700,6.6066396484375,-0.0017461210954934359,0.0016603297553956509,0.0033125621266663074
1782846396126644700,6.616644775390625,0.000914926640689373,0.0018715586047619581,0.0016689295880496502
1782846396136649700,6.626649658203125,-0.001274191658012569,0.0007700752466917038,-0.0009361745323985815
1782846396146654700,6.63665478515625,0.001292394008487463,-0.00019305315800011158,-0.001158936764113605
1782846396156660000,6.646659912109375,0.0008649567607790232,-0.00030037853866815567,-0.0007645225850865245
1782846396166665000,6.6566650390625,0.0009176968596875668,0.0017745118821039796,-0.0003470194060355425
1782846396176670000,6.666669921875,-0.0009473147802054882,-0.0015104974154382944,0.0015771144535392523
1782846396186675000,6.676675048828125,-0.0002489809412509203,-0.0003686200361698866,0.0006274899933487177
1782846396196680000,6.686679931640625,-0.0006849404890090227,0.0023725717328488827,0.0024197972379624844
1782846396206685000,6.696684814453125,-0.00025485106743872166,0.000641167163848877,-0.001803641440346837
1782846396216690000,6.70668994140625,0.00031240214593708515,-0.0009985410142689943,-0.0011482376139611006
1782846396226693600,6.716693603515625,-0.0007979826768860221,-0.0019415481947362423,-0.0009906281484290957
1782846396236698600,6.72669873046875,0.0006579675246030092,-0.000910638365894556,-0.002442317083477974
1782846396246703600,6.73670361328125,-0.00017180969007313251,-0.0005320487543940544,-0.0012863927986472845
1782846396256708900,6.746708984375,-0.0015603819629177451,0.0024275220930576324,0.00046916294377297163
1782846396266713900,6.7567138671875,0.00030859350226819515,-0.00107026775367558,-0.0009022570447996259
1782846396276718800,6.76671875,0.0008542751893401146,-0.0015123521443456411,-0.00017894257325679064
1782846396286723800,6.776723876953125,0.0010784687474370003,0.00012427871115505695,-0.0013007959350943565
1782846396296728800,6.786728759765625,0.0005378471687436104,0.0001919229980558157,0.0003735334030352533
1782846396306733800,6.79673388671875,-0.00016812561079859734,-0.0003325871657580137,0.0001459512859582901
1782846396316738800,6.80673876953125,0.00005158525891602039,-0.0009653540328145027,0.0004151968751102686
1782846396326743800,6.816743896484375,-0.0005144552560523152,0.0007516120094805956,0.0006005163304507732
1782846396336748800,6.826748779296875,-0.0015791869955137372,-0.0002755692694336176,-0.0011212172685191035
1782846396346753800,6.83675390625,-0.0013166932621970773,-0.0013444796204566956,-0.0013533344026654959
1782846396356758800,6.8467587890625,0.0002750782296061516,-0.0030025639571249485,0.00017665175255388021
1782846396366762800,6.8567626953125,0.0015134820714592934,-0.0007801875472068787,-0.0006137677701190114
1782846396376767700,6.866767822265625,-0.00018481560982763767,-0.0009732667822390795,0.0036880364641547203
1782846396386772700,6.876772705078125,0.000365173676982522,-0.0016575572080910206,0.00008466118015348911
1782846396396777700,6.88677783203125,-0.0015544327907264233,0.0008482111152261496,-0.0005086911842226982
1782846396406782700,6.89678271484375,-0.001885712263174355,-0.0007750443182885647,-0.0010905562667176127
1782846396416787700,6.90678759765625,-0.0017866425914689898,0.0013411034597083926,0.0005843057297170162
1782846396426793000,6.91679296875,-0.0014471530448645353,-0.00010659522376954556,0.0006805941229686141
1782846396436798000,6.9267978515625,0.0012711354065686464,0.0007466815877705812,0.001486732973717153
1782846396446803000,6.936802978515625,0.001991738099604845,-0.0001881052739918232,0.0000526040093973279
1782846396456808000,6.946807861328125,-0.00013373070396482944,-0.001434997422620654,0.0003854991518892348
1782846396466813000,6.95681298828125,0.0014506422448903322,0.0006431569345295429,-0.001164897927083075
1782846396476818000,6.96681787109375,-0.002209339989349246,0.00030440278351306915,-0.0008948532631620765
1782846396486823000,6.976822998046875,0.0033851542975753546,0.0019326407928019762,-0.0025763509329408407
1782846396496828000,6.986827880859375,-0.0014945556176826358,0.0012205115053802729,-0.001288978848606348
1782846396506831600,6.99683154296875,0.000034581637009978294,-0.00001683039590716362,0.00020763755310326815
1782846396516836600,7.006836669921875,-0.0008738224860280752,-0.0016259122639894485,0.0003794114454649389
1782846396526841600,7.016841552734375,-0.00021845242008566856,-0.0023615744430571795,-0.0004296167753636837
1782846396536846600,7.0268466796875,0.0017517542000859976,0.0030627520754933357,0.003255931893363595
1782846396546851600,7.0368515625,0.0006196808535605669,0.0016016635345295072,0.001382224727421999
1782846396556856600,7.046856689453125,0.00039650779217481613,-0.0005075600929558277,-0.001311030238866806
1782846396566861600,7.056861572265625,-0.00033201510086655617,0.002138040028512478,-0.0012862712610512972
1782846396576866600,7.066866455078125,0.0025764231104403734,0.00040938216261565685,0.0013281538849696517
1782846396586871600,7.07687158203125,0.0010381778702139854,-0.0008406299166381359,0.00020946800941601396
1782846396596876800,7.086876708984375,-0.0002071161288768053,0.0007711153011769056,0.0012997661251574755
1782846396606881800,7.0968818359375,-0.0025013918057084084,0.00021394598297774792,0.0005832226597703993
1782846396616886800,7.10688671875,-0.00028297852259129286,-0.001237210351973772,0.0008364892564713955
1782846396626891800,7.116891845703125,0.0002891852054744959,0.0011981145944446325,-0.0008181504672393203
1782846396636895700,7.126895751953125,0.0015027876943349838,-0.0017324276268482208,-0.002302063861861825
1782846396646900700,7.136900634765625,0.0009331244509667158,0.0017024698900058866,0.0009922723984345794
1782846396656905700,7.14690576171875,0.0027826896402984858,-0.0006485686171799898,-0.0006943074986338615
1782846396666910700,7.15691064453125,-0.0026214970275759697,-0.0002510554622858763,0.003390857484191656
1782846396676915700,7.166915771484375,0.00011783046647906303,-0.00022708694450557232,-0.00030853936914354563
1782846396686920700,7.176920654296875,0.00013610883615911007,0.00007035327143967152,0.0022019827738404274
1782846396696925700,7.18692578125,0.0008738045580685139,-0.0021957303397357464,-0.00014239782467484474
1782846396706930700,7.1969306640625,0.0011675399728119373,0.003046218305826187,-0.0010340367443859577
1782846396716935700,7.206935791015625,0.0009709987789392471,0.0010067694820463657,-0.0019416420254856348
1782846396726940700,7.216940673828125,-0.0002706398954614997,-0.0011713686399161816,-0.00022219715174287558
1782846396736945700,7.226945556640625,-0.0007990109734237194,-0.002555413171648979,-0.0004988996079191566
1782846396746950700,7.23695068359375,-0.0008810058934614062,-0.0021921200677752495,0.001420263317413628
1782846396756955600,7.24695556640625,0.002425308572128415,0.0030593671835958958,0.0013254547957330942
1782846396766959600,7.256959716796875,0.0010745576582849026,0.0019467861857265234,-0.0006343387067317963
1782846396776964600,7.266964599609375,0.0012852137442678213,-0.0014572665095329285,-0.0015382155543193221
1782846396786969600,7.276969482421875,0.0002838768996298313,0.00007996475324034691,0.0015745030250400305
1782846396796974600,7.286974609375,-0.000151017215102911,-0.0016540193464607,0.0013422754127532244
1782846396806979600,7.2969794921875,-0.0024881602730602026,-0.0019286810420453548,0.002297272440046072
1782846396816984600,7.306984619140625,0.0021686432883143425,-0.0007680756971240044,0.0005451787146739662
1782846396826989600,7.316989501953125,-0.0007040027994662523,0.0002446039579808712,-0.0003059961600229144
1782846396836994600,7.32699462890625,0.0006752484478056431,-0.0016100213397294283,-0.0015177344903349876
1782846396846999600,7.33699951171875,0.0030810991302132607,0.0004153153859078884,0.000016980688087642193
1782846396857004500,7.347004638671875,-0.000283005996607244,-0.0016899134498089552,-0.0004498715279623866
1782846396867009500,7.357009521484375,-0.0009975353023037314,-0.0005667589139193296,0.0005657235742546618
1782846396877014500,7.3670146484375,-0.0020201890729367733,-0.0007955243345350027,-0.002385058905929327
1782846396887019500,7.37701953125,-0.000327406101860106,0.0005149736534804106,-0.0035379850305616856
1782846396897023700,7.387023681640625,0.0008800711948424578,-0.000032039592042565346,-0.0013099844800308347
1782846396907028700,7.39702880859375,0.00012410501949489117,0.0007650998886674643,-0.0013478563632816076
1782846396917033700,7.40703369140625,-0.0002841574605554342,-0.0002815225161612034,0.0019960086792707443
1782846396927038700,7.417038818359375,0.0005564172752201557,-0.00144091690890491,-0.00008108874317258596
1782846396937043700,7.427043701171875,0.0010941093787550926,-0.00027498509734869003,-0.0007383569609373808
1782846396947048700,7.437048583984375,0.00047494261525571346,-0.002351190894842148,-0.0020123545546084642
1782846396957053700,7.4470537109375,0.0010134337935596704,-0.0001506209373474121,0.00032430305145680904
1782846396967058700,7.45705859375,-0.0027094779070466757,-0.0009147846139967442,0.0026134043000638485
1782846396977063700,7.467063720703125,0.0018160315230488777,0.0010650092735886574,0.0023020808584988117
1782846396987068700,7.477068603515625,0.0008268840610980988,-0.0003361611161381006,0.0004991982714273036
1782846396997073700,7.48707373046875,0.000622086925432086,-0.0015188709367066622,0.0006834890227764845
1782846397007078700,7.49707861328125,-0.002568822121247649,0.0009521215688437223,0.0005819895304739475
1782846397017083600,7.507083740234375,0.00009194202721118927,0.0002088332548737526,-0.0019325672183185816
1782846397027087600,7.517087646484375,-0.0016291179927065969,-0.0008025683928281069,-0.0000512230908498168
1782846397037092600,7.527092529296875,0.00023908959701657295,0.0024771145544946194,-0.001217953977175057
1782846397047097600,7.53709765625,-0.0006475051632151008,0.0009986991062760353,-0.0012371625052765012
1782846397057102600,7.5471025390625,-0.00008371402509510517,0.002190463710576296,0.0014086879091337323
1782846397067107600,7.557107666015625,-0.0002122335135936737,-0.00043309014290571213,-0.0025888069067150354
1782846397077112600,7.567112548828125,-0.001608795253559947,-0.00241368287242949,-0.0008604153990745544
1782846397087117600,7.57711767578125,0.0009866028558462858,0.00004209345206618309,0.00017631961964070797
1782846397097122600,7.58712255859375,0.0006587677635252476,-0.00015418161638081074,0.0002450291649438441
1782846397107127600,7.59712744140625,-0.0006279721856117249,-0.0005619318690150976,-0.0010976229095831513
1782846397117132500,7.607132568359375,0.002304434310644865,-0.00037284730933606625,-0.0009468878852203488
1782846397127137500,7.617137451171875,0.00005578435957431793,-0.000041538383811712265,-0.0012467069318518043
1782846397137142800,7.627142822265625,0.004907265305519104,0.000818928936496377,-0.0013590921880677342
1782846397147147800,7.637147705078125,0.00036639347672462463,0.0001851601991802454,-0.00015435682144016027
1782846397157151500,7.6471513671875,-0.0005334886955097318,0.0010528180282562971,0.0016339558642357588
1782846397167156500,7.657156494140625,-0.0001656683161854744,0.0007832092233002186,-0.0005012493347749114
1782846397177161700,7.66716162109375,0.0011390142608433962,-0.002544943243265152,-0.0007289496716111898
1782846397187166700,7.677166748046875,-0.000040222425013780594,-0.0016282859724014997,0.0002186392666772008
1782846397197171700,7.687171630859375,-0.0009832476498559117,0.0006247481796890497,-0.002107631880789995
1782846397207176700,7.6971767578125,-0.0032243975438177586,-0.0005634024273604155,-0.001225554384291172
1782846397217181700,7.707181640625,0.0007192115299403667,-0.00012398092076182365,-0.001320096431300044
1782846397227186700,7.717186767578125,0.002579750958830118,0.00019442220218479633,0.0009535396820865571
1782846397237191700,7.727191650390625,0.0017776070162653923,-0.0010628560557961464,-0.001060875365510583
1782846397247196700,7.73719677734375,-0.0015926044434309006,-0.000017238780856132507,0.0006717130308970809
1782846397257201700,7.74720166015625,-0.002769988030195236,-0.0012039430439472198,-0.003423962276428938
1782846397267206700,7.75720654296875,-0.0009811990894377232,-0.0021352905314415693,0.0025015748105943203
1782846397277211600,7.767211669921875,-0.0003697373904287815,-0.0004601620603352785,-0.002346177352592349
1782846397287215400,7.77721533203125,0.00024264934472739697,-0.00022838683798909187,-0.0012921140296384692
1782846397297220400,7.787220458984375,0.0005963172297924757,-0.00004436238668859005,-0.0012188769178465009
1782846397307225300,7.797225341796875,0.00020837667398154736,0.0010233838111162186,0.0008064800640568137
1782846397317230300,7.807230224609375,-0.0014422504464164376,-0.0009574752766638994,-0.0023443056270480156
1782846397327235600,7.817235595703125,-0.0009912102250382304,-0.0016582254320383072,0.0005782095831818879
1782846397337240600,7.827240478515625,0.0008298594038933516,0.0003532601986080408,0.0016445391811430454
1782846397347245600,7.83724560546875,-0.0008137829136103392,-0.00018345750868320465,-0.00029351154807955027
1782846397357250800,7.847250732421875,0.002138864016160369,-0.0021193092688918114,0.0012005218304693699
1782846397367255800,7.857255859375,0.001399611821398139,-0.00034146313555538654,-0.00015441025607287884
1782846397377260800,7.8672607421875,-0.00008936156518757343,-0.0003300115931779146,-0.00006199860945343971
1782846397387265800,7.877265869140625,-0.0014249810483306646,0.001958924811333418,0.0007766399066895247
1782846397397270800,7.887270751953125,0.0013516305480152369,0.000018545659258961678,-0.005609886720776558
1782846397407274500,7.8972744140625,0.0012787478044629097,-0.00047692470252513885,-0.002545152558013797
1782846397417279500,7.907279541015625,-0.003667807672172785,0.00009405706077814102,-0.0009318096563220024
1782846397427284500,7.917284423828125,-0.0003463355824351311,0.00031379773281514645,0.0008574854582548141
1782846397437289500,7.92728955078125,-0.0008249056991189718,-0.0003471989184617996,0.0011035616043955088
1782846397447294500,7.93729443359375,-0.0009458455024287105,-0.0009905481711030006,-0.0019977963529527187
1782846397457299500,7.947299560546875,0.0006070437375456095,0.0008483647834509611,0.0004355337587185204
1782846397467304400,7.957304443359375,0.0008477845694869757,0.00016447436064481735,0.0017776519525796175
1782846397477309400,7.967309326171875,0.0015109118539839983,0.001751718227751553,-0.0007928310660645366
1782846397487314400,7.977314453125,0.00023437943309545517,0.0011447521392256021,-0.0014279605820775032
1782846397497319400,7.9873193359375,-0.00003673043102025986,0.0014571408974006772,-0.004571822006255388
1782846397507324700,7.99732470703125,-0.00103230238892138,0.0012402308639138937,-0.0003894767723977566
1782846397517329700,8.00732958984375,-0.0011588025372475386,0.001173385651782155,-0.0019919006153941154
1782846397527334700,8.017334716796874,-0.0007238694233819842,0.0003460138104856014,0.00032802222995087504
1782846397537338400,8.02733837890625,0.0009456663392484188,-0.0008473489433526993,-0.0013588240835815668
1782846397547343600,8.037343505859376,0.0005723794456571341,0.002351227216422558,-0.00008219887968152761
1782846397557348600,8.0473486328125,-0.000623646192252636,0.0003573186695575714,0.00026108260499313474
1782846397567353600,8.057353515625,-0.00012479978613555431,-0.00033885124139487743,0.0015245168469846249
1782846397577358600,8.067358642578125,0.00004457728937268257,-0.0009383289143443108,-0.0013322561280801892
1782846397587363600,8.077363525390625,0.0001599472016096115,-0.00039635831490159035,-0.00024235108867287636
1782846397597368600,8.08736865234375,-0.0004757493734359741,-0.0019212844781577587,0.00025459477910771966
1782846397607373600,8.09737353515625,0.0003652272280305624,-0.00021922471933066845,0.002181346993893385
1782846397617378600,8.107378662109374,0.0014906791038811207,0.0017733525019139051,0.00013417517766356468
1782846397627383600,8.117383544921875,-0.0012043623719364405,-0.002079293131828308,-0.001121064182370901
1782846397637388500,8.127388427734376,0.001863865414634347,-0.002112316433340311,-0.0011460979003459215
1782846397647393500,8.1373935546875,0.00155019317753613,0.0018098329892382026,0.001827009255066514
1782846397657397500,8.1473974609375,0.0033789859153330326,-0.00004985230043530464,0.0004251213395036757
1782846397667402500,8.157402587890624,0.0013920727651566267,-0.00031095813028514385,0.0005838482175022364
1782846397677408800,8.16740869140625,-0.00018558395095169544,-0.0014281540643423796,0.0016411232063546777
1782846397687413800,8.177413818359375,0.001032975036650896,-0.0003506231587380171,0.0011711971601471305
1782846397697418800,8.187418701171875,0.0013943659141659737,-0.00015594623982906342,0.00312728900462389
1782846397707423700,8.197423828125,-0.0002855719067156315,-0.0005316801834851503,-0.0007847965462133288
1782846397717428700,8.2074287109375,0.0011474750936031342,0.002744806930422783,0.00010682980064302683
1782846397727433700,8.217433837890624,0.00012689759023487568,0.0037151521537452936,0.00008008722215890884
1782846397737438700,8.227438720703125,0.00037244101986289024,0.0007454613223671913,0.0011733148712664843
1782846397747443700,8.237443603515626,0.0006023822352290154,-0.00212783832103014,-0.002382120583206415
1782846397757448700,8.24744873046875,0.0002966513857245445,-0.001036741305142641,-0.00006437150295823812
1782846397767453700,8.25745361328125,-0.0017534818034619093,0.00056636449880898,-0.0011384517420083284
1782846397777457700,8.267457763671874,0.0006683969404548407,0.0005258845631033182,-0.000461742514744401
1782846397787462700,8.277462646484375,0.0012423256412148476,-0.0015742871910333633,0.0005737071624025702
1782846397797467600,8.287467529296874,-0.0018075263360515237,0.00039831618778407574,-0.00025799800641834736
1782846397807472600,8.29747265625,0.00016252277418971062,-0.0007971359882503748,-0.0011758888140320778
1782846397817477600,8.3074775390625,-0.0015429655322805047,0.0005083456635475159,0.0029669245705008507
1782846397827482600,8.317482666015625,0.0005182942841202021,-0.0014928572345525026,0.0019528064876794815
1782846397837487600,8.327487548828126,0.001726304180920124,-0.0015173584688454866,-0.00048025744035840034
1782846397847492600,8.33749267578125,-0.0019136094488203526,-0.0007415490690618753,0.0015728635480627418
1782846397857497600,8.34749755859375,-0.002293376252055168,-0.001389762619510293,0.0013899044133722782
1782846397867502600,8.357502685546875,0.00022299611009657383,0.0013502170331776142,0.0005455095670185983
1782846397877507600,8.367507568359375,-0.0008681010222062469,-0.0009861739818006754,-0.0017690437380224466
1782846397887512600,8.3775126953125,-0.0019272807985544205,-0.0007233209908008575,0.0011722528142854571
1782846397897516800,8.387516845703125,0.00011616270057857037,0.00012942333705723286,0.0013706582831218839
1782846397907521800,8.397521728515626,-0.000039093662053346634,-0.000980868237093091,0.004568740725517273
1782846397917526800,8.40752685546875,-0.0011118148686364293,0.0007669641636312008,0.0017117017414420843
1782846397927531800,8.41753173828125,-0.002609139308333397,0.0029474464245140553,-0.00007278216071426868
1782846397937536800,8.427536865234375,-0.0000013718381524085999,0.0007804322522133589,-0.0008941009873524308
1782846397947541800,8.437541748046876,0.001204389613121748,-0.0011506606824696064,0.0007177452207542956
1782846397957546800,8.447546630859375,0.0019487431272864342,0.000006749294698238373,0.0007462410721927881
1782846397967551700,8.4575517578125,0.00009699701331555843,0.0007484368979930878,-0.0011921229306608438
1782846397977556700,8.467556640625,-0.0011099475668743253,-0.0006124384235590696,-0.000335383927449584
1782846397987561700,8.477561767578125,-0.001579816685989499,-0.0013813930563628674,-0.00028221902903169394
1782846397997566700,8.487566650390624,-0.00009696860797703266,0.0016942914808169007,0.0002275099977850914
1782846398007571700,8.49757177734375,-0.00024336902424693108,0.00020791380666196346,0.0005013660411350429
1782846398017575400,8.507575439453126,0.0011033914051949978,0.0031954478472471237,0.0024103198666125536
1782846398027580400,8.517580322265625,-0.0008328486001119018,-0.0003509416710585356,0.0006276893545873463
1782846398037585700,8.527585693359375,0.0005541257560253143,0.0009926229249686003,0.00029985420405864716
1782846398047590700,8.537590576171874,0.0005183240864425898,-0.0005031807813793421,0.00035621185088530183
1782846398057595600,8.547595703125,0.0019457784947007895,-0.0004070405848324299,0.002177281305193901
1782846398067600600,8.5576005859375,-0.00010897219181060791,0.0005986513569951057,-0.00006212142761796713
1782846398077605600,8.567605712890625,0.0006289896555244923,0.0007592400070279837,0.000038279686123132706
1782846398087610600,8.577610595703124,-0.0019477412570267916,-0.002551317447796464,0.000004392815753817558
1782846398097615600,8.58761572265625,-0.0013234963407739997,-0.0012628801632672548,0.0013663334539160132
1782846398107620600,8.59762060546875,-0.002327290130779147,-0.0023991165217012167,-0.0023099540267139673
1782846398117625600,8.60762548828125,-0.000428456231020391,0.0026097570080310106,-0.0012153948191553354
1782846398127630600,8.617630615234376,-0.0016622582916170359,-0.0006937745492905378,-0.0006025496404618025
1782846398137634600,8.627634521484374,-0.0014276336878538132,0.00037362053990364075,-0.00021426077000796795
1782846398147639600,8.6376396484375,-0.0013915564632043242,-0.00020689470693469048,-0.0009790033800527453
1782846398157644500,8.64764453125,-0.001995028695091605,0.08112125098705292,0.040047258138656616
1782846398167649500,8.6576494140625,-0.011582381092011929,0.025581607595086098,0.005613693036139011
1782846398177654500,8.667654541015626,0.00383678893558681,-0.04970116168260574,-0.009423313662409782
1782846398187659500,8.677659423828125,0.005502421408891678,-0.036233898252248764,-0.003425176255404949
1782846398197664500,8.68766455078125,-0.0021637538447976112,-0.11213479191064835,-0.02692437544465065
1782846398207669800,8.697669677734375,0.002069996204227209,0.001987911993637681,0.005016387440264225
