time,seconds_elapsed,z,y,x
1782846178619766000,0.06476611328125,0.03456219481527805,0.007534980348404496,-0.012558927723951637
1782846178629771000,0.07477099609375,0.09830781401693821,0.01376344467550516,0.008142837447905912
1782846178639776000,0.08477587890625,0.13078852638304234,0.013912936148792505,0.004422766612004489
1782846178649781000,0.094781005859375,0.07976093445718288,0.029648904739972202,-0.01675123516450403
1782846178659786000,0.104785888671875,0.05402092852294445,0.021181283183954656,-0.024721056416351347
1782846178669791000,0.114791015625,0.10280512543618678,0.015839428965654222,-0.0020054489377420394
1782846178679796000,0.1247958984375,0.10220891310870647,0.03032716932771727,-0.008554754133487585
1782846178689801000,0.134801025390625,0.07407587455809116,0.009245693256426601,-0.019922841804788913
1782846178699806000,0.144805908203125,0.0999631800085306,0.013123813331406563,-0.017905681879655456
1782846178709811000,0.15481103515625,0.12451017676591872,0.015980682333558798,0.018022266597184353
1782846178719816000,0.16481591796875,0.09323884018957615,0.008379267419129609,0.02067650743301492
1782846178729821000,0.174821044921875,0.06540449232459068,0.007072696598898619,-0.02418041020100936
1782846178739826000,0.184825927734375,0.08904548015296458,0.010428929957933724,0.005255831319105345
1782846178749831000,0.194830810546875,0.10475976663529872,0.015886026320047677,0.002904573751532007
1782846178759836000,0.2048359375,0.0823129570275545,0.0026088855904527006,-0.003696881756559014
1782846178769841000,0.2148408203125,0.08081658098995685,0.0027416816572658717,0.005684890935732983
1782846178779846000,0.224845947265625,0.10954875447750091,0.010325524382386356,-0.00019041257214266806
1782846178789851000,0.234850830078125,0.10176993716955185,0.004396517925895751,0.008474261359358207
1782846178799855900,0.24485595703125,0.07738193036615848,0.012037041008006781,0.0061157794665545225
1782846178809860900,0.25486083984375,0.08696107509434223,0.017158366077113896,-0.013637703970563598
1782846178819865900,0.264865966796875,0.10027823730707168,0.01977011947808787,-0.003600383129122201
1782846178829870800,0.274870849609375,0.08351531855463981,-0.004338084003236145,-0.00019128478839993475
1782846178839875800,0.284875732421875,0.10476268924474716,0.015138258426357059,-0.017181817734648937
1782846178849880800,0.294880859375,0.10101999558508395,0.01731156561113894,-0.0036537390178651547
1782846178859885800,0.3048857421875,0.09787819042801857,0.008785711061861365,-0.004701247909956146
1782846178869890800,0.314890869140625,0.09592997896969317,0.016998225345648824,-0.00834257953739725
1782846178879895800,0.324895751953125,0.08216624203324317,0.014627696822024881,-0.008351587111048865
1782846178889900800,0.33490087890625,0.10401508574783802,0.012012966012675314,0.0038996834528166797
1782846178899906000,0.344906005859375,0.09847732536494731,0.008762914708163589,-0.013715577812632544
1782846178909911000,0.3549111328125,0.0836596954613924,0.008152929583657532,-0.021354472909949254
1782846178919916000,0.364916015625,0.0911404066056013,0.005389145692437887,-0.006507470781437587
1782846178929921000,0.374921142578125,0.1107435172200203,0.008329108134470879,0.021326386176492088
1782846178939926000,0.384926025390625,0.0909925225675106,0.01709837951818481,-0.006293528919946402
1782846178949931000,0.394930908203125,0.09323825566768645,-0.0020983970513567328,-0.011268214343267026
1782846178959936000,0.40493603515625,0.09937281289994716,-0.0028126828005537387,-0.007985276832594536
1782846178969941000,0.41494091796875,0.09892448461055756,0.005857219861913472,-0.00859234163094079
1782846178979946000,0.424946044921875,0.08949556200802326,0.0032449184716679155,-0.000740086910733953
1782846178989951000,0.434950927734375,0.08664777136147021,-0.006724394617881625,0.012525187567842658
1782846178999956000,0.4449560546875,0.07767009965777397,0.003591960077360272,0.007535249776463024
1782846179009961000,0.4549609375,0.08785013288855552,0.007898479898553341,0.0011909656335250473
1782846179019966000,0.464966064453125,0.08695230726599693,0.00833586666882038,-0.003488670949533116
1782846179029971000,0.474970947265625,0.09084346948564052,0.0071105991901829835,0.010458665225782897
1782846179039976000,0.484975830078125,0.08545534670650959,0.0008645992063917219,-0.013516392845567314
1782846179049981000,0.49498095703125,0.08051905934810638,0.012640742522198706,-0.02423360169297084
1782846179059986000,0.50498583984375,0.0897983443468809,0.016573332730773837,-0.008980119389109312
1782846179069991000,0.514990966796875,0.09398527464270591,0.010710523378290236,-0.005384373619197868
1782846179079996000,0.524995849609375,0.07468143923580646,0.017027853298932312,-0.013452405964955687
1782846179090001000,0.5350009765625,0.08545651575028895,0.031634452534001316,-0.004294201479025651
1782846179100006000,0.545005859375,0.09997253235876559,0.013751918634492903,0.0058655310325324535
1782846179110011000,0.555010986328125,0.08650573254227638,0.00907042802106589,-0.028148877723852637
1782846179120016000,0.565015869140625,0.09608429274857044,0.010497666078899055,-0.015291464810247998
1782846179130020900,0.575020751953125,0.07783084317743778,0.005324775219336152,0.007579495343565941
1782846179140025900,0.58502587890625,0.09204758457839489,0.014253913339879363,0.010333273864001966
1782846179150030800,0.59503076171875,0.0935457141816616,-0.005283694290276616,-0.0016390998433809727
1782846179160035800,0.605035888671875,0.08397066110670566,-0.009394508876278997,0.0077613821159582584
1782846179170040800,0.615040771484375,0.09160159437656402,0.002270228220615536,0.005222641435556579
1782846179180045800,0.6250458984375,0.09280103329420089,0.010677844951394944,-0.004014281709236092
1782846179190050800,0.63505078125,0.10028232896029948,0.004282079499680549,-0.006310135278163943
1782846179200055800,0.645055908203125,0.09833704011142254,0.003717248691152781,-0.004196020067867357
1782846179210060800,0.655060791015625,0.08831073613762855,0.012411061952169984,0.001557830751116853
1782846179220065800,0.665065673828125,0.09414543364048003,0.004089881395827979,0.008764074618788436
1782846179230070800,0.67507080078125,0.10746318037509918,0.0013669409716501831,0.009213978377333842
1782846179240075800,0.68507568359375,0.08695990605056285,-0.0029660832639783617,-0.013526357117155566
1782846179250080800,0.695080810546875,0.07454056946039199,0.007797759470436721,-0.0043007134182029404
1782846179260085800,0.705085693359375,0.09459083932042121,0.0014030899972654878,-0.006886366546829231
1782846179270090800,0.7150908203125,0.09998013114333153,0.014935210134927183,0.00015743731772527097
1782846179280095700,0.725095703125,0.09713701667189598,0.023448552262503652,-0.014001625929109286
1782846179290100700,0.735100830078125,0.09683715694248676,0.005793817503191531,0.0060522309773601585
1782846179300105700,0.745105712890625,0.10042670586705207,0.0048546004243195055,-0.005075994939904194
1782846179310110700,0.75511083984375,0.09833470202386378,0.007262447017338127,-0.0033028340878081507
1782846179320115700,0.76511572265625,0.09071019849479198,0.014733184756804256,-0.0070929265361744905
1782846179330120700,0.77512060546875,0.08173895653188228,0.008601075209956616,-0.00829684754939517
1782846179340125700,0.785125732421875,0.10208908612132071,0.003991864381451159,0.003213637417415157
1782846179350130700,0.795130615234375,0.0946048678457737,0.011138028075359761,-0.013739668790984432
1782846179360135700,0.8051357421875,0.08757014690339565,0.006544471473712473,0.0036249102156027217
1782846179370140700,0.815140625,0.08966156622469425,0.01373529629325494,0.003585457271337509
1782846179380145700,0.825145751953125,0.08861118038892746,0.0027950010133907196,-0.006351481068704742
1782846179390151000,0.83515087890625,0.09519523495435714,-0.0009351254256442188,0.01165573408982018
1782846179400156000,0.845156005859375,0.06930734498202801,0.0043152328506112095,-0.012071498116746078
1782846179410161000,0.855160888671875,0.0820253722578287,0.017082341698836535,-0.01860784336621873
1782846179420166000,0.865165771484375,0.0761912592768669,0.011918949319981038,-0.002765147014532704
1782846179430171100,0.875171142578125,0.0917547391116619,0.006929415670689195,-0.0064249253308284095
1782846179440176000,0.885176025390625,0.08741174147129058,0.006188424577657133,-0.008713381044589914
1782846179450181000,0.89518115234375,0.08442074296176433,0.012517189207766205,-0.013434119106305297
1782846179460186400,0.905186279296875,0.09130816438794136,0.016246511929202824,-0.006202676865295507
1782846179470191400,0.91519140625,0.09070786040723323,0.017820939905382693,-0.006366619272332173
1782846179480196400,0.9251962890625,0.09594517653882503,0.006440864968765526,-0.0031946701387525534
1782846179490201300,0.935201416015625,0.09594459201693534,-0.004905947019066661,-0.002161214888188988
1782846179500206300,0.945206298828125,0.09354863679111003,0.001146631018165499,-0.01792911755417008
1782846179510211300,0.95521142578125,0.09683891050815582,0.006164495712798089,-0.0011897509239730424
1782846179520216300,0.96521630859375,0.10012743065953254,0.0093033965267241,0.013735940180649048
1782846179530221300,0.97522119140625,0.08815817592442035,0.008789583519380539,-0.00308004219958093
1782846179540226300,0.985226318359375,0.09564473228752612,0.0033808198110200464,-0.004365440084331203
1782846179550231300,0.995231201171875,0.08666822962760924,0.007482848302368074,0.007772517714614514
1782846179560236300,1.005236328125,0.09220599001049995,0.009833156021870673,-0.003680464911297895
1782846179570241300,1.0152412109375,0.09669102647006511,0.0011912190785631537,-0.00932575220571598
1782846179580246300,1.025246337890625,0.07723872250318527,0.013268226770777254,-0.0022997671256423926
1782846179590251300,1.035251220703125,0.0793330644339323,0.004786065232753754,-0.00810508098709397
1782846179600256300,1.04525634765625,0.09788929634392261,-0.004570760247949511,-0.012079183666280004
1782846179610261200,1.05526123046875,0.08786591497957706,0.01790282776886597,-0.009818593206978402
1782846179620266200,1.065266357421875,0.10373042358756064,0.012696874889917671,-0.025624005738599225
1782846179630271200,1.075271240234375,0.08098667685985565,0.013536759780161082,-0.001315662875561975
1782846179640276200,1.085276123046875,0.1016407578319311,0.014261786119081079,0.0013384637958370148
1782846179650281200,1.09528125,0.08577508018016815,0.011733820277731864,-0.010849819967837538
1782846179660286200,1.1052861328125,0.10208616351187229,0.006312270153034478,-0.009469706704071722
1782846179670291200,1.115291259765625,0.10058978747427463,0.016352456521708518,-0.006311032610596157
1782846179680296200,1.125296142578125,0.1028349360525608,0.002848302103206515,-0.009751245325501076
1782846179690301200,1.13530126953125,0.09624971244335175,0.003933247795701027,-0.009200486424809787
1782846179700306200,1.14530615234375,0.09355623557567595,-0.001432754483167082,0.016375223192654085
1782846179710311200,1.155311279296875,0.09490297400951385,0.001842120735347271,0.007516821353917475
1782846179720316200,1.165316162109375,0.07769815670847892,0.010076061399653554,-0.004714445318246725
1782846179730322400,1.175322509765625,0.09476093519032001,0.010341050745081156,-0.0034545380677795034
1782846179740327400,1.185327392578125,0.09191898976266384,0.00878857887238264,-0.0033209405666566453
1782846179750332400,1.19533251953125,0.08084756065011024,0.011709434755146502,0.016219872800738083
1782846179760337400,1.20533740234375,0.08443594053089618,0.003456332732643932,-0.014229235556349158
1782846179770342400,1.21534228515625,0.09565759176909923,0.005605893715657294,-0.000623161983198952
1782846179780347400,1.225347412109375,0.11241408078074455,0.003947130190581083,-0.011985100758215413
1782846179790352400,1.235352294921875,0.08323825517892837,0.015303860784228891,-0.018379384355607906
1782846179800357400,1.245357421875,0.07725567363798617,0.02952851149700582,0.019210505984083283
1782846179810362400,1.2553623046875,0.08085106778144836,0.004038132942281663,-0.003849773046618793
1782846179820367400,1.265367431640625,0.09327274245917797,0.01382224392434582,0.010731251072487792
1782846179830372400,1.275372314453125,0.09147709121406078,0.017264493332710115,-0.016368279711925424
1782846179840377300,1.28537744140625,0.07800678426623343,0.016500833750143645,-0.000983510595036205
1782846179850382300,1.29538232421875,0.09416530738472938,0.006736815708037466,0.009266704078414477
1782846179860387300,1.30538720703125,0.07366378662586212,0.0006696794224902987,0.0038083062417805192
1782846179870392300,1.315392333984375,0.08668050458729266,0.010160871872585266,0.00008423508419655263
1782846179880397300,1.325397216796875,0.08309387827217578,0.010129746081959455,-0.0067508876158739435
1782846179890402300,1.33540234375,0.08444178574979305,-0.0035655104618519543,0.0021358247186057267
1782846179900407300,1.3454072265625,0.0889274067312479,0.0025666721502318975,0.0002636033892282285
1782846179910412300,1.355412353515625,0.09895254166126251,0.005888948440738022,-0.005628523389284964
1782846179920417300,1.365417236328125,0.09206687380075454,-0.005675177825894206,0.009097665371152107
1782846179930422300,1.37542236328125,0.09566168342232703,0.017800189378298817,0.004245855125540402
1782846179940427300,1.38542724609375,0.08848258557319641,0.010167539075389503,0.008028666166460606
1782846179950432300,1.395432373046875,0.09880699571073055,0.005872545295208692,-0.006392429567023646
1782846179960437200,1.405437255859375,0.09237257874906063,0.0043733014470897615,-0.017451296025526242
1782846179970442200,1.415442138671875,0.08803250371813774,0.0012731252083554862,0.001778375883330591
1782846179980447200,1.425447265625,0.09297054464221,0.006057272478658705,-0.009519619393558242
1782846179990452200,1.4354521484375,0.08145020271837711,-0.015419413455296307,0.002607896926475223
1782846180000457200,1.445457275390625,0.07531856809556484,0.01555242871781811,-0.012018530387070495
1782846180010462200,1.455462158203125,0.08893675908148288,0.01324970473339781,-0.003201182077929843
1782846180020467200,1.46546728515625,0.09716448920071125,0.010343882022984325,-0.0021655485700117424
1782846180030472200,1.47547216796875,0.08788754228949547,0.01362180771511048,-0.01641414641395677
1782846180040477200,1.485477294921875,0.0703793581277132,0.020053265534713864,-0.011795535286155063
1782846180050482200,1.495482177734375,0.08384615794420242,0.01064317549681291,-0.007580280794855207
1782846180060487200,1.505487060546875,0.09027589873075485,-0.0057706010243855415,-0.0032171376988873817
1782846180070492200,1.5154921875,0.09655775547921656,0.006475351760257035,-0.011203174866596236
1782846180080497200,1.5254970703125,0.08817688062489032,0.005323259115684777,0.014774964372185059
1782846180090502100,1.535502197265625,0.09565876081287861,0.008914196279738098,-0.0007620612805243582
1782846180100507100,1.545507080078125,0.08848024748563765,-0.0005398242314346134,-0.00893777580143651
1782846180110512400,1.555512451171875,0.0947661958873272,0.0018183562672697007,0.008747223948687315
1782846180120517400,1.565517333984375,0.07456862651109696,0.003461995288450271,0.0036579973511630666
1782846180130522400,1.5755224609375,0.09536825343370436,0.010333579824678599,0.01631117009667214
1782846180140527400,1.58552734375,0.08249941951036453,0.015265117942728102,0.0059463366172043605
1782846180150532400,1.595532470703125,0.0928226606041193,0.0017267507273703814,0.00047870972792152315
1782846180160537300,1.605537353515625,0.09880816475450992,0.011325513471476733,-0.01590273770954227
1782846180170542300,1.615542236328125,0.09760580322742461,0.006752141141332686,-0.00923288172391476
1782846180180547300,1.62554736328125,0.09431202237904071,0.006980926662217825,-0.010476358429389074
1782846180190552300,1.63555224609375,0.09670680856108665,0.013690726499166339,-0.002337304390745703
1782846180200557300,1.645557373046875,0.09670563951730728,0.016904939305316655,-0.009094592064653989
1782846180210562300,1.655562255859375,0.07561258260607719,0.010371044024545698,-0.01183943835996324
1782846180220567300,1.6655673828125,0.08982873948514461,0.015001535103097556,0.009670884982112328
1782846180230572300,1.675572265625,0.09685936877429485,0.013298420979641377,-0.0015057466541416942
1782846180240577300,1.685577392578125,0.09177344381213187,0.014105408247280866,-0.0033990176214138044
1782846180250582300,1.695582275390625,0.1000029274970293,0.00933222076240927,0.0011632921753101982
1782846180260587300,1.705587158203125,0.10419278040230273,0.0125978349622339,0.008547009218449237
1782846180270592300,1.71559228515625,0.10104980620145797,0.0036826888344250615,0.002839070767269004
1782846180280597200,1.72559716796875,0.08339139991402626,0.005831427833531052,0.012449676929507403
1782846180290602200,1.735602294921875,0.08952946427762508,0.009730700294394046,0.010125343901477754
1782846180300607200,1.745607177734375,0.09865911167263984,0.0003678651980124414,-0.0013949957390665076
1782846180310612200,1.7556123046875,0.08489011403918266,0.0022572956738062203,-0.004291404450451955
1782846180320617200,1.7656171875,0.08698328692615032,-0.0009575747194699942,0.004472215793898795
1782846180330622200,1.775622314453125,0.09356558792591095,0.01018364995997399,0.0023530590823036615
1782846180340627200,1.785627197265625,0.08608370773792266,-0.005548811499867588,-0.006912539884413127
1782846180350632200,1.795632080078125,0.09206804284453392,0.004835092006251216,-0.012230419572081881
1782846180360637200,1.80563720703125,0.08428571840524673,0.023258838376682252,-0.01389547812391538
1782846180370642200,1.81564208984375,0.08652852889597415,0.008518310563638805,-0.0058611927841324355
1782846180380647200,1.825647216796875,0.09191489810943602,0.014532547618169337,-0.0016429312017047777
1782846180390652200,1.835652099609375,0.08787526732981205,0.019743085340689866,-0.010320887023175601
1782846180400657200,1.8456572265625,0.10269172818958759,0.021276121860556302,0.0019784056671895084
1782846180410662100,1.855662109375,0.08787935898303985,0.006095997053850442,-0.015356182343221733
1782846180420667100,1.865667236328125,0.09176876763701439,0.010489482772443442,-0.007364966676896438
1782846180430672100,1.875672119140625,0.09940379256010055,0.0124462793960236,-0.004493614774954039
1782846180440677000,1.885677001953125,0.08728314665555953,0.014375256430916488,0.004928046969731804
1782846180450682000,1.89568212890625,0.10344283881783485,0.005761321739386767,-0.020071693957259412
1782846180460687400,1.905687255859375,0.0959592050641775,0.00044016324924305077,-0.021938647739763836
1782846180470692400,1.9156923828125,0.0808452225625515,0.027247761882375925,-0.007917061301437206
1782846180480697300,1.925697265625,0.08727671691477298,0.01000144352717325,-0.0027211777253542094
1782846180490702300,1.935702392578125,0.09116612556874752,0.004686276386398821,0.013266041663556825
1782846180500707300,1.945707275390625,0.09281681538522243,-0.0055650502486154435,-0.0003290127586573362
1782846180510712300,1.95571240234375,0.10448971752226352,0.02070887989923358,0.0028662487518507987
1782846180520717300,1.96571728515625,0.08623392986357212,-0.006823982534836977,-0.00314155856189318
1782846180530722300,1.975722412109375,0.09656184713244438,-0.0056062042429111895,-0.006000649203883949
1782846180540727300,1.985727294921875,0.08070143017768859,0.00991482468964532,-0.009422182334493845
1782846180550732300,1.995732177734375,0.09835749837756157,0.00786525348238647,-0.009758083774952683
1782846180560737300,2.0057373046875,0.09761281749010085,0.01639514488596469,-0.013748827061685733
1782846180570743300,2.015743408203125,0.09102876292467117,0.01517201456548646,-0.0035028501719352786
1782846180580748300,2.025748291015625,0.09955576825141906,0.013621387590002268,-0.0002934619546635076
1782846180590753300,2.035753173828125,0.0974625953644514,0.0021607582304626703,-0.0035050740950624457
1782846180600758300,2.04575830078125,0.09641688570380211,0.00131473586037755,-0.001644143627968151
1782846180610763300,2.05576318359375,0.08668927241563797,-0.0008808744877576828,-0.01262662951516686
1782846180620768300,2.065768310546875,0.09731821845769882,0.0015956351609900594,-0.004397369592555333
1782846180630773200,2.075773193359375,0.07487433145940303,0.013480864874459802,0.0004401016004499979
1782846180640778200,2.0857783203125,0.09073416389226913,0.007413290197495371,-0.015988178370136302
1782846180650783200,2.095783203125,0.08878887504339218,0.011151892203930765,-0.016690684633282944
1782846180660788200,2.105788330078125,0.1000111108034849,0.018693357092048973,-0.01119422437516041
1782846180670793200,2.115793212890625,0.10569909331202507,0.008307864417042583,0.008742995298141614
1782846180680798200,2.125798095703125,0.07861351798772812,0.016450108209904283,0.0014552791255176998
1782846180690803200,2.13580322265625,0.08879121313095092,-0.005957154838740825,-0.0058490228557260705
1782846180700808400,2.145808349609375,0.07921732909977436,0.001545439343713224,-0.0024472744211088866
1782846180710813400,2.1558134765625,0.08251227899193764,0.007857198040094226,-0.007660479024751111
1782846180720818400,2.165818359375,0.087903324380517,0.015747092773392795,-0.013711378844839054
1782846180730823400,2.175823486328125,0.0937421135365963,0.002923431432340294,-0.015963728915469256
1782846180740828400,2.185828369140625,0.10646598603129387,0.004198675532545894,-0.008577415773156098
1782846180750833400,2.19583349609375,0.08731178822815418,0.009309935865364969,-0.0022264347446616737
1782846180760838400,2.20583837890625,0.08342237957417964,0.015240933349542319,-0.012904823118750937
1782846180770843400,2.215843505859375,0.09120704210102558,0.010587463254202156,-0.011858366822719107
1782846180780848400,2.225848388671875,0.10677169097959995,0.01152085338048637,0.00029820206186268475
1782846180790853400,2.235853271484375,0.09136018683612346,0.017158713136985897,-0.0023710879293386824
1782846180800858600,2.245858642578125,0.0793891785353422,0.002651336492691189,-0.00741742979978444
1782846180810863600,2.255863525390625,0.09091361211240291,0.006743446378223598,-0.008370305511250627
1782846180820868600,2.26586865234375,0.10034136567115783,-0.009331124783866107,0.001827336441457737
1782846180830873600,2.27587353515625,0.09720014503598212,0.017711963105574248,0.0048616877522319555
1782846180840878600,2.285878662109375,0.0822346310943365,0.001793075695540756,-0.0022962234616861676
1782846180850883600,2.295883544921875,0.09360708898007869,0.006251315479725599,-0.0017773529700236394
1782846180860888600,2.305888671875,0.08777648313045501,-0.00792998928166926,0.009986597584490664
1782846180870893600,2.3158935546875,0.09121756349503994,-0.014040416719671338,0.00009457609840901567
1782846180880898600,2.325898681640625,0.09286240809261798,0.008023366653546691,0.003350018247379921
1782846180890903600,2.335903564453125,0.09884674319922923,0.013612838957365602,-0.008237166951142717
1782846180900908500,2.345908447265625,0.0985515596449375,0.016738460164610294,0.005501976683456451
1782846180910913500,2.35591357421875,0.09556056113541125,0.009024323857016861,-0.003598659246205352
1782846180920918500,2.36591845703125,0.07954816848933696,0.016266586602851747,-0.009214222689217422
1782846180930923500,2.375923583984375,0.08658113586604595,0.0008674304842948913,-0.008963371466996613
1782846180940928500,2.385928466796875,0.0802963565081358,0.008042363614961504,-0.016361512044421395
1782846180950933500,2.39593359375,0.08613222305476664,-0.00736751482700929,-0.0005044469573767856
1782846180960938500,2.4059384765625,0.10124737460017204,0.012741682146023958,0.017382432040397543
1782846180970943500,2.415943603515625,0.10184534049332142,-0.0016237287443131207,-0.00870683257279452
1782846180980948500,2.425948486328125,0.08508300626277923,0.015128559016250072,-0.015448121243261266
1782846180990953500,2.435953369140625,0.07789923223853111,-0.0036643859927542504,0.005527369136328343
1782846181000958500,2.44595849609375,0.0816378342449665,-0.0048977454463019965,0.003700907194416504
1782846181010963500,2.45596337890625,0.10198504122495651,-0.0014416867082938552,-0.0032920752317761068
1782846181020968400,2.465968505859375,0.09973580099344254,0.009697126818355172,0.013565691330411937
1782846181030973400,2.475973388671875,0.09554711713194847,0.0020322364799678326,0.0005414978820015676
1782846181040978400,2.485978515625,0.0826788677304983,0.007668945458997041,0.0068936707871616815
1782846181050983400,2.4959833984375,0.08432721945941447,0.004297258802503347,0.0005444090750068426
1782846181060988400,2.505988525390625,0.08477437870502472,-0.0025195085402578113,-0.01738720411363756
1782846181070993400,2.515993408203125,0.09719605338275432,0.012066650694981217,-0.01089916411845479
1782846181080998400,2.525998291015625,0.09794541044533252,0.003663856269791722,0.002626544544729404
1782846181091003400,2.53600341796875,0.08956628915667533,0.003025375703163445,-0.004954896160750649
1782846181101008400,2.54600830078125,0.09285948548316955,0.015237608881294726,0.0005471764208283275
1782846181111013400,2.556013427734375,0.07759995703101158,0.005967402238119393,-0.004365300803724676
1782846181121018400,2.566018310546875,0.098399583953619,0.011952979453746229,-0.009796180445770733
1782846181131023400,2.5760234375,0.08897241491675377,0.007769702419731766,-0.01000851715535391
1782846181141028400,2.5860283203125,0.08433423372209072,0.008789967111870646,0.00277117946309736
1782846181151033300,2.596033447265625,0.07431260592341422,0.0057925571278668936,0.004353085209545679
1782846181161038300,2.606038330078125,0.0723702396839857,0.006973236546106636,-0.011596953107288572
1782846181171043300,2.616043212890625,0.08539163382053375,0.0033989947885274883,-0.01789026054823771
1782846181181048300,2.62604833984375,0.0750678082048893,0.006667823858745396,-0.0006679989220574498
1782846181191053300,2.63605322265625,0.08539514095187187,0.004632354242075234,0.000198874439811334
1782846181201058300,2.646058349609375,0.08838672398328781,-0.0059196358399465675,0.0017712177734705617
1782846181211063300,2.656063232421875,0.08269757243096829,-0.009838453251495956,-0.004135026578651741
1782846181221068300,2.666068359375,0.1066430961638689,-0.008066000218875706,-0.0026640429939259773
1782846181231073300,2.6760732421875,0.09571955108940601,-0.004617357602342963,-0.007749470199167262
1782846181241078300,2.686078369140625,0.09541969135999678,0.0018541217003948986,-0.015095713909284677
1782846181251083300,2.696083251953125,0.08808744877576828,0.007730831714067608,-0.004270802337129134
1782846181261088300,2.706088134765625,0.09317571182548999,0.008299936838913708,-0.006714704340929165
1782846181271093200,2.71609326171875,0.08898176726698875,0.0029445107529871162,-0.014082100436929612
1782846181281098200,2.72609814453125,0.10020283398330211,0.005705225904285908,-0.01126795861494029
1782846181291103500,2.736103515625,0.07865443452000617,0.010650993477087468,-0.0037296857643290423
1782846181301108500,2.7461083984375,0.08928162699639797,0.011869904280174523,-0.014230484515230636
1782846181311113500,2.756113525390625,0.07790975363254547,0.013049579051416366,-0.01840795514625497
1782846181321118500,2.766118408203125,0.08434475511610508,0.01762899752985686,0.005477812639868352
1782846181331124200,2.776124267578125,0.09377426224052905,0.013503259369358419,-0.006639976870594546
1782846181341129200,2.786129150390625,0.07955810536146163,0.005002210467774421,-0.016052505460754037
1782846181351134200,2.79613427734375,0.08614391349256038,-0.00030068171331658957,0.003346543082082644
1782846181361139200,2.80613916015625,0.07342588621675968,0.00249587193634361,-0.002101595938729588
1782846181371144200,2.816144287109375,0.07103402264416217,0.008086294088233262,-0.012038029671984259
1782846181381149200,2.826149169921875,0.08091594971120357,-0.0023550569598563015,0.0075872425418929195
1782846181391154200,2.836154296875,0.09273848945200443,0.009696396165993064,0.0019727887771558016
1782846181401159400,2.846159423828125,0.08510872522592544,0.008295808653067798,0.004865372980083339
1782846181411164400,2.856164306640625,0.08810147730112075,0.005160104443226009,0.0030731991835520603
1782846181421169400,2.86616943359375,0.09124386698007583,-0.0030531952918507158,-0.012631632200558669
1782846181431174400,2.87617431640625,0.08420914603769779,0.008525434424169361,-0.0022979222284280694
1782846181441179400,2.886179443359375,0.09573007248342037,0.014686240342538803,-0.0011678815854596904
1782846181451184400,2.896184326171875,0.08465805884897708,0.001343852357007563,0.011943216111557558
1782846181461189600,2.906189697265625,0.09034253422617912,-0.003667637395765632,-0.008032705304049887
1782846181471194600,2.916194580078125,0.09034428779184818,-0.0004569682535715401,-0.0029393413875252006
1782846181481199600,2.92619970703125,0.09917290641367435,0.007495853914413601,-0.012199869170191231
1782846181491204600,2.93620458984375,0.09543079727590084,-0.0009869834770448505,-0.012771609210118185
1782846181501209600,2.946209716796875,0.0855547154277563,0.00662403951594606,0.0037548681546468285
1782846181511214600,2.956214599609375,0.09543021275401115,0.009799692143686116,0.01347817287716316
1782846181521219600,2.966219482421875,0.09213935451507568,0.00616201149476692,0.005646942678675986
1782846181531224600,2.976224609375,0.09199030143320559,0.0031477051748894152,0.006484688127471599
1782846181541229600,2.9862294921875,0.09962123470306396,0.014679079949390142,-0.0025421633300604296
1782846181551234600,2.996234619140625,0.09198620977997779,0.006148494426067918,0.0011414114203536882
1782846181561239600,3.006239501953125,0.10724515371024608,0.005589070445019752,0.00939593593167374
1782846181571244500,3.01624462890625,0.08659165726006031,0.005784885278064757,0.0034173364461050366
1782846181581249500,3.02624951171875,0.07596738739311695,-0.010229699325095862,0.00881455584714422
1782846181591254500,3.036254638671875,0.09691606739759445,-0.006901997940801084,0.014465199736692011
1782846181601259500,3.046259521484375,0.07866027973890304,-0.0033167415988631546,-0.006738493925181683
1782846181611264500,3.056264404296875,0.08329962997734547,0.013695987196173518,-0.008524491425964516
1782846181621269500,3.06626953125,0.08943769434094428,0.011177501569222658,0.002992987253924366
1782846181631274500,3.0762744140625,0.09228139333426952,0.007251249769888818,-0.010923730020842048
1782846181641279500,3.086279541015625,0.10799918694794178,0.026598394595552233,-0.007924319875997026
1782846181651284500,3.096284423828125,0.09543138179779052,-0.0037215595400892196,-0.0077602222053334115
1782846181661289700,3.106289794921875,0.09019289662241935,0.005008165284525603,-0.008001104589388705
1782846181671294700,3.116294677734375,0.09811959796845912,0.01253382981531322,-0.00022507061028154566
1782846181681299700,3.1262998046875,0.09931494523286818,0.004829648646153509,-0.009885662527242675
1782846181691304700,3.1363046875,0.10559972459077835,0.010944642661418764,-0.009945002915489021
1782846181701309700,3.146309814453125,0.08869009084403515,0.016054332091659306,0.0019086169501650145
1782846181711314700,3.156314697265625,0.08943535625338554,0.010642627507541328,-0.005339127971674316
1782846181721319700,3.166319580078125,0.09437164361178875,0.014452742113918065,-0.005797527847217861
1782846181731324700,3.17632470703125,0.09002806144952774,0.00910789222093299,0.010477691869949922
1782846181741329700,3.18632958984375,0.0856903245061636,0.011577880797348917,-0.017058967673114964
1782846181751334700,3.196334716796875,0.08972937076389789,-0.00020173311717808245,0.004243306975427549
1782846181761339600,3.206339599609375,0.09451426695287227,0.016716321398038417,-0.0033063115363940595
1782846181771344600,3.2163447265625,0.08942541938126086,0.010048369675129652,-0.007133377277571708
1782846181781349600,3.226349609375,0.08808101903498172,0.02024942742763087,-0.0022506627203314564
1782846181791354600,3.236354736328125,0.09705869073867797,0.012488912961352615,-0.012824935416108928
1782846181801359600,3.246359619140625,0.09407003031671046,-0.001291391517408192,-0.01107012763803359
1782846181811364600,3.256364501953125,0.10573884080052375,0.008410265345592052,0.008366782396892085
1782846181821369600,3.26636962890625,0.10229600687026977,-0.0012719196319580077,-0.0036530152153689413
1782846181831374600,3.27637451171875,0.07341185769140719,-0.00499126894865185,0.005080586633342318
1782846181841379600,3.286379638671875,0.08822481141984462,0.008955039746779948,-0.0003751466054585762
1782846181851384600,3.296384521484375,0.0973538742929697,-0.001701872014440596,-0.007658698059618473
1782846181861389600,3.3063896484375,0.09511223284602165,-0.0064645381052978335,0.003368348488514311
1782846181871394600,3.31639453125,0.08687690394222736,0.006646379211917519,-0.009286296978162136
1782846181881399600,3.326399658203125,0.09450491460263728,0.005176105729956179,-0.023293711043952496
1782846181891404500,3.336404541015625,0.08702244989275931,0.015515530773531645,-0.004755590179387945
1782846181901409500,3.346409423828125,0.09659633392393588,0.008741780588589609,-0.0005550469167414121
1782846181911414500,3.35641455078125,0.09285656287372111,0.007932071640901267,-0.009320457259379326
1782846181921419500,3.36641943359375,0.07804945436418056,0.008358699555136262,-0.003665297024918254
1782846181931424500,3.376424560546875,0.08403671208024024,0.014719064899906514,-0.005309899593901354
1782846181941429500,3.386429443359375,0.09361234967708587,0.020606314573902634,-0.026047092272166627
1782846181951434500,3.3964345703125,0.08702887963354587,-0.0018639489746652541,-0.013361636108695528
1782846181961439500,3.406439453125,0.08508417530655861,0.0022897366386838256,-0.00457941391186323
1782846181971444500,3.416444580078125,0.09601005846858024,-0.0024469912933185694,0.008035707828600424
1782846181981449700,3.42644970703125,0.09152093035578727,-0.0021745310274884104,-0.009697446478763595
1782846181991454700,3.436454833984375,0.09182429721653461,-0.005478285280615091,0.008757818407937884
1782846182001459700,3.446459716796875,0.09900690219700335,0.005263309089373797,0.014618565950787159
1782846182011464700,3.456464599609375,0.09391980819106101,0.011079064429737627,-0.01509735787709942
1782846182021469700,3.4664697265625,0.09048048139214515,-0.0026278277529403564,-0.016094958646281157
1782846182031474700,3.476474609375,0.09661386958062648,0.008840235994383692,-0.008842263554688543
1782846182041479700,3.486479736328125,0.10274608872532844,0.004493512026965618,-0.007579082068323623
1782846182051484700,3.496484619140625,0.09631108724176883,0.012451302631013095,-0.007857809961447491
1782846182061489700,3.50648974609375,0.0972094973862171,0.01185233209086582,-0.009498451024654787
1782846182071494700,3.51649462890625,0.08853285445570945,0.008002287332899868,0.009579133311740588
1782846182081500400,3.52650048828125,0.0819517224997282,-0.000052661768998950716,-0.005063763362704776
1782846182091504600,3.536504638671875,0.0916810893535614,-0.008593531224317849,0.0005239371091360226
1782846182101509600,3.546509521484375,0.08479951314628124,0.010671250813826917,0.008453805376507808
1782846182111515600,3.556515625,0.08479951314628124,0.016499408978037537,-0.006141587477957364
1782846182121520600,3.566520751953125,0.08300327737927436,0.01337722183689475,-0.0012240276529104448
1782846182131525600,3.576525634765625,0.08165653894543647,0.010382844060193746,0.0019634341436321847
1782846182141530600,3.586530517578125,0.10021277085542678,0.0068803158319555215,-0.0049025814516237
1782846182151535600,3.59653564453125,0.08136018634736537,0.004256817194260657,-0.0192763788611046
1782846182161540600,3.60654052734375,0.09422726670503616,0.008666085003875196,-0.011890494977054186
1782846182171545600,3.616545654296875,0.09377543128430843,-0.004083743915986269,-0.005792127869604155
1782846182181550600,3.626550537109375,0.09647124623954295,-0.012122892660554498,-0.018570762758841737
1782846182191555600,3.6365556640625,0.084352353900671,-0.009381667661014944,-0.0013986353011452592
1782846182201560600,3.646560546875,0.08450432959198952,0.011461670539155602,0.004768209915654733
1782846182211565600,3.656565673828125,0.09168635005056858,0.007738467031251639,0.005869613552605733
1782846182221570600,3.666570556640625,0.08510112644135952,0.01437615148006007,-0.014472595308569725
1782846182231575600,3.676575439453125,0.10410685568451881,-0.0008130151496268808,-0.0006017561522778124
1782846182241580500,3.68658056640625,0.09767360776662826,0.004375128077995032,0.005085004796844441
1782846182251585500,3.69658544921875,0.09917465997934341,0.005360705049242824,0.002992254318273626
1782846182261590500,3.706590576171875,0.08765373353362083,0.0023138846992515026,-0.0068152443892438895
1782846182271595500,3.716595458984375,0.08406360008716583,0.015888181744515895,0.008469875161896925
1782846182281600500,3.7266005859375,0.0876549025774002,0.007782013912033289,0.009856804042228032
1782846182291605500,3.73660546875,0.08675883052051067,-0.0012446114999242126,-0.007028681643947493
1782846182301610500,3.746610595703125,0.08346855680346489,0.0030201698050834236,-0.021524607595754787
1782846182311615500,3.756615478515625,0.0845136819422245,0.008351374765206128,0.0025855595137923956
1782846182321620500,3.766620361328125,0.09184534000456332,-0.0007468180456198752,-0.0016107345487107521
1782846182331625500,3.77662548828125,0.08047112855315208,0.007568791286461055,0.002074995626171585
1782846182341630500,3.78663037109375,0.08855097463428974,-0.00006104600485414267,0.00004308793976670131
1782846182351635500,3.796635498046875,0.10277180768847465,-0.0007233641047962009,0.0038385004506446417
1782846182361640700,3.806640625,0.09963000253140926,0.013185608254931867,0.004597365127084777
1782846182371645700,3.816645751953125,0.09858312382698059,-0.011517784640565513,0.002225720075319987
1782846182381650700,3.826650634765625,0.09020107992887497,-0.0040407450244762,0.002558342713303864
1782846182391655700,3.83665576171875,0.09229600638151168,0.0016154723726212977,0.003860600401309784
1782846182401660700,3.84666064453125,0.0922948373377323,0.011826174736302346,-0.019241474227793515
1782846182411665700,3.856665771484375,0.09498948324918746,0.005639211463369429,-0.005656571306835394
1782846182421670700,3.866670654296875,0.09828034148812294,-0.001026493503525853,-0.01037904010133352
1782846182431675600,3.876675537109375,0.09663374332487583,0.018900076911598444,-0.004400812791811768
1782846182441680600,3.8866806640625,0.08840367511808872,0.004079177338723093,-0.009027130018745083
1782846182451685600,3.896685546875,0.10695639989674091,-0.004517861016932875,-0.006616461280977819
1782846182461690600,3.906690673828125,0.08526070091724396,-0.0005769413714297115,-0.0061746494973427615
1782846182471694600,3.916694580078125,0.08346855680346489,0.009597228374145924,0.011947243832703678
1782846182481699600,3.926699462890625,0.09065466891527175,-0.007308131056278944,0.0010223082354641518
1782846182491704800,3.936704833984375,0.08900631718635559,0.004322922966722399,-0.011450459591974504
1782846182501709800,3.946709716796875,0.10202303514778613,0.00481952911093831,-0.016339473742549307
1782846182511714800,3.95671484375,0.08391513152718544,-0.009329974006395786,0.006743496610573493
1782846182521719800,3.9667197265625,0.09528875845670699,-0.015507767592184245,-0.004676734523207415
1782846182531725000,3.97672509765625,0.09334113152027129,0.009588789339363574,-0.024246102698228786
1782846182541730000,3.98672998046875,0.09513678276538848,0.0012011742169968783,-0.004290737730171531
1782846182551735000,3.996735107421875,0.08810732252001761,-0.004491831526532769,-0.0010282744686584918
1782846182561740000,4.006739990234375,0.07898176677823067,0.016210801295004785,-0.005541975333704613
1782846182571745000,4.0167451171875,0.08810966060757637,0.0014076565745286642,-0.0034779212266555985
1782846182581750000,4.02675,0.08900748623013496,0.0015669570557773113,-0.004040133103122934
1782846182591755000,4.036755126953125,0.08003156809210776,0.0035573819543235,-0.004058109434519428
1782846182601760000,4.046760009765625,0.09020575610399245,-0.005362878740020096,0.013487306031689513
1782846182611765000,4.056764892578125,0.09484802895188331,0.0038858284574002024,-0.013797068383893928
1782846182621770000,4.06677001953125,0.08437047407925129,0.010603464540932327,-0.004455486138095148
1782846182631775000,4.07677490234375,0.07898118225634097,0.011006601981725542,0.002130484106496442
1782846182641780000,4.086780029296875,0.08706044381558894,0.01124050206914544,-0.004254307860054541
1782846182651785000,4.096784912109375,0.08436872051358223,0.02237878587283194,0.0022657438417430964
1782846182661790000,4.1067900390625,0.09738836108446121,0.005850717055890709,-0.010348350418836343
1782846182671795000,4.116794921875,0.09574000935554504,-0.003610719576757401,-0.008957884724414908
1782846182681800000,4.126800048828125,0.10187164397835731,-0.007473203691188246,-0.01744932326414855
1782846182691805000,4.136804931640625,0.09274667275846003,-0.0025253354928456246,0.0004462641964666545
1782846182701810000,4.146809814453125,0.0882563756018877,0.005746325099654496,0.006943371130805462
1782846182711815000,4.15681494140625,0.08855448176562786,0.003993508349265903,0.000597710164822638
1782846182721820000,4.16681982421875,0.08196867363452912,-0.00745986928557977,-0.0052982845046324655
1782846182731825000,4.176824951171875,0.095885555306077,-0.00555098519064486,0.014663533037097658
1782846182741830000,4.186829833984375,0.07987550074756145,-0.0036779213277623054,-0.020839543374464847
1782846182751835000,4.1968349609375,0.08930091621875762,0.01841108781825751,-0.015680569159111472
1782846182761839900,4.20683984375,0.08840250607430934,0.021008885759115217,0.00865122536146082
1782846182771844900,4.216844970703125,0.09438508761525154,0.020391977703478188,0.001397027865948621
1782846182781849900,4.226849853515625,0.10051672223806381,0.006481964164134115,-0.002798693091107998
1782846182791854800,4.236854736328125,0.08210895888805389,0.013787903263326734,-0.0026242429897887633
1782846182801859800,4.24685986328125,0.07986205674409866,0.0034032143059186636,-0.014166424569382796
1782846182811864800,4.25686474609375,0.1002121863335371,-0.0010540938965044916,-0.02808137457874836
1782846182821869800,4.266869873046875,0.08973580050468444,0.0033834866921417413,0.0029360580184729767
1782846182831874800,4.276874755859375,0.09586918869316577,-0.00297302446141839,-0.0019578446530620565
1782846182841879800,4.2868798828125,0.09616787937879562,0.007512476255651563,-0.013372929254267365
1782846182851884800,4.296884765625,0.0946738414287567,0.0003695456984452903,0.016957281413907184
1782846182861889800,4.306889892578125,0.0990139164596796,0.009931647960282862,0.01351185823434498
1782846182871894800,4.316894775390625,0.09706570500135421,-0.0025025574054569006,0.0040128204045118765
1782846182881899800,4.326899658203125,0.09407353744804858,0.012018117111828177,-0.0031637110281968485
1782846182891904800,4.33690478515625,0.0976630863726139,0.002245824431721121,-0.00024720709356479344
1782846182901909800,4.34690966796875,0.08614157540500164,0.005959036268573254,-0.009971744791942183
1782846182911914800,4.356914794921875,0.0735685095578432,0.015803517402056603,-0.013337300818460062
1782846182921919700,4.366919677734375,0.09406944579482078,0.00021879384983330963,0.0034923401943640782
1782846182931924700,4.3769248046875,0.09571429039239883,0.002953095918241888,0.013649255127750802
1782846182941929700,4.3869296875,0.07566285148859024,0.0066885195869021115,-0.003949299314781092
1782846182951935700,4.396935791015625,0.09466624264419078,0.0067025846448726945,0.0002905713112559169
1782846182961939700,4.406939697265625,0.08883329870700836,-0.011219422748498619,-0.0044473964464734304
1782846182971945700,4.41694580078125,0.09332125777602195,0.007211374417226761,-0.011896997783076948
1782846182981950700,4.42695068359375,0.08703764746189117,0.006570610561966896,-0.012993387318192981
1782846182991955700,4.436955810546875,0.0961684639006853,0.015256751973181963,-0.007260974296170752
1782846183001960700,4.446960693359375,0.09018763592541218,0.014013656576909124,-0.0011114934894139877
1782846183011965700,4.456965576171875,0.09617372459769248,0.011441011343616992,0.0025612676060409283
1782846183021970700,4.466970703125,0.09692483522593974,0.007432780349254608,0.00604564825623529
1782846183031975700,4.4769755859375,0.0746317548751831,-0.004070318178832531,0.012068326628836803
1782846183041980700,4.486980712890625,0.09228840759694576,0.013922343297954647,-0.0005948469208786264
1782846183051985700,4.496985595703125,0.0960334393441677,0.0071659278403036295,-0.007820576373732183
1782846183061990700,4.50699072265625,0.10082476527392864,0.001500851283315569,-0.006295734576764516
1782846183071995600,4.51699560546875,0.09439268639981746,0.0031765476768836377,-0.00686416841475293
1782846183082000600,4.527000732421875,0.10097732548713684,0.01781202594656497,-0.002102043463301379
1782846183092005600,4.537005615234375,0.08527005326747894,0.012528167259506881,0.006005074217251967
1782846183102010600,4.5470107421875,0.07838613897264003,0.013751991699729115,-0.0026125571185722945
1782846183112015600,4.557015625,0.0942471404492855,-0.0030013007078319785,0.004125308902235701
1782846183122020600,4.5670205078125,0.09634206690192222,0.0043376090792007745,0.0002947702790494077
1782846183132025600,4.577025634765625,0.08586685011684894,0.011974077040702105,-0.014425162270537112
1782846183142030600,4.587030517578125,0.09379588955044746,-0.009912541401013731,-0.0010742051027715206
1782846183152035800,4.597035888671875,0.07673837176561356,-0.0038255496375262737,0.009463254130398854
1782846183162040800,4.607040771484375,0.09230126707851886,0.0027457367778755725,0.0007120572594925761
1782846183172045800,4.6170458984375,0.08257657639980316,0.010879888595826923,-0.016244961576221975
1782846183182050800,4.62705078125,0.10188158085048198,0.01887731709051877,-0.0033167575818835757
1782846183192056000,4.63705615234375,0.0930529622286558,0.0027013131142593918,-0.015222194399742874
1782846183202061000,4.64706103515625,0.08437164312303065,0.003566624706704169,-0.007988667516212444
1782846183212066000,4.657066162109375,0.09499415942430496,0.007368939599115401,-0.002766898296913132
1782846183222071000,4.667071044921875,0.09229834446907043,0.0037495069929398593,0.0040422177456435745
1782846183232076000,4.677075927734375,0.09409867188930511,0.0021591142626479266,0.0010449173594941385
1782846183242081000,4.6870810546875,0.08033376590907573,0.0023823833581991492,-0.008003077350766398
1782846183252086000,4.6970859375,0.08257774544358253,0.00388871453423053,0.001985506694833748
1782846183262091000,4.707091064453125,0.09664309567511081,0.00555456538721919,0.009523172190668993
1782846183272096000,4.717095947265625,0.09963526322841644,0.005166808178648352,0.008482481198431924
1782846183282101000,4.72710107421875,0.08871113363206386,0.00861103034839034,-0.004757907717349007
1782846183292106000,4.73710595703125,0.09245090468227862,-0.006143434658460319,-0.01180912998666754
1782846183302111000,4.747111083984375,0.09140577954351901,0.012902827524486928,-0.012586998474388383
1782846183312116000,4.757115966796875,0.08407996670007706,-0.0007153817277401685,-0.004879992877191398
1782846183322121000,4.767120849609375,0.09649930329024792,0.0014212832410819827,-0.005642430900339968
1782846183332126000,4.7771259765625,0.08587561794519424,0.008569949419330805,-0.011986740159452893
1782846183342131000,4.787130859375,0.08946925852298736,-0.006218509188666939,-0.021018224409618414
1782846183352136000,4.797135986328125,0.09366144951581955,-0.003800013337470591,-0.007321184617385733
1782846183362141000,4.807140869140625,0.09919453372359276,-0.0012221622060984373,0.0006430631269118748
1782846183372146000,4.81714599609375,0.08557342012822627,0.001047792019881308,0.0005249280564021319
1782846183382151000,4.82715087890625,0.08707388781905173,0.0017758322997950017,-0.008591254785552154
1782846183392156000,4.837156005859375,0.09710311440229415,0.013006214833725244,-0.004658707959461026
1782846183402161000,4.847160888671875,0.08049041777551173,0.004742865411844105,0.0014021766818128525
1782846183412166000,4.857165771484375,0.07465162861943245,0.0018935586616396903,-0.0026490372210391795
1782846183422171000,4.8671708984375,0.09634849664270877,0.0054877654950134455,0.002202446514298208
1782846183432175900,4.87717578125,0.09799041863083839,0.013292338298726825,0.004981368609145284
1782846183442180900,4.887180908203125,0.092452073726058,0.005600687817577272,-0.00931982935500564
1782846183452185900,4.897185791015625,0.08302315112352371,-0.004626783017814159,-0.013486648444563615
1782846183462190800,4.90719091796875,0.08407002982795238,0.009299724998604505,-0.010110450009733903
1782846183472195800,4.91719580078125,0.09484159921109676,0.002973097526654601,-0.017077530809689778
1782846183482200800,4.927200927734375,0.10187456658780575,-0.0049754320587031544,-0.0016709448699257336
1782846183492205800,4.937205810546875,0.08930383882820606,-0.005055785552226006,0.0025310802470427003
1782846183502210800,4.9472109375,0.0957417629212141,-0.00417083767754957,-0.0004883063900400884
1782846183512215800,4.9572158203125,0.08751344828009605,0.005223598133493214,-0.001044310004718136
1782846183522220800,4.967220703125,0.08063187207281589,0.008585183521080762,0.0006158965587732382
1782846183532225800,4.977225830078125,0.09095978934168815,0.010694101966451854,-0.004766045358031988
1782846183542230800,4.987230712890625,0.09246142607629299,0.005085413505509496,-0.0072545559718273575
1782846183552235800,4.99723583984375,0.08827449578046798,-0.006569551116041838,-0.002850747505330946
1782846183562240800,5.00724072265625,0.08333470129072666,0.013570442854054272,-0.006314128749980591
1782846183572245800,5.017245849609375,0.0882739112585783,0.02279606143683195,-0.006413196077127941
1782846183582250800,5.027250732421875,0.0987479589998722,0.0021755174081772564,-0.013194586145831272
1782846183592255700,5.037255859375,0.08722410994470119,0.007336480367928743,0.0077617542920052065
1782846183602260700,5.0472607421875,0.08243746019005775,0.013543847108073532,-0.006844959107495378
1782846183612265700,5.057265625,0.0834849234163761,0.005770071301423013,-0.00921951306897681
1782846183622270700,5.067270751953125,0.09291267697513103,-0.004579875136166811,-0.005723702275892719
1782846183632275700,5.077275634765625,0.08183949429690837,-0.006528945111017674,0.0035603410963900386
1782846183642280700,5.08728076171875,0.08363631458580494,-0.0012173581668175756,0.0007145711602759547
1782846183652285700,5.09728564453125,0.09725450557172298,0.0005128266266547143,0.009175402215903159
1782846183662290700,5.107290771484375,0.08962298777997493,0.009929218541178852,0.004975724319647997
1782846183672296000,5.1172958984375,0.08977496347129345,-0.004525532866735011,0.0029429238673881627
1782846183682301000,5.127301025390625,0.09590835165977478,0.0012587496231310068,0.006180184188985731
1782846183692306000,5.137305908203125,0.08453238664269447,0.0009654840312898159,0.00593726511147106
1782846183702311000,5.147310791015625,0.08318214107751846,0.0028023440696299073,-0.009433852222689892
1782846183712316000,5.15731591796875,0.09994096817672252,0.006866305572912097,-0.011674936547211837
1782846183722321000,5.16732080078125,0.09680208562910556,-0.006753127522021531,0.0028537043641088528
1782846183732326000,5.177325927734375,0.08887187715172767,-0.003794149852264672,-0.01236647617506096
1782846183742331000,5.187330810546875,0.10054010311365127,0.012681622521858662,-0.0162286634619697
1782846183752336000,5.1973359375,0.08377893792688847,-0.0014556239021010697,-0.012844466667063533
1782846183762340900,5.2073408203125,0.09245441181361674,-0.015399283982720224,-0.003719977221067529
1782846183772345900,5.217345947265625,0.0930529622286558,0.00030543095367029305,0.0065516021841089235
1782846183782350800,5.227350830078125,0.0991886885046959,0.005072225230373442,-0.0020167420833138746
1782846183792355800,5.23735595703125,0.09933832610845565,0.009268380012270063,0.0009897553894435986
1782846183802360800,5.24736083984375,0.1051747771769762,0.02104731807336211,0.014821189550531562
1782846183812365800,5.25736572265625,0.07390051799118519,0.017155206005647777,0.005935680509160738
1782846183822370800,5.267370849609375,0.09679565588831901,0.00351741527011618,-0.004524621834571007
1782846183832375800,5.277375732421875,0.09739829795658587,0.0031646563096903264,-0.002137105643528048
1782846183842380800,5.287380859375,0.09724632226526736,0.007163133095018565,-0.015241031530953478
1782846183852385800,5.2973857421875,0.08796703726649284,0.010400745043065398,-0.013858205720293336
1782846183862390800,5.307390869140625,0.0780868637651205,-0.0049781720050610595,-0.0016213564074249007
1782846183872395800,5.317395751953125,0.09439677805304526,-0.010653075836319475,-0.010585241614363621
1782846183882400800,5.32740087890625,0.0934977833867073,0.001226710517052561,-0.01974525903146714
1782846183892405800,5.33740576171875,0.10007949986457824,0.004034150886908173,-0.0043124700713669875
1782846183902410800,5.34741064453125,0.09857961669564247,0.0034486060839146373,0.001383720859803725
1782846183912415700,5.357415771484375,0.09543430440723895,-0.001369005064573139,-0.0008365535721299238
1782846183922420700,5.367420654296875,0.09468260925710201,0.026190398316550997,-0.010590529710834379
1782846183932425700,5.37742578125,0.08660802387297153,0.01696773887583986,-0.02479820645592408
1782846183942430700,5.3874306640625,0.09289338775277137,0.002084679053258151,-0.02569555258787004
1782846183952435700,5.397435791015625,0.08301672138273715,-0.00011173501247540115,-0.011303050477919168
1782846183962440700,5.407440673828125,0.08974865998625754,0.005194865229353308,-0.003273916237289086
1782846183972445700,5.41744580078125,0.0881038153886795,0.012632979340851306,0.006476936362567357
1782846183982450700,5.42745068359375,0.06565817482471466,0.006619692134391516,0.003397079109365586
1782846183992455700,5.43745556640625,0.08481061906218529,-0.010260514588467776,-0.003628618276340421
1782846184002460700,5.447460693359375,0.09318974035084247,0.00099204324465245,0.011736868468055035
1782846184012465700,5.457465576171875,0.08600538180470466,0.005995605419296771,0.006317834527429659
1782846184022470700,5.467470703125,0.09438625665903091,0.005372450285963714,-0.011883193020010367
1782846184032475600,5.4774755859375,0.09333820891082287,0.002849160619731992,-0.019129109027655793
1782846184042480600,5.487480712890625,0.09483341590464114,0.00036183731602504847,-0.0013908424370456486
1782846184052486000,5.49748583984375,0.08046645237803458,-0.014073716201074421,0.0031918708268902263
1782846184062491000,5.507490966796875,0.1048521210938692,0.012956950598210096,-0.0012492374426918103
1782846184072495900,5.517495849609375,0.10470189896821976,0.008465192136913538,0.003060152472311165
1782846184082500900,5.5275009765625,0.09407353744804858,0.01555120487511158,0.006978686756070237
1782846184092507000,5.5375068359375,0.08943418720960616,0.00571192963970825,-0.0065767023760359734
1782846184102511900,5.547511962890625,0.09991232660412788,-0.009541899724025278,0.002606371689669322
1782846184112516900,5.557516845703125,0.10320376936495304,-0.0074267524672672145,0.0021528557685087436
1782846184122521900,5.56752197265625,0.10709493158459663,0.0046545478075742715,0.008538277922722045
1782846184132526800,5.57752685546875,0.09647358432710171,-0.008363083469308911,0.005340070969879161
1782846184142531800,5.58753173828125,0.0915372969686985,0.004278974227141589,-0.015461352900881319
1782846184152536800,5.597536865234375,0.08943769434094428,-0.004644556136522442,-0.006218189528258517
1782846184162541800,5.607541748046875,0.09916530762910843,0.007141633649263531,-0.013803840617975219
1782846184172546800,5.617546875,0.09512333876192569,0.010063402847480028,-0.006500924592930823
1782846184182551800,5.6275517578125,0.08599544493257999,0.0006420059642754495,-0.015133022845524828
1782846184192556800,5.637556884765625,0.09946166022717952,-0.006477141858544201,-0.01882710072364425
1782846184202561800,5.647561767578125,0.09931202262341976,0.012945223627798258,-0.006427553396043367
1782846184212566800,5.65756689453125,0.0985603274732828,0.0077172781127505,-0.0005890793337952346
1782846184222571800,5.66757177734375,0.09556874444186687,-0.02106202245214954,-0.003758797694381792
1782846184232576800,5.67757666015625,0.09422200600802898,-0.0005511310767382383,-0.0032206516800913957
1782846184242581800,5.687581787109375,0.08928688769340515,0.005004384158551692,0.011013792057626414
1782846184252586800,5.697586669921875,0.09587094225883483,0.00859104700628668,-0.00775599355478771
1782846184262591700,5.707591796875,0.0975152023345232,-0.0062930722622200844,-0.011583883563161361
1782846184272596700,5.7175966796875,0.0930231516122818,-0.0027157800310291347,0.003228640907013323
1782846184282601700,5.727601806640625,0.078805825689435,-0.0016137553395703433,-0.006538459574745502
1782846184292606700,5.737606689453125,0.08224281440079212,0.0045949083085171875,-0.0005651299193385056
1782846184302611700,5.74761181640625,0.099749829518795,0.00299213102068752,-0.0031880371852777895
1782846184312616700,5.75761669921875,0.08762801457047462,0.005597911338601261,-0.006258756717375945
1782846184322621700,5.76762158203125,0.08508125269711017,0.01367790355021134,-0.008819652147369924
1782846184332627000,5.777626953125,0.09465747481584548,-0.0008111337197944521,-0.012436248909065034
1782846184342632000,5.7876318359375,0.09091361211240291,-0.009530465014558285,-0.00857478770794114
1782846184352637000,5.797636962890625,0.08881751661598682,0.02029323003673926,-0.011926064047357066
1782846184362642000,5.807641845703125,0.10946750593483448,0.003988740842603147,0.003802335442008916
1782846184372647000,5.81764697265625,0.10543021324276923,0.00520675659654662,-0.0011943083680816926
1782846184382652000,5.82765185546875,0.09061492142677306,0.0024594489160925147,0.00558193745133467
1782846184392657000,5.837656982421875,0.08342997835874558,0.01647743460824713,-0.010359440351719967
1782846184402662000,5.847661865234375,0.08582301097512245,0.006184515587519854,-0.013764748433313797
1782846184412667000,5.8576669921875,0.08866437188088894,0.004022533514350652,-0.013710015721525996
1782846184422672000,5.867671875,0.09629647419452667,0.002951799010299146,0.007073826826771255
1782846184432676900,5.8776767578125,0.07684358570575714,-0.0020042890271171924,0.004229276166786439
1782846184442681900,5.887681884765625,0.08761690865457057,0.005328501546382904,0.0016476827253471128
1782846184452686800,5.897686767578125,0.08746376391947269,-0.0030333398139104246,0.00841364232947817
1782846184462691800,5.90769189453125,0.0938946737498045,-0.005263217757828533,-0.002869760449766181
1782846184472697000,5.917697021484375,0.09838087925314902,0.004919993810728192,-0.025802990451140793
1782846184482702000,5.9277021484375,0.09778232883810996,0.008055131764989346,-0.0059328515145462
1782846184492707000,5.93770703125,0.1009223804295063,0.017722210504952818,0.006294576949428301
1782846184502712000,5.947712158203125,0.07757949876487255,0.01695464193224907,-0.006738076083362102
1782846184512717000,5.957717041015625,0.09134557378888129,0.004399842394143343,-0.015445831104763783
1782846184522722000,5.96772216796875,0.0885047974050045,0.004768036385718733,-0.012721977365133351
1782846184532727000,5.97772705078125,0.0923912834495306,0.0056886035630479455,-0.003988523930183146
1782846184542732000,5.98773193359375,0.09149287330508231,0.005427906800247729,-0.015976245903747622
1782846184552737000,5.997737060546875,0.09747720841169356,-0.004261529901996255,-0.015355511056364048
1782846184562742000,6.007741943359375,0.09283610460758208,0.010959657567460089,-0.001014522221230436
1782846184572747000,6.0177470703125,0.07428396435081959,0.0070960774744860825,0.0030265812795609234
1782846184582752000,6.027751953125,0.08326455866396426,0.009378160529676825,-0.01193920894000912
1782846184592757000,6.037757080078125,0.10197101269960403,0.010219926849752665,0.0000790269028278999
1782846184602762000,6.047761962890625,0.07817454204857349,0.007102178421709686,-0.0031227282805484716
1782846184612767000,6.05776708984375,0.09089373836815356,0.0033791758432053028,0.0003185347471269779
1782846184622772000,6.06777197265625,0.0890975026011467,0.01986813649246469,0.0035989994562114587
1782846184632777000,6.07777685546875,0.08625555717349052,-0.0008461502342484891,-0.005688799925870262
1782846184642782000,6.087781982421875,0.08970131371319294,-0.012235979379899798,-0.006019194074149709
1782846184652787000,6.097786865234375,0.08955226063132285,0.008100413945131004,-0.012469119132205378
1782846184662792000,6.1077919921875,0.09269523483216761,0.013911657507158816,-0.008155895575589966
1782846184672797000,6.117796875,0.08775894747376442,0.018485249033011495,-0.007440182770998217
1782846184682802000,6.127802001953125,0.09613865328431129,0.019076894783228635,0.003221631210914347
1782846184692807000,6.137806884765625,0.08940613015890121,0.00782022703057155,-0.006589351795054972
1782846184702812000,6.14781201171875,0.08790975412130356,0.01785798398014158,-0.0051468910519150085
1782846184712817000,6.15781689453125,0.07683598692119122,0.019066300323978064,0.015742825306940357
1782846184722822000,6.16782177734375,0.07773322802186011,0.0093800236932002,-0.007334955131122842
1782846184732827000,6.177826904296875,0.09704115508198738,-0.002371861964184791,-0.018222026952984742
1782846184742831900,6.187831787109375,0.08492226274311541,0.01190499385986477,-0.005441994691104628
1782846184752836900,6.1978369140625,0.09988602311909198,0.020603739024326204,-0.0006702479613595642
1782846184762841900,6.207841796875,0.10826982058286666,0.004384389096684754,-0.01463854929289082
1782846184772846800,6.217846923828125,0.0931575916469097,0.012115184278134256,-0.00006544590204721316
1782846184782851800,6.227851806640625,0.09136194040179252,0.017801577617786824,-0.013064918184443376
1782846184792856800,6.23785693359375,0.08522562960386276,0.004096639930177479,-0.013940847069025038
1782846184802861800,6.24786181640625,0.09899462723731994,0.003417845619469881,-0.0031011900188867
1782846184812866800,6.25786669921875,0.09570143091082572,0.010203779432550072,-0.0051598007658380084
1782846184822871800,6.267871826171875,0.09988894572854042,-0.001963171565439552,-0.012939867032668553
1782846184832876800,6.277876708984375,0.095249595490098,0.005832998736109585,-0.0075895714962971395
1782846184842881800,6.2878818359375,0.09509761979877948,0.010418974819499998,-0.005126302638323977
1782846184852887000,6.297886962890625,0.09120762662291526,0.002602821175847202,0.0075119100000709295
1782846184862892000,6.30789208984375,0.09195756820738316,0.01286125340508297,0.006195596387248952
1782846184872897000,6.31789697265625,0.09809270996153355,0.00298476969813928,0.010783869459002744
1782846184882902300,6.32790234375,0.0871709184527397,0.0014152188264764845,-0.0014055879150284454
1782846184892907300,6.3379072265625,0.09210837485492229,0.006652060034032911,0.00909853302083211
1782846184902912300,6.347912353515625,0.10198621026873587,0.005977832300588488,-0.004749528048071079
1782846184912917200,6.357917236328125,0.10557926632463932,0.0063695898308418685,-0.003561192763049621
1782846184922922200,6.367922119140625,0.07924129449725151,0.0031442345761694013,-0.005615312281262595
1782846184932927200,6.37792724609375,0.08044073341488837,0.010983001910429448,-0.00024263823301298542
1782846184942932200,6.38793212890625,0.08762626100480556,0.008007310567889362,0.0003906136026489548
1782846184952937200,6.397937255859375,0.08314005550146103,-0.0006556143645197153,0.00011830631715711206
1782846184962942200,6.407942138671875,0.09436287578344345,0.016685268672648815,0.01692028757149819
1782846184972947200,6.417947265625,0.09181962104141711,0.010708751546312123,-0.006402706649154424
1782846184982952200,6.4279521484375,0.08194061658382415,0.010673917694948612,-0.010788068426796235
1782846184992957200,6.437957275390625,0.09121697897315025,0.014323855037242173,0.009673942305590025
1782846185002962200,6.447962158203125,0.09061609047055244,-0.005811846350226551,0.010888218032754957
1782846185012967200,6.45796728515625,0.0858247645407915,0.0028653080369345843,0.010462546816456596
1782846185022972200,6.46797216796875,0.10602174939513206,0.00948710079686716,0.015126494923327117
1782846185032977200,6.47797705078125,0.07938391783833504,0.003466470534168184,0.0075954349815030575
1782846185042982100,6.487982177734375,0.08581716575622558,0.0020431049338541923,-0.018541392817173617
1782846185052987100,6.497987060546875,0.08880757974386215,0.010965210525412113,-0.012211705738457385
1782846185062992100,6.5079921875,0.09509060553610324,0.021946075277682393,-0.009010740572947543
1782846185072997000,6.5179970703125,0.089703067278862,0.004766830809321254,-0.022348269720270764
1782846185083002000,6.528002197265625,0.09808218856751919,0.0040155009853653605,-0.010758808082982432
1782846185093007000,6.538007080078125,0.08670856163799762,0.0018308321563526987,-0.00967836046909215
1782846185103012000,6.54801220703125,0.09688625678122043,0.006243570564687251,0.0019262074057827703
1782846185113017000,6.55801708984375,0.10436755244731903,0.02947809648402035,-0.0021408730697701685
1782846185123022000,6.56802197265625,0.09374269805848598,0.002997738777566701,-0.0006781321570044383
1782846185133027000,6.578027099609375,0.08611001122295855,-0.0018715842918492853,-0.0037104422077420167
1782846185143032000,6.588031982421875,0.09898001419007778,0.0033011604372411964,0.006405766255920753
1782846185153037000,6.598037109375,0.09868424611389637,0.014086192090157419,0.00027734193692449476
1782846185163042000,6.6080419921875,0.09972995577454566,0.014006587515305726,0.004349194485717453
1782846185173047000,6.618047119140625,0.079529463788867,0.0046930166544392705,0.009961853585590142
1782846185183052000,6.628052001953125,0.08581248958110808,0.010455763165932148,-0.007318440104450564
1782846185193057000,6.63805712890625,0.0831190127134323,0.01463706743856892,-0.005496158864023164
1782846185203062000,6.64806201171875,0.097039986038208,0.01698744822330773,0.00011173957905266433
1782846185213067000,6.65806689453125,0.08880991783142089,0.011308964195474981,0.0024816538980347103
1782846185223072000,6.668072021484375,0.09134674283266067,0.007119019958656281,-0.002964352531195618
1782846185233077000,6.678076904296875,0.08850304383933544,0.011176588253770024,-0.002823067197250202
1782846185243082000,6.68808203125,0.10675824697613716,0.0037271124980412422,-0.008954126431327312
1782846185253087000,6.6980869140625,0.0840168383359909,0.004615421373583376,0.012209810608893167
1782846185263092000,6.708092041015625,0.07683306431174278,0.016328765118867158,0.0034548326120129786
1782846185273097000,6.718096923828125,0.08715922801494598,0.005494779757689684,0.008521943275851663
1782846185283102000,6.72810205078125,0.10631401033997535,-0.000118822340387851,-0.002966820766206365
1782846185293107000,6.73810693359375,0.08461597327291966,0.0011256978279910981,0.0008002378664445131
1782846185303112000,6.74811181640625,0.0787795222043991,0.01296683267140761,-0.007014671384904068
1782846185313117000,6.758116943359375,0.0880605607688427,0.006237122557591647,-0.014060591858020052
1782846185323122000,6.768121826171875,0.09344692998230457,0.013580927715450525,-0.011840771800524088
1782846185333127000,6.778126953125,0.09644026657938956,0.0008508446756750345,-0.004067489184217993
1782846185343132000,6.7881318359375,0.08028232798278331,0.007461896845884621,0.009442263858008663
1782846185353137000,6.798136962890625,0.08626783213317393,0.023616821501497177,0.004488317545328755
1782846185363142000,6.808141845703125,0.09479892911314963,0.014585483381804078,-0.0037382069975021295
1782846185373147100,6.818147216796875,0.09405366370379924,0.005337488570436835,-0.00754558165752096
1782846185383152000,6.828152099609375,0.09809154091775417,-0.009240432559419422,-0.008113072497304528
1782846185393157000,6.8381572265625,0.09270400266051292,0.0026308051613159475,0.004248476340889464
1782846185403162000,6.848162109375,0.08896598517596721,0.018071699796058237,0.009785987845319323
1782846185413167000,6.8581669921875,0.09016659313738346,0.012667009474616497,-0.00820751388168428
1782846185423172000,6.868172119140625,0.09510346501767634,0.00970467080399394,-0.0028799325006199066
1782846185433177000,6.878177001953125,0.08432838850319385,0.004961239136569201,0.0047086959974723865
1782846185443182000,6.88818212890625,0.09285890096127987,0.0016531740345060823,-0.0005217109027202241
1782846185453187000,6.89818701171875,0.08612403974831104,-0.004433817728981376,-0.00316425901746843
1782846185463192000,6.908192138671875,0.09465513672828674,0.003138736417144537,0.004386905280756764
1782846185473197600,6.918197509765625,0.08567454241514205,0.0038456791101023555,-0.016421847946511116
1782846185483202600,6.92820263671875,0.08732055605649948,0.0026570721137337385,-0.0007502521117217838
1782846185493207600,6.93820751953125,0.08417699733376502,0.008847469452768564,0.011519170596764888
1782846185503212500,6.948212646484375,0.07445113761126995,-0.005693937325291335,-0.014536990897846408
1782846185513217500,6.958217529296875,0.08776596173644065,0.007871500560082494,0.004060945278999861
1782846185523222500,6.968222412109375,0.09689327104389667,0.004455572903063148,0.005711776659369934
1782846185533227500,6.9782275390625,0.0743003309637308,0.012289627529587595,0.008032629955525044
1782846185543232500,6.988232421875,0.0930056159555912,0.003279222600068897,-0.005713434326916467
1782846185553237500,6.998237548828125,0.0853764362514019,0.007839443187694996,-0.004616343822190538
1782846185563242500,7.008242431640625,0.08806991311907768,0.018335026907362044,0.0006864730103756301
1782846185573247500,7.01824755859375,0.0846311708420515,0.0005257043745368719,0.007751735221489798
1782846185583252500,7.02825244140625,0.09136427848935126,0.004760419334843754,0.00008492463736329227
1782846185593257500,7.038257568359375,0.0907657280743122,0.000412526323646307,-0.0052414329009945505
1782846185603262500,7.048262451171875,0.09540390926897525,0.00925033289892599,-0.006163335802173242
1782846185613267500,7.058267333984375,0.0942079774826765,0.0003672258771955967,-0.002713295812997967
1782846185623272400,7.0682724609375,0.08972294102311133,0.009926588192675261,-0.010641631993697956
1782846185633277400,7.07827734375,0.10633563764989376,0.015770656312070787,-0.0035185980136273427
1782846185643282400,7.088282470703125,0.09017536096572876,0.009599219401832669,0.008976842869922983
1782846185653287700,7.09828759765625,0.10962591136693954,-0.004068126221746206,0.0019059295194456352
1782846185663292700,7.108292724609375,0.09660334818661212,0.012894534620177,-0.004650122794206254
1782846185673297700,7.118297607421875,0.09211538911759853,0.01477519726762548,-0.0057941120474250055
1782846185683302700,7.128302734375,0.08612871592342854,0.006866689165402204,-0.004399689413805027
1782846185693307600,7.1383076171875,0.09481061955094337,0.01796350844753906,-0.011347437608917243
1782846185703312600,7.148312744140625,0.09959843834936619,-0.006560765021387487,-0.002077146484062541
1782846185713317600,7.158317626953125,0.08657762873470783,0.004777498333808034,-0.0017555658299010246
1782846185723322600,7.168322509765625,0.08807166668474674,0.01415580499395728,-0.010648244397575035
1782846185733327600,7.17832763671875,0.0925607947975397,-0.003965926222596317,-0.010226520987320692
1782846185743332600,7.18833251953125,0.08867080162167548,-0.005481226156372577,-0.004039007441827561
1782846185753337600,7.198337646484375,0.08912146799862385,-0.005568831374589353,0.008320294640352948
1782846185763342600,7.208342529296875,0.08912205252051353,0.004287066202051938,-0.012284428481373469
1782846185773347600,7.21834765625,0.10423661954402923,-0.013715806141495705,0.00396305384549778
1782846185783352600,7.2283525390625,0.07999357416927814,0.016897705846931784,0.002943570038070902
1782846185793357600,7.238357666015625,0.0931581761687994,0.003746054660528898,-0.003328598716726992
1782846185803362600,7.248362548828125,0.08642214591205119,0.011036540462262929,-0.0020521924226079135
1782846185813367600,7.258367431640625,0.095249595490098,0.002579202838242054,0.001702598100225441
1782846185823372500,7.26837255859375,0.1049742861688137,0.005934303686115891,-0.017968659546691922
1782846185833377500,7.27837744140625,0.10781681611835955,0.004903590665198862,0.008646718149702064
1782846185843382500,7.288382568359375,0.09045826956033706,0.013611268054787068,0.0016200640660594217
1782846185853387500,7.298387451171875,0.10452654240131377,0.0009340659797191619,0.01256472727707587
1782846185863392500,7.308392578125,0.09016191696226596,0.007503964155633002,0.00961220218099188
1782846185873397500,7.3183974609375,0.08821955072283744,-0.0014571765383705497,-0.010252892971015535
1782846185883402500,7.328402587890625,0.08642682208716869,0.005312628123816102,-0.0164964863685891
1782846185893407500,7.338407470703125,0.07954290779232978,0.014621595874801278,0.0024507450198289005
1782846185903412500,7.34841259765625,0.09226678028702735,0.0014109810427762567,-0.0039390313658048395
1782846185913417500,7.35841748046875,0.087629183614254,0.013163907879777252,-0.010972706561989617
1782846185923422500,7.36842236328125,0.08104746713638306,0.01351372596444562,-0.0055120756690739655
1782846185933427500,7.378427490234375,0.08209259227514266,0.014372059826832264,-0.0025499950100667775
1782846185943432400,7.388432373046875,0.09885141937434673,0.006178432906605303,0.0038243509109946896
1782846185953437400,7.3984375,0.08583645497858523,0.008719404360000044,0.00104346747121308
1782846185963442700,7.408442626953125,0.10394552764296532,0.001395692142099142,0.0025276484642294235
1782846185973447700,7.41844775390625,0.10289572632908821,0.007040438297111541,-0.010081084634643047
1782846185983452700,7.42845263671875,0.09736147307753562,0.008867617191653698,-0.002500493312533945
1782846185993457700,7.438457763671875,0.0806008924126625,0.011913122367393225,0.008253133988543413
1782846186003462700,7.448462646484375,0.08224398344457148,0.012376703024841845,-0.006318818624829873
1782846186013467600,7.458467529296875,0.08059972336888313,0.005742014250718057,-0.003109818566625472
1782846186023472600,7.46847265625,0.07267009941339492,0.0008729286433197558,-0.010719183892069849
1782846186033477600,7.4784775390625,0.09092530255019664,0.01137032072758302,-0.007122415208851453
1782846186043482600,7.488482666015625,0.09810907657444476,0.006102353729400783,-0.011068205109005793
1782846186053487600,7.498487548828125,0.09257190071344375,-0.014526538002490997,-0.005565997813397553
1782846186063492600,7.50849267578125,0.0798562115252018,0.006823982534836977,0.010296074525616131
1782846186073497600,7.51849755859375,0.08210252914726733,0.013759718348458409,0.0013108793858787975
1782846186083502600,7.528502685546875,0.09990823495090007,0.0070933375281281765,0.004577799626800697
1782846186093507600,7.538507568359375,0.07925298493504523,0.0059729917286895215,0.002952399515209254
1782846186103512600,7.5485126953125,0.07536123819351195,0.0019842508860863743,-0.0015561639504157938
1782846186113517600,7.558517578125,0.08882920705378056,-0.0004241071635857224,-0.009489121507306117
1782846186123522600,7.5685224609375,0.08045183933079242,-0.0006883110577240585,0.0004586510372930206
1782846186133527600,7.578527587890625,0.08419277942478656,-0.0005192746337503195,-0.005843668543884996
1782846186143532500,7.588532470703125,0.07671382184624671,0.008165862130466849,0.003018598902504891
1782846186153537500,7.59853759765625,0.07656359972059726,0.0053602301252074535,0.005830418619955889
1782846186163542500,7.60854248046875,0.09556348374485969,0.009268453077506273,-0.009806752072134986
1782846186173547500,7.618547607421875,0.09257306975722313,-0.008470763361174612,-0.011584260305785573
1782846186183552500,7.628552490234375,0.09182371269464493,0.006691935386694967,-0.0009822022706503048
1782846186193557500,7.6385576171875,0.10663608190119266,-0.0001312068979255855,-0.005658706181705929
1782846186203562500,7.6485625,0.07745382655858993,0.011526187142729759,0.02676637614017818
1782846186213567500,7.6585673828125,0.10244447543025016,-0.006633793724980205,0.006590735467965714
1782846186223572500,7.668572509765625,0.10932780520319937,-0.00452613565493375,0.011044015949242748
1782846186233577500,7.678577392578125,0.09570902969539165,0.004829776510316878,0.004569906298001297
1782846186243582500,7.68858251953125,0.08987433219254017,0.011365735884010792,-0.0010062293169205076
1782846186253587500,7.69858740234375,0.08328735501766205,0.009697656541317701,-0.006276874612667597
1782846186263592400,7.708592529296875,0.08867255518734454,0.014119528104178606,0.005901938069763127
1782846186273597400,7.718597412109375,0.08852291758358478,-0.0008320121110416949,0.004042249711684417
1782846186283602400,7.7286025390625,0.08687807298600674,0.004493859086837619,-0.010006713357334955
1782846186293607400,7.738607421875,0.07939794636368751,0.005905333319958299,0.018638873258722013
1782846186303612400,7.7486123046875,0.08927285916805267,0.01253295303247869,-0.009513207919080741
1782846186313617400,7.758617431640625,0.09675357031226157,0.00477800979046151,0.004823426684632431
1782846186323622400,7.768622314453125,0.09899813436865806,0.002830072326771915,0.006291078951244707
1782846186333627400,7.77862744140625,0.08747720792293548,0.00712090138848871,0.008885091199551243
1782846186343632400,7.78863232421875,0.09840133751928806,0.006956486340705305,-0.0018782629110966809
1782846186353637400,7.798637451171875,0.09076981972754002,0.0045916203728877,-0.010881363600282929
1782846186363642400,7.808642333984375,0.08149287281632422,0.0009477291788905858,-0.008096306308882776
1782846186373647400,7.8186474609375,0.08717851723730563,0.0009666165424510836,-0.013558167894370853
1782846186383652400,7.82865234375,0.08224222987890244,0.00910235752929002,-0.008468368191400077
1782846186393657300,7.8386572265625,0.09166939891576767,0.008186722255405038,-0.008091326456377283
1782846186403662300,7.848662353515625,0.09077274233698844,0.010225662470795214,-0.002733900209609419
1782846186413667300,7.858667236328125,0.09735679690241814,0.005572411571163683,0.007724392840126529
1782846186423672300,7.86867236328125,0.09675883100926876,0.004033310636691749,-0.005785262020688969
1782846186433677300,7.87867724609375,0.10229366878271103,0.0015767112648114561,0.005310908807476517
1782846186443682600,7.8886826171875,0.09002572336196898,0.009695793377794325,-0.00039537654273444784
1782846186453687600,7.8986875,0.10394026694595813,0.009325626624841243,0.008384096574585418
1782846186463692500,7.908692626953125,0.09600655133724212,0.008550733262207358,0.005173929755890276
1782846186473697300,7.918697265625,0.1040899045497179,-0.0010037519487552345,-0.00686781939327484
1782846186483702300,7.928702392578125,0.09121990158259868,0.010861110830120741,-0.006911455322313122
1782846186493707300,7.938707275390625,0.08523498195409775,0.008439747168403119,-0.003930612880620174
1782846186503712300,7.948712158203125,0.09391747010350227,0.002603862355463207,0.0006940512453438714
1782846186513717200,7.95871728515625,0.09736088855564594,0.012572371727414428,0.004371408600814175
1782846186523722200,7.96872216796875,0.09871171864271164,-0.003778440826479345,-0.008453067874279805
1782846186533727200,7.978727294921875,0.08913549652397632,0.003533763616718352,-0.026391432747407816
1782846186543732200,7.988732177734375,0.09766542446017265,0.0018384309409186243,0.004452837523282505
1782846186553737200,7.9987373046875,0.10155658667981624,-0.0022412030555307863,0.00031761001523118466
1782846186563742200,8.0087421875,0.08794131830334663,0.004448047183733433,0.01140501073176274
1782846186573747200,8.018747314453124,0.07971125009655952,0.013120598461013287,-0.005646860480285249
1782846186583752200,8.028752197265625,0.0886918444097042,-0.008547280929796397,-0.013491692229150793
1782846186593757200,8.038757080078126,0.09153495888113974,0.002979362870659679,0.0026067849649116397
1782846186603762200,8.04876220703125,0.08539864808320999,0.018901574748940764,-0.0025959735932410692
1782846186613767200,8.05876708984375,0.07717033344209194,0.004605758496094495,0.0007030131532228551
1782846186623772200,8.068772216796875,0.09108721511363983,0.002308660534862429,-0.004089310573670082
1782846186633777200,8.078777099609376,0.10410568664073944,0.01025081517836079,-0.001277047898224555
1782846186643782100,8.0887822265625,0.08959083907604216,-0.007552899597585201,-0.00368934233749751
1782846186653787100,8.098787109375,0.09183715669810771,0.009872428586333989,-0.012442146643600426
1782846186663792000,8.108792236328124,0.1091962877780199,0.013874777829181402,-0.001800249788421206
1782846186673797000,8.118797119140625,0.10889584352672099,0.0026861703440546987,0.010716562676720786
1782846186683802000,8.128802001953124,0.09722878660857677,-0.006618943215720355,-0.0011061825600569136
1782846186693807000,8.13880712890625,0.10067045149505138,-0.0008055076966062188,-0.0112696002994664
1782846186703812000,8.14881201171875,0.10695289276540279,0.019631386860832573,-0.0001216696013114415
1782846186713817000,8.158817138671875,0.09543255084156989,0.005911288136709481,-0.0006907701595802791
1782846186723822000,8.168822021484376,0.08675999956429004,0.0015997268142178653,-0.009497747771756257
1782846186733828000,8.178828125,0.0884083512932062,0.004493018836621195,-0.012990786652441601
1782846186743832000,8.18883203125,0.09529226558804511,-0.001962221717368811,-0.01877961288668448
1782846186753837000,8.198837158203125,0.08586509655117988,0.001304378863144666,-0.004692925322894006
1782846186763842000,8.208842041015625,0.08721241950690746,0.008163341379817574,-0.00476543115339009
1782846186773847000,8.218846923828124,0.08870353484749793,0.000474850970134139,0.001686512331815902
1782846186783852000,8.22885205078125,0.08092121040821075,0.007409929196629673,0.004791764321178197
1782846186793857000,8.23885693359375,0.09005027328133583,0.012904234030283986,0.006905315559182781
1782846186803862000,8.248862060546875,0.09843231717944145,0.0024760529910214245,-0.010732333351299165
1782846186813867000,8.258866943359376,0.09020341801643371,0.0008024937556125224,-0.005764897369383834
1782846186823872000,8.2688720703125,0.08915946192145346,-0.0044254334931261834,-0.017038737735839093
1782846186833877000,8.278876953125,0.08676526026129722,0.019655845448654143,-0.016145323426916727
1782846186843882000,8.288882080078125,0.09648936641812324,0.011088855171389878,0.0010824295084225014
1782846186853887000,8.298886962890625,0.09170388570725917,0.01693325208434835,0.005840446823625825
1782846186863892000,8.30889208984375,0.08961188186407089,-0.0005557524529285729,0.005770708338951226
1782846186873897000,8.31889697265625,0.08856617220342158,0.005953501576930284,-0.009538529590005054
1782846186883902000,8.32890185546875,0.09395487950444222,0.006185374104045331,-0.005371402256481815
1782846186893907000,8.338906982421875,0.09171382257938385,0.004988675132766365,0.012381141737941652
1782846186903912200,8.348912109375,0.0933627588301897,-0.007266611735802143,-0.019815369692188688
1782846186913917200,8.358917236328125,0.09351064286828041,0.0034625067451037462,-0.003188633123610634
1782846186923922200,8.368922119140626,0.09859890591800212,0.0013132197567261754,0.010906418126437346
1782846186933927200,8.37892724609375,0.0827402425289154,0.004764620585925877,0.007591363877872936
1782846186943932200,8.38893212890625,0.08184300142824649,0.003976465882919729,-0.013323409290425478
1782846186953937200,8.398937255859375,0.08992577011883258,0.0005430208355188369,-0.007549360500206239
1782846186963942100,8.408942138671875,0.07915536977946758,0.006375106256175786,0.014532449436758178
1782846186973947100,8.418947021484374,0.0954676221549511,0.005389163958746939,-0.004180000514828134
1782846186983952100,8.4289521484375,0.09082885643839836,0.004792348843067884,0.003120081949024461
1782846186993957000,8.43895703125,0.10519874257445334,-0.0005031637491658329,-0.001101983592263423
1782846187003962000,8.448962158203125,0.08694178587198256,0.0076354998471215366,0.012111722812568768
1782846187013967400,8.45896728515625,0.07751520135700703,0.012548497661482543,-0.009235457273491192
1782846187023972400,8.468972412109375,0.09217851748168468,-0.0003994293800555169,-0.017336318743193985
1782846187033977300,8.478977294921876,0.09038111267089843,0.011219514080043881,-0.003022037535184063
1782846187043982300,8.488982421875,0.09187807323038577,0.0002754376742057502,-0.017638295081164688
1782846187053987300,8.4989873046875,0.08783493531942367,0.0013217683893628417,-0.0008497167310910299
1782846187063992300,8.508992431640625,0.09292144480347633,0.0034794578799046574,-0.012596104229451156
1782846187073997300,8.518997314453125,0.09589198504686355,0.015136322197597474,-0.014622091348434332
1782846187084002300,8.529002197265624,-0.1848866117954254,0.01637388290222734,-0.06343121035709046
1782846187094007300,8.53900732421875,0.45512160279154773,0.001504833338689059,0.11168714561252854
1782846187104012300,8.54901220703125,-0.047373161071538925,0.011238821568712592,-0.06183616428456735
1782846187114017300,8.559017333984375,0.1863642831325531,0.0021944413043558596,0.07622745396825484
1782846187124022300,8.569022216796874,-0.01968728176653385,0.006826302356086671,-0.07238849685988388
1782846187134027300,8.57902734375,0.18756956726908683,-0.006827124339994043,0.016203873797296545
1782846187144032300,8.5890322265625,0.04093406793475151,0.012976038891170173,-0.030314019868487956
1782846187154037200,8.599037353515625,0.16079788019955157,0.004667334223911166,0.03409948865737533
1782846187164042200,8.609042236328126,0.003382628175616264,0.006012940146587788,-0.05450507247780915
1782846187174047200,8.619047119140625,0.1462882933318615,-0.0033079737705178558,0.023565899598435497
