time,seconds_elapsed,z,y,x
1782845337768535600,0.06653564453125,-0.9865570068359375,-0.256011962890625,0.0411376953125
1782845337778539800,0.076539794921875,-0.9925079345703125,-0.2403106689453125,0.03558349609375
1782845337788544800,0.086544677734375,-0.99334716796875,-0.2240142822265625,0.0351409912109375
1782845337798548700,0.096548828125,-0.9892425537109375,-0.2115478515625,0.031463623046875
1782845337808553700,0.1065537109375,-0.9816741943359375,-0.1981353759765625,0.0455322265625
1782845337818557700,0.1165576171875,-0.9895477294921875,-0.184967041015625,0.0737152099609375
1782845337828561700,0.126561767578125,-1.014617919921875,-0.166900634765625,0.107452392578125
1782845337838566700,0.136566650390625,-1.0598297119140625,-0.1501617431640625,0.136688232421875
1782845337848570600,0.146570556640625,-1.12353515625,-0.139495849609375,0.1673126220703125
1782845337858575600,0.15657568359375,-1.190032958984375,-0.1293182373046875,0.1998748779296875
1782845337868579600,0.16657958984375,-1.23382568359375,-0.1162872314453125,0.21759033203125
1782845337878584600,0.17658447265625,-1.23785400390625,-0.1077880859375,0.2149505615234375
1782845337888588500,0.186588623046875,-1.21685791015625,-0.0961761474609375,0.20208740234375
1782845337898592800,0.1965927734375,-1.1823577880859375,-0.091888427734375,0.1862335205078125
1782845337908597800,0.20659765625,-1.1332550048828125,-0.1014404296875,0.1779327392578125
1782845337918601700,0.216601806640625,-1.0860443115234375,-0.1175537109375,0.1659088134765625
1782845337928606700,0.226606689453125,-1.0437164306640625,-0.1341400146484375,0.1495513916015625
1782845337938610400,0.2366103515625,-0.9987335205078125,-0.1346588134765625,0.1446075439453125
1782845337948615400,0.246615478515625,-0.947845458984375,-0.1377105712890625,0.140228271484375
1782845337958619600,0.25661962890625,-0.890380859375,-0.136932373046875,0.1434173583984375
1782845337968623600,0.26662353515625,-0.8417205810546875,-0.134368896484375,0.158447265625
1782845337978628600,0.276628662109375,-0.805755615234375,-0.127105712890625,0.1708221435546875
1782845337988632600,0.286632568359375,-0.7833709716796875,-0.1171417236328125,0.176361083984375
1782845337998637600,0.296637451171875,-0.808135986328125,-0.114593505859375,0.180999755859375
1782845338008641800,0.306641845703125,-0.8313446044921875,-0.1121673583984375,0.1864471435546875
1782845338018646800,0.316646728515625,-0.8220367431640625,-0.1038360595703125,0.1928863525390625
1782845338028650800,0.326650634765625,-0.837890625,-0.1017303466796875,0.2085723876953125
1782845338038655700,0.33665576171875,-0.8715057373046875,-0.11029052734375,0.2281646728515625
1782845338048659500,0.346659423828125,-0.8963165283203125,-0.1148681640625,0.24359130859375
1782845338058663700,0.35666357421875,-0.9268951416015625,-0.1171722412109375,0.2617950439453125
1782845338068668700,0.366668701171875,-0.9614410400390625,-0.1157989501953125,0.2801971435546875
1782845338078672600,0.376672607421875,-0.993072509765625,-0.1146392822265625,0.291961669921875
1782845338088677600,0.386677734375,-1.0126953125,-0.116851806640625,0.2891082763671875
1782845338098681600,0.396681640625,-1.0239105224609375,-0.1295166015625,0.2716522216796875
1782845338108686600,0.4066865234375,-1.0179595947265625,-0.1395263671875,0.2652435302734375
1782845338118690800,0.41669091796875,-1.0146484375,-0.1518707275390625,0.25384521484375
1782845338128694800,0.42669482421875,-1.018768310546875,-0.1616058349609375,0.2459716796875
1782845338138699800,0.43669970703125,-1.013214111328125,-0.1615142822265625,0.2528533935546875
1782845338148703500,0.446703369140625,-1.0028839111328125,-0.1611175537109375,0.25982666015625
1782845338158708500,0.45670849609375,-0.9877777099609375,-0.1623992919921875,0.2594757080078125
1782845338168712700,0.466712646484375,-0.980743408203125,-0.1627655029296875,0.25189208984375
1782845338178717700,0.4767177734375,-0.9737396240234375,-0.16015625,0.230926513671875
1782845338188721700,0.4867216796875,-0.963714599609375,-0.1524658203125,0.2125244140625
1782845338198726700,0.4967265625,-0.9498443603515625,-0.150543212890625,0.199066162109375
1782845338208730600,0.506730712890625,-0.939849853515625,-0.1492767333984375,0.1868896484375
1782845338218734800,0.51673486328125,-0.94415283203125,-0.1319732666015625,0.179168701171875
1782845338228739800,0.52673974609375,-0.958587646484375,-0.12060546875,0.167999267578125
1782845338238743800,0.536743896484375,-0.9647979736328125,-0.1256561279296875,0.15380859375
1782845338248748800,0.546748779296875,-0.9597625732421875,-0.1280670166015625,0.1439361572265625
1782845338258752500,0.55675244140625,-0.94586181640625,-0.13299560546875,0.1436767578125
1782845338268757500,0.566757568359375,-0.931243896484375,-0.135498046875,0.1510772705078125
1782845338278761700,0.57676171875,-0.920166015625,-0.1358489990234375,0.1595306396484375
1782845338288765700,0.586765625,-0.91058349609375,-0.1449127197265625,0.1644744873046875
1782845338298770700,0.596770751953125,-0.899566650390625,-0.15570068359375,0.1702728271484375
1782845338308774700,0.606774658203125,-0.895172119140625,-0.162445068359375,0.1753387451171875
1782845338318779600,0.616779541015625,-0.90087890625,-0.1644744873046875,0.180938720703125
1782845338328784000,0.626783935546875,-0.906951904296875,-0.168212890625,0.181915283203125
1782845338338788900,0.636788818359375,-0.909820556640625,-0.1671905517578125,0.1877288818359375
1782845338348792600,0.64679248046875,-0.9207611083984375,-0.174560546875,0.1902618408203125
1782845338358797600,0.656797607421875,-0.9239349365234375,-0.1843719482421875,0.18798828125
1782845338368801500,0.666801513671875,-0.925262451171875,-0.193389892578125,0.186065673828125
1782845338378805800,0.6768056640625,-0.9354248046875,-0.1963653564453125,0.1880035400390625
1782845338388810800,0.686810791015625,-0.9403839111328125,-0.1907806396484375,0.1907501220703125
1782845338398814700,0.696814697265625,-0.939910888671875,-0.188201904296875,0.1891021728515625
1782845338408819700,0.70681982421875,-0.9381561279296875,-0.1963348388671875,0.1849517822265625
1782845338418823700,0.71682373046875,-0.93353271484375,-0.200927734375,0.181304931640625
1782845338428828700,0.72682861328125,-0.932098388671875,-0.2012939453125,0.178314208984375
1782845338438832600,0.73683251953125,-0.92938232421875,-0.2008514404296875,0.176910400390625
1782845338448836600,0.746836669921875,-0.9229888916015625,-0.192718505859375,0.1758270263671875
1782845338458841600,0.756841552734375,-0.918609619140625,-0.1925811767578125,0.16680908203125
1782845338468845600,0.766845458984375,-0.90692138671875,-0.1941986083984375,0.1577911376953125
1782845338478850600,0.7768505859375,-0.8936309814453125,-0.1893768310546875,0.1580810546875
1782845338488854500,0.7868544921875,-0.8837127685546875,-0.18798828125,0.158111572265625
1782845338498859500,0.796859619140625,-0.8824005126953125,-0.19769287109375,0.1581878662109375
1782845338508863700,0.80686376953125,-0.88165283203125,-0.2091522216796875,0.1592254638671875
1782845338518867700,0.81686767578125,-0.8813629150390625,-0.2225341796875,0.1583099365234375
1782845338528872700,0.826872802734375,-0.8928070068359375,-0.238677978515625,0.15533447265625
1782845338538876700,0.836876708984375,-0.9032745361328125,-0.25115966796875,0.155242919921875
1782845338548881700,0.846881591796875,-0.9077911376953125,-0.260589599609375,0.1545257568359375
1782845338558885600,0.8568857421875,-0.9149017333984375,-0.2699737548828125,0.153228759765625
1782845338568890600,0.866890625,-0.92205810546875,-0.265899658203125,0.1501312255859375
1782845338578894600,0.87689453125,-0.9241180419921875,-0.2663421630859375,0.1371002197265625
1782845338588899600,0.886899658203125,-0.9293365478515625,-0.273162841796875,0.1187591552734375
1782845338598903600,0.896903564453125,-0.9405670166015625,-0.267974853515625,0.10614013671875
1782845338608907800,0.90690771484375,-0.9518585205078125,-0.2581024169921875,0.0941619873046875
1782845338618912800,0.916912841796875,-0.9559478759765625,-0.264373779296875,0.074554443359375
1782845338628916700,0.926916748046875,-0.95123291015625,-0.274444580078125,0.0726470947265625
1782845338638921700,0.936921630859375,-0.94256591796875,-0.266632080078125,0.07757568359375
1782845338648925700,0.94692578125,-0.9378814697265625,-0.2657928466796875,0.07232666015625
1782845338658930700,0.9569306640625,-0.921722412109375,-0.27935791015625,0.064788818359375
1782845338668934700,0.9669345703125,-0.9036865234375,-0.28167724609375,0.0654754638671875
1782845338678938400,0.9769384765625,-0.8931732177734375,-0.2738494873046875,0.0694580078125
1782845338688943400,0.986943359375,-0.88873291015625,-0.2711944580078125,0.06829833984375
1782845338698947300,0.996947265625,-0.895050048828125,-0.2764739990234375,0.0704345703125
1782845338708952300,1.006952392578125,-0.914703369140625,-0.2781829833984375,0.07867431640625
1782845338718956500,1.01695654296875,-0.93646240234375,-0.2798919677734375,0.0870819091796875
1782845338728961500,1.02696142578125,-0.9639892578125,-0.2792510986328125,0.0978851318359375
1782845338738965500,1.036965576171875,-0.9879913330078125,-0.2781524658203125,0.1039581298828125
1782845338748970500,1.046970458984375,-1.0063629150390625,-0.286956787109375,0.109832763671875
1782845338758974500,1.056974365234375,-1.02337646484375,-0.30291748046875,0.1245269775390625
1782845338768978700,1.066978759765625,-1.036590576171875,-0.3017730712890625,0.1414031982421875
1782845338778983700,1.076983642578125,-1.046905517578125,-0.2942352294921875,0.15570068359375
1782845338788987400,1.0869873046875,-1.0571441650390625,-0.2925262451171875,0.166229248046875
1782845338798992400,1.096992431640625,-1.0548248291015625,-0.3022003173828125,0.1713104248046875
1782845338808996400,1.106996337890625,-1.048187255859375,-0.316497802734375,0.1804046630859375
1782845338819001300,1.11700146484375,-1.043548583984375,-0.310821533203125,0.1889190673828125
1782845338829005600,1.127005615234375,-1.031097412109375,-0.3001556396484375,0.1894073486328125
1782845338839009500,1.137009521484375,-1.0167083740234375,-0.299346923828125,0.180267333984375
1782845338849014500,1.1470146484375,-0.9962005615234375,-0.29766845703125,0.1710205078125
1782845338859018500,1.1570185546875,-0.9830780029296875,-0.28912353515625,0.1741485595703125
1782845338869023500,1.1670234375,-0.9841156005859375,-0.27215576171875,0.1763763427734375
1782845338879027700,1.17702783203125,-0.9797821044921875,-0.2517242431640625,0.181671142578125
1782845338889032700,1.18703271484375,-0.973785400390625,-0.2391357421875,0.1857147216796875
1782845338899036400,1.197036376953125,-0.961334228515625,-0.23931884765625,0.19061279296875
1782845338909041400,1.20704150390625,-0.9971771240234375,-0.2441558837890625,0.188507080078125
1782845338919045400,1.21704541015625,-0.9831390380859375,-0.21942138671875,0.20355224609375
1782845338929049600,1.227049560546875,-0.8997955322265625,-0.2390899658203125,0.2800445556640625
1782845338939054600,1.2370546875,-0.9466705322265625,-0.2277374267578125,0.2563323974609375
1782845338949058600,1.24705859375,-0.978240966796875,-0.1819610595703125,0.2592315673828125
1782845338959063600,1.2570634765625,-1.00823974609375,-0.2069091796875,0.3313140869140625
1782845338969067500,1.267067626953125,-1.0872344970703125,-0.2418670654296875,0.36737060546875
1782845338979072500,1.277072509765625,-1.09674072265625,-0.2248077392578125,0.3453369140625
1782845338989076700,1.28707666015625,-1.0677337646484375,-0.2050018310546875,0.3228759765625
1782845338999080400,1.29708056640625,-1.0893096923828125,-0.2047576904296875,0.2984466552734375
1782845339009085400,1.30708544921875,-1.0945892333984375,-0.214752197265625,0.253997802734375
1782845339019089400,1.31708935546875,-1.0606842041015625,-0.22613525390625,0.202056884765625
1782845339029094400,1.327094482421875,-1.022216796875,-0.22662353515625,0.1659393310546875
1782845339039098600,1.3370986328125,-0.978424072265625,-0.215728759765625,0.1439208984375
1782845339049103600,1.347103515625,-0.94140625,-0.1974945068359375,0.132080078125
1782845339059107600,1.357107666015625,-0.916778564453125,-0.1504669189453125,0.1172027587890625
1782845339069112600,1.367112548828125,-0.9002838134765625,-0.1152191162109375,0.0896453857421875
1782845339079116500,1.377116455078125,-0.874908447265625,-0.1191558837890625,0.0563507080078125
1782845339089120500,1.38712060546875,-0.8481292724609375,-0.13397216796875,0.041778564453125
1782845339099125500,1.39712548828125,-0.840362548828125,-0.1251373291015625,0.0547332763671875
1782845339109129500,1.40712939453125,-0.85040283203125,-0.0811920166015625,0.075927734375
1782845339119134500,1.417134521484375,-0.8750457763671875,-0.0733795166015625,0.0874481201171875
1782845339129138400,1.427138427734375,-0.8986053466796875,-0.0859527587890625,0.102691650390625
1782845339139143400,1.437143310546875,-0.931182861328125,-0.0724334716796875,0.1202392578125
1782845339149147400,1.4471474609375,-0.9366607666015625,-0.046783447265625,0.1168670654296875
1782845339159151600,1.457151611328125,-0.9162139892578125,-0.032012939453125,0.148773193359375
1782845339169156600,1.467156494140625,-0.9161376953125,-0.022674560546875,0.1621856689453125
1782845339179160600,1.47716064453125,-0.91265869140625,-0.0230560302734375,0.1704254150390625
1782845339189165600,1.48716552734375,-0.903167724609375,-0.0256805419921875,0.181915283203125
1782845339199169300,1.497169189453125,-0.900115966796875,-0.0223846435546875,0.194915771484375
1782845339209174300,1.50717431640625,-0.899322509765625,-0.018798828125,0.2009124755859375
1782845339219178500,1.517178466796875,-0.9046478271484375,-0.0257568359375,0.18743896484375
1782845339229183500,1.52718359375,-0.936737060546875,-0.0198516845703125,0.1631927490234375
1782845339239187500,1.5371875,-0.98089599609375,-0.0221710205078125,0.1352081298828125
1782845339249191400,1.54719140625,-1.010009765625,-0.0452423095703125,0.115814208984375
1782845339259196400,1.557196533203125,-1.0290069580078125,-0.0724029541015625,0.1125030517578125
1782845339269200600,1.56720068359375,-1.035003662109375,-0.09271240234375,0.114013671875
1782845339279205600,1.57720556640625,-1.0264434814453125,-0.1020050048828125,0.1172637939453125
1782845339289209600,1.587209716796875,-1.0255279541015625,-0.110870361328125,0.1236419677734375
1782845339299214600,1.597214599609375,-1.031280517578125,-0.115325927734375,0.123565673828125
1782845339309218300,1.60721826171875,-1.0346221923828125,-0.121856689453125,0.119171142578125
1782845339319222500,1.617222412109375,-1.0376129150390625,-0.13232421875,0.1235504150390625
1782845339329227500,1.6272275390625,-1.0407257080078125,-0.1310882568359375,0.130279541015625
1782845339339231500,1.6372314453125,-1.04034423828125,-0.1275177001953125,0.12646484375
1782845339349236500,1.647236572265625,-1.0466766357421875,-0.1265716552734375,0.112884521484375
1782845339359240400,1.657240478515625,-1.0508880615234375,-0.121856689453125,0.1000823974609375
1782845339369245400,1.667245361328125,-1.042449951171875,-0.1225433349609375,0.0930023193359375
1782845339379249700,1.677249755859375,-1.01934814453125,-0.125396728515625,0.092315673828125
1782845339389254700,1.687254638671875,-0.9890594482421875,-0.1230010986328125,0.0887908935546875
1782845339399258600,1.697258544921875,-0.9498138427734375,-0.1191558837890625,0.0857086181640625
1782845339409262300,1.707262451171875,-0.914825439453125,-0.1171417236328125,0.078887939453125
1782845339419267300,1.717267333984375,-0.885528564453125,-0.122314453125,0.0780181884765625
1782845339429271600,1.727271484375,-0.8618316650390625,-0.1329345703125,0.07843017578125
1782845339439276500,1.737276611328125,-0.841888427734375,-0.1510772705078125,0.0762786865234375
1782845339449280500,1.747280517578125,-0.841156005859375,-0.1568450927734375,0.077850341796875
1782845339459285500,1.757285400390625,-0.858917236328125,-0.1513519287109375,0.074676513671875
1782845339469289500,1.76728955078125,-0.890899658203125,-0.1504058837890625,0.06219482421875
1782845339479293700,1.777293701171875,-0.9091796875,-0.157379150390625,0.0717926025390625
1782845339489298700,1.787298583984375,-0.9300994873046875,-0.1635284423828125,0.08538818359375
1782845339499302400,1.797302490234375,-0.9548797607421875,-0.1676177978515625,0.08868408203125
1782845339509307400,1.807307373046875,-0.981536865234375,-0.1729888916015625,0.0870513916015625
1782845339519311400,1.817311279296875,-1.000885009765625,-0.17315673828125,0.0829010009765625
1782845339529316400,1.82731640625,-1.0201568603515625,-0.17474365234375,0.07635498046875
1782845339539320600,1.837320556640625,-1.0257110595703125,-0.1730804443359375,0.06951904296875
1782845339549325600,1.84732568359375,-1.0252532958984375,-0.1640777587890625,0.0626068115234375
1782845339559329500,1.85732958984375,-1.024932861328125,-0.1552276611328125,0.0573272705078125
1782845339569333500,1.86733349609375,-1.024261474609375,-0.15264892578125,0.0521240234375
1782845339579338500,1.87733837890625,-1.0236358642578125,-0.158538818359375,0.052093505859375
1782845339589342700,1.8873427734375,-1.0239715576171875,-0.158416748046875,0.0568084716796875
1782845339599347700,1.89734765625,-1.0209503173828125,-0.15252685546875,0.05902099609375
1782845339609351400,1.907351318359375,-1.0108642578125,-0.1517181396484375,0.061126708984375
1782845339619356400,1.9173564453125,-0.99755859375,-0.157562255859375,0.06475830078125
1782845339629360400,1.9273603515625,-0.988525390625,-0.1651153564453125,0.0745697021484375
1782845339639364600,1.937364501953125,-0.9778289794921875,-0.1705169677734375,0.088592529296875
1782845339649369600,1.94736962890625,-0.9705047607421875,-0.1786346435546875,0.0989227294921875
1782845339659373600,1.95737353515625,-0.964080810546875,-0.18536376953125,0.106475830078125
1782845339669378600,1.967378662109375,-0.95916748046875,-0.184326171875,0.11083984375
1782845339679382500,1.977382568359375,-0.956207275390625,-0.1805877685546875,0.117156982421875
1782845339689387500,1.987387451171875,-0.9583587646484375,-0.175323486328125,0.124114990234375
1782845339699391500,1.9973916015625,-0.965301513671875,-0.173583984375,0.1175079345703125
1782845339709396500,2.007396484375,-0.9516143798828125,-0.1747589111328125,0.1172027587890625
1782845339719400700,2.017400634765625,-0.949981689453125,-0.1715087890625,0.109130859375
1782845339729404700,2.02740478515625,-0.952667236328125,-0.177032470703125,0.104522705078125
1782845339739409700,2.03740966796875,-0.9441680908203125,-0.1830596923828125,0.10107421875
1782845339749413600,2.04741357421875,-0.938934326171875,-0.1837158203125,0.0930328369140625
1782845339759418600,2.057418701171875,-0.9420013427734375,-0.1866455078125,0.0793304443359375
1782845339769422600,2.067422607421875,-0.9465179443359375,-0.1811065673828125,0.069244384765625
1782845339779427600,2.077427490234375,-0.955230712890625,-0.184478759765625,0.0616455078125
1782845339789431600,2.087431640625,-0.970977783203125,-0.1817626953125,0.0512847900390625
1782845339799436500,2.0974365234375,-0.98516845703125,-0.169097900390625,0.0431365966796875
1782845339809440500,2.1074404296875,-0.9986724853515625,-0.168975830078125,0.03778076171875
1782845339819444700,2.11744482421875,-1.008758544921875,-0.1684417724609375,0.03167724609375
1782845339829449700,2.12744970703125,-1.00885009765625,-0.168182373046875,0.0281982421875
1782845339839453700,2.13745361328125,-1.002288818359375,-0.174224853515625,0.028045654296875
1782845339849458700,2.147458740234375,-0.9862823486328125,-0.1943206787109375,0.034027099609375
1782845339859462700,2.157462646484375,-0.970306396484375,-0.2091064453125,0.0458221435546875
1782845339869467600,2.167467529296875,-0.9620819091796875,-0.2087554931640625,0.0618438720703125
1782845339879471600,2.1774716796875,-0.96368408203125,-0.212554931640625,0.0716094970703125
1782845339889475600,2.1874755859375,-0.961456298828125,-0.21630859375,0.0731048583984375
1782845339899480600,2.19748046875,-0.9598846435546875,-0.2152862548828125,0.0729827880859375
1782845339909484500,2.207484619140625,-0.9647064208984375,-0.215972900390625,0.0777740478515625
1782845339919489500,2.217489501953125,-0.970489501953125,-0.2251739501953125,0.082000732421875
1782845339929493800,2.22749365234375,-0.9693145751953125,-0.236175537109375,0.0911407470703125
1782845339939498800,2.237498779296875,-0.9644622802734375,-0.2422637939453125,0.09857177734375
1782845339949502700,2.247502685546875,-0.9746551513671875,-0.2441558837890625,0.092376708984375
1782845339959507700,2.2575078125,-0.9750823974609375,-0.246246337890625,0.0986175537109375
1782845339969511400,2.267511474609375,-0.9716644287109375,-0.2440948486328125,0.0998382568359375
1782845339979515600,2.277515625,-0.9636993408203125,-0.2342681884765625,0.0896759033203125
1782845339989520600,2.287520751953125,-0.9628753662109375,-0.215576171875,0.0726776123046875
1782845339999524600,2.297524658203125,-0.975860595703125,-0.2008209228515625,0.0570068359375
1782845340009529600,2.307529541015625,-0.972259521484375,-0.198394775390625,0.050262451171875
1782845340019533600,2.317533447265625,-0.9605712890625,-0.2147216796875,0.0531005859375
1782845340029538600,2.32753857421875,-0.9582977294921875,-0.2253265380859375,0.0717926025390625
1782845340039542800,2.337542724609375,-0.9712982177734375,-0.2158050537109375,0.09271240234375
1782845340049546800,2.347546630859375,-1.0173797607421875,-0.2026519775390625,0.1113739013671875
1782845340059551700,2.3575517578125,-1.0809173583984375,-0.1917724609375,0.1176300048828125
1782845340069555500,2.367555419921875,-1.131591796875,-0.1775360107421875,0.1213226318359375
1782845340079560400,2.377560546875,-1.164886474609375,-0.1609954833984375,0.1175994873046875
1782845340089564700,2.387564697265625,-1.1695098876953125,-0.1520538330078125,0.10772705078125
1782845340099569700,2.397569580078125,-1.15509033203125,-0.1510009765625,0.10675048828125
1782845340109573600,2.40757373046875,-1.12811279296875,-0.151641845703125,0.111846923828125
1782845340119578600,2.41757861328125,-1.0921630859375,-0.15606689453125,0.10760498046875
1782845340129582600,2.42758251953125,-1.05609130859375,-0.1580047607421875,0.087677001953125
1782845340139586600,2.437586669921875,-1.0117645263671875,-0.154571533203125,0.0569000244140625
1782845340149591800,2.447591796875,-0.9640655517578125,-0.1537933349609375,0.0333099365234375
1782845340159595800,2.457595703125,-0.9231109619140625,-0.1527252197265625,0.01849365234375
1782845340169600800,2.467600830078125,-0.8794403076171875,-0.149749755859375,0.0153961181640625
1782845340179604500,2.4776044921875,-0.8450775146484375,-0.1396026611328125,0.02349853515625
1782845340189609500,2.487609375,-0.8295135498046875,-0.13458251953125,0.0304718017578125
1782845340199613700,2.49761376953125,-0.82366943359375,-0.1317901611328125,0.03643798828125
1782845340209618700,2.50761865234375,-0.8299407958984375,-0.1509246826171875,0.054229736328125
1782845340219622700,2.51762255859375,-0.8349151611328125,-0.1711883544921875,0.0791778564453125
1782845340229626600,2.527626708984375,-0.8349456787109375,-0.1689300537109375,0.1030120849609375
1782845340239631600,2.537631591796875,-0.841094970703125,-0.1651458740234375,0.1231536865234375
1782845340249635600,2.547635498046875,-0.8528900146484375,-0.166229248046875,0.1414947509765625
1782845340259640600,2.557640625,-0.884246826171875,-0.166961669921875,0.163299560546875
1782845340269644800,2.567644775390625,-0.925537109375,-0.1624298095703125,0.195648193359375
1782845340279649800,2.57764990234375,-0.96612548828125,-0.1593475341796875,0.2237548828125
1782845340289653500,2.587653564453125,-1.005706787109375,-0.162628173828125,0.2430877685546875
1782845340299657500,2.597657470703125,-1.043670654296875,-0.1678314208984375,0.2611236572265625
1782845340309662500,2.607662353515625,-1.060760498046875,-0.17340087890625,0.278961181640625
1782845340319666700,2.617666748046875,-1.0758209228515625,-0.182403564453125,0.2952117919921875
1782845340329671700,2.627671630859375,-1.07867431640625,-0.186798095703125,0.294464111328125
1782845340339675600,2.637675537109375,-1.068511962890625,-0.1977386474609375,0.294403076171875
1782845340349680600,2.6476806640625,-1.05615234375,-0.2090911865234375,0.291717529296875
1782845340359684600,2.6576845703125,-1.041748046875,-0.2169036865234375,0.2812347412109375
1782845340369689600,2.667689697265625,-1.0288848876953125,-0.2260589599609375,0.2661285400390625
1782845340379693600,2.677693603515625,-1.0116729736328125,-0.226959228515625,0.2478179931640625
1782845340389697500,2.687697509765625,-0.9975128173828125,-0.231658935546875,0.2261962890625
1782845340399702500,2.69770263671875,-0.9917144775390625,-0.2307891845703125,0.2076568603515625
1782845340409706500,2.70770654296875,-0.9827728271484375,-0.227783203125,0.18902587890625
1782845340419711500,2.71771142578125,-0.965789794921875,-0.237579345703125,0.1717529296875
1782845340429715700,2.7277158203125,-0.9528656005859375,-0.237335205078125,0.1567535400390625
1782845340439720700,2.737720703125,-0.94989013671875,-0.224945068359375,0.1483001708984375
1782845340449724700,2.747724609375,-0.93896484375,-0.21112060546875,0.141265869140625
1782845340459728600,2.757728759765625,-0.9195098876953125,-0.210357666015625,0.139862060546875
1782845340469733600,2.767733642578125,-0.9013519287109375,-0.2119598388671875,0.1431427001953125
1782845340479737600,2.777737548828125,-0.8850555419921875,-0.209014892578125,0.1483612060546875
1782845340489742600,2.78774267578125,-0.8724822998046875,-0.209747314453125,0.149627685546875
1782845340499746600,2.79774658203125,-0.863555908203125,-0.2159271240234375,0.15283203125
1782845340509751600,2.80775146484375,-0.8597564697265625,-0.2203369140625,0.155731201171875
1782845340519755500,2.817755615234375,-0.86541748046875,-0.2216949462890625,0.1636962890625
1782845340529760500,2.827760498046875,-0.8774261474609375,-0.221954345703125,0.170196533203125
1782845340539764700,2.8377646484375,-0.89251708984375,-0.22979736328125,0.1741485595703125
1782845340549768700,2.847768798828125,-0.9099273681640625,-0.2370758056640625,0.1757965087890625
1782845340559773700,2.857773681640625,-0.920440673828125,-0.2411346435546875,0.176849365234375
1782845340569777700,2.867777587890625,-0.925750732421875,-0.2449188232421875,0.1771697998046875
1782845340579782700,2.87778271484375,-0.9293975830078125,-0.238677978515625,0.1817474365234375
1782845340589786600,2.88778662109375,-0.93603515625,-0.2257232666015625,0.18182373046875
1782845340599791600,2.89779150390625,-0.933563232421875,-0.2346649169921875,0.176544189453125
1782845340609795600,2.907795654296875,-0.921234130859375,-0.2498626708984375,0.17559814453125
1782845340619800600,2.917800537109375,-0.9112701416015625,-0.25384521484375,0.182586669921875
1782845340629804500,2.927804443359375,-0.8999786376953125,-0.2528076171875,0.1884613037109375
1782845340639808800,2.937808837890625,-0.8930816650390625,-0.2510223388671875,0.19024658203125
1782845340649813800,2.947813720703125,-0.89373779296875,-0.2405548095703125,0.1937408447265625
1782845340659817700,2.957817626953125,-0.9000396728515625,-0.244537353515625,0.194122314453125
1782845340669822700,2.96782275390625,-0.897125244140625,-0.2543182373046875,0.19287109375
1782845340679826700,2.97782666015625,-0.8914642333984375,-0.2565765380859375,0.1940155029296875
1782845340689831700,2.987831787109375,-0.8932952880859375,-0.2615203857421875,0.18902587890625
1782845340699836000,2.9978359375,-0.894378662109375,-0.259979248046875,0.1856842041015625
1782845340709841000,3.0078408203125,-0.8990478515625,-0.2505340576171875,0.1800384521484375
1782845340719844600,3.0178447265625,-0.9043426513671875,-0.2494659423828125,0.1693878173828125
1782845340729848600,3.0278486328125,-0.9136505126953125,-0.2548675537109375,0.163909912109375
1782845340739853600,3.037853515625,-0.9212646484375,-0.2659759521484375,0.1591796875
1782845340749857800,3.04785791015625,-0.9303436279296875,-0.267791748046875,0.1595611572265625
1782845340759862800,3.05786279296875,-0.937103271484375,-0.2666015625,0.160064697265625
1782845340769866800,3.06786669921875,-0.938995361328125,-0.275543212890625,0.1566619873046875
1782845340779871700,3.077871826171875,-0.936614990234375,-0.294281005859375,0.150787353515625
1782845340789875700,3.087875732421875,-0.93719482421875,-0.314697265625,0.1452178955078125
1782845340799879400,3.09787939453125,-0.936798095703125,-0.3180999755859375,0.1378021240234375
1782845340809884700,3.107884765625,-0.93975830078125,-0.304840087890625,0.1296539306640625
1782845340819888600,3.117888671875,-0.9386444091796875,-0.2967376708984375,0.1125030517578125
1782845340829893600,3.1278935546875,-0.9340057373046875,-0.3017730712890625,0.0984649658203125
1782845340839897600,3.137897705078125,-0.9250030517578125,-0.3060760498046875,0.095916748046875
1782845340849902600,3.147902587890625,-0.9149169921875,-0.3110809326171875,0.099029541015625
1782845340859906600,3.157906494140625,-0.9045257568359375,-0.31500244140625,0.0997772216796875
1782845340869910800,3.167910888671875,-0.8996429443359375,-0.309112548828125,0.1047821044921875
1782845340879915800,3.177915771484375,-0.9003753662109375,-0.3040618896484375,0.110107421875
1782845340889919700,3.187919677734375,-0.90185546875,-0.30755615234375,0.113983154296875
1782845340899924700,3.1979248046875,-0.8968963623046875,-0.32501220703125,0.118011474609375
1782845340909928400,3.207928466796875,-0.8943939208984375,-0.3360443115234375,0.127471923828125
1782845340919933400,3.217933349609375,-0.890625,-0.3391571044921875,0.1361541748046875
1782845340929937700,3.227937744140625,-0.89495849609375,-0.3379974365234375,0.1461334228515625
1782845340939942700,3.237942626953125,-0.908905029296875,-0.334197998046875,0.150360107421875
1782845340949946600,3.247946533203125,-0.9301300048828125,-0.3393707275390625,0.1486663818359375
1782845340959950600,3.25795068359375,-0.9475555419921875,-0.34832763671875,0.1513671875
1782845340969955600,3.26795556640625,-0.9633026123046875,-0.3555450439453125,0.1527099609375
1782845340979959800,3.277959716796875,-0.9792633056640625,-0.3655242919921875,0.1542205810546875
1782845340989964800,3.28796484375,-0.9982147216796875,-0.370513916015625,0.1558990478515625
1782845340999968800,3.29796875,-1.0207672119140625,-0.3727264404296875,0.15716552734375
1782845341009973800,3.307973876953125,-1.0372314453125,-0.379547119140625,0.1503143310546875
1782845341019977500,3.3179775390625,-1.040740966796875,-0.378204345703125,0.135223388671875
1782845341029982500,3.327982421875,-1.03118896484375,-0.3608856201171875,0.129974365234375
1782845341039986700,3.337986572265625,-1.0240325927734375,-0.3458251953125,0.131317138671875
1782845341049990700,3.34799072265625,-1.02734375,-0.3220977783203125,0.1408843994140625
1782845341059995600,3.35799560546875,-1.0389251708984375,-0.2915191650390625,0.153228759765625
1782845341069999600,3.36799951171875,-1.0542144775390625,-0.2627716064453125,0.1662750244140625
1782845341080004600,3.378004638671875,-1.0677490234375,-0.231475830078125,0.1838836669921875
1782845341090008800,3.3880087890625,-1.0815582275390625,-0.21710205078125,0.1986541748046875
1782845341100013800,3.398013916015625,-1.0823974609375,-0.21746826171875,0.2169647216796875
1782845341110017800,3.408017822265625,-1.0708465576171875,-0.220184326171875,0.2309722900390625
1782845341120021500,3.418021484375,-1.05078125,-0.2178497314453125,0.2353057861328125
1782845341130026500,3.428026611328125,-1.0235137939453125,-0.2200469970703125,0.2308807373046875
1782845341140030700,3.43803076171875,-0.999053955078125,-0.2242431640625,0.216033935546875
1782845341150035700,3.44803564453125,-0.978515625,-0.243927001953125,0.19403076171875
1782845341160039700,3.458039794921875,-0.9494781494140625,-0.25323486328125,0.1719970703125
1782845341170044700,3.468044677734375,-0.923797607421875,-0.2450103759765625,0.1510162353515625
1782845341180048600,3.478048583984375,-0.914947509765625,-0.2352142333984375,0.1373291015625
1782845341190053600,3.4880537109375,-0.909576416015625,-0.2216033935546875,0.1323699951171875
1782845341200057900,3.498057861328125,-0.9044952392578125,-0.2066650390625,0.117706298828125
1782845341210061600,3.5080615234375,-0.8943634033203125,-0.196258544921875,0.10198974609375
1782845341220066600,3.518066650390625,-0.8804473876953125,-0.19232177734375,0.088623046875
1782845341230070500,3.528070556640625,-0.8729248046875,-0.189849853515625,0.092041015625
1782845341240075500,3.538075439453125,-0.866607666015625,-0.1786346435546875,0.1060791015625
1782845341250079700,3.548079833984375,-0.864898681640625,-0.1618499755859375,0.123809814453125
1782845341260084700,3.558084716796875,-0.8629302978515625,-0.1455230712890625,0.1364593505859375
1782845341270088700,3.568088623046875,-0.856475830078125,-0.14178466796875,0.1418609619140625
1782845341280093700,3.57809375,-0.8641204833984375,-0.1395111083984375,0.1485595703125
1782845341290097700,3.58809765625,-0.8791351318359375,-0.1259613037109375,0.1536407470703125
1782845341300101600,3.5981015625,-0.9075775146484375,-0.120880126953125,0.1569061279296875
1782845341310107000,3.60810693359375,-0.949951171875,-0.113616943359375,0.1541748046875
1782845341320110600,3.618110595703125,-0.98681640625,-0.104888916015625,0.14605712890625
1782845341330115600,3.628115478515625,-1.006500244140625,-0.107208251953125,0.1390838623046875
1782845341340119600,3.63811962890625,-1.0018157958984375,-0.1120452880859375,0.137847900390625
1782845341350124500,3.64812451171875,-0.99200439453125,-0.1163330078125,0.1350860595703125
1782845341360128800,3.658128662109375,-0.98223876953125,-0.120086669921875,0.1329193115234375
1782845341370132700,3.6681328125,-0.97161865234375,-0.125762939453125,0.1309814453125
1782845341380137700,3.6781376953125,-0.9668121337890625,-0.12310791015625,0.1298980712890625
1782845341390141700,3.6881416015625,-0.9679107666015625,-0.125,0.1254730224609375
1782845341400146700,3.698146728515625,-0.97601318359375,-0.1257781982421875,0.123138427734375
1782845341410150700,3.708150634765625,-0.9855499267578125,-0.13018798828125,0.116058349609375
1782845341420155600,3.71815576171875,-0.9874267578125,-0.1334686279296875,0.1106719970703125
1782845341430159600,3.72815966796875,-0.9868927001953125,-0.1451873779296875,0.107147216796875
1782845341440164600,3.73816455078125,-0.9888458251953125,-0.1539306640625,0.112152099609375
1782845341450168600,3.74816845703125,-1.000732421875,-0.1567230224609375,0.1145172119140625
1782845341460172500,3.758172607421875,-1.0173797607421875,-0.1543121337890625,0.1162261962890625
1782845341470177500,3.768177490234375,-1.0280914306640625,-0.15252685546875,0.1147613525390625
1782845341480181800,3.778181640625,-1.0325775146484375,-0.1540069580078125,0.1048583984375
1782845341490186800,3.788186767578125,-1.0307769775390625,-0.1618194580078125,0.09619140625
1782845341500190700,3.798190673828125,-1.0208282470703125,-0.17559814453125,0.095367431640625
1782845341510195700,3.80819580078125,-1.00701904296875,-0.1734466552734375,0.098541259765625
1782845341520199700,3.81819970703125,-0.9853057861328125,-0.1626434326171875,0.08984375
1782845341530204700,3.82820458984375,-0.9472808837890625,-0.1668701171875,0.0745086669921875
1782845341540208600,3.838208740234375,-0.902557373046875,-0.1696319580078125,0.0655670166015625
1782845341550212600,3.848212646484375,-0.8725433349609375,-0.1651458740234375,0.063751220703125
1782845341560217600,3.858217529296875,-0.8490142822265625,-0.166717529296875,0.0614471435546875
1782845341570221600,3.8682216796875,-0.8356170654296875,-0.1717071533203125,0.0620269775390625
1782845341580226600,3.8782265625,-0.8408966064453125,-0.169586181640625,0.06805419921875
1782845341590230800,3.888230712890625,-0.859649658203125,-0.1700897216796875,0.0759429931640625
1782845341600235800,3.89823583984375,-0.8826141357421875,-0.17864990234375,0.08544921875
1782845341610239700,3.90823974609375,-0.9033050537109375,-0.19366455078125,0.092315673828125
1782845341620243500,3.918243408203125,-0.9190521240234375,-0.2026824951171875,0.1012115478515625
1782845341630248400,3.92824853515625,-0.9388427734375,-0.210968017578125,0.1103668212890625
1782845341640252700,3.938252685546875,-0.95159912109375,-0.2238922119140625,0.114776611328125
1782845341650257700,3.948257568359375,-0.9687652587890625,-0.234954833984375,0.1116180419921875
1782845341660261600,3.95826171875,-0.9921112060546875,-0.2340087890625,0.1082916259765625
1782845341670266600,3.9682666015625,-1.021484375,-0.2257843017578125,0.1070556640625
1782845341680270600,3.9782705078125,-1.05010986328125,-0.222412109375,0.095855712890625
1782845341690275600,3.988275634765625,-1.0706634521484375,-0.226715087890625,0.0831146240234375
1782845341700279800,3.99827978515625,-1.0824127197265625,-0.2276611328125,0.0722198486328125
1782845341710283800,4.00828369140625,-1.0820465087890625,-0.2223052978515625,0.0586395263671875
1782845341720288800,4.018288818359375,-1.0642547607421875,-0.2192230224609375,0.047088623046875
1782845341730292500,4.02829248046875,-1.0338287353515625,-0.2195587158203125,0.0400390625
1782845341740297500,4.03829736328125,-1.0026092529296875,-0.220916748046875,0.037994384765625
1782845341750301700,4.0483017578125,-0.9729156494140625,-0.2176666259765625,0.0399932861328125
1782845341760306700,4.058306640625,-0.9472808837890625,-0.2158050537109375,0.04058837890625
1782845341770310700,4.068310546875,-0.9285430908203125,-0.223907470703125,0.041748046875
1782845341780315600,4.078315673828125,-0.9190826416015625,-0.2313232421875,0.0467987060546875
1782845341790319600,4.088319580078125,-0.923187255859375,-0.233489990234375,0.0536346435546875
1782845341800323800,4.09832373046875,-0.92431640625,-0.2454071044921875,0.0597686767578125
1782845341810328800,4.108328857421875,-0.9302520751953125,-0.2527008056640625,0.0657806396484375
1782845341820332800,4.118332763671875,-0.938232421875,-0.2551422119140625,0.0666046142578125
1782845341830337800,4.128337890625,-0.946563720703125,-0.2501678466796875,0.06298828125
1782845341840341500,4.138341552734375,-0.95709228515625,-0.244903564453125,0.060791015625
1782845341850346500,4.148346435546875,-0.9650421142578125,-0.2286224365234375,0.05462646484375
1782845341860350700,4.158350830078125,-0.96881103515625,-0.21881103515625,0.0454864501953125
1782845341870354700,4.168354736328125,-0.967071533203125,-0.2216033935546875,0.0359039306640625
1782845341880359700,4.178359619140625,-0.957000732421875,-0.226165771484375,0.0336761474609375
1782845341890363600,4.18836376953125,-0.9509735107421875,-0.226470947265625,0.0388641357421875
1782845341900368600,4.19836865234375,-0.9486846923828125,-0.216827392578125,0.0436553955078125
1782845341910372600,4.20837255859375,-0.9489288330078125,-0.2112579345703125,0.0418243408203125
1782845341920377900,4.2183779296875,-0.9519805908203125,-0.213653564453125,0.0388336181640625
1782845341930381800,4.2283818359375,-0.962646484375,-0.218841552734375,0.041351318359375
1782845341940386800,4.23838671875,-0.9715576171875,-0.232086181640625,0.0518035888671875
1782845341950390500,4.248390625,-0.9885406494140625,-0.2529144287109375,0.055816650390625
1782845341960394500,4.25839453125,-1.008544921875,-0.256439208984375,0.071441650390625
1782845341970399700,4.268399658203125,-0.9973297119140625,-0.2503814697265625,0.09515380859375
1782845341980403700,4.27840380859375,-0.9652862548828125,-0.25006103515625,0.098907470703125
1782845341990408700,4.28840869140625,-0.941253662109375,-0.2458038330078125,0.0929107666015625
1782845342000412700,4.29841259765625,-0.9354400634765625,-0.250091552734375,0.088531494140625
1782845342010417700,4.308417724609375,-0.93359375,-0.25537109375,0.0869903564453125
1782845342020421600,4.318421630859375,-0.9326629638671875,-0.2598114013671875,0.0833892822265625
1782845342030426600,4.328426513671875,-0.9373931884765625,-0.2677154541015625,0.0759429931640625
1782845342040430800,4.338430908203125,-0.944122314453125,-0.276611328125,0.0694732666015625
1782845342050434600,4.3484345703125,-0.9491729736328125,-0.287078857421875,0.06427001953125
1782845342060439600,4.358439453125,-0.957244873046875,-0.2924346923828125,0.0670318603515625
1782845342070443500,4.368443603515625,-0.969024658203125,-0.293609619140625,0.0697784423828125
1782845342080448500,4.378448486328125,-0.9746856689453125,-0.2941436767578125,0.0554656982421875
1782845342090452700,4.38845263671875,-0.975830078125,-0.285736083984375,0.0516815185546875
1782845342100457700,4.398457763671875,-0.9785003662109375,-0.272186279296875,0.0274505615234375
1782845342110461700,4.408461669921875,-0.9861602783203125,-0.267547607421875,-0.0033721923828125
1782845342120465700,4.418465576171875,-0.9903564453125,-0.2551727294921875,-0.0093231201171875
1782845342130470700,4.428470703125,-0.9917755126953125,-0.2545318603515625,-0.003265380859375
1782845342140474600,4.438474609375,-0.9871826171875,-0.2540740966796875,0.01751708984375
1782845342150479600,4.448479736328125,-0.988800048828125,-0.24468994140625,0.0485992431640625
1782845342160483600,4.458483642578125,-1.0064697265625,-0.2363128662109375,0.0776214599609375
1782845342170488600,4.468488525390625,-1.0461273193359375,-0.233123779296875,0.1060943603515625
1782845342180492500,4.478492431640625,-1.1098480224609375,-0.2308197021484375,0.1336822509765625
1782845342190497500,4.48849755859375,-1.1619415283203125,-0.2142181396484375,0.159515380859375
1782845342200501800,4.498501708984375,-1.1871795654296875,-0.20037841796875,0.1766815185546875
1782845342210505700,4.508505615234375,-1.1944580078125,-0.1924591064453125,0.1891326904296875
1782845342220510700,4.5185107421875,-1.1729583740234375,-0.1906280517578125,0.1929473876953125
1782845342230514700,4.5285146484375,-1.1288299560546875,-0.18792724609375,0.189178466796875
1782845342240519700,4.538519775390625,-1.0823516845703125,-0.1910400390625,0.1791839599609375
1782845342250523600,4.548523681640625,-1.0283660888671875,-0.198974609375,0.1670379638671875
1782845342260528600,4.558528564453125,-0.9788818359375,-0.2025146484375,0.1462249755859375
1782845342270532600,4.56853271484375,-0.92730712890625,-0.213592529296875,0.129180908203125
1782845342280537600,4.57853759765625,-0.8858489990234375,-0.2220306396484375,0.125244140625
1782845342290541600,4.58854150390625,-0.8559112548828125,-0.2223052978515625,0.125
1782845342300545800,4.5985458984375,-0.8397674560546875,-0.226776123046875,0.122772216796875
1782845342310550800,4.60855078125,-0.8275909423828125,-0.2254638671875,0.1182861328125
1782845342320554800,4.6185546875,-0.819488525390625,-0.2148590087890625,0.1089630126953125
1782845342330559700,4.628559814453125,-0.825775146484375,-0.204498291015625,0.1001739501953125
1782845342340563700,4.638563720703125,-0.8414459228515625,-0.1967315673828125,0.0891571044921875
1782845342350568700,4.648568603515625,-0.8685302734375,-0.1890869140625,0.088714599609375
1782845342360572700,4.65857275390625,-0.8956146240234375,-0.1909027099609375,0.102874755859375
1782845342370577700,4.66857763671875,-0.9157562255859375,-0.188751220703125,0.1369781494140625
1782845342380581600,4.67858154296875,-0.9351654052734375,-0.1839447021484375,0.1717529296875
1782845342390585600,4.688585693359375,-0.960540771484375,-0.1753387451171875,0.1961669921875
1782845342400590600,4.698590576171875,-0.9696502685546875,-0.1681976318359375,0.2162628173828125
1782845342410594800,4.7085947265625,-0.9839935302734375,-0.1735382080078125,0.222991943359375
1782845342420599800,4.718599853515625,-1.0059967041015625,-0.183837890625,0.2310028076171875
1782845342430603800,4.728603759765625,-1.0170440673828125,-0.1896209716796875,0.2402191162109375
1782845342440608800,4.73860888671875,-1.0248565673828125,-0.19793701171875,0.2557525634765625
1782845342450612700,4.74861279296875,-1.0296478271484375,-0.2127685546875,0.2673187255859375
1782845342460617700,4.75861767578125,-1.0251922607421875,-0.2295989990234375,0.2654266357421875
1782845342470621700,4.76862158203125,-1.0182037353515625,-0.2386474609375,0.2595062255859375
1782845342480625700,4.778625732421875,-1.0140228271484375,-0.2378997802734375,0.24896240234375
1782845342490630700,4.788630615234375,-0.9965362548828125,-0.2422943115234375,0.2300262451171875
1782845342500634600,4.798634521484375,-0.9666748046875,-0.2542877197265625,0.205230712890625
1782845342510639600,4.8086396484375,-0.9401702880859375,-0.2614288330078125,0.181060791015625
1782845342520643600,4.8186435546875,-0.936981201171875,-0.2524566650390625,0.1640777587890625
1782845342530648800,4.82864892578125,-0.9377288818359375,-0.2562408447265625,0.1516876220703125
1782845342540652800,4.83865283203125,-0.9305877685546875,-0.2600555419921875,0.1427764892578125
1782845342550656500,4.848656494140625,-0.9256591796875,-0.251220703125,0.1434173583984375
1782845342560661500,4.85866162109375,-0.9178009033203125,-0.246978759765625,0.1433868408203125
1782845342570665500,4.86866552734375,-0.909423828125,-0.246551513671875,0.13409423828125
1782845342580670700,4.878670654296875,-0.89581298828125,-0.2484893798828125,0.1282958984375
1782845342590674700,4.8886748046875,-0.886474609375,-0.2440643310546875,0.137786865234375
1782845342600679700,4.8986796875,-0.8786163330078125,-0.235504150390625,0.1464691162109375
1782845342610683600,4.90868359375,-0.878082275390625,-0.2253875732421875,0.1511993408203125
1782845342620688600,4.918688720703125,-0.87652587890625,-0.2240142822265625,0.1452178955078125
1782845342630692600,4.928692626953125,-0.8746337890625,-0.2328338623046875,0.136383056640625
1782845342640696800,4.93869677734375,-0.8699798583984375,-0.2466278076171875,0.135528564453125
1782845342650701800,4.948701904296875,-0.857269287109375,-0.2557373046875,0.1382293701171875
1782845342660705500,4.95870556640625,-0.8455963134765625,-0.2655029296875,0.14422607421875
1782845342670710800,4.968710693359375,-0.838592529296875,-0.2725982666015625,0.155548095703125
1782845342680714800,4.97871484375,-0.83837890625,-0.278350830078125,0.1656646728515625
1782845342690719700,4.9887197265625,-0.8484954833984375,-0.2747039794921875,0.174072265625
1782845342700723700,4.9987236328125,-0.8694915771484375,-0.275909423828125,0.181854248046875
1782845342710728700,5.008728759765625,-0.8938446044921875,-0.2797393798828125,0.1861572265625
1782845342720732700,5.018732666015625,-0.9212493896484375,-0.273406982421875,0.18927001953125
1782845342730736600,5.028736572265625,-0.947784423828125,-0.2753143310546875,0.1901397705078125
1782845342740741600,5.03874169921875,-0.9646453857421875,-0.28436279296875,0.1923675537109375
1782845342750745900,5.048745849609375,-0.9611053466796875,-0.2859649658203125,0.1955718994140625
1782845342760750800,5.058750732421875,-0.950653076171875,-0.280792236328125,0.1916351318359375
1782845342770754800,5.0687548828125,-0.9329681396484375,-0.2826385498046875,0.1897430419921875
1782845342780759800,5.078759765625,-0.91949462890625,-0.2845916748046875,0.1934661865234375
1782845342790763800,5.088763671875,-0.907745361328125,-0.2776947021484375,0.1971893310546875
1782845342800768800,5.098768798828125,-0.9019775390625,-0.2743377685546875,0.193328857421875
1782845342810772700,5.108772705078125,-0.9001312255859375,-0.276611328125,0.18572998046875
1782845342820776700,5.118776611328125,-0.8997344970703125,-0.2760772705078125,0.1750946044921875
1782845342830781700,5.12878173828125,-0.898895263671875,-0.2807464599609375,0.1646575927734375
1782845342840785700,5.13878564453125,-0.899078369140625,-0.29290771484375,0.15081787109375
1782845342850790700,5.148790771484375,-0.8958740234375,-0.2989959716796875,0.1375885009765625
1782845342860795000,5.158794921875,-0.89971923828125,-0.297607421875,0.1221160888671875
1782845342870800000,5.1687998046875,-0.9058990478515625,-0.30853271484375,0.1041412353515625
1782845342880803800,5.178803955078125,-0.9042816162109375,-0.3202056884765625,0.0942535400390625
1782845342890808800,5.188808837890625,-0.9001922607421875,-0.325927734375,0.0918731689453125
1782845342900812800,5.198812744140625,-0.893310546875,-0.3316192626953125,0.09259033203125
1782845342910816800,5.208816650390625,-0.8944854736328125,-0.3327178955078125,0.0955963134765625
1782845342920821800,5.21882177734375,-0.89666748046875,-0.33270263671875,0.1003265380859375
1782845342930825700,5.22882568359375,-0.892425537109375,-0.3370819091796875,0.1010894775390625
1782845342940830700,5.238830810546875,-0.8874664306640625,-0.3386688232421875,0.10150146484375
1782845342950834700,5.248834716796875,-0.8814697265625,-0.3439178466796875,0.1053924560546875
1782845342960839700,5.258839599609375,-0.879608154296875,-0.354949951171875,0.11639404296875
1782845342970844000,5.268843994140625,-0.8824462890625,-0.361541748046875,0.1207733154296875
1782845342980849000,5.278848876953125,-0.8881072998046875,-0.3630218505859375,0.1220245361328125
1782845342990852900,5.288852783203125,-0.888916015625,-0.3651885986328125,0.1268768310546875
1782845343000856600,5.298856689453125,-0.88818359375,-0.362762451171875,0.136932373046875
1782845343010861600,5.308861572265625,-0.8920745849609375,-0.3559722900390625,0.1389007568359375
1782845343020865800,5.31886572265625,-0.9000091552734375,-0.3566131591796875,0.13812255859375
1782845343030870800,5.328870849609375,-0.9148101806640625,-0.360595703125,0.14208984375
1782845343040874800,5.338874755859375,-0.9404449462890625,-0.369720458984375,0.1404266357421875
1782845343050879700,5.348879638671875,-0.96942138671875,-0.3819732666015625,0.136138916015625
1782845343060883700,5.3588837890625,-0.999725341796875,-0.389739990234375,0.1353302001953125
1782845343070888700,5.368888671875,-1.02606201171875,-0.3928680419921875,0.122039794921875
1782845343080893000,5.378892822265625,-1.04119873046875,-0.3979034423828125,0.1029205322265625
1782845343090897000,5.38889697265625,-1.0441741943359375,-0.4054107666015625,0.086883544921875
1782845343100902000,5.39890185546875,-1.0323944091796875,-0.4130706787109375,0.0745697021484375
1782845343110905600,5.408905517578125,-1.0113983154296875,-0.4162750244140625,0.0670623779296875
1782845343120910600,5.41891064453125,-0.981781005859375,-0.4150543212890625,0.056427001953125
1782845343130914800,5.428914794921875,-0.9645538330078125,-0.4098052978515625,0.0515289306640625
1782845343140919800,5.438919921875,-0.9679718017578125,-0.397216796875,0.0452728271484375
1782845343150923800,5.448923828125,-0.9725341796875,-0.3844757080078125,0.0405426025390625
1782845343160928800,5.4589287109375,-0.976104736328125,-0.3683624267578125,0.041961669921875
1782845343170932700,5.4689326171875,-0.980712890625,-0.35247802734375,0.0574188232421875
1782845343180936700,5.478936767578125,-0.9824676513671875,-0.3340606689453125,0.0964508056640625
1782845343190941700,5.488941650390625,-0.9742584228515625,-0.299774169921875,0.1446990966796875
1782845343200946000,5.49894580078125,-0.962066650390625,-0.2677001953125,0.1846160888671875
1782845343210951000,5.508950927734375,-0.96405029296875,-0.2415313720703125,0.212921142578125
1782845343220954600,5.51895458984375,-0.965972900390625,-0.223846435546875,0.2290496826171875
1782845343230959600,5.528959716796875,-0.9579315185546875,-0.2232513427734375,0.242950439453125
1782845343240963600,5.538963623046875,-0.9488372802734375,-0.2197723388671875,0.262939453125
1782845343250968600,5.548968505859375,-0.94793701171875,-0.2270050048828125,0.27667236328125
1782845343260972800,5.558972900390625,-0.9567718505859375,-0.2518310546875,0.2783355712890625
1782845343270976800,5.568976806640625,-0.9747161865234375,-0.267364501953125,0.2767486572265625
1782845343280981800,5.578981689453125,-0.990997314453125,-0.274169921875,0.2600860595703125
1782845343290985700,5.58898583984375,-1.006805419921875,-0.282196044921875,0.2301788330078125
1782845343300990700,5.59899072265625,-1.0106201171875,-0.3119659423828125,0.1995086669921875
1782845343310995000,5.608994873046875,-0.9892578125,-0.32977294921875,0.173736572265625
1782845343321000000,5.619,-0.9900360107421875,-0.3139801025390625,0.150634765625
1782845343331003600,5.629003662109375,-0.98248291015625,-0.284637451171875,0.11529541015625
1782845343341008600,5.639008544921875,-0.9581146240234375,-0.2755126953125,0.0681915283203125
1782845343351012600,5.6490126953125,-0.9253997802734375,-0.2745819091796875,0.0381317138671875
1782845343361016800,5.659016845703125,-0.8997955322265625,-0.2657470703125,0.02545166015625
1782845343371021800,5.669021728515625,-0.8850860595703125,-0.244720458984375,0.0457305908203125
1782845343381025800,5.67902587890625,-0.8858184814453125,-0.227264404296875,0.036468505859375
1782845343391030800,5.68903076171875,-0.8829193115234375,-0.2353668212890625,0.0441741943359375
1782845343401034800,5.69903466796875,-0.878082275390625,-0.2279052734375,0.0765533447265625
1782845343411039700,5.709039794921875,-0.8941192626953125,-0.195770263671875,0.1001129150390625
1782845343421043700,5.719043701171875,-0.920745849609375,-0.183837890625,0.1054229736328125
1782845343431048700,5.729048583984375,-0.9354248046875,-0.1796875,0.1051025390625
1782845343441052700,5.739052734375,-0.946624755859375,-0.1633148193359375,0.107147216796875
1782845343451056600,5.749056640625,-0.95098876953125,-0.151702880859375,0.1091156005859375
1782845343461061600,5.7590615234375,-0.9508056640625,-0.14013671875,0.10552978515625
1782845343471065900,5.76906591796875,-0.947357177734375,-0.1238555908203125,0.0984039306640625
1782845343481070800,5.77907080078125,-0.9409942626953125,-0.1138916015625,0.092010498046875
1782845343491074800,5.78907470703125,-0.933135986328125,-0.1061553955078125,0.086761474609375
1782845343501079800,5.799079833984375,-0.92431640625,-0.112457275390625,0.0798492431640625
1782845343511083800,5.809083740234375,-0.9173126220703125,-0.12542724609375,0.0792388916015625
1782845343521087700,5.819087646484375,-0.9122467041015625,-0.1355133056640625,0.0845489501953125
1782845343531092700,5.8290927734375,-0.905792236328125,-0.147613525390625,0.0897674560546875
1782845343541096700,5.8390966796875,-0.9008636474609375,-0.1646270751953125,0.0985565185546875
1782845343551101700,5.849101806640625,-0.9042510986328125,-0.176971435546875,0.1110382080078125
1782845343561105700,5.859105712890625,-0.9188079833984375,-0.1850433349609375,0.1191864013671875
1782845343571110700,5.869110595703125,-0.936859130859375,-0.1915283203125,0.1235504150390625
1782845343581115000,5.879114990234375,-0.959320068359375,-0.2028045654296875,0.127777099609375
1782845343591120000,5.889119873046875,-0.9875946044921875,-0.207122802734375,0.1306915283203125
1782845343601123800,5.899123779296875,-1.0200347900390625,-0.2076416015625,0.1328887939453125
1782845343611128800,5.90912890625,-1.044097900390625,-0.2101898193359375,0.131072998046875
1782845343621132800,5.9191328125,-1.0576171875,-0.21234130859375,0.124298095703125
1782845343631136800,5.92913671875,-1.0648040771484375,-0.2136688232421875,0.1155548095703125
1782845343641141800,5.939141845703125,-1.057220458984375,-0.21563720703125,0.1048736572265625
1782845343651145700,5.949145751953125,-1.0377960205078125,-0.21112060546875,0.0971221923828125
1782845343661150700,5.959150634765625,-1.010467529296875,-0.2073516845703125,0.0877685546875
1782845343671154200,5.969154296875,-0.9722137451171875,-0.2032012939453125,0.0794525146484375
1782845343681159200,5.9791591796875,-0.931915283203125,-0.2049560546875,0.07989501953125
1782845343691163400,5.989163330078125,-0.888519287109375,-0.210418701171875,0.085693359375
1782845343701168400,5.99916845703125,-0.8641357421875,-0.2183837890625,0.0894317626953125
1782845343711172400,6.00917236328125,-0.860626220703125,-0.2274932861328125,0.0891876220703125
1782845343721176300,6.01917626953125,-0.8713531494140625,-0.2360992431640625,0.0977325439453125
1782845343731181300,6.029181396484375,-0.8854217529296875,-0.2452392578125,0.101776123046875
1782845343741185500,6.039185546875,-0.91082763671875,-0.2471923828125,0.102020263671875
1782845343751190500,6.0491904296875,-0.9408416748046875,-0.2475433349609375,0.0971221923828125
1782845343761194500,6.059194580078125,-0.96600341796875,-0.24285888671875,0.0903778076171875
1782845343771199500,6.069199462890625,-0.9879302978515625,-0.237335205078125,0.0778350830078125
1782845343781203200,6.079203125,-1.0059661865234375,-0.2386474609375,0.0696563720703125
1782845343791207400,6.08920751953125,-1.0167999267578125,-0.2476959228515625,0.0638275146484375
1782845343801212400,6.09921240234375,-1.03033447265625,-0.254486083984375,0.05804443359375
1782845343811216400,6.10921630859375,-1.0506439208984375,-0.2583770751953125,0.053253173828125
1782845343821221400,6.119221435546875,-1.070404052734375,-0.257843017578125,0.0435943603515625
1782845343831225300,6.129225341796875,-1.071533203125,-0.2588043212890625,0.0327606201171875
1782845343841230300,6.139230224609375,-1.0619964599609375,-0.262847900390625,0.0228729248046875
1782845343851234600,6.149234619140625,-1.03997802734375,-0.26220703125,0.0258331298828125
1782845343861239600,6.159239501953125,-1.010955810546875,-0.25311279296875,0.0292205810546875
1782845343871243500,6.169243408203125,-0.9894866943359375,-0.239471435546875,0.0269622802734375
1782845343881248500,6.17924853515625,-0.9618072509765625,-0.2322235107421875,0.02764892578125
1782845343891252200,6.189252197265625,-0.9340972900390625,-0.22869873046875,0.02996826171875
1782845343901256400,6.19925634765625,-0.90576171875,-0.2259979248046875,0.0336456298828125
1782845343911261400,6.209261474609375,-0.8840789794921875,-0.2323760986328125,0.0390167236328125
1782845343921265400,6.219265380859375,-0.8685760498046875,-0.2368316650390625,0.04876708984375
1782845343931270400,6.2292705078125,-0.864593505859375,-0.240936279296875,0.0620269775390625
1782845343941274400,6.2392744140625,-0.868133544921875,-0.2458953857421875,0.0765380859375
1782845343951279400,6.249279296875,-0.8795166015625,-0.252532958984375,0.087554931640625
1782845343961283300,6.259283447265625,-0.8999481201171875,-0.2634735107421875,0.093505859375
1782845343971288300,6.269288330078125,-0.92706298828125,-0.2688751220703125,0.0971221923828125
1782845343981292500,6.27929248046875,-0.9520416259765625,-0.266632080078125,0.095611572265625
1782845343991296300,6.289296142578125,-0.967864990234375,-0.2637176513671875,0.09600830078125
1782845344001301200,6.29930126953125,-0.9741668701171875,-0.260528564453125,0.100494384765625
1782845344011305200,6.30930517578125,-0.9703216552734375,-0.2607421875,0.0987396240234375
1782845344021310200,6.319310302734375,-0.96771240234375,-0.2616424560546875,0.0882720947265625
1782845344031314400,6.329314453125,-0.966217041015625,-0.2548370361328125,0.08306884765625
1782845344041319400,6.3393193359375,-0.9626007080078125,-0.2475433349609375,0.079437255859375
1782845344051323400,6.349323486328125,-0.959869384765625,-0.24407958984375,0.0783843994140625
1782845344061328400,6.359328369140625,-0.9487457275390625,-0.23858642578125,0.0820465087890625
1782845344071332400,6.369332275390625,-0.9359283447265625,-0.2409210205078125,0.085296630859375
1782845344081336300,6.37933642578125,-0.9298858642578125,-0.248565673828125,0.081512451171875
1782845344091341300,6.38934130859375,-0.93304443359375,-0.252288818359375,0.085968017578125
1782845344101345300,6.39934521484375,-0.9492645263671875,-0.25146484375,0.0898284912109375
1782845344111350300,6.409350341796875,-0.959930419921875,-0.2555389404296875,0.0843658447265625
1782845344121354200,6.419354248046875,-0.9609527587890625,-0.2555389404296875,0.0772857666015625
1782845344131359200,6.429359130859375,-0.953521728515625,-0.2547149658203125,0.073577880859375
1782845344141363500,6.439363525390625,-0.9427947998046875,-0.2560882568359375,0.0706024169921875
1782845344151368400,6.449368408203125,-0.9310455322265625,-0.265228271484375,0.0725860595703125
1782845344161372400,6.459372314453125,-0.931182861328125,-0.2761688232421875,0.0756988525390625
1782845344171376400,6.46937646484375,-0.9344482421875,-0.277313232421875,0.0777587890625
1782845344181381400,6.47938134765625,-0.956817626953125,-0.2707672119140625,0.081390380859375
1782845344191385300,6.48938525390625,-0.980194091796875,-0.26953125,0.080657958984375
1782845344201390300,6.499390380859375,-0.9903411865234375,-0.28387451171875,0.07977294921875
1782845344211394300,6.509394287109375,-1.001800537109375,-0.30517578125,0.0806427001953125
1782845344221399300,6.5193994140625,-1.009429931640625,-0.307891845703125,0.079376220703125
1782845344231403300,6.5294033203125,-1.011505126953125,-0.3038787841796875,0.0785675048828125
1782845344241408300,6.539408203125,-1.000579833984375,-0.29840087890625,0.0729522705078125
1782845344251412500,6.54941259765625,-0.9835662841796875,-0.292999267578125,0.07037353515625
1782845344261416400,6.55941650390625,-0.9775848388671875,-0.28826904296875,0.07159423828125
1782845344271421400,6.56942138671875,-0.97467041015625,-0.2828521728515625,0.0737152099609375
1782845344281425400,6.57942529296875,-0.9665679931640625,-0.2839508056640625,0.0966796875
1782845344291430400,6.589430419921875,-0.9986114501953125,-0.283203125,0.10540771484375
1782845344301434400,6.599434326171875,-1.0424346923828125,-0.2615509033203125,0.1238555908203125
1782845344311439400,6.609439453125,-1.0871124267578125,-0.2394866943359375,0.1320037841796875
1782845344321443300,6.619443359375,-1.1195831298828125,-0.2243499755859375,0.1351165771484375
1782845344331448300,6.6294482421875,-1.1283416748046875,-0.2187652587890625,0.1417388916015625
1782845344341452300,6.639452392578125,-1.1151123046875,-0.2152862548828125,0.14215087890625
1782845344351457300,6.649457275390625,-1.0873870849609375,-0.2079010009765625,0.1486663818359375
1782845344361461500,6.65946142578125,-1.0521240234375,-0.2039794921875,0.1492919921875
1782845344371465500,6.669465576171875,-1.011627197265625,-0.2087249755859375,0.1408843994140625
1782845344381470500,6.679470458984375,-0.9674530029296875,-0.21209716796875,0.1227264404296875
1782845344391474400,6.689474365234375,-0.9254302978515625,-0.209869384765625,0.1057281494140625
1782845344401479400,6.6994794921875,-0.8918304443359375,-0.201019287109375,0.0857391357421875
1782845344411483400,6.7094833984375,-0.8687896728515625,-0.1943511962890625,0.072113037109375
1782845344421488400,6.71948828125,-0.8615875244140625,-0.189239501953125,0.066497802734375
1782845344431492400,6.729492431640625,-0.854705810546875,-0.1817626953125,0.0676116943359375
1782845344441497300,6.739497314453125,-0.8633880615234375,-0.1731109619140625,0.0653076171875
1782845344451501300,6.749501220703125,-0.8767852783203125,-0.1705169677734375,0.0669708251953125
1782845344461505500,6.759505615234375,-0.8840789794921875,-0.17645263671875,0.069000244140625
1782845344471510500,6.769510498046875,-0.8906097412109375,-0.1716156005859375,0.0803375244140625
1782845344481514500,6.779514404296875,-0.89971923828125,-0.167327880859375,0.096832275390625
1782845344491519500,6.78951953125,-0.909088134765625,-0.1654815673828125,0.1139373779296875
1782845344501523200,6.799523193359375,-0.914886474609375,-0.16656494140625,0.126434326171875
1782845344511528400,6.809528564453125,-0.9206695556640625,-0.1698150634765625,0.13873291015625
1782845344521532400,6.819532470703125,-0.938629150390625,-0.1661529541015625,0.1588592529296875
1782845344531537400,6.829537353515625,-0.964080810546875,-0.1685028076171875,0.1763458251953125
1782845344541541400,6.839541259765625,-0.979339599609375,-0.174957275390625,0.190948486328125
1782845344551545300,6.84954541015625,-0.9857635498046875,-0.1862640380859375,0.202362060546875
1782845344561550300,6.85955029296875,-0.984649658203125,-0.1940460205078125,0.2093353271484375
1782845344571554300,6.86955419921875,-0.975738525390625,-0.200927734375,0.21258544921875
1782845344581559300,6.879559326171875,-0.9651947021484375,-0.21002197265625,0.2173309326171875
1782845344591563500,6.8895634765625,-0.975982666015625,-0.2144622802734375,0.2256011962890625
1782845344601568500,6.899568603515625,-0.998138427734375,-0.21337890625,0.230560302734375
1782845344611572200,6.909572265625,-1.00518798828125,-0.2188262939453125,0.2242431640625
1782845344621577200,6.9195771484375,-0.9907379150390625,-0.2301177978515625,0.214324951171875
1782845344631581200,6.929581298828125,-0.975921630859375,-0.2475433349609375,0.2102508544921875
1782845344641585400,6.93958544921875,-0.9733734130859375,-0.2563629150390625,0.2126617431640625
1782845344651590400,6.94959033203125,-0.9793243408203125,-0.2480316162109375,0.20501708984375
1782845344661594400,6.959594482421875,-0.9859619140625,-0.2537078857421875,0.192535400390625
1782845344671599000,6.96959912109375,-0.996826171875,-0.261749267578125,0.178375244140625
1782845344681603000,6.97960302734375,-1.005340576171875,-0.243560791015625,0.1625213623046875
1782845344691608000,6.989608154296875,-1.006195068359375,-0.2304840087890625,0.1485137939453125
1782845344701612300,6.9996123046875,-0.99725341796875,-0.2184906005859375,0.13397216796875
1782845344711617300,7.0096171875,-0.9916839599609375,-0.2059478759765625,0.117279052734375
1782845344721621200,7.019621337890625,-0.9763946533203125,-0.20501708984375,0.0995025634765625
1782845344731626200,7.029626220703125,-0.95758056640625,-0.2112274169921875,0.09124755859375
1782845344741630000,7.0396298828125,-0.940216064453125,-0.218231201171875,0.0916900634765625
1782845344751634200,7.04963427734375,-0.9278106689453125,-0.2215118408203125,0.0949249267578125
1782845344761639200,7.05963916015625,-0.9224853515625,-0.2263946533203125,0.0954437255859375
1782845344771643100,7.06964306640625,-0.9187469482421875,-0.242706298828125,0.096771240234375
1782845344781648100,7.079648193359375,-0.9112701416015625,-0.2571258544921875,0.0985565185546875
1782845344791652000,7.089652099609375,-0.90521240234375,-0.2618408203125,0.1045379638671875
1782845344801657000,7.099656982421875,-0.89764404296875,-0.2653961181640625,0.1087799072265625
1782845344811661300,7.109661376953125,-0.8930816650390625,-0.26318359375,0.115814208984375
1782845344821666300,7.119666259765625,-0.8981475830078125,-0.2594757080078125,0.1164703369140625
1782845344831670300,7.129670166015625,-0.8970184326171875,-0.254302978515625,0.1129150390625
1782845344841674000,7.139674072265625,-0.89447021484375,-0.2517852783203125,0.1085052490234375
1782845344851679000,7.149678955078125,-0.894561767578125,-0.2585601806640625,0.11016845703125
1782845344861683200,7.15968310546875,-0.902740478515625,-0.2576446533203125,0.114349365234375
1782845344871688200,7.169688232421875,-0.9192047119140625,-0.252410888671875,0.11944580078125
1782845344881692200,7.179692138671875,-0.9322662353515625,-0.251129150390625,0.1237335205078125
1782845344891697200,7.189697265625,-0.9382476806640625,-0.2499237060546875,0.1280670166015625
1782845344901701000,7.199701171875,-0.9375762939453125,-0.2572479248046875,0.134674072265625
1782845344911706000,7.2097060546875,-0.9384307861328125,-0.2563934326171875,0.1421661376953125
1782845344921710300,7.21971044921875,-0.934967041015625,-0.2563934326171875,0.1423492431640625
1782845344931715300,7.22971533203125,-0.9296722412109375,-0.2578125,0.140899658203125
1782845344941719000,7.239718994140625,-0.924530029296875,-0.2482147216796875,0.138153076171875
1782845344951723000,7.249722900390625,-0.9270172119140625,-0.24603271484375,0.1291046142578125
1782845344961728000,7.25972802734375,-0.9320068359375,-0.2547454833984375,0.12481689453125
1782845344971732200,7.269732177734375,-0.9339447021484375,-0.2674407958984375,0.1177825927734375
1782845344981737200,7.2797373046875,-0.9409637451171875,-0.2803192138671875,0.11505126953125
1782845344991741200,7.2897412109375,-0.94378662109375,-0.2794647216796875,0.1163787841796875
1782845345001746200,7.29974609375,-0.9428558349609375,-0.280487060546875,0.1182708740234375
1782845345011750100,7.309750244140625,-0.943359375,-0.2781829833984375,0.1224212646484375
1782845345021755100,7.319755126953125,-0.9382781982421875,-0.2784271240234375,0.1230621337890625
1782845345031759400,7.32975927734375,-0.93194580078125,-0.2791595458984375,0.1219024658203125
1782845345041763000,7.33976318359375,-0.9295501708984375,-0.2807464599609375,0.1177520751953125
1782845345051768000,7.34976806640625,-0.9264373779296875,-0.2915802001953125,0.115966796875
1782845345061772000,7.35977197265625,-0.938720703125,-0.2887420654296875,0.1200408935546875
1782845345071777000,7.369777099609375,-0.961029052734375,-0.2727508544921875,0.124237060546875
1782845345081781200,7.37978125,-0.961334228515625,-0.271026611328125,0.1193084716796875
1782845345091786200,7.3897861328125,-0.9450531005859375,-0.2803955078125,0.1106719970703125
1782845345101790200,7.399790283203125,-0.929412841796875,-0.2856292724609375,0.1114654541015625
1782845345111795200,7.409795166015625,-0.921875,-0.2855987548828125,0.116973876953125
1782845345121799200,7.419799072265625,-0.912261962890625,-0.287994384765625,0.1181488037109375
1782845345131804200,7.42980419921875,-0.8974761962890625,-0.2917633056640625,0.1182708740234375
1782845345141808400,7.439808349609375,-0.8804779052734375,-0.2966461181640625,0.1155853271484375
1782845345151812000,7.44981201171875,-0.8775634765625,-0.3036041259765625,0.1089324951171875
1782845345161817000,7.459817138671875,-0.8840789794921875,-0.30609130859375,0.103515625
1782845345171821000,7.469821044921875,-0.8943634033203125,-0.3068389892578125,0.086944580078125
1782845345181826000,7.479825927734375,-0.8976593017578125,-0.3109588623046875,0.07513427734375
1782845345191830300,7.489830322265625,-0.90216064453125,-0.314483642578125,0.065185546875
1782845345201835300,7.499835205078125,-0.907745361328125,-0.314422607421875,0.054656982421875
1782845345211839200,7.509839111328125,-0.9111480712890625,-0.313323974609375,0.0482177734375
1782845345221844200,7.51984423828125,-0.9201507568359375,-0.3174896240234375,0.0467071533203125
1782845345231848200,7.52984814453125,-0.9326019287109375,-0.312835693359375,0.0424652099609375
1782845345241852200,7.53985205078125,-0.9355926513671875,-0.3146514892578125,0.0401458740234375
1782845345251857400,7.549857421875,-0.9331207275390625,-0.32000732421875,0.040496826171875
1782845345261861000,7.559861083984375,-0.933868408203125,-0.3201751708984375,0.0506744384765625
1782845345271866000,7.5698662109375,-0.934112548828125,-0.31866455078125,0.0601043701171875
1782845345281870000,7.5798701171875,-0.932708740234375,-0.320281982421875,0.070159912109375
1782845345291875000,7.589875,-0.93475341796875,-0.3219757080078125,0.0704193115234375
1782845345301879000,7.599879150390625,-0.9438934326171875,-0.3261566162109375,0.0698394775390625
1782845345311884300,7.60988427734375,-0.9563446044921875,-0.3309478759765625,0.0755767822265625
1782845345321888300,7.61988818359375,-0.96673583984375,-0.335235595703125,0.0826416015625
1782845345331893200,7.629893310546875,-0.979583740234375,-0.3429718017578125,0.089752197265625
1782845345341897200,7.639897216796875,-0.98907470703125,-0.3429412841796875,0.093017578125
1782845345351901000,7.64990087890625,-0.99847412109375,-0.3258209228515625,0.100921630859375
1782845345361906200,7.65990625,-1.0042877197265625,-0.3017730712890625,0.1001434326171875
1782845345371910100,7.66991015625,-1.001983642578125,-0.2832794189453125,0.0986480712890625
1782845345381915100,7.6799150390625,-0.9977264404296875,-0.274505615234375,0.09869384765625
1782845345391919000,7.689919189453125,-0.999481201171875,-0.258514404296875,0.10357666015625
1782845345401924000,7.699924072265625,-1.0082550048828125,-0.2241668701171875,0.1221771240234375
1782845345411928000,7.709927978515625,-1.0329742431640625,-0.1952056884765625,0.1427764892578125
1782845345421933000,7.71993310546875,-1.0659332275390625,-0.191375732421875,0.1605224609375
1782845345431937300,7.729937255859375,-1.0827789306640625,-0.19622802734375,0.17828369140625
1782845345441941200,7.739941162109375,-1.093048095703125,-0.2170562744140625,0.1980743408203125
1782845345451946200,7.7499462890625,-1.098388671875,-0.23992919921875,0.218017578125
1782845345461950000,7.759949951171875,-1.0864715576171875,-0.2597808837890625,0.2294769287109375
1782845345471955000,7.769954833984375,-1.0709228515625,-0.2718963623046875,0.22589111328125
1782845345481959200,7.779959228515625,-1.057586669921875,-0.26922607421875,0.2028656005859375
1782845345491964200,7.789964111328125,-1.0499267578125,-0.280242919921875,0.1658477783203125
1782845345501968100,7.799968017578125,-1.021331787109375,-0.29315185546875,0.134490966796875
1782845345511973000,7.80997314453125,-0.9869842529296875,-0.289215087890625,0.1192626953125
1782845345521977000,7.81997705078125,-0.9533233642578125,-0.2564849853515625,0.1085968017578125
1782845345531982000,7.829982177734375,-0.93426513671875,-0.2396392822265625,0.08160400390625
1782845345541986300,7.839986328125,-0.9066162109375,-0.2396240234375,0.0585784912109375
1782845345551990300,7.849990234375,-0.8879241943359375,-0.21380615234375,0.060302734375
1782845345561995300,7.859995361328125,-0.8868408203125,-0.18450927734375,0.0595855712890625
1782845345571999000,7.8699990234375,-0.888092041015625,-0.176849365234375,0.0576324462890625
1782845345582004000,7.88000390625,-0.8983306884765625,-0.168975830078125,0.0618438720703125
1782845345592008200,7.89000830078125,-0.9017181396484375,-0.177032470703125,0.0731658935546875
1782845345602013200,7.90001318359375,-0.8960418701171875,-0.1915283203125,0.09423828125
1782845345612017200,7.91001708984375,-0.8981475830078125,-0.18841552734375,0.1198272705078125
1782845345622022100,7.920022216796875,-0.907867431640625,-0.17144775390625,0.13568115234375
1782845345632026000,7.930026123046875,-0.924713134765625,-0.153350830078125,0.13934326171875
1782845345642030300,7.9400302734375,-0.941864013671875,-0.142242431640625,0.1390533447265625
1782845345652035300,7.950035400390625,-0.96148681640625,-0.1370086669921875,0.1286773681640625
1782845345662039300,7.960039306640625,-0.9828338623046875,-0.134307861328125,0.123809814453125
1782845345672044800,7.970044921875,-1.004302978515625,-0.12847900390625,0.1217803955078125
1782845345682048500,7.980048583984375,-1.0164794921875,-0.1154022216796875,0.11553955078125
1782845345692053500,7.990053466796875,-1.0044097900390625,-0.0966644287109375,0.1114349365234375
1782845345702057700,8.0000576171875,-0.9862213134765625,-0.08819580078125,0.1051177978515625
1782845345712062700,8.010062744140624,-0.96514892578125,-0.085784912109375,0.1034088134765625
1782845345722066700,8.020066650390625,-0.94732666015625,-0.0731658935546875,0.1095123291015625
1782845345732071700,8.03007177734375,-0.9283294677734375,-0.072235107421875,0.118438720703125
1782845345742075600,8.04007568359375,-0.915496826171875,-0.08587646484375,0.12744140625
1782845345752079600,8.05007958984375,-0.9158477783203125,-0.100738525390625,0.133880615234375
1782845345762084600,8.060084716796876,-0.9197235107421875,-0.1146697998046875,0.136505126953125
1782845345772088800,8.0700888671875,-0.935455322265625,-0.129638671875,0.1373443603515625
1782845345782093800,8.08009375,-0.9596405029296875,-0.1337432861328125,0.1427001953125
1782845345792097500,8.09009765625,-0.9803314208984375,-0.1419677734375,0.1425628662109375
1782845345802102500,8.1001025390625,-0.9958648681640625,-0.1602325439453125,0.1373748779296875
1782845345812106500,8.1101064453125,-1.0037841796875,-0.1691131591796875,0.1385955810546875
1782845345822111500,8.120111572265625,-1.0082855224609375,-0.166656494140625,0.1346435546875
1782845345832115700,8.13011572265625,-1.0140228271484375,-0.173919677734375,0.126434326171875
1782845345842120700,8.14012060546875,-1.0266265869140625,-0.17047119140625,0.119140625
1782845345852124700,8.150124755859375,-1.0375823974609375,-0.16009521484375,0.1067352294921875
1782845345862128600,8.160128662109376,-1.041107177734375,-0.1572418212890625,0.092926025390625
1782845345872133600,8.170133544921875,-1.041961669921875,-0.1533355712890625,0.082183837890625
1782845345882137900,8.180137939453125,-1.033294677734375,-0.1514434814453125,0.071502685546875
1782845345892142800,8.190142822265624,-1.0101165771484375,-0.149444580078125,0.0666656494140625
1782845345902146600,8.200146484375,-0.973480224609375,-0.1423492431640625,0.0639801025390625
1782845345912151600,8.210151611328126,-0.9332733154296875,-0.14263916015625,0.0677032470703125
1782845345922155500,8.220155517578124,-0.9050140380859375,-0.14825439453125,0.076019287109375
1782845345932160500,8.230160400390625,-0.8907318115234375,-0.1493377685546875,0.0853424072265625
1782845345942164700,8.240164794921874,-0.8852081298828125,-0.1547698974609375,0.092987060546875
1782845345952169700,8.250169677734375,-0.889434814453125,-0.1670074462890625,0.1012115478515625
1782845345962173700,8.260173583984376,-0.90045166015625,-0.1720428466796875,0.1125030517578125
1782845345972177700,8.270177734375,-0.902923583984375,-0.1783905029296875,0.1221771240234375
1782845345982182700,8.2801826171875,-0.9097137451171875,-0.184234619140625,0.12744140625
1782845345992187000,8.290186767578126,-0.9218292236328125,-0.18914794921875,0.1267242431640625
1782845346002192000,8.30019189453125,-0.92388916015625,-0.19561767578125,0.123443603515625
1782845346012195600,8.310195556640625,-0.9250335693359375,-0.2060089111328125,0.1140289306640625
1782845346022200600,8.32020068359375,-0.93505859375,-0.214263916015625,0.1046295166015625
1782845346032204500,8.33020458984375,-0.953887939453125,-0.2138519287109375,0.094451904296875
1782845346042209500,8.34020947265625,-0.974334716796875,-0.2107086181640625,0.08905029296875
1782845346052213800,8.3502138671875,-0.9912567138671875,-0.212127685546875,0.0794830322265625
1782845346062217700,8.3602177734375,-1.008636474609375,-0.2138824462890625,0.071624755859375
1782845346072222700,8.37022265625,-1.0242156982421875,-0.2090911865234375,0.0658721923828125
1782845346082226700,8.380226806640625,-1.0350799560546875,-0.2066802978515625,0.060089111328125
1782845346092231700,8.390231689453126,-1.036346435546875,-0.1999359130859375,0.0506439208984375
1782845346102235600,8.400235595703125,-1.03216552734375,-0.19873046875,0.0408782958984375
1782845346112240600,8.41024072265625,-1.023193359375,-0.1980438232421875,0.0380096435546875
1782845346122244600,8.42024462890625,-1.0089569091796875,-0.1951751708984375,0.04144287109375
1782845346132249600,8.43024951171875,-0.9883270263671875,-0.196563720703125,0.0542449951171875
1782845346142253600,8.440253662109376,-0.9705810546875,-0.2021026611328125,0.0636138916015625
1782845346152258600,8.450258544921875,-0.94952392578125,-0.2042999267578125,0.068572998046875
1782845346162262800,8.4602626953125,-0.93304443359375,-0.2089080810546875,0.0726318359375
1782845346172266800,8.470266845703126,-0.9234619140625,-0.213348388671875,0.075714111328125
1782845346182271700,8.480271728515625,-0.925689697265625,-0.21685791015625,0.0781707763671875
1782845346192275700,8.490275634765625,-0.9427337646484375,-0.2136383056640625,0.07659912109375
1782845346202280700,8.50028076171875,-0.9631805419921875,-0.20928955078125,0.0711212158203125
1782845346212284700,8.51028466796875,-0.9749755859375,-0.2082366943359375,0.06781005859375
1782845346222289700,8.52028955078125,-0.981597900390625,-0.214111328125,0.06365966796875
1782845346232293600,8.530293701171875,-0.9826202392578125,-0.221099853515625,0.0632781982421875
1782845346242298600,8.540298583984375,-0.9816741943359375,-0.2247467041015625,0.0645904541015625
1782845346252302600,8.550302490234374,-0.9838104248046875,-0.2183990478515625,0.0638580322265625
1782845346262307600,8.5603076171875,-0.9903411865234375,-0.209716796875,0.0604705810546875
1782845346272311800,8.570311767578126,-0.98870849609375,-0.2125396728515625,0.0532684326171875
1782845346282315800,8.580315673828125,-0.97906494140625,-0.2129364013671875,0.04913330078125
1782845346292320800,8.59032080078125,-0.971343994140625,-0.2122344970703125,0.048553466796875
1782845346302324700,8.60032470703125,-0.9591217041015625,-0.216552734375,0.0529022216796875
1782845346312329700,8.610329833984375,-0.949981689453125,-0.2186279296875,0.06011962890625
1782845346322333700,8.620333740234376,-0.9482574462890625,-0.218017578125,0.058746337890625
1782845346332338700,8.630338623046875,-0.9521026611328125,-0.218048095703125,0.04852294921875
1782845346342342700,8.6403427734375,-0.93743896484375,-0.2168426513671875,0.0342254638671875
1782845346352347600,8.65034765625,-0.91143798828125,-0.216522216796875,0.0302734375
1782845346362351600,8.6603515625,-0.9128875732421875,-0.2150421142578125,0.0369415283203125
1782845346372356600,8.670356689453126,-0.91204833984375,-0.22344970703125,0.0472412109375
1782845346382360600,8.680360595703124,-0.9146270751953125,-0.2234649658203125,0.065093994140625
1782845346392364800,8.69036474609375,-0.93939208984375,-0.2334442138671875,0.062347412109375
1782845346402369800,8.700369873046874,-0.9366607666015625,-0.2515106201171875,0.050262451171875
1782845346412373800,8.710373779296875,-0.9431915283203125,-0.2557525634765625,0.044464111328125
1782845346422378800,8.720378662109376,-0.944183349609375,-0.2698211669921875,0.0357818603515625
1782845346432382500,8.730382568359374,-0.9455413818359375,-0.2821502685546875,0.0377655029296875
1782845346442387500,8.740387451171875,-0.9719696044921875,-0.2670440673828125,0.0378570556640625
1782845346452391700,8.7503916015625,-0.99517822265625,-0.26678466796875,0.034271240234375
