time,seconds_elapsed,z,y,x
1782845337771035600,0.06903564453125,-0.04100947125852108,-0.8701604937806725,-1.0308348937310279
1782845337781039600,0.07903955078125,-0.17517419607639312,-0.7768832212768495,-1.13413335564211
1782845337791044600,0.089044677734375,-0.19639935493469238,-0.585065495043993,-1.169721386373788
1782845337801048800,0.099048828125,-0.18453005344271659,-0.4274988518506288,-1.1978766367562115
1782845337811053800,0.1090537109375,-0.1290244393199682,-0.29753903137668963,-1.193716594467312
1782845337821057500,0.1190576171875,-0.10912146897614002,-0.18874489465877411,-0.9842074364602565
1782845337831061500,0.1290615234375,-0.27090952925682066,-0.05556158209368586,-0.6849553175553679
1782845337841066500,0.13906640625,-0.6023766953289509,0.09504384378492832,-0.3886148483134806
1782845337851070700,0.14907080078125,-1.161442072197795,0.19356398537829517,-0.1261762102819979
1782845337861075700,0.15907568359375,-1.8079682903766632,0.25499694372341036,0.18162059573680162
1782845337871079700,0.16907958984375,-2.3864421320706604,0.33644451609328385,0.42927448322102424
1782845337881084700,0.179084716796875,-2.6110002445191145,0.4188729161940515,0.48981531503200526
1782845337891088600,0.189088623046875,-2.5203824004828927,0.5037509014040231,0.3894789177969098
1782845337901092900,0.1990927734375,-2.2324147689193485,0.6095322661720216,0.23925430792942642
1782845337911097900,0.209097900390625,-1.8160890529900788,0.581811900075525,0.10729176933094858
1782845337921101600,0.2191015625,-1.335873925474286,0.4778009059809148,0.043102644145488735
1782845337931106600,0.2291064453125,-0.9029536330968141,0.331577640709281,-0.12795681008845566
1782845337941110500,0.239110595703125,-0.4885860654979944,0.2820776967421174,-0.2130453693091869
1782845337951115500,0.249115478515625,-0.032338673546910286,0.3412128995388746,-0.24760157277509567
1782845337961119700,0.25911962890625,0.49778234838843344,0.3567030218765139,-0.2568532391145825
1782845337971123700,0.269123779296875,1.038825161832571,0.44859746171981096,-0.1334704589433968
1782845337981128700,0.279128662109375,1.434665139093995,0.5224908193178475,0.04325198948830366
1782845337991132700,0.289132568359375,1.7529221104592083,0.690316113936156,0.1623575307317078
1782845338001137700,0.2991376953125,1.7501637516617774,0.7712019607700407,0.24154504921510814
1782845338011142000,0.309141845703125,1.401746035310626,0.8277581068590283,0.31259806882068514
1782845338021147000,0.31914697265625,1.38198802639544,0.894415814115107,0.38827991727069017
1782845338031150600,0.329150634765625,1.41098907995224,0.9721553257472813,0.4995524268008768
1782845338041155600,0.339155517578125,1.11853758097291,0.9318732919804751,0.6989155999772251
1782845338051159600,0.34915966796875,0.8336258298486471,0.8370340308569372,0.8723730552636086
1782845338061163800,0.359163818359375,0.5718178909361362,0.7872177144169807,1.0549762322969733
1782845338071168800,0.369168701171875,0.2621820329219103,0.7699578059278428,1.2314753933668137
1782845338081172700,0.3791728515625,-0.08319500055909157,0.7707540708720684,1.4131350059397518
1782845338091177700,0.389177734375,-0.3345417512118816,0.7523869317933917,1.4748266152210532
1782845338101181700,0.399181640625,-0.47099838635921476,0.6679119744263589,1.3390576700769363
1782845338111186700,0.409186767578125,-0.5071463890612125,0.5360523116804659,1.2299437998853624
1782845338121190700,0.419190673828125,-0.4114309296250343,0.4350689948439598,1.145513704573363
1782845338131194600,0.429194580078125,-0.4498819485723972,0.2985094838440418,1.0404260211579501
1782845338141199600,0.43919970703125,-0.445092960730195,0.24997794651761648,1.0286270084232092
1782845338151203600,0.44920361328125,-0.3612327742606401,0.25654037377312777,1.1305815083794295
1782845338161208600,0.45920849609375,-0.21792729613184927,0.25470877443179485,1.1530801943048834
1782845338171212800,0.469212890625,-0.11111936479508876,0.24575199938565492,1.1387767975337804
1782845338181217800,0.4792177734375,-0.05213701447248459,0.2458531216725707,0.9900209450446069
1782845338191221800,0.4892216796875,0.036652445092797276,0.3117855833940208,0.7936972856946289
1782845338201226800,0.499226806640625,0.14374094693660736,0.35347631491497156,0.648544572263956
1782845338211230700,0.509230712890625,0.29400165103077885,0.36450975010469555,0.5392169131912291
1782845338221234700,0.519234619140625,0.3114917150139809,0.44043359061703086,0.4398524297282099
1782845338231239700,0.52923974609375,0.21849077523350716,0.6271591082774103,0.3693083825580776
1782845338241243600,0.53924365234375,0.08012801420390606,0.6421241838276386,0.239229904140532
1782845338251248600,0.54924853515625,0.09406769222915172,0.6011633740164339,0.11439166446402668
1782845338261252600,0.559252685546875,0.1820411592364311,0.591257335421443,0.05724018283039331
1782845338271257600,0.569257568359375,0.33743279647827146,0.5530046155251562,0.09922083720862865
1782845338281261600,0.579261474609375,0.45283729124665256,0.5735010217174887,0.18926818788051605
1782845338291265800,0.589265869140625,0.5434539662390947,0.5417116526164114,0.2467490475989878
1782845338301270800,0.599270751953125,0.6462853951603174,0.4432992091812193,0.2969812513634562
1782845338311274800,0.609274658203125,0.7327519647359848,0.36367198410630225,0.3465444698251784
1782845338321279700,0.61927978515625,0.7123749471396207,0.33954715828374027,0.3970845704950392
1782845338331283500,0.629283447265625,0.6542009905904531,0.3108879039019346,0.4225095191307366
1782845338341288400,0.639288330078125,0.6062134970128535,0.3098252431064844,0.4504064108379185
1782845338351292700,0.649292724609375,0.5391156447738409,0.2897226585373282,0.4957771460458636
1782845338361297700,0.659297607421875,0.4487918152481317,0.19724647328332065,0.49580841796696185
1782845338371301600,0.669301513671875,0.4518389278590679,0.11929872572794556,0.461278517986089
1782845338381305600,0.6793056640625,0.38849312162995336,0.0439300348803401,0.46431686276867984
1782845338391310600,0.689310546875,0.3014075433731079,0.07682385809198021,0.4884820206016302
1782845338401314800,0.699314697265625,0.27503508475422855,0.1274656655706465,0.4940096979819238
1782845338411319800,0.70931982421875,0.30566929247081276,0.10544731050804257,0.4604515656426549
1782845338421323800,0.71932373046875,0.3218938665628433,0.015990911466628312,0.41179859389364715
1782845338431328800,0.729328857421875,0.36078210788369175,0.014301058683544397,0.3773332835815847
1782845338441332500,0.73933251953125,0.3610807985693216,0.010006284099072218,0.35257629733532664
1782845338451336700,0.749336669921875,0.4177998801350593,0.061430474127084016,0.34132980391681195
1782845338461341700,0.759341796875,0.46850189336836334,0.12837284354344008,0.3033262364760041
1782845338471345700,0.769345703125,0.5440969403177499,0.10229001552090049,0.18375541580840943
1782845338481350700,0.7793505859375,0.6725456255763769,0.11863178625181317,0.14186565458402037
1782845338491354600,0.789354736328125,0.7846890727221966,0.16133739390373228,0.15419278284609317
1782845338501359600,0.799359619140625,0.845323281905055,0.122584031008929,0.13735957533642648
1782845338511363800,0.80936376953125,0.835697959947586,0.007675210803002119,0.14302856088355181
1782845338521367600,0.819367431640625,0.8573761232703924,-0.11265329636409878,0.14942571457475423
1782845338531372500,0.82937255859375,0.8157131565392017,-0.275491304089129,0.12447656675726175
1782845338541376500,0.83937646484375,0.6679051062941551,-0.4356315971627831,0.087993779142946
1782845338551381500,0.849381591796875,0.6208662917435169,-0.5423831221371889,0.09058218820095061
1782845338561385700,0.8593857421875,0.5676718771725893,-0.6452126513622701,0.09083265583068131
1782845338571390700,0.869390625,0.4931079268366098,-0.6877481631442904,0.06659238693490624
1782845338581394700,0.879394775390625,0.4444786282241344,-0.6571601326569915,0.008374152852594852
1782845338591399700,0.889399658203125,0.4269686904966831,-0.7105734506756067,-0.15013152475655078
1782845338601403600,0.899403564453125,0.346790407410264,-0.7459970846258104,-0.3042246466204524
1782845338611408000,0.909407958984375,0.22236790892779826,-0.6342305079683661,-0.3942592839412391
1782845338621412900,0.919412841796875,0.14998305619657037,-0.5998701193355024,-0.5540848119772971
1782845338631416600,0.92941650390625,0.1500128668129444,-0.7117417638026178,-0.6898181012861431
1782845338641421600,0.939421630859375,0.22293606420457363,-0.7010366837844252,-0.6336154448099434
1782845338651425500,0.949425537109375,0.2802010892152786,-0.6065196403525769,-0.6284834887489676
1782845338661430500,0.959430419921875,0.36626492320895193,-0.6699751905664801,-0.7161025893606245
1782845338671434500,0.9694345703125,0.5620891086041927,-0.7650250257007777,-0.7410416541755199
1782845338681438500,0.9794384765625,0.6999941889941692,-0.7090393729761243,-0.7086746313169598
1782845338691443500,0.989443359375,0.7713152118861675,-0.6415539827242493,-0.7068525304563343
1782845338701447400,0.999447509765625,0.7673930700063705,-0.680929569170624,-0.704528325292468
1782845338711452400,1.009452392578125,0.6369698698043823,-0.7312235861249268,-0.6572660772494971
1782845338721456600,1.01945654296875,0.43533904395699496,-0.7702168952554463,-0.5670522839695215
1782845338731461600,1.029461669921875,0.19521452906429768,-0.7957735074467956,-0.4671276824057102
1782845338741465600,1.039465576171875,-0.054633507463335985,-0.8008245072260498,-0.36941228132396936
1782845338751470600,1.049470703125,-0.26129472869336606,-0.8484661099754274,-0.31393150938153264
1782845338761474600,1.059474609375,-0.4215390666633844,-1.036809876487404,-0.20209274427071214
1782845338771478500,1.069478515625,-0.5748632499814034,-1.1329387390300631,-0.03618102818876505
1782845338781483500,1.0794833984375,-0.674261197322607,-1.0840044661216437,0.12369359968602657
1782845338791487500,1.089487548828125,-0.7761030306845903,-1.0279128688044845,0.26322876549586655
1782845338801492500,1.099492431640625,-0.8264818033128977,-1.075202004854381,0.3551737664826214
1782845338811496400,1.109496337890625,-0.7625514751940965,-1.204114069841057,0.4319266051650047
1782845338821501400,1.11950146484375,-0.7070230647176504,-1.2593002427510915,0.5353763121150433
1782845338831505700,1.129505615234375,-0.6412742890000342,-1.1205639722339809,0.6131149469643831
1782845338841509600,1.139509521484375,-0.5036287363290787,-1.0480594386458397,0.5728530792027712
1782845338851514600,1.1495146484375,-0.335982597669959,-1.0258071286968886,0.45978243420943615
1782845338861518300,1.159518310546875,-0.14746610493957996,-0.9515293018259108,0.43832083624675866
1782845338871523300,1.1695234375,-0.11790449489057063,-0.8035492560148239,0.4712247424609959
1782845338881527300,1.17952734375,-0.11467442692816257,-0.6020819501660764,0.4969045426405966
1782845338891532500,1.189532470703125,-0.06568447830975055,-0.41692865025848147,0.5322035272978246
1782845338901536500,1.19953662109375,0.020404490125179288,-0.36204438290446994,0.5541165222898126
1782845338911541500,1.20954150390625,-0.002039396873116493,-0.42956396768689153,0.6390683033883571
1782845338921545500,1.21954541015625,-0.3700187227845192,-0.31740210810154673,0.5029755331173539
1782845338931549400,1.229549560546875,0.38010230990350247,-0.2854784450963139,1.1703311888352035
1782845338941554400,1.239554443359375,0.6184849495649337,-0.5268792635351419,1.4147761972755193
1782845338951558700,1.24955859375,0.006688683983683586,-0.1390074886739254,1.1454843323484063
1782845338961563600,1.259563720703125,-0.0900169555336237,-0.053974020641297096,1.5811520237378776
1782845338971567400,1.2695673828125,-0.7145160508215427,-0.544869824386388,2.259102284836769
1782845338981572400,1.279572265625,-1.2524591446846722,-0.6638168140672147,2.269918716274947
1782845338991576300,1.289576416015625,-0.978971289372444,-0.45192835970818995,2.0270902031205593
1782845339001580500,1.29958056640625,-0.944810076573491,-0.376292980748415,1.8471553685136137
1782845339011585500,1.30958544921875,-1.1700585093736648,-0.46033583030849695,1.5223412305898965
1782845339021589500,1.319589599609375,-0.9929209042698144,-0.5494017687276005,1.0366763132356107
1782845339031594500,1.329594482421875,-0.6090630412250757,-0.6197194597959518,0.5857146066024899
1782845339041598500,1.339598388671875,-0.2317763732641935,-0.5255095826171339,0.31180976798720655
1782845339051603500,1.349603515625,0.19069266772568225,-0.3717749188020825,0.1672512210574001
1782845339061607700,1.359607666015625,0.48304538250565526,-0.015252660319954156,0.051119581058248875
1782845339071612700,1.36961279296875,0.6620639790505171,0.5145110726103186,-0.1407134888742119
1782845339081616400,1.379616455078125,0.8501029173970222,0.6820993436023592,-0.46332047214247285
1782845339091620400,1.389620361328125,1.1288584839791058,0.5850979360088706,-0.7274611648514866
1782845339101625300,1.399625244140625,1.3112474337399005,0.5313265983328223,-0.7300497200399637
1782845339111629600,1.409629638671875,1.2798802355736494,0.8456422847263515,-0.5377810351692139
1782845339121634600,1.419634521484375,1.09667938490808,1.1832682656891644,-0.3671515698503703
1782845339131638500,1.429638427734375,0.8555442316681147,1.0707928101100026,-0.2777024042673409
1782845339141643500,1.4396435546875,0.5825982281476259,1.0709408402785658,-0.056611894864216444
1782845339151647500,1.4496474609375,0.3263245424866676,1.287491148968786,-0.05182407606579363
1782845339161651700,1.459651611328125,0.4813368250221014,1.5046381083779037,0.08113646059408783
1782845339171656700,1.46965673828125,0.57762979208529,1.6143761018171905,0.35155082674510774
1782845339181660400,1.479660400390625,0.563145924180746,1.675512853694707,0.4181192482825368
1782845339191665400,1.48966552734375,0.6548077243119478,1.633848717919737,0.5142100438371301
1782845339201669400,1.49966943359375,0.702747287094593,1.6225445029646157,0.6435863653346896
1782845339211674400,1.50967431640625,0.7387076582700014,1.6642383032254873,0.7640478512316942
1782845339221678600,1.5196787109375,0.7297767483174801,1.6187782822988925,0.733530767088756
1782845339231683600,1.52968359375,0.5713368294209241,1.5658851887620984,0.547213684098795
1782845339241687600,1.5396875,0.16189619683027268,1.6206268327750264,0.28052418368980286
1782845339251691500,1.54969140625,-0.20904548601806164,1.451233704318106,0.04361768099553883
1782845339261696500,1.559696533203125,-0.4289151483893394,1.1545111038908362,-0.06950469418503344
1782845339271700500,1.569700439453125,-0.5608475841104984,0.8973154810793698,-0.0529897588443011
1782845339281705700,1.579705810546875,-0.5281967758744954,0.7313027888409793,-0.028625352112203836
1782845339291709400,1.58970947265625,-0.45678632113337514,0.6283544555418193,0.014125190659984946
1782845339301714400,1.59971435546875,-0.4898310971230268,0.5397733780302107,0.07176971650756896
1782845339311718400,1.609718505859375,-0.537944262906909,0.486240671415627,0.035885990764945745
1782845339321722600,1.61972265625,-0.5516232441693544,0.3653245736189186,0.029268106995150447
1782845339331727600,1.6297275390625,-0.5817834046334028,0.296401697909832,0.11486753834746777
1782845339341731600,1.639731689453125,-0.5878863976836204,0.3331023660585284,0.14781309174634516
1782845339351736600,1.649736572265625,-0.6056061787694692,0.3334121626600623,0.060636474205181
1782845339361740500,1.659740478515625,-0.6838263135254383,0.3699536947242915,-0.0771376732815057
1782845339371745500,1.66974560546875,-0.6737368811875581,0.4070791641563177,-0.18029548461288214
1782845339381749500,1.67974951171875,-0.5105050518393516,0.3942909942537546,-0.21011033877059815
1782845339391754500,1.68975439453125,-0.253711726218462,0.4112979508951306,-0.22399192993305622
1782845339401758500,1.699758544921875,0.08187456561028957,0.4646725443385541,-0.25929785578772424
1782845339411762400,1.709762451171875,0.4694850591868162,0.5224298829108477,-0.2957209491040557
1782845339421767400,1.719767333984375,0.781435623884201,0.5378332037478685,-0.35017500834725795
1782845339431771400,1.729771484375,1.023975967746973,0.4654724625445902,-0.34401480521708727
1782845339441776600,1.739776611328125,1.2582798136621713,0.3319977658174932,-0.36083522631041703
1782845339451780600,1.749780517578125,1.3571347401678562,0.1888445556409657,-0.3736489690456539
1782845339461785600,1.75978564453125,1.27613052765131,0.20290712939351796,-0.35972631522044535
1782845339471789600,1.76978955078125,1.0071598575025795,0.23767916756719348,-0.47299430941678583
1782845339481793300,1.779793212890625,0.7637696188122034,0.18684724434390662,-0.5236872625607997
1782845339491798500,1.789798583984375,0.5792740521609783,0.08918708058074117,-0.36991672371476886
1782845339501802500,1.799802490234375,0.363832727625966,0.03381020740419626,-0.28192740155123175
1782845339511807500,1.809807373046875,0.10213818596005439,-0.04499254954531789,-0.2893882389511913
1782845339521811500,1.8198115234375,-0.11670213336348532,-0.09115414287000893,-0.3104064770605415
1782845339531816400,1.82981640625,-0.31305121941566466,-0.10781813129261135,-0.36399858571216465
1782845339541820400,1.8398203125,-0.44565059461295603,-0.1389637956626713,-0.43304896025843914
1782845339551825400,1.849825439453125,-0.4467904122978449,-0.08428411097005009,-0.49252625449113546
1782845339561829600,1.85982958984375,-0.44929216598570343,0.008796908309310673,-0.5612598181731998
1782845339571833600,1.86983349609375,-0.43195115508437154,0.06259674142748117,-0.6085430359389633
1782845339581838600,1.879838623046875,-0.42566403763890265,0.03606879998594522,-0.6438830101937055
1782845339591842300,1.88984228515625,-0.4198614888399839,0.003464899631589651,-0.6048031918235123
1782845339601847300,1.899847412109375,-0.42664486536979673,0.03941299584731459,-0.5746791986513883
1782845339611851500,1.9098515625,-0.350703196939826,0.08511500883623957,-0.5530540076248347
1782845339621856500,1.9198564453125,-0.23970541269779205,0.05923033373430371,-0.5362691693015397
1782845339631860500,1.929860595703125,-0.1267114862024784,-0.008866174153238534,-0.4733757099498063
1782845339641864400,1.939864501953125,-0.034354105022549625,-0.05477656919583678,-0.3445279423709959
1782845339651869400,1.949869384765625,0.055392216876149175,-0.1251100423552096,-0.22941088624186812
1782845339661873700,1.959873779296875,0.12384499085545539,-0.19729323503449558,-0.14431472823657093
1782845339671878700,1.969878662109375,0.1791957066774368,-0.22458032428026198,-0.08496507897153496
1782845339681882600,1.979882568359375,0.21307284183800218,-0.18678470050171017,-0.048908115553855894
1782845339691887600,1.9898876953125,0.23353929128348827,-0.15200389449968932,0.027018647567927837
1782845339701891600,1.9998916015625,0.155948102080822,-0.10180822335332632,0.03221066325306892
1782845339711896600,2.009896484375,0.182468444737792,-0.11195566948875785,-0.023536066149175167
1782845339721900800,2.01990087890625,0.31808687549531456,-0.07757482258975505,-0.059031157900393004
1782845339731904500,2.029904541015625,0.24369068294167517,-0.08403525077551603,-0.14411774435974656
1782845339741909800,2.03990966796875,0.3038976066231727,-0.1653643113322556,-0.16470212109647692
1782845339751913500,2.04991357421875,0.3771323541820049,-0.17480901602581142,-0.2236138173356652
1782845339761918500,2.05991845703125,0.38233342995643615,-0.2069073049455881,-0.3338965121109038
1782845339771922700,2.069922607421875,0.33912381830513477,-0.1934521955668926,-0.46025955020189285
1782845339781927700,2.079927734375,0.28285248050689693,-0.18023688629344103,-0.5331421233221888
1782845339791931600,2.089931640625,0.15420096615254877,-0.2094280555948615,-0.6179455819912254
1782845339801936600,2.0999365234375,0.005396306085586547,-0.11154577351361512,-0.7221727030545473
1782845339811940600,2.109940673828125,-0.12671791594326495,-0.03482698323130608,-0.777996224020049
1782845339821944800,2.11994482421875,-0.2585328627645969,-0.03842120833098888,-0.839097831518948
1782845339831949800,2.12994970703125,-0.3062695964515209,-0.009706132108718157,-0.8898591737240552
1782845339841953500,2.13995361328125,-0.2733691973686218,-0.03577113221362233,-0.9122974346991628
1782845339851958500,2.14995849609375,-0.17070552622973917,-0.12472513469085096,-0.8894556344244628
1782845339861962500,2.15996240234375,-0.006735445734858512,-0.33036870331093665,-0.8187678679347038
1782845339871967500,2.169967529296875,0.12454057190418243,-0.36432971736267206,-0.665157488086447
1782845339881971700,2.1799716796875,0.13866320528089998,-0.35127602839171884,-0.5387332943927496
1782845339891975700,2.1899755859375,0.1247813949227333,-0.3789787127010524,-0.4983959502421319
1782845339901980700,2.199980712890625,0.16153203969299793,-0.36959129115268585,-0.5041181272812187
1782845339911984600,2.209984619140625,0.13379355341792107,-0.3392890918694436,-0.4932308956291526
1782845339921989600,2.21998974609375,0.0752764825195074,-0.3706988140031695,-0.4398613436870277
1782845339931993600,2.22999365234375,0.02992810527384281,-0.4603158104337752,-0.4009668187558651
1782845339941998800,2.239998779296875,0.0956722048163414,-0.5071205239675939,-0.2737235637642443
1782845339952002600,2.25000244140625,0.03601297814548016,-0.5204318409614265,-0.30830519393235445
1782845339962007600,2.260007568359375,-0.02997603606879711,-0.5109470965184271,-0.29918007658198476
1782845339972011500,2.270011474609375,-0.009609539866447449,-0.47601373030319805,-0.24784210353270172
1782845339982015500,2.280015380859375,0.050127428215742106,-0.39321445106342434,-0.28700083235800267
1782845339992020500,2.2900205078125,0.0915022256553173,-0.21810893630906938,-0.4234480420898646
1782845340002024700,2.300024658203125,0.01225157880783081,-0.01230579321309924,-0.5783369174413383
1782845340012029700,2.31002978515625,-0.06705109048783779,0.12774404412060975,-0.6821119108229875
1782845340022033700,2.32003369140625,0.034067104774713516,0.052852469265460965,-0.6971303239956498
1782845340032038700,2.33003857421875,0.10936287651658058,-0.12196078454405068,-0.5852838870350271
1782845340042042600,2.340042724609375,0.0895978533387184,-0.14171440954506395,-0.3718188310090452
1782845340052046600,2.350046630859375,-0.18042729429900645,-0.044069004959613085,-0.16965243698023258
1782845340062051600,2.360051513671875,-0.7564601725816726,0.045596360657364124,-0.02862937070019543
1782845340072055600,2.3700556640625,-1.3126461946219206,0.1254565177053213,0.01059877009950578
1782845340082060500,2.380060546875,-1.7455045276790857,0.2413935119152069,0.048234454075992104
1782845340092064500,2.390064453125,-1.9185610009491443,0.34837402333989737,-0.012480857519060373
1782845340102069500,2.400069580078125,-1.8514684094071387,0.3674650927789509,-0.048349020366370676
1782845340112073700,2.41007373046875,-1.6302765585213899,0.37131796881482004,0.02518054542057216
1782845340122078700,2.42007861328125,-1.3111965803354977,0.3394873909205198,0.08095635478682815
1782845340132082700,2.430082763671875,-0.9611574002623557,0.30332448291033504,-0.005307604888826608
1782845340142086400,2.44008642578125,-0.5699164412289858,0.3362299965597689,-0.24181845932900906
1782845340152091600,2.450091552734375,-0.10278408264815807,0.38024829424545165,-0.5067595086354763
1782845340162095600,2.460095703125,0.31796061876714227,0.4164113483861088,-0.6823966460485011
1782845340172100600,2.4701005859375,0.7288193014621734,0.45727498143315315,-0.7711382478840648
1782845340182104600,2.4801044921875,1.1380068360745905,0.5564467188030481,-0.7287674251444637
1782845340192109600,2.490109619140625,1.3518974240362645,0.6676369568772613,-0.6364359821233898
1782845340202113500,2.500113525390625,1.45962831543684,0.759273768697679,-0.6133801007065922
1782845340212118500,2.510118408203125,1.4358768529713153,0.7228381812259554,-0.4916590432025492
1782845340222122800,2.520122802734375,1.3524842840135096,0.503692303084582,-0.2943213114392012
1782845340232126700,2.530126708984375,1.341444419082999,0.45874943789988754,-0.029137612483277914
1782845340242131700,2.540131591796875,1.3104524839699268,0.5219269018247723,0.17182883117124437
1782845340252135400,2.550135498046875,1.2231085470378398,0.5531118752919137,0.349470805600658
1782845340262140400,2.560140380859375,1.0264590167343617,0.5296288545042276,0.5038569921270013
1782845340272144600,2.57014453125,0.6469499965488911,0.5393408318318427,0.7670230676501989
1782845340282149600,2.580149658203125,0.2309060201704502,0.5901110879957676,1.0615586063619702
1782845340292153600,2.590153564453125,-0.14704057300388812,0.5680014013879001,1.2772757521636784
1782845340302157600,2.600157470703125,-0.558116113319993,0.5157546429306269,1.4244608482047914
1782845340312162600,2.61016259765625,-0.8157967431694269,0.46770109837949275,1.5825816181495784
1782845340322166800,2.620166748046875,-0.9730430683672427,0.3866815421633422,1.7688259281642733
1782845340332171800,2.630171875,-1.0790063655734061,0.33346944580525156,1.822167642251402
1782845340342175700,2.64017578125,-1.0297188953131438,0.271646465229243,1.7988472646795213
1782845340352180700,2.6501806640625,-0.9147107063859701,0.15347995840162038,1.7798484035685658
1782845340362184400,2.660184326171875,-0.7835626990407705,0.07396656896471977,1.7330051115900278
1782845340372189400,2.670189453125,-0.6477087059617043,0.0011461012952029704,1.5966192035913467
1782845340382193700,2.680193603515625,-0.5116226576924324,-0.033440789569914336,1.4480720254167914
1782845340392197600,2.69019775390625,-0.34276714324355123,-0.03662687226012349,1.2316243003182112
1782845340402202600,2.70020263671875,-0.2620961082041263,-0.07157075986936688,1.0495222046747803
1782845340412206600,2.71020654296875,-0.2046329302728176,0.02011310596317053,0.8622124573856592
1782845340422211600,2.720211669921875,-0.08039455618560314,-0.013691840744018554,0.6699567050617188
1782845340432215800,2.7302158203125,0.07787702040672302,-0.06344181394949555,0.4977884858682751
1782845340442220800,2.740220703125,0.13450374751389027,0.019039046990871427,0.36871085505634543
1782845340452224800,2.750224853515625,0.19072306286394594,0.18410700572505592,0.2808171022217721
1782845340462228500,2.760228515625,0.33132863438427446,0.2882258441083133,0.212255899431929
1782845340472233500,2.7702333984375,0.5322054269939661,0.2668362884685397,0.2055100053682923
1782845340482237700,2.78023779296875,0.6842880858182907,0.2825777552187443,0.23868936752304434
1782845340492242700,2.79024267578125,0.8312883268117904,0.3183485951714217,0.2463932198986411
1782845340502246700,2.80024658203125,0.9301198724418878,0.2810683735691011,0.25493600731641053
1782845340512251600,2.810251708984375,0.9843003754407167,0.2290305816873908,0.25665216358453036
1782845340522255600,2.820255615234375,0.9882540815025568,0.1835115240499377,0.2940688710480928
1782845340532260600,2.830260498046875,0.8999889380723237,0.17041487272009254,0.3571994270913303
1782845340542264600,2.8402646484375,0.7613099507004022,0.12445640075206756,0.3916290815681219
1782845340552268500,2.8502685546875,0.5937181725770234,0.027944530241191385,0.4064394049480557
1782845340562273800,2.860273681640625,0.4519686917185783,-0.04693330834954977,0.40685149288028477
1782845340572277500,2.870277587890625,0.3867547535300255,-0.08978709230050444,0.3954104998029768
1782845340582282500,2.880282470703125,0.34665362928807736,-0.12237813317328691,0.40356238820701834
1782845340592286500,2.890286376953125,0.2906231145083904,0.009648410572111606,0.43139965868145225
1782845340602291700,2.900291748046875,0.2623240717411041,0.02569090609550476,0.38627968336418267
1782845340612295700,2.910295654296875,0.34201778618097306,-0.1212587737545371,0.3375957319550216
1782845340622300700,2.92030078125,0.4612760337680578,-0.2262777758479118,0.3592760872349143
1782845340632304600,2.9303046875,0.5594505767941474,-0.22927257374972104,0.42849604619443415
1782845340642308600,2.94030859375,0.6611141309797763,-0.2310585803836584,0.4497659209772944
1782845340652313600,2.950313720703125,0.6884416983664036,-0.16764847674667835,0.4643992803551256
1782845340662317600,2.960317626953125,0.6484300059735775,-0.10988207808509469,0.4768228547289967
1782845340672322800,2.97032275390625,0.610362433385849,-0.2232984677761793,0.45884880662113425
1782845340682326500,2.980326416015625,0.6882429609239101,-0.27735928991809483,0.4505827903181314
1782845340692331500,2.99033154296875,0.6961129636466503,-0.3259795284412801,0.4376081579327583
1782845340702335500,3.00033544921875,0.6834042887210846,-0.36806495836824177,0.38203590831458567
1782845340712340500,3.010340576171875,0.6539572449624538,-0.307846198118478,0.3628044074915349
1782845340722344700,3.0203447265625,0.6060860712409019,-0.2567746209204197,0.2655347043506801
1782845340732348700,3.0303486328125,0.54046004512012,-0.28651977084279057,0.18699644355624914
1782845340742353700,3.040353759765625,0.457331095534563,-0.38692411874756216,0.13088131923303006
1782845340752357600,3.050357666015625,0.3791191440850496,-0.4659542547121644,0.11248553858175873
1782845340762362600,3.060362548828125,0.2886106056421995,-0.4523101986326277,0.13783859102502463
1782845340772366800,3.070366943359375,0.24892332289814947,-0.49774961516261096,0.13045929442867635
1782845340782371800,3.080371826171875,0.2622182732790708,-0.6195094703070819,0.08790858507752418
1782845340792375600,3.09037548828125,0.27577859659790993,-0.8303994151480495,0.024613632252812385
1782845340802379500,3.100379638671875,0.27083178784549233,-0.9545977494858204,-0.019284692315012217
1782845340812384500,3.110384521484375,0.26620471256673334,-0.8848239560358225,-0.07425006208121776
1782845340822388700,3.120388671875,0.2373100419938564,-0.741448919802159,-0.1935473265044391
1782845340832393700,3.130393798828125,0.27048984254002567,-0.7191650456711649,-0.35771029922291636
1782845340842397700,3.140397705078125,0.3300017696946859,-0.7439763924531638,-0.4214829525619745
1782845340852402700,3.150402587890625,0.4198199877858162,-0.7767841448165476,-0.40341538095176216
1782845340862406700,3.16040673828125,0.5303308652937412,-0.8081376067183911,-0.36785745309740303
1782845340872411000,3.170410888671875,0.5944727903366088,-0.7835144759848713,-0.3426265657290816
1782845340882415900,3.180415771484375,0.6174994456589221,-0.6928634603314101,-0.2815598103478551
1782845340892419600,3.190419677734375,0.5825771853595971,-0.6592395692795515,-0.2310990585245192
1782845340902424600,3.200424560546875,0.617766572162509,-0.7746139611706138,-0.1815747107684612
1782845340912428500,3.210428466796875,0.6602063684850931,-0.9286744959391653,-0.1003627007201314
1782845340922433500,3.22043359375,0.6850093858301639,-1.0004783339120447,0.004356587774306536
1782845340932437800,3.230437744140625,0.7011193936318159,-1.0174956658169627,0.10376023420393467
1782845340942442800,3.24044287109375,0.6139595810949802,-0.9976061394765973,0.20166239002943037
1782845340952446700,3.25044677734375,0.4341840287029743,-1.010953550697118,0.22075009846761823
1782845340962450700,3.26045068359375,0.2585994982600212,-1.0966177178487182,0.23112536200955508
1782845340972455700,3.27045556640625,0.09105272832214832,-1.1765233214735984,0.2844042399935424
1782845340982460000,3.2804599609375,-0.06039221712052822,-1.2681243313282728,0.3136872522968799
1782845340992465000,3.29046484375,-0.220091196167469,-1.342553695499152,0.34278467890024183
1782845341002468600,3.300468505859375,-0.43396366395056246,-1.3639416437037288,0.3821939484205097
1782845341012473600,3.3104736328125,-0.6454612192958593,-1.386060244270414,0.37505525564700365
1782845341022477600,3.3204775390625,-0.7482564078599214,-1.4365446692302821,0.25550818118117746
1782845341032482600,3.330482666015625,-0.6936211468309164,-1.3218543140806256,0.14961159253567458
1782845341042486800,3.34048681640625,-0.603234188941121,-1.1576377114787697,0.13984021317102013
1782845341052490800,3.35049072265625,-0.5780874727249146,-0.9953218279317021,0.17923655014447867
1782845341062495700,3.360495849609375,-0.6540642124682664,-0.7351109489522873,0.29485936383865774
1782845341072499700,3.370499755859375,-0.7925298493504523,-0.45318712759763,0.4056573877248913
1782845341082504700,3.380504638671875,-0.9254986423820256,-0.17839724977612495,0.5449022653512656
1782845341092508700,3.3905087890625,-1.065192359754443,0.0563759672164917,0.6967631711836904
1782845341102513700,3.400513671875,-1.140671086847782,0.0930393720947206,0.8606642050303518
1782845341112517600,3.410517578125,-1.085940548750758,0.05025996855422854,1.0277931879475712
1782845341122521600,3.420521484375,-0.9297989699244499,0.056970864369720216,1.1284653930082917
1782845341132526600,3.430526611328125,-0.7006079369783401,0.0658968058861792,1.1310640311993658
1782845341142530600,3.440530517578125,-0.42671383895277976,0.07844955959767103,1.0590189318165182
1782845341152535600,3.45053564453125,-0.22811551266908645,-0.03903276435807347,0.8672802621692418
1782845341162539800,3.460539794921875,0.007919687083363533,-0.16707067685872315,0.6586608926087617
1782845341172544800,3.470544677734375,0.2965875758707523,-0.1422189980663359,0.44656661347933113
1782845341182548700,3.480548828125,0.451713840174675,-0.0019797756403684614,0.26487331783249973
1782845341192553700,3.4905537109375,0.49442076300084586,0.13296017133370042,0.19894078304581342
1782845341202557400,3.500557373046875,0.5382347702860832,0.32410847387239333,0.10420381325297057
1782845341212561700,3.510561767578125,0.6029711540907621,0.4739569439038634,-0.06338555371761322
1782845341222566700,3.520566650390625,0.7246247723817825,0.56905076431036,-0.21562164953798055
1782845341232570600,3.530570556640625,0.8239414711803197,0.5868547165483236,-0.29237931052595373
1782845341242575600,3.54057568359375,0.8985726415336132,0.6522293982565402,-0.19879041478969156
1782845341252579600,3.55057958984375,0.9361071301579474,0.7988897397711873,-0.04454604788683355
1782845341262584600,3.56058447265625,0.9389765481144189,0.9556617254555225,0.0974888988494873
1782845341272588800,3.5705888671875,1.0065221441209316,1.0512148339368403,0.18410561748556792
1782845341282593800,3.58059375,0.9994845005691051,1.0276153471626341,0.23926373334489762
1782845341292597800,3.59059765625,0.895553585973382,1.0835334876090288,0.3004386983409524
1782845341302601500,3.6006015625,0.7045832703500986,1.1899199786633252,0.345041956307739
1782845341312606500,3.6106064453125,0.3383183471411466,1.1969755962632596,0.3552171672329306
1782845341322610700,3.620610595703125,-0.058629883623123165,1.2756237471729517,0.2993606938458979
1782845341332615700,3.63061572265625,-0.3459662315458059,1.2990163131982086,0.22828517014756797
1782845341342619600,3.64061962890625,-0.4132271653920412,1.2406556019052863,0.1792176993135363
1782845341352624600,3.650624755859375,-0.31572131540775294,1.184563273935765,0.17359664456136523
1782845341362628600,3.660628662109375,-0.21562427988648414,1.1479517453752457,0.15102379742115735
1782845341372632800,3.6706328125,-0.11432371379435062,1.082179881042987,0.12852657280042767
1782845341382637800,3.680637939453125,-0.02670037539899349,1.054449285813421,0.12493622015826403
1782845341392641800,3.690641845703125,-0.009209142372012138,1.039026529623568,0.09211604670472442
1782845341402646800,3.700646728515625,-0.04894552495479584,0.9996771005317568,0.07673895628750324
1782845341412650500,3.710650390625,-0.1332733289361,0.9738824418008327,0.042843481752648946
1782845341422655500,3.720655517578125,-0.19070552720725537,0.9103791069224476,-0.02339899576604366
1782845341432659700,3.73065966796875,-0.1917927379220724,0.8275250287555158,-0.06452982838191092
1782845341442664700,3.740664794921875,-0.17819091354906558,0.6794950063228606,-0.039781609963998196
1782845341452668700,3.750668701171875,-0.23982582420706747,0.6168088330462574,-0.0038648587346076964
1782845341462672600,3.760672607421875,-0.3836602946460247,0.5983094458900392,0.03601940788626671
1782845341472677600,3.770677734375,-0.5274287141114473,0.6096588151611387,0.043564708699285984
1782845341482681900,3.780681884765625,-0.5923205807387828,0.6136302030101418,-0.00554828177690506
1782845341492686800,3.790686767578125,-0.6155652627259492,0.5694260273635388,-0.1041824051387608
1782845341502690600,3.800690673828125,-0.5515016636162996,0.45675402629896994,-0.13904811294525862
1782845341512695600,3.810695556640625,-0.4398533065110445,0.377769044650346,-0.11194003352820872
1782845341522699500,3.820699462890625,-0.27213351809382436,0.5167683500178158,-0.1290796035733074
1782845341532704500,3.83070458984375,0.0012356792747974395,0.5622435685135424,-0.25024339252077044
1782845341542708700,3.840708740234375,0.4355529789686203,0.5191247038856148,-0.38674408600553867
1782845341552712700,3.850712646484375,0.8077268339604139,0.5718336730271577,-0.43032749940529463
1782845341562717700,3.8607177734375,1.0536877999216316,0.6047147828876972,-0.4432714443914592
1782845341572721700,3.8707216796875,1.2551719107747077,0.5635008750982582,-0.4677184879057109
1782845341582726700,3.8807265625,1.2929331938922404,0.5523424983546138,-0.4248764674577862
1782845341592731000,3.89073095703125,1.1710329073637724,0.548810670966655,-0.38428390643708404
1782845341602735900,3.90073583984375,0.9478209488272666,0.49372430516928434,-0.27771709037981923
1782845341612739600,3.910739501953125,0.7469149301230907,0.3413715972319245,-0.20176073583737014
1782845341622743600,3.92074365234375,0.5634633195668458,0.19093042200431226,-0.13152253974601624
1782845341632748500,3.93074853515625,0.4122252948731184,0.079300038947165,-0.01779270019158721
1782845341642752800,3.940752685546875,0.25531448523998257,-0.06204188402369618,0.06024228725582361
1782845341652757800,3.9507578125,0.1297311262845993,-0.23504209706187246,0.06700432873666286
1782845341662761700,3.96076171875,-0.05982523088753223,-0.32411461135223507,0.038481048759445545
1782845341672766700,3.9707666015625,-0.312366159760952,-0.29541926274374125,0.030669790486618876
1782845341682770700,3.980770751953125,-0.6038520285785198,-0.26368688452690836,-0.007113193006068468
1782845341692775700,3.990775634765625,-0.8509200789988041,-0.2883991548486054,-0.12865451002903283
1782845341702779600,4.000779541015625,-0.995579309824109,-0.33961554734483357,-0.23197153051011263
1782845341712783600,4.01078369140625,-1.0634978307962417,-0.3025558366253972,-0.35404322808273136
1782845341722788600,4.02078857421875,-0.9731973821461201,-0.2552620244003832,-0.4817549043036997
1782845341732792600,4.03079248046875,-0.7320330028116703,-0.22632526825144886,-0.5697887962613254
1782845341742797600,4.040797607421875,-0.41270226473510263,-0.23511808490753172,-0.6098855365891009
1782845341752801500,4.050801513671875,-0.12840601516067982,-0.22811551266908645,-0.6129093413896858
1782845341762806500,4.060806640625,0.1431114168614149,-0.16021423509269953,-0.5938005901634693
1782845341772810800,4.070810791015625,0.37610476469993587,-0.19892945793420075,-0.5947004616126418
1782845341782815700,4.080815673828125,0.5144038128435612,-0.2732221901133656,-0.5558513832584023
1782845341792819700,4.09081982421875,0.5273316834777594,-0.3026490678668022,-0.5098387699503452
1782845341802823700,4.10082373046875,0.4827221419006586,-0.36205519655942914,-0.433821771261841
1782845341812828700,4.11082861328125,0.46160044341683387,-0.462537285875529,-0.39061493608951564
1782845341822832600,4.12083251953125,0.393637498781085,-0.5047010417357087,-0.3437978014655411
1782845341832837600,4.130837646484375,0.31125030747354027,-0.483140951834619,-0.3712183808978647
1782845341842841600,4.140841552734375,0.2131423999428749,-0.4414027279101312,-0.41067784623540937
1782845341852846600,4.1508466796875,0.11124620604515074,-0.3177344087958336,-0.43997605610787865
1782845341862850600,4.1608505859375,0.057329322418570514,-0.16528174761533737,-0.5358857960071415
1782845341872854800,4.170854736328125,0.04476385535597801,-0.1408019708752632,-0.6444655593220144
1782845341882859800,4.18085986328125,0.0956850642979145,-0.17181363360211252,-0.718999406780675
1782845341892863700,4.19086376953125,0.19272154320478438,-0.20539602359980344,-0.7132184122264384
1782845341902868700,4.20086865234375,0.2243494381338358,-0.13945844731181858,-0.66523822517246
1782845341912872400,4.21087255859375,0.23512685273587702,-0.04944719086661935,-0.6626452130045741
1782845341922877400,4.22087744140625,0.22107494650781154,-0.04039367744773626,-0.718391504015401
1782845341932881700,4.230881591796875,0.14374620763361454,-0.06265051744133233,-0.7467444689270109
1782845341942886700,4.24088671875,0.02493745737969875,-0.15036971742659808,-0.6975218805965036
1782845341952890600,4.250890625,-0.07298691027760505,-0.3216204564489424,-0.6399617450967431
1782845341962894600,4.26089453125,-0.32060616483986376,-0.4574119056858122,-0.600934679827094
1782845341972899600,4.270899658203125,-0.36858255250155925,-0.38099282900243997,-0.37526451448351145
1782845341982903800,4.28090380859375,-0.12978957847356795,-0.3686766605257988,-0.24537680939771234
1782845341992908800,4.29090869140625,0.17617898920476435,-0.31634207765460015,-0.2836073905274272
1782845342002912800,4.300912841796875,0.30959669504761694,-0.30441622366979715,-0.3327289296362549
1782845342012917800,4.310917724609375,0.32618250366747376,-0.34867154498174785,-0.3618633272491395
1782845342022921500,4.32092138671875,0.34504151791632176,-0.3827363116689026,-0.3933966757625341
1782845342032926500,4.330926513671875,0.3231616945415735,-0.4373841399185359,-0.4429216080404818
1782845342042930700,4.3409306640625,0.25633681402504443,-0.5010622468419372,-0.5132391529783606
1782845342052934700,4.3509345703125,0.20618658945560453,-0.5934435934193432,-0.5863295236304402
1782845342062939600,4.360939697265625,0.13473054200708864,-0.6599412878081202,-0.6067576868921518
1782845342072943600,4.370943603515625,0.021171382844448087,-0.6776490861952305,-0.566794948207587
1782845342082948600,4.380948486328125,-0.07126783140003681,-0.6311280119083822,-0.6183290283508599
1782845342092952800,4.390952880859375,-0.11557575968205928,-0.6227218564823269,-0.7330852883435786
1782845342102957800,4.400957763671875,-0.1079541787624359,-0.4151858982443809,-0.8134732686579227
1782845342112961800,4.4109619140625,-0.20582418588399887,-0.32884368570074435,-1.162953207413107
1782845342122965500,4.420965576171875,-0.2505950555026531,-0.21138167388066648,-1.343681822746247
1782845342132970500,4.430970458984375,-0.304178761652112,-0.10632570077776908,-1.3296933371432125
1782845342142974700,4.440974609375,-0.27436054649353026,-0.12329510188773274,-1.2197136439025402
1782845342152979700,4.450979736328125,-0.2441121232241392,-0.07541399129405617,-0.9394475266270339
1782845342162983700,4.460983642578125,-0.33045302059352394,0.002434241409599781,-0.6557770077355206
1782845342172988700,4.47098876953125,-0.594028553700447,0.04011223015785217,-0.38486850139200685
1782845342182992600,4.48099267578125,-1.1145651702105999,0.016401245833188294,-0.107873807002604
1782845342192997600,4.49099755859375,-1.718373944169283,0.07328282448425888,0.17081790056303142
1782845342203001900,4.501001953125,-2.0862784512788055,0.22831264267638324,0.3723173551157117
1782845342213005800,4.511005859375,-2.240216967102885,0.3093136403225362,0.5286883587837219
1782845342223010800,4.5210107421875,-2.182041841509938,0.3590691664859652,0.6295452727615833
1782845342233014500,4.5310146484375,-1.8298551280140876,0.36904300962015985,0.6254327228762209
1782845342243019500,4.54101953125,-1.3804957420110702,0.3877116158634424,0.5776685166604817
1782845342253023700,4.551023681640625,-0.8818301810473204,0.3261692057944834,0.48553434977717697
1782845342263028700,4.56102880859375,-0.3797387372881174,0.2942182163909077,0.33567375091649587
1782845342273032700,4.57103271484375,0.12196750654578208,0.24852409444749354,0.1403374221034348
1782845342283037700,4.58103759765625,0.5830640920937061,0.1543671164996922,0.03975223773904144
1782845342293041700,4.591041748046875,0.9272691591858864,0.14861834371462462,0.06470686544924974
1782845342303045600,4.601045654296875,1.1459347064644099,0.16176774814501405,0.05830737367048859
1782845342313050600,4.611050537109375,1.2635258976221084,0.16208587418347598,0.04279774291478097
1782845342323054600,4.6210546875,1.3787977059215306,0.23570509101524947,-0.0022528204280883074
1782845342333059600,4.6310595703125,1.3759756342381237,0.387386037170887,-0.09018610155545174
1782845342343063600,4.6410634765625,1.2706857062488794,0.48667321761399507,-0.186791568633914
1782845342353068500,4.651068603515625,1.058038396346569,0.578845597615838,-0.2570178550917655
1782845342363072500,4.661072509765625,0.7626315546929836,0.6268985576450824,-0.18939875545762477
1782845342373077500,4.671077392578125,0.521032291072607,0.6054454352498054,0.025191797466948627
1782845342383081700,4.681081787109375,0.3582856148928404,0.6681541126191616,0.3933694954946637
1782845342393085700,4.691085693359375,0.10987959386706352,0.7274944825991988,0.656918432855606
1782845342403090700,4.701090576171875,-0.06247954478859901,0.8212132152602076,0.8671204684976488
1782845342413094700,4.7110947265625,-0.14896423454284666,0.822146988978982,0.9875242328580468
1782845342423099600,4.721099609375,-0.355595060634613,0.735640379653871,1.02014881067425
1782845342433103600,4.731103515625,-0.5252671521633863,0.6575742664158344,1.1058933495856822
1782845342443108600,4.741108642578125,-0.597980506196618,0.6141250007897615,1.2109618899092078
1782845342453112600,4.751112548828125,-0.6859966433018445,0.5027332487940788,1.361642865242064
1782845342463117600,4.76111767578125,-0.6854103678464889,0.345313320595026,1.396519094442576
1782845342473121500,4.77112158203125,-0.6334031172335147,0.2381181435063481,1.3542691216036677
1782845342483125800,4.781125732421875,-0.5841325981080532,0.2343205047890544,1.2914767114736139
1782845342493130800,4.791130859375,-0.4983756381064653,0.2510834235414863,1.1442663348607718
1782845342503134700,4.801134765625,-0.2635281868338585,0.20302374151051042,0.94045261201635
1782845342513139700,4.8111396484375,0.038298458734154696,0.11445990739464759,0.6807133691366761
1782845342523143700,4.821143798828125,0.17158815428316593,0.15463438913375138,0.4837197015706449
1782845342533148700,4.831148681640625,0.15238661020696162,0.23854455222487447,0.351500996254012
1782845342543152600,4.841152587890625,0.17266309003829955,0.17863339661955832,0.23134221963062881
1782845342553156600,4.851156494140625,0.24222411752045153,0.24413696540445087,0.19457316242083905
1782845342563161600,4.86116162109375,0.27828210385143753,0.33940029715895653,0.21081023066826163
1782845342573165600,4.87116552734375,0.35341947016119957,0.38355683427155013,0.14306465511023997
1782845342583170600,4.881170654296875,0.4547539385229349,0.3910287775874138,0.03780336869359016
1782845342593174800,4.8911748046875,0.5646399621307849,0.42203094183355566,0.04644698613733053
1782845342603179800,4.9011796875,0.6464443851143121,0.5120706937208771,0.13412614637315273
1782845342613183700,4.911183837890625,0.6739332805424928,0.628896745724976,0.2082208717621863
1782845342623188700,4.921188720703125,0.6724965257376432,0.7119710425138474,0.1951540310487151
1782845342633192700,4.931192626953125,0.6900935572266578,0.6961237773016095,0.08945303804054856
1782845342643196700,4.94119677734375,0.7043155593246221,0.5961190962389111,0.043429099620878694
1782845342653201700,4.95120166015625,0.7931792531698941,0.49417409476339813,0.046588732695579525
1782845342663205600,4.96120556640625,0.9066407971769571,0.42187604353278874,0.07362696174681187
1782845342673211000,4.9712109375,1.0030500840961933,0.3310536168351769,0.15095219348967073
1782845342683214600,4.981214599609375,1.028250576326251,0.2666352129384875,0.2617017020590603
1782845342693219600,4.991219482421875,1.0013859502762557,0.24825726020485162,0.33862434435039757
1782845342703223800,5.001223876953125,0.8323287757754325,0.27144670487344263,0.4177195083752274
1782845342713228800,5.011228759765625,0.6156944420635699,0.21219576674252746,0.4658756365180015
1782845342723232800,5.021232666015625,0.3701940793514252,0.22192484133541582,0.5196545729786157
1782845342733236700,5.03123681640625,0.08958207124769688,0.25191022975444793,0.5235343370214104
1782845342743241700,5.04124169921875,-0.13705226295292378,0.17819091354906558,0.539470595691353
1782845342753246000,5.051245849609375,-0.190489838629961,0.10837766487151383,0.5638429665341973
1782845342763251000,5.0612509765625,-0.10724573823213576,0.11861001281142235,0.5685169496946036
1782845342773254700,5.071254638671875,0.031386487388610836,0.1474710733756423,0.5305829403586685
1782845342783259600,5.081259765625,0.1995002435594797,0.11411445495784282,0.5333636571183801
1782845342793263600,5.091263671875,0.31254619250297544,0.12356968104541301,0.5961493452467024
1782845342803268600,5.1012685546875,0.4135702797412872,0.18528467120230196,0.5998521452873945
1782845342813272800,5.11127294921875,0.4506704686015844,0.17724895652383565,0.5448971507847309
1782845342823276800,5.12127685546875,0.47218964197039603,0.1523717048987746,0.47943362174928184
1782845342833281800,5.13128173828125,0.47499300895333285,0.14684300460517405,0.38336058104708787
1782845342843285800,5.14128564453125,0.48023207865059375,0.026980361384153363,0.2826017206162214
1782845342853290800,5.151290771484375,0.4967950909167528,-0.07567571097016335,0.16292948540076613
1782845342863294700,5.161294677734375,0.5231570281416178,-0.09943827935159205,0.04545081470683217
1782845342873299700,5.1712998046875,0.43960546922981736,-0.13786562516242265,-0.1170570112157613
1782845342883303700,5.1813037109375,0.4355640848845243,-0.2786284330710769,-0.2414333324689418
1782845342893308700,5.19130859375,0.4610860641539097,-0.3581643266007304,-0.2854916699040681
1782845342903312600,5.201312744140625,0.5260270306199789,-0.41207536500841374,-0.2849159158427268
1782845342913316600,5.211316650390625,0.557440990537405,-0.44161651679128405,-0.25655294099375603
1782845342923321600,5.221321533203125,0.5301625229895115,-0.4366846133470535,-0.20298662437051535
1782845342933325800,5.231325927734375,0.5408972674936056,-0.4579276001229882,-0.17578830938674508
1782845342943330800,5.241330810546875,0.5966665009886026,-0.47889673839360475,-0.16282178724259136
1782845342953334800,5.251334716796875,0.6450339337944984,-0.5073717222496867,-0.1314161567620933
1782845342963339800,5.26133984375,0.6903326266795397,-0.5912585044652223,-0.051834012937918304
1782845342973343700,5.27134375,0.6856044291138649,-0.7006281029835343,0.04258073916323483
1782845342983348700,5.2813486328125,0.6334907955169677,-0.7307400403916835,0.06857369694523513
1782845342993352700,5.291352783203125,0.6119920804142952,-0.7675611200496554,0.10048479272983968
1782845343003356700,5.301356689453125,0.6237725345790386,-0.7862547146037221,0.18816665637940166
1782845343013361700,5.311361572265625,0.6156856742352247,-0.7454165082588792,0.26837102375514804
1782845343023365600,5.32136572265625,0.5705863033145666,-0.7330480250731111,0.26401911215595897
1782845343033370600,5.33137060546875,0.4685474860757589,-0.7785331804409623,0.31229185241572555
1782845343043374800,5.341374755859375,0.27710195415616035,-0.8568035840794443,0.34474092753455043
1782845343053379800,5.3513798828125,0.009866729497909545,-0.993738650393486,0.32445217274352905
1782845343063383800,5.3613837890625,-0.27689152627587316,-1.116153900706768,0.3251615631218999
1782845343073388800,5.371388916015625,-0.5562544111013412,-1.1727961176440118,0.2833204633448273
1782845343083392800,5.381392822265625,-0.7670663222700357,-1.2112997435614465,0.11313698822781443
1782845343093396700,5.391396728515625,-0.8511305068790912,-1.2747861273050307,-0.03235957020446658
1782845343103401700,5.401401611328125,-0.8117062589854002,-1.342569331459701,-0.15963022465966642
1782845343113405700,5.41140576171875,-0.6485872423619031,-1.3750924216628073,-0.23884207386672496
1782845343123410700,5.42141064453125,-0.3979208751887083,-1.3620394633442163,-0.30841201530769463
1782845343133414700,5.43141455078125,-0.13724924682974815,-1.3159727086961268,-0.3677648794431239
1782845343143419600,5.441419677734375,-0.09170447022914886,-1.184208030757308,-0.41466019386984404
1782845343153424000,5.451423828125,-0.1692670178592205,-1.0417150380551814,-0.46474444053098557
1782845343163428900,5.461428955078125,-0.1978051300793886,-0.8635159411996602,-0.4961423260964453
1782845343173432800,5.471432861328125,-0.25304186413288116,-0.7019041142687201,-0.45472120529711246
1782845343183436500,5.4814365234375,-0.29204934791922565,-0.5222068878099322,-0.20333982172235845
1782845343193441800,5.49144189453125,-0.2685767023950815,-0.2795259664326906,0.22953801975287497
1782845343203445800,5.50144580078125,-0.1458352888673544,0.07270458620488643,0.6538615295030177
1782845343213450800,5.51145068359375,-0.08033844208419323,0.3026780017003417,0.9682841103371232
1782845343223454700,5.521454833984375,-0.12717325849533082,0.5175657840058208,1.154598051521927
1782845343233459700,5.531459716796875,-0.07680266917347908,0.5370625116363168,1.3013348192736505
1782845343243463700,5.541463623046875,0.03968143752515316,0.49989568728059525,1.4548599319912492
1782845343253468700,5.55146875,0.09840893630385399,0.4705106028422713,1.665185374817252
1782845343263473000,5.561472900390625,0.08738251537680626,0.24783611218333243,1.733668543934822
1782845343273476900,5.571476806640625,-0.048096799170970914,0.00010959785431623458,1.7674913185596466
1782845343283481900,5.58148193359375,-0.2213555170148611,-0.12616028206050395,1.6988154033489524
1782845343293485600,5.591485595703125,-0.3641039457827806,-0.18875117826908824,1.466265853755176
1782845343303490600,5.601490478515625,-0.5069119957834481,-0.36784897753000256,1.1790942679401486
1782845343313494800,5.611494873046875,-0.3769190036922693,-0.6524596998810768,0.9008178631771355
1782845343323499800,5.621499755859375,-0.2602712308645248,-0.6351435311600565,0.6858942789059131
1782845343333503700,5.631503662109375,-0.2753653396219015,-0.36074615978747604,0.4230202451318502
1782845343343508700,5.6415087890625,-0.11899462821483611,-0.1155664073318243,0.003396583635732531
1782845343353512700,5.6515126953125,0.1639858625859022,-0.09515811781436205,-0.4021970912031829
1782845343363517000,5.661516845703125,0.4780506429582834,-0.029594635535776615,-0.6063515172440558
1782845343373522000,5.67152197265625,0.6530833847373724,0.12328384984135626,-0.5587351950664073
1782845343383526000,5.68152587890625,0.7380231831371784,0.3536597086578607,-0.4537063291661441
1782845343393531000,5.69153076171875,0.7134218258440495,0.3940232832282781,-0.5678607508081942
1782845343403534600,5.70153466796875,0.7883096013069152,0.2994768675714731,-0.32594131532274184
1782845343413539600,5.71153955078125,0.7313964584738015,0.5489134006887674,-0.0296343830242753
1782845343423543800,5.721543701171875,0.5075076235890388,0.7891235480383038,0.10549641034677625
1782845343433548800,5.731548828125,0.2918897734433412,0.8112658217415213,0.106083416454494
1782845343443552800,5.741552734375,0.17958792086541653,0.9331672773137688,0.11776150622330606
1782845343453556700,5.751556640625,0.10108429299294948,1.0702867602840065,0.1262199763584882
1782845343463561700,5.761561767578125,0.06786416043639183,1.192266541789472,0.1334757927056402
1782845343473565700,5.771565673828125,0.08673778773248195,1.3382885854005813,0.06748539025187492
1782845343483570700,5.78157080078125,0.1303928050637245,1.4980144524544476,-0.00407557887583971
1782845343493575000,5.791574951171875,0.1996791072577238,1.5919994348362088,-0.07392609082385897
1782845343503580000,5.801579833984375,0.2778092256426811,1.6207859688594937,-0.1433976133916527
1782845343513583600,5.81158349609375,0.3596130641043186,1.5092311352565884,-0.2097670052256435
1782845343523587600,5.821587646484375,0.41101182743012904,1.3959943399161099,-0.18495909250974654
1782845343533592600,5.831592529296875,0.4677373387366533,1.2866630275815725,-0.14445062957592308
1782845343543596800,5.8415966796875,0.5325608163028955,1.1097115926995873,-0.08314655830748378
1782845343553601800,5.851601806640625,0.5553612616539001,0.9506436050325632,0.023102570102736354
1782845343563605800,5.861605712890625,0.46460079427659506,0.8127151437669992,0.13189159225411712
1782845343573610800,5.87161083984375,0.3125064450144768,0.7192214520335197,0.17482209470309315
1782845343583614700,5.88161474609375,0.1303799455821514,0.604524813273549,0.21955073261521754
1782845343593619700,5.89161962890625,-0.11053776551485062,0.4778071895912289,0.2539661393709481
1782845343603624000,5.9016240234375,-0.4091735060870647,0.4421513543203473,0.28458266530036924
1782845343613629000,5.91162890625,-0.700613782197237,0.4084570283807814,0.2962290447566658
1782845343623632600,5.921632568359375,-0.8635895909577608,0.35799583816602826,0.2492407182842493
1782845343633636600,5.93163671875,-0.9777414553165436,0.33756489842534065,0.1796336597032845
1782845343643641600,5.9416416015625,-0.9658394205987453,0.2966585952803492,0.09009294337928295
1782845343653645800,5.951645751953125,-0.8349772444576025,0.31267917123287914,-0.01443009189069271
1782845343663650800,5.96165087890625,-0.5968418575555086,0.3668628891021013,-0.07981127640493213
1782845343673654300,5.971654296875,-0.2892868974685669,0.41337534169107676,-0.1835214609220624
1782845343683659300,5.9816591796875,0.10387538501620291,0.4449024065941572,-0.22791100307293236
1782845343693663200,5.991663330078125,0.5221820456296206,0.4189826601788401,-0.19534473131522534
1782845343703668500,6.00166845703125,0.87166651442945,0.356426835283637,-0.15108312639296054
1782845343713672400,6.01167236328125,1.0030652816653252,0.25912644474357366,-0.14966938713751732
1782845343723676400,6.021676513671875,0.9586053776919842,0.1670722842939198,-0.11411591626256704
1782845343733681400,6.031681396484375,0.8404787644833326,0.05870221820697188,-0.03766680976711213
1782845343743685400,6.041685302734375,0.663323039200902,-0.03261193753033876,-0.014387275662273168
1782845343753690400,6.0516904296875,0.38466391873061656,-0.06330591261014341,-0.03571889056973159
1782845343763694300,6.0616943359375,0.12037702248394488,-0.08316460542082786,-0.07621858567520975
1782845343773699300,6.07169921875,-0.09343290145695209,-0.04944324534386396,-0.15597418637014926
1782845343783703300,6.081703369140625,-0.28714520926475523,-0.05376578471809625,-0.25565906089395285
1782845343793707300,6.091707275390625,-0.4295382487237453,-0.12929200421497225,-0.30631533528938887
1782845343803712300,6.101712158203125,-0.5279945313006639,-0.23769977196380496,-0.3526007741894573
1782845343813716500,6.111716552734375,-0.7013023489832878,-0.3088436847232282,-0.3970231956966221
1782845343823721500,6.121721435546875,-0.8986153116315603,-0.3164562055535614,-0.4488604965701699
1782845343833725400,6.131725341796875,-1.0266735362678765,-0.3213828483007848,-0.5718097076296806
1782845343843730400,6.14173046875,-0.9665332480818033,-0.3440948847159743,-0.6705278560131788
1782845343853734400,6.151734375,-0.8200023781657219,-0.3650039633624255,-0.7092520658787339
1782845343863739400,6.161739501953125,-0.5497504360347986,-0.2995883651219308,-0.670348407793045
1782845343873743400,6.171743408203125,-0.3145037563115358,-0.14960487053394317,-0.6791774648062885
1782845343883748400,6.181748291015625,-0.08682488149404526,-0.017686901729553936,-0.6945180226054042
1782845343893752300,6.19175244140625,0.18895956032276154,0.04110036441236734,-0.682169632359594
1782845343903756300,6.20175634765625,0.4508955095291137,0.1032521385513246,-0.6742505297981202
1782845343913761300,6.21176123046875,0.7083791555017233,0.09305617709904909,-0.6363527608193457
1782845343923765500,6.221765625,0.8867436720520258,0.04474047448039055,-0.5872775450702756
1782845343933770500,6.2317705078125,0.9869628726482391,0.00012362637966871262,-0.4844724926993251
1782845343943774500,6.2417744140625,0.9748287827402353,-0.03907806480452418,-0.3465197007101029
1782845343953779500,6.251779541015625,0.9039344608277082,-0.0951503728993237,-0.2379734012734145
1782845343963783200,6.261783203125,0.7512959216862917,-0.18794512258321044,-0.16674612107947467
1782845343973788200,6.2717880859375,0.5219026441663503,-0.28766996379122134,-0.12866868468485773
1782845343983792400,6.28179248046875,0.24602993954420088,-0.3133661305837333,-0.1306755675278604
1782845343993796400,6.29179638671875,0.032114217141270635,-0.2766501187354326,-0.16953246386237442
1782845344003801300,6.30180126953125,-0.07319090841710567,-0.2448195408411324,-0.14497041566632687
1782845344013805300,6.311805419921875,-0.08588380125164985,-0.23036519129201768,-0.12874204218201338
1782845344023810300,6.321810302734375,-0.031065000349283216,-0.2463162091396749,-0.2116025500897318
1782845344033814500,6.331814453125,-0.0398147085160017,-0.2145060895115137,-0.30628406336829067
1782845344043819500,6.341819580078125,0.009831073662638664,-0.11760668098777532,-0.34743352761939167
1782845344053823500,6.351823486328125,0.015993103423714638,-0.07825856707021593,-0.39518049043938513
1782845344063828500,6.361828369140625,0.0837859521895647,-0.019833119978010655,-0.3811617558285594
1782845344073832200,6.371832275390625,0.21416122159659862,0.019585282696783543,-0.33280886300466955
1782845344083836400,6.38183642578125,0.3034410950273275,-0.040150662472099065,-0.3520635985728353
1782845344093841400,6.39184130859375,0.32129823875725266,-0.09965864410400391,-0.3765564539901912
1782845344103845400,6.401845458984375,0.22508885832428932,-0.09651450085937976,-0.31553748327344655
1782845344113850400,6.411850341796875,0.06624795741140842,-0.10749386777430772,-0.33455161501877007
1782845344123854300,6.421854248046875,0.006885667860507965,-0.12994009286016225,-0.4140933537673205
1782845344133859300,6.431859375,0.03979366572797298,-0.11294804152697324,-0.46845264739915726
1782845344143863600,6.441863525390625,0.1316442664295435,-0.10586612044200301,-0.5064110605239868
1782845344153868500,6.45186865234375,0.2580453715085983,-0.16451894654929636,-0.5236830978423357
1782845344163872500,6.46187255859375,0.307494754332304,-0.26339009353742004,-0.48272316481396554
1782845344173876200,6.471876220703125,0.3016378449976444,-0.35082185488343237,-0.4652265980247408
1782845344183881200,6.481881103515625,0.18122984285354612,-0.2978045504450798,-0.4491319339226931
1782845344193885400,6.491885498046875,-0.08277589836418628,-0.23479016812741754,-0.41961657416820525
1782845344203890400,6.501890380859375,-0.24581951166391372,-0.29165947181880475,-0.4673554998122155
1782845344213894400,6.511894287109375,-0.34009354012012477,-0.47690454166308044,-0.4382331579633057
1782845344223899400,6.5218994140625,-0.4491249927252531,-0.5936664423897862,-0.4638401851676404
1782845344233903400,6.5319033203125,-0.5087748670458794,-0.5457596128329635,-0.45904257562756534
1782845344243908400,6.541908447265625,-0.4796797054648399,-0.4842521279469132,-0.4949772278398275
1782845344253912600,6.55191259765625,-0.32175591939687725,-0.405873880019784,-0.5515203683167695
1782845344263916500,6.56191650390625,-0.2024894885033369,-0.3495470126420259,-0.5357460222102701
1782845344273921500,6.571921630859375,-0.1772276214748621,-0.29845249295979737,-0.5427567777551711
1782845344283925200,6.58192529296875,-0.10061901356875896,-0.2737570276424289,-0.4079423568569123
1782845344293930200,6.59193017578125,-0.15642039576768874,-0.3321694691225886,-0.22229396690875292
1782845344303934200,6.601934326171875,-0.6049217036366462,-0.24035467038676142,-0.11038184430077672
1782845344313939500,6.611939453125,-1.0084861376702785,-0.02588993579894304,0.060943348197266455
1782845344323943400,6.621943359375,-1.4159160149604082,0.1363140118062496,0.09873955649770795
1782845344333948400,6.631948486328125,-1.6098387506484984,0.2135379751317203,0.17601707664132119
1782845344343952400,6.641952392578125,-1.5806997499257325,0.23134879550188778,0.22030615409240126
1782845344353957400,6.651957275390625,-1.3616191921055316,0.28387027924731373,0.27139965086132284
1782845344363961300,6.66196142578125,-1.0392711520344018,0.34479368063509463,0.3353712608385831
1782845344373965300,6.67196533203125,-0.6708961048036813,0.3315758871436119,0.32462431444004175
1782845344383970300,6.68197021484375,-0.25403029064834115,0.29340426965951916,0.20363938919082283
1782845344393974300,6.691974365234375,0.181284203389287,0.28899799752458927,0.05183861604779958
1782845344403979300,6.701979248046875,0.5584317551404238,0.36777123611867424,-0.11519888919368386
1782845344413983200,6.711983154296875,0.8331851003438234,0.45458515782728787,-0.28365057208202776
1782845344423988200,6.72198828125,0.9769149413645267,0.521161908801645,-0.35895460019558667
1782845344433992400,6.731992431640625,1.0365671537727117,0.5973457154244184,-0.3816535579334944
1782845344443997400,6.74199755859375,1.0424807617306708,0.6882875307179988,-0.3627941783584654
1782845344454001400,6.75200146484375,0.9049930299699306,0.7760721971549093,-0.38749921522177755
1782845344464005400,6.76200537109375,0.7891635877877473,0.7538195949450135,-0.35707192825414236
1782845344474010400,6.77201025390625,0.7420353413879871,0.7411939221277832,-0.2924327942788601
1782845344484014300,6.782014404296875,0.6606359920740127,0.8246721235424279,-0.15688742875754833
1782845344494019300,6.792019287109375,0.5658528450518846,0.8545385617569089,0.015858882584795356
1782845344504023300,6.802023193359375,0.4853273559629917,0.8658484758004545,0.16856456867828964
1782845344514028300,6.8120283203125,0.4381739751219749,0.8457803780227899,0.26685236282050606
1782845344524032300,6.8220322265625,0.3272363966345787,0.8453986852288246,0.41242585894651707
1782845344534037200,6.832037353515625,0.0841349117577076,0.882899563844502,0.6122029466859996
1782845344544041500,6.84204150390625,-0.12046177815794944,0.8400283903673291,0.762243505223468
1782845344554045400,6.85204541015625,-0.22736031038761137,0.7478998495072126,0.8802433502472936
1782845344564050400,6.862050537109375,-0.24776187790334223,0.6535682456448674,0.9716296213727443
1782845344574054400,6.872054443359375,-0.21049159317314622,0.6031453416138887,0.9988847080450505
1782845344584059400,6.882059326171875,-0.07123977434933185,0.5143912456229329,1.039631655909866
1782845344594063400,6.8920634765625,-0.06801029090881347,0.4243739978283643,1.1056882554676384
1782845344604068400,6.902068359375,-0.2513268769085407,0.42083179517686364,1.1898893643293529
1782845344614072300,6.912072265625,-0.4401128342300653,0.4025365522906184,1.1989300913318992
1782845344624077300,6.922077392578125,-0.38001872327327724,0.30207682093679905,1.1146200422029942
1782845344634081300,6.932081298828125,-0.20215105032920835,0.15553133797347546,1.0337217742789535
1782845344644085500,6.94208544921875,-0.09813304197192191,-0.015668109253048897,1.0519685018483549
1782845344654090500,6.952090576171875,-0.13576222314238548,-0.014684943434596061,1.045568425547704
1782845344664094500,6.962094482421875,-0.1891173812329769,0.021364567328989503,0.94230817675516
1782845344674099200,6.97209912109375,-0.27509178337752815,-0.1265250237196684,0.8253093985326587
1782845344684103200,6.982103271484375,-0.3784370070397854,-0.041317075902968646,0.6895830504212528
1782845344694108200,6.992108154296875,-0.42823301134407515,0.12056216979250312,0.5462609134186059
1782845344704112000,7.002112060546875,-0.38626375514268874,0.23774653371497986,0.4264700202595442
1782845344714117000,7.0121171875,-0.2982259907275438,0.3600837503559887,0.2631666600450873
1782845344724121000,7.02212109375,-0.22646306928694246,0.4620648460581898,0.11516535225026309
1782845344734126000,7.0321259765625,-0.035894320201873775,0.42170623992383477,-0.027830037016049025
1782845344744130000,7.042130126953125,0.137547937515378,0.3657674950808286,-0.050270782209187743
1782845344754134300,7.05213427734375,0.29059564197957516,0.3204275934025645,-0.024260215705260633
1782845344764139300,7.06213916015625,0.36653906397521496,0.29188042109310625,-0.00825688314847648
1782845344774143200,7.072143310546875,0.4012053036868572,0.20912527325600386,-0.0014469839379191397
1782845344784148200,7.082148193359375,0.45772155615687365,0.040647652208805084,0.0018996230762451886
1782845344794152200,7.092152099609375,0.5234054499447346,-0.03685089027434587,0.046852571263536806
1782845344804157200,7.1021572265625,0.5763233856618404,-0.05771949077993631,0.08727218687012792
1782845344814161200,7.1121611328125,0.6543301699280738,-0.07013999641388655,0.12821794524267316
1782845344824166100,7.122166259765625,0.6404582964420318,-0.02923749266117811,0.18323497213087975
1782845344834170000,7.132170166015625,0.6109487088412046,0.029176702384650706,0.1438120394114405
1782845344844174000,7.142174072265625,0.6417915908724069,0.0759326083406806,0.1084266916450113
1782845344854179000,7.152178955078125,0.6483358979493379,0.051076107242703436,0.07153503096885978
1782845344864183300,7.162183349609375,0.6262503228694201,-0.002743161228299141,0.10611965681165456
1782845344874188300,7.172188232421875,0.48448272183239455,0.04806815759837627,0.1421061122763902
1782845344884192300,7.182192138671875,0.3318371684283018,0.07146539979875087,0.18431838345341384
1782845344894197200,7.192197265625,0.23870704931020736,0.08723580038249493,0.22049787727221845
1782845344904201200,7.202201171875,0.21519173368811606,0.05131809930503368,0.27744178056977686
1782845344914206200,7.212206298828125,0.21486264786422252,0.0006713233903050422,0.34098047902248796
1782845344924210200,7.222210205078125,0.23220658137500286,0.01793137800991535,0.38702611781731244
1782845344934215200,7.232215087890625,0.2802560342729091,-0.013520868091285228,0.3539792960010469
1782845344944219100,7.24221923828125,0.32890696019530297,0.027583295713365076,0.34957404677942394
1782845344954223000,7.25222314453125,0.3700865273237228,0.11574351746439933,0.2801019396897405
1782845344964228000,7.26222802734375,0.30463819585740565,0.043730712915956975,0.20865889785327016
1782845344974232300,7.272232421875,0.2885772878944874,-0.04768997193574905,0.15757212308607996
1782845344984237300,7.2822373046875,0.23721593396961688,-0.20941899550557136,0.09888356807827949
1782845344994241300,7.2922412109375,0.1743243012487888,-0.2509080669745803,0.08338467791229486
1782845345004246300,7.302246337890625,0.1821680004864931,-0.2755719681099057,0.10720986320115625
1782845345014250200,7.312250244140625,0.1826303573012352,-0.2678960266545415,0.13082045589126645
1782845345024255200,7.322255126953125,0.20193945340514183,-0.26181115378290415,0.15799319804236292
1782845345034259200,7.33225927734375,0.2698199804544449,-0.28726562077403067,0.16167042525038122
1782845345044263200,7.34226318359375,0.31456396206617354,-0.2885021768316626,0.13274192547313868
1782845345054268200,7.35226806640625,0.3452566219717264,-0.362576736215502,0.09454495435208082
1782845345064272100,7.362272216796875,0.32179508236348625,-0.44683425143957134,0.09595204467102884
1782845345074277000,7.372277099609375,0.12703589585125447,-0.3246218302220106,0.16778138241134583
1782845345084281000,7.382281005859375,-0.025027473750710485,-0.2038390034161508,0.1549653015885502
1782845345094286000,7.3922861328125,0.08886544741094111,-0.26715339159369467,0.06592742022015154
1782845345104290300,7.402290283203125,0.2537029583901167,-0.3529382625155151,0.019560805842652917
1782845345114295300,7.41229541015625,0.3692945001631975,-0.35590661080181596,0.07221972529739142
1782845345124299000,7.422299072265625,0.4449801480054855,-0.3677601302027702,0.09724398417770862
1782845345134304000,7.432303955078125,0.5604805043637752,-0.39410979246795175,0.11602503781951963
1782845345144308000,7.442307861328125,0.7294207744866609,-0.4382731977127492,0.10560220880880951
1782845345154312200,7.452312255859375,0.8411071255147456,-0.49982817500233645,0.06208543090447783
1782845345164317200,7.462317138671875,0.8171236078590154,-0.5579651605419814,0.024347528662532567
1782845345174321200,7.472321044921875,0.7135749705791473,-0.5720993382260203,-0.08588387431688606
1782845345184326100,7.482326171875,0.6650812810450792,-0.6015031273648143,-0.2244420117881149
1782845345194330000,7.492330078125,0.6247399183064699,-0.6532642942622303,-0.3100085637841373
1782845345204335000,7.502335205078125,0.5827554645359516,-0.6891612448126078,-0.4080925789825618
1782845345214339300,7.51233935546875,0.5369517447382212,-0.6714199825473129,-0.4884503102891147
1782845345224344300,7.52234423828125,0.4834978024482727,-0.7010489587441087,-0.5107501857068389
1782845345234348000,7.53234814453125,0.37842473208010197,-0.7075247306294739,-0.5159806337062269
1782845345244352000,7.54235205078125,0.29704408746659755,-0.6890934402734041,-0.557319336919114
1782845345254357000,7.55235693359375,0.3023147213459015,-0.7370328569255769,-0.5589161045912653
1782845345264361200,7.562361328125,0.313707052975893,-0.776599582029879,-0.5074134424995631
1782845345274366200,7.5723662109375,0.3045791591465473,-0.7432265969991684,-0.3980645214430988
1782845345284370200,7.5823701171875,0.3248760972440243,-0.7531446182928979,-0.2963622426822781
1782845345294375200,7.592375244140625,0.320025734603405,-0.7642297836698592,-0.22659334460310637
1782845345304379100,7.602379150390625,0.26213059499561786,-0.7825047144204378,-0.2443200668863952
1782845345314384100,7.612384033203125,0.14681553207635878,-0.8326591767735779,-0.21044965372756122
1782845345324388400,7.622388427734375,0.042221769657731056,-0.8719894627735019,-0.14335435877181588
1782845345334393300,7.632393310546875,-0.07689443911015988,-0.9352474445886909,-0.0492342057030648
1782845345344397000,7.64239697265625,-0.18329495868980883,-0.9988317357487976,-0.018943769922852516
1782845345354401000,7.652401123046875,-0.27566403030753134,-0.9130619162656366,0.05157945365495979
1782845345364406000,7.662406005859375,-0.3587947334587574,-0.718841366674751,0.08645305250696837
1782845345374410200,7.67241015625,-0.3708119189888239,-0.5046959271691739,0.06208565010018646
1782845345384415200,7.682415283203125,-0.3168576259613037,-0.40934740134924646,0.0497810259308666
1782845345394419200,7.692419189453125,-0.2813467521190643,-0.3733184949822724,0.05417867636792362
1782845345404424200,7.702424072265625,-0.32269875320494174,-0.16765271453037858,0.16847542909011243
1782845345414428200,7.71242822265625,-0.4696294360935688,0.13383067055791617,0.37196686117760835
1782845345424433200,7.72243310546875,-0.7700158197253942,0.21415274602919815,0.5619625596150756
1782845345434437400,7.732437255859375,-1.0141764582663775,0.1650423859015107,0.7448544904619455
1782845345444441000,7.742441162109375,-1.1149345880448818,-0.014376169746369122,0.9446579547517001
1782845345454446000,7.752446044921875,-1.1940893733024596,-0.2782758202411234,1.150391028286144
1782845345464450000,7.762449951171875,-1.1544289785653352,-0.513329753871262,1.3308173727370798
1782845345474455000,7.772455078125,-0.9991840563178062,-0.6878972162261605,1.391798349530995
1782845345484459300,7.782459228515625,-0.8545902919441462,-0.7059159802585839,1.2716691643282771
1782845345494464300,7.79246435546875,-0.7772334960192442,-0.7165079552911221,0.9775341692414135
1782845345504468200,7.80246826171875,-0.6038362464874982,-0.8441947162665426,0.6269893777336925
1782845345514473200,7.81247314453125,-0.2860802103817463,-0.883389977709949,0.40804625562280417
1782845345524477200,7.822477294921875,0.0671463675558567,-0.6554850390516221,0.3135255589291453
1782845345534482200,7.832482177734375,0.3005442045420408,-0.32108503439798947,0.14391981063485146
1782845345544486400,7.842486328125,0.517941923841834,-0.26657193844392896,-0.15475801551342008
1782845345554490000,7.852489990234375,0.7710054152846336,-0.14185586384236812,-0.23819267004728314
1782845345564495000,7.8624951171875,0.8438625617027282,0.20735651001781225,-0.21841792919300496
1782845345574499000,7.8724990234375,0.8451040861964225,0.3872356689147651,-0.25080657936148343
1782845345584504000,7.882504150390625,0.7770978869408368,0.4634373034551739,-0.24326478567980228
1782845345594508300,7.89250830078125,0.6822463508576154,0.49016427460014816,-0.15912563613839448
1782845345604513300,7.90251318359375,0.7189151625633239,0.33902415732294316,-0.026907369213178753
1782845345614517200,7.912517333984375,0.7453489959806203,0.2715593714676797,0.2226576856546104
1782845345624522200,7.922522216796875,0.6831009218603372,0.36553938541337844,0.43135172788649795
1782845345634526200,7.932526123046875,0.5579834268510341,0.5413900194466114,0.5270069085028022
1782845345644530200,7.9425302734375,0.38862989975214,0.6713802350588143,0.53970937288329
1782845345654535200,7.95253515625,0.21417641916573046,0.755466339238733,0.4817410219088196
1782845345664539100,7.9625390625,0.009411971467733383,0.7781456424281,0.39965610148347913
1782845345674544600,7.972544677734375,-0.2066413474857807,0.8328409630812704,0.3820395615763962
1782845345684548600,7.982548583984375,-0.3956371481657028,0.9177578189969062,0.3521240235231817
1782845345694553600,7.9925537109375,-0.4008423155933618,1.119313972172886,0.2927710863225162
1782845345704557600,8.0025576171875,-0.22577508702278135,1.2788093914717436,0.24753837134577333
1782845345714562600,8.0125625,-0.043515316599607466,1.3259225864328443,0.19414996857270597
1782845345724566800,8.02256689453125,0.147546184438467,1.4206867364935576,0.21046273240484295
1782845345734571800,8.03257177734375,0.31717677491307256,1.5270593451529741,0.289185044529289
1782845345744575700,8.04257568359375,0.4907043728262186,1.4505033442169426,0.37299993055239317
1782845345754579700,8.052579833984375,0.5431804099947214,1.2995859297797083,0.43445970383919774
1782845345764584700,8.062584716796875,0.5162842197626829,1.1638104087643324,0.47975759300664067
1782845345774588700,8.072588623046874,0.4413198719322681,1.0002759432077408,0.4748264932800084
1782845345784593700,8.08259375,0.23165245462357997,0.8831596760854125,0.5069637259706854
1782845345794597600,8.09259765625,-0.000045592707395553586,0.8431966451399028,0.5436792263623327
1782845345804602600,8.1026025390625,-0.16492460474073886,0.6909682942345738,0.49759983142837877
1782845345814606600,8.112606689453125,-0.27915245694518087,0.5107870836511254,0.48564175567440687
1782845345824611600,8.122611572265624,-0.3361211293578148,0.4921447808928787,0.4832353521198034
1782845345834615800,8.13261572265625,-0.3742793028384447,0.44910321928486224,0.42451917845271525
1782845345844620800,8.142620849609376,-0.46154783644676206,0.401409009565413,0.3574182574737817
1782845345854624800,8.152624755859375,-0.5936831012636423,0.47704628822132944,0.2740497269786894
1782845345864628500,8.16262841796875,-0.6559276682525873,0.5393555910095572,0.14559789991490543
1782845345874633500,8.172633544921876,-0.6730120740443468,0.5595414699479937,0.03563851880989968
1782845345884637700,8.1826376953125,-0.6466092202872038,0.6008432021513581,-0.06386595764569938
1782845345894642700,8.192642578125,-0.4953653503745794,0.6247814193606376,-0.15103132314048706
1782845345904646700,8.202646728515624,-0.19941957953870296,0.6911778453320264,-0.17597521026097238
1782845345914651600,8.212651611328125,0.18685820412933826,0.7512018136620521,-0.18526209404431282
1782845345924655600,8.222655517578126,0.5406488456904888,0.7250124565251171,-0.1250865153491497
1782845345934660600,8.23266064453125,0.7366431269556284,0.6941945628046989,-0.04449760563522577
1782845345944664800,8.242664794921875,0.8352215746074915,0.6988239761710167,0.04116816895157099
1782845345954669800,8.252669921875,0.8371908288538455,0.5807400330603122,0.09376666345596313
1782845345964673800,8.262673828125,0.741086077839136,0.5066640123717486,0.19300072547234592
1782845345974677500,8.272677490234376,0.6756617117702961,0.45662689278796315,0.28484263141080735
1782845345984682500,8.2826826171875,0.6535568474680185,0.3855838100545108,0.3706709761481732
1782845345994686700,8.292686767578125,0.5416811113476753,0.3165352621391415,0.38259354219734665
1782845346004691700,8.302691650390624,0.464177600428462,0.26354499183818697,0.37041188682056964
1782845346014695700,8.31269580078125,0.4741682485669851,0.1613144514195621,0.30847499754130836
1782845346024700700,8.32270068359375,0.4337140731036663,0.04971738611012697,0.22614728133603929
1782845346034704600,8.33270458984375,0.28555414068102836,-0.012979308560490607,0.12656352909915147
1782845346044709600,8.342709716796875,0.09225976602435111,-0.0073357497155666345,0.05127199514098465
1782845346054713600,8.352713623046874,-0.09091244306862353,-0.009042115242034196,-0.0033712299987673756
1782845346064717800,8.3627177734375,-0.25445757614970205,-0.06262143747732044,-0.09770619486197829
1782845346074722800,8.372722900390626,-0.40520635602176186,-0.05129705651700496,-0.14474822428300976
1782845346084726500,8.3827265625,-0.5472235479056835,-0.031141864977777003,-0.19971724731102586
1782845346094731500,8.3927314453125,-0.605071341240406,0.017138766327500343,-0.25962847598157823
1782845346104735500,8.402735595703126,-0.5799760629504919,0.06025953065156936,-0.3541181930150836
1782845346114740700,8.41274072265625,-0.5114467166036367,0.058466509754955764,-0.4132794070359319
1782845346124744700,8.42274462890625,-0.41329321636557576,0.0902107245400548,-0.4180917757537216
1782845346134749700,8.432749755859374,-0.22919512459933755,0.11393047669306397,-0.3142857296466827
1782845346144753700,8.442753662109375,-0.043075171616673465,0.07480711144208908,-0.2052647984355688
1782845346154758700,8.452758544921876,0.14616495921313763,0.05148731839209795,-0.13289470488205551
1782845346164762600,8.4627626953125,0.3434001804500818,0.017892507304251192,-0.09522117311321199
1782845346174766800,8.472766845703125,0.46838849612176414,-0.03427183356657624,-0.04837897711321711
1782845346184771800,8.482771728515624,0.5086427650988101,-0.07839110740870237,-0.019668065609410403
1782845346194775600,8.492775634765625,0.4133078294128179,-0.08735928063169121,-0.0030560996349900957
1782845346204780500,8.502780517578126,0.21604864277839658,-0.04324935913980007,-0.0424624465458095
1782845346214784500,8.512784423828125,0.04681961884200573,-0.006035334641486406,-0.07872530779913067
1782845346224789500,8.52278955078125,-0.03927928646504879,-0.03901391352713108,-0.11547894824407993
1782845346234793700,8.532793701171874,-0.07550912223160267,-0.11320318533182143,-0.14121230524182318
1782845346244798700,8.542798828125,-0.06849602859914303,-0.1637264809973538,-0.13565905502885578
1782845346254802700,8.552802734375,-0.06225976455807686,-0.15510755960345268,-0.11961436754837632
1782845346264807700,8.5628076171875,-0.11490063689947128,-0.04478416749164462,-0.13604089395329355
1782845346274811600,8.572811767578125,-0.1591582962989807,-0.031058570608496663,-0.19983349410183726
1782845346284815600,8.582815673828126,-0.07879004359841346,-0.03395297687575221,-0.2581304194435477
1782845346294820600,8.592820556640625,-0.003348725906014442,-0.024587767159193752,-0.28408311828039584
1782845346304824600,8.602824462890625,0.07850830404758453,-0.031898528563976285,-0.27258023894801736
1782845346314829600,8.61282958984375,0.20239654952287672,-0.057049482563883064,-0.21946093543991446
1782845346324833500,8.62283349609375,0.25834698480367657,-0.042915012618899344,-0.16864019119776785
1782845346334838500,8.632838623046876,0.2298077035397291,-0.03103957364708185,-0.235042973844707
1782845346344842800,8.6428427734375,0.24406302338540553,-0.020135171664506197,-0.3726977327354252
1782845346354847700,8.65284765625,0.4876327102959156,-0.0025926468417048452,-0.49512664624787867
1782845346364851700,8.662851806640624,0.647839638864994,0.028823505032807586,-0.46637803308218717
1782845346374856700,8.672856689453125,0.5106804084062576,0.009382745373249053,-0.4192985211949795
1782845346384860700,8.682860595703126,0.6618745939582585,-0.046800037358701224,-0.24855777752138672
1782845346394864600,8.69286474609375,0.3927794206470251,-0.05725201939865947,-0.15236534822322428
1782845346404869600,8.70286962890625,0.33375966092348097,-0.23518092101067303,-0.2645288883090019
1782845346414873600,8.71287353515625,0.3257973037421703,-0.34069808188453315,-0.3311783391933888
1782845346424878600,8.722878662109375,0.25479718336761,-0.39637189218103885,-0.3956945774413645
1782845346434882600,8.732882568359376,0.2974585134863853,-0.6052089961454272,-0.44285563013218343
1782845346444887600,8.742887451171875,0.14899229159355162,-0.5387766220778226,-0.42475678660087285
