time,seconds_elapsed,z,y,x
1782845337768535600,0.06653564453125,0.1619414985179901,0.07072583585977554,0.2273319512605667
1782845337778539800,0.076539794921875,0.14618997275829315,0.09635583311319351,0.21753951907157898
1782845337788544800,0.086544677734375,0.11005087196826935,0.12762480974197388,0.18943065404891968
1782845337798548700,0.096548828125,0.06151209771633148,0.15219593048095703,0.12460264563560486
1782845337808553700,0.1065537109375,0.017061540856957436,0.15816433727741241,0.009782323613762856
1782845337818557700,0.1165576171875,0.0017933726776391268,0.1621047556400299,-0.13435594737529755
1782845337828561700,0.126561767578125,0.0034011229872703552,0.16895413398742676,-0.2693140208721161
1782845337838566700,0.136566650390625,0.028555478900671005,0.19474364817142487,-0.36904436349868774
1782845337848570600,0.146570556640625,0.07480765879154205,0.2076147049665451,-0.40348753333091736
1782845337858575600,0.15657568359375,0.1341996192932129,0.1973322480916977,-0.3861921727657318
1782845337868579600,0.16657958984375,0.18639224767684937,0.16638977825641632,-0.3253330886363983
1782845337878584600,0.17658447265625,0.2184511125087738,0.13768357038497925,-0.2368764579296112
1782845337888588500,0.186588623046875,0.22695033252239227,0.100644052028656,-0.13372211158275604
1782845337898592800,0.1965927734375,0.21783006191253662,0.06330147385597229,-0.021143367514014244
1782845337908597800,0.20659765625,0.20762217044830322,0.03203436732292175,0.09837796539068222
1782845337918601700,0.216601806640625,0.18678267300128937,-0.0001174454009742476,0.2176031619310379
1782845337928606700,0.226606689453125,0.16811230778694153,-0.019819244742393494,0.3409551978111267
1782845337938610400,0.2366103515625,0.13914111256599426,-0.04769588261842728,0.44703662395477295
1782845337948615400,0.246615478515625,0.10171384364366531,-0.08629254251718521,0.5166881084442139
1782845337958619600,0.25661962890625,0.06734415143728256,-0.1406676322221756,0.5426803231239319
1782845337968623600,0.26662353515625,0.026622556149959564,-0.23578669130802155,0.547981858253479
1782845337978628600,0.276628662109375,-0.006611830089241266,-0.3363148868083954,0.5213537216186523
1782845337988632600,0.286632568359375,-0.04901760816574097,-0.3853823244571686,0.4658377468585968
1782845337998637600,0.296637451171875,-0.09327588230371475,-0.34786343574523926,0.3916175663471222
1782845338008641800,0.306641845703125,-0.13571202754974365,-0.2932180166244507,0.32311999797821045
1782845338018646800,0.316646728515625,-0.18000678718090057,-0.2444765865802765,0.21304702758789062
1782845338028650800,0.326650634765625,-0.223645880818367,-0.18928124010562897,0.09037703275680542
1782845338038655700,0.33665576171875,-0.25851625204086304,-0.15225878357887268,-0.014227405190467834
1782845338048659500,0.346659423828125,-0.287555068731308,-0.13767078518867493,-0.09617633372545242
1782845338058663700,0.35666357421875,-0.29630276560783386,-0.14106124639511108,-0.1457231193780899
1782845338068668700,0.366668701171875,-0.2902512550354004,-0.14133475720882416,-0.15772651135921478
1782845338078672600,0.376672607421875,-0.27066266536712646,-0.1321420520544052,-0.13896214962005615
1782845338088677600,0.386677734375,-0.25559476017951965,-0.11421552300453186,-0.11413589119911194
1782845338098681600,0.396681640625,-0.2358631193637848,-0.0895964652299881,-0.08491702377796173
1782845338108686600,0.4066865234375,-0.2187986522912979,-0.06874870508909225,-0.06562720984220505
1782845338118690800,0.41669091796875,-0.20073656737804413,-0.04271230846643448,-0.04687216877937317
1782845338128694800,0.42669482421875,-0.17985045909881592,-0.03309909626841545,-0.021616611629724503
1782845338138699800,0.43669970703125,-0.15223267674446106,-0.030766434967517853,-0.009415073320269585
1782845338148703500,0.446703369140625,-0.11917432397603989,-0.044247888028621674,0.0015752597246319056
1782845338158708500,0.45670849609375,-0.0866326317191124,-0.06810608506202698,0.009877664037048817
1782845338168712700,0.466712646484375,-0.05446963384747505,-0.07998830825090408,0.010071010328829288
1782845338178717700,0.4767177734375,-0.03591059520840645,-0.09077011793851852,0.006602775305509567
1782845338188721700,0.4867216796875,-0.0283469520509243,-0.09817636758089066,0.0025750105269253254
1782845338198726700,0.4967265625,-0.044673461467027664,-0.10862395167350769,-0.0041310954838991165
1782845338208730600,0.506730712890625,-0.06591163575649261,-0.10329416394233704,-0.00923557672649622
1782845338218734800,0.51673486328125,-0.09365352243185043,-0.08967608958482742,0.0075548551976680756
1782845338228739800,0.52673974609375,-0.13396473228931427,-0.08449944108724594,0.04832518845796585
1782845338238743800,0.536743896484375,-0.1860332489013672,-0.08566723018884659,0.10130451619625092
1782845338248748800,0.546748779296875,-0.23580560088157654,-0.0704621821641922,0.14143595099449158
1782845338258752500,0.55675244140625,-0.2841094732284546,-0.054239269345998764,0.16649895906448364
1782845338268757500,0.566757568359375,-0.3162437081336975,-0.04796166718006134,0.18560980260372162
1782845338278761700,0.57676171875,-0.34171178936958313,-0.03485358878970146,0.18939842283725739
1782845338288765700,0.586765625,-0.3606910705566406,-0.037936195731163025,0.19091615080833435
1782845338298770700,0.596770751953125,-0.36754950881004333,-0.033065807074308395,0.17922914028167725
1782845338308774700,0.606774658203125,-0.3628557026386261,-0.025899773463606834,0.1619335114955902
1782845338318779600,0.616779541015625,-0.3557828664779663,-0.031438350677490234,0.13730965554714203
1782845338328784000,0.626783935546875,-0.3526901304721832,-0.04573126882314682,0.12232618033885956
1782845338338788900,0.636788818359375,-0.3511068820953369,-0.06269880384206772,0.10839597880840302
1782845338348792600,0.64679248046875,-0.35137268900871277,-0.05651334300637245,0.09944003820419312
1782845338358797600,0.656797607421875,-0.3460679352283478,-0.04957394301891327,0.08779962360858917
1782845338368801500,0.666801513671875,-0.3363873362541199,-0.04228061065077782,0.07870679348707199
1782845338378805800,0.6768056640625,-0.31640857458114624,-0.03539154678583145,0.07651714235544205
1782845338388810800,0.686810791015625,-0.29328808188438416,-0.028549619019031525,0.07931799441576004
1782845338398814700,0.696814697265625,-0.2734839916229248,-0.035050660371780396,0.08309568464756012
1782845338408819700,0.70681982421875,-0.25961214303970337,-0.03640647605061531,0.08402778953313828
1782845338418823700,0.71682373046875,-0.24085469543933868,-0.034693531692028046,0.07407795637845993
1782845338428828700,0.72682861328125,-0.22090068459510803,-0.01943202130496502,0.06706904619932175
1782845338438832600,0.73683251953125,-0.2049715220928192,-0.011996741406619549,0.06750820577144623
1782845338448836600,0.746836669921875,-0.193311408162117,-0.012093947269022465,0.0793805792927742
1782845338458841600,0.756841552734375,-0.1901520937681198,-0.0038394792936742306,0.07901998609304428
1782845338468845600,0.766845458984375,-0.1892724484205246,0.00006072007090551779,0.06701578199863434
1782845338478850600,0.7768505859375,-0.1814504861831665,0.0001816275907913223,0.047503601759672165
1782845338488854500,0.7868544921875,-0.17758703231811523,-0.0018224010709673166,0.026136262342333794
1782845338498859500,0.796859619140625,-0.1723581850528717,-0.004314587451517582,0.00902571901679039
1782845338508863700,0.80686376953125,-0.16189409792423248,0.0006042712484486401,-0.02207574062049389
1782845338518867700,0.81686767578125,-0.14822381734848022,0.011971973814070225,-0.0506831519305706
1782845338528872700,0.826872802734375,-0.12658590078353882,0.017943046987056732,-0.06733217090368271
1782845338538876700,0.836876708984375,-0.10829025506973267,0.011485148221254349,-0.0776657685637474
1782845338548881700,0.846881591796875,-0.08356253802776337,-0.00971680972725153,-0.0858408734202385
1782845338558885600,0.8568857421875,-0.06336139887571335,-0.03459899127483368,-0.08492261171340942
1782845338568890600,0.866890625,-0.0352136455476284,-0.05143176391720772,-0.08765900880098343
1782845338578894600,0.87689453125,-0.0202203169465065,-0.0776095762848854,-0.09194936603307724
1782845338588899600,0.886899658203125,-0.018314026296138763,-0.09570015966892242,-0.07862743735313416
1782845338598903600,0.896903564453125,-0.013319001533091068,-0.10721087455749512,-0.03940492868423462
1782845338608907800,0.90690771484375,-0.025769544765353203,-0.09760192036628723,0.019365442916750908
1782845338618912800,0.916912841796875,-0.041844118386507034,-0.07064913213253021,0.08161842823028564
1782845338628916700,0.926916748046875,-0.04580556973814964,-0.04628786817193031,0.1310320496559143
1782845338638921700,0.936921630859375,-0.04637522250413895,-0.03707919269800186,0.17972475290298462
1782845338648925700,0.94692578125,-0.04677256569266319,-0.02629285678267479,0.1972867101430893
1782845338658930700,0.9569306640625,-0.04824529215693474,-0.021396901458501816,0.17088013887405396
1782845338668934700,0.9669345703125,-0.04887885972857475,-0.012588496319949627,0.11430180817842484
1782845338678938400,0.9769384765625,-0.052511412650346756,-0.0029497172217816114,0.044679321348667145
1782845338688943400,0.986943359375,-0.06381839513778687,0.0059843892231583595,-0.018487131223082542
1782845338698947300,0.996947265625,-0.07983997464179993,-0.002376871183514595,-0.08338464051485062
1782845338708952300,1.006952392578125,-0.1004112958908081,-0.03166285529732704,-0.1464565545320511
1782845338718956500,1.01695654296875,-0.12719151377677917,-0.07108749449253082,-0.19665074348449707
1782845338728961500,1.02696142578125,-0.1514776647090912,-0.10260280966758728,-0.22928299009799957
1782845338738965500,1.036965576171875,-0.18341270089149475,-0.12188249826431274,-0.24330799281597137
1782845338748970500,1.046970458984375,-0.2119780331850052,-0.13064828515052795,-0.23041962087154388
1782845338758974500,1.056974365234375,-0.23242205381393433,-0.12655900418758392,-0.20921234786510468
1782845338768978700,1.066978759765625,-0.24529151618480682,-0.1281326711177826,-0.16830912232398987
1782845338778983700,1.076983642578125,-0.25015684962272644,-0.15244174003601074,-0.1066737174987793
1782845338788987400,1.0869873046875,-0.25906404852867126,-0.1887022703886032,-0.03009771555662155
1782845338798992400,1.096992431640625,-0.257139652967453,-0.2102126181125641,0.03447142243385315
1782845338808996400,1.106996337890625,-0.24121767282485962,-0.22045381367206573,0.10385476052761078
1782845338819001300,1.11700146484375,-0.22248128056526184,-0.22184264659881592,0.17572441697120667
1782845338829005600,1.127005615234375,-0.20831911265850067,-0.1852116733789444,0.24188080430030823
1782845338839009500,1.137009521484375,-0.20388495922088623,-0.12602904438972473,0.2794731855392456
1782845338849014500,1.1470146484375,-0.19603848457336426,-0.06709355115890503,0.2752848267555237
1782845338859018500,1.1570185546875,-0.1910109668970108,-0.015192801132798195,0.24986736476421356
1782845338869023500,1.1670234375,-0.1946895867586136,0.016681509092450142,0.21426329016685486
1782845338879027700,1.17702783203125,-0.2217065542936325,0.0259863268584013,0.15763942897319794
1782845338889032700,1.18703271484375,-0.27638524770736694,0.051712993532419205,0.08242430537939072
1782845338899036400,1.197036376953125,-0.3469124138355255,-0.039989493787288666,0.014157364144921303
1782845338909041400,1.20704150390625,-0.4302392601966858,-0.07063422352075577,-0.0392850860953331
1782845338919045400,1.21704541015625,-0.4275883436203003,-0.0070310113951563835,-0.17999985814094543
1782845338929049600,1.227049560546875,-0.4038074016571045,-0.08245732635259628,-0.30989792943000793
1782845338939054600,1.2370546875,-0.3677159547805786,-0.08579026907682419,-0.4365008771419525
1782845338949058600,1.24705859375,-0.2671659290790558,-0.07986420392990112,-0.5444111227989197
1782845338959063600,1.2570634765625,-0.11981295049190521,-0.10912995040416718,-0.5665622353553772
1782845338969067500,1.267067626953125,0.024470455944538116,-0.11696257442235947,-0.5208578705787659
1782845338979072500,1.277072509765625,0.18192319571971893,-0.1287262886762619,-0.4752621352672577
1782845338989076700,1.28707666015625,0.34976571798324585,-0.12467135488986969,-0.3902990520000458
1782845338999080400,1.29708056640625,0.4984841048717499,-0.0822938084602356,-0.24890941381454468
1782845339009085400,1.30708544921875,0.6034011840820312,-0.019844811409711838,-0.10752779245376587
1782845339019089400,1.31708935546875,0.6712374687194824,0.041014011949300766,0.018503909930586815
1782845339029094400,1.327094482421875,0.7128016948699951,0.0764540284872055,0.11409194767475128
1782845339039098600,1.3370986328125,0.726542592048645,0.088671013712883,0.18643060326576233
1782845339049103600,1.347103515625,0.7228756546974182,0.07855792343616486,0.25767093896865845
1782845339059107600,1.357107666015625,0.6682707071304321,0.05210874229669571,0.33451247215270996
1782845339069112600,1.367112548828125,0.552693247795105,0.04424336180090904,0.3747911751270294
1782845339079116500,1.377116455078125,0.4099092185497284,0.049369148910045624,0.3444646894931793
1782845339089120500,1.38712060546875,0.27671122550964355,0.06867999583482742,0.2503832280635834
1782845339099125500,1.39712548828125,0.1713017076253891,0.05687925964593887,0.15458105504512787
1782845339109129500,1.40712939453125,0.08790455758571625,0.03478487953543663,0.08685021102428436
1782845339119134500,1.417134521484375,0.033838655799627304,0.05209782347083092,0.028473986312747
1782845339129138400,1.427138427734375,-0.0024109596852213144,0.0215337872505188,-0.0026551715563982725
1782845339139143400,1.437143310546875,-0.05179581791162491,0.017965417355298996,0.0032266860362142324
1782845339149147400,1.4471474609375,-0.08840230107307434,0.025645975023508072,0.020681310445070267
1782845339159151600,1.457151611328125,-0.10550858080387115,0.012211126275360584,0.036907684057950974
1782845339169156600,1.467156494140625,-0.11300458014011383,0.020562799647450447,0.044438570737838745
1782845339179160600,1.47716064453125,-0.09951300919055939,0.007902930490672588,0.02004081942141056
1782845339189165600,1.48716552734375,-0.06302051246166229,-0.013226322829723358,-0.03249695524573326
1782845339199169300,1.497169189453125,-0.004192348103970289,-0.0474865585565567,-0.09239624440670013
1782845339209174300,1.50717431640625,0.0440332368016243,-0.07177325338125229,-0.16866251826286316
1782845339219178500,1.517178466796875,0.0799398422241211,-0.07280496507883072,-0.2396615892648697
1782845339229183500,1.52718359375,0.09637953341007233,-0.056773267686367035,-0.2710501551628113
1782845339239187500,1.5371875,0.09297920763492584,-0.03133741766214371,-0.26449450850486755
1782845339249191400,1.54719140625,0.08175504952669144,-0.017525464296340942,-0.245934396982193
1782845339259196400,1.557196533203125,0.06622882187366486,-0.010582869872450829,-0.22454708814620972
1782845339269200600,1.56720068359375,0.056117065250873566,-0.013679326511919498,-0.21980373561382294
1782845339279205600,1.57720556640625,0.04525056853890419,-0.025318672880530357,-0.22626082599163055
1782845339289209600,1.587209716796875,0.035640817135572433,-0.04073864221572876,-0.2279716432094574
1782845339299214600,1.597214599609375,0.026993533596396446,-0.06065136194229126,-0.21327073872089386
1782845339309218300,1.60721826171875,0.01563568413257599,-0.07624976336956024,-0.19846008718013763
1782845339319222500,1.617222412109375,0.017544372007250786,-0.08047939836978912,-0.1895747184753418
1782845339329227500,1.6272275390625,0.03478061780333519,-0.081563301384449,-0.1644616425037384
1782845339339231500,1.6372314453125,0.06052219867706299,-0.07093355804681778,-0.12982910871505737
1782845339349236500,1.647236572265625,0.0829678550362587,-0.05149568244814873,-0.06646690517663956
1782845339359240400,1.657240478515625,0.10863300412893295,-0.02454662136733532,0.018092185258865356
1782845339369245400,1.667245361328125,0.12559227645397186,-0.0015430354978889227,0.10144060105085373
1782845339379249700,1.677249755859375,0.14758147299289703,0.019084477797150612,0.16333086788654327
1782845339389254700,1.687254638671875,0.16511332988739014,0.025979934260249138,0.19796128571033478
1782845339399258600,1.697258544921875,0.17338776588439941,0.03425517678260803,0.20787489414215088
1782845339409262300,1.707262451171875,0.17447593808174133,0.03579368442296982,0.20252807438373566
1782845339419267300,1.717267333984375,0.17333157360553741,0.030732346698641777,0.1881914734840393
1782845339429271600,1.727271484375,0.1773606687784195,0.040045954287052155,0.13167840242385864
1782845339439276500,1.737276611328125,0.1780826449394226,0.06028357893228531,0.06439044326543808
1782845339449280500,1.747280517578125,0.19203655421733856,0.09739712625741959,-0.03360003978013992
1782845339459285500,1.757285400390625,0.20328600704669952,0.10435836017131805,-0.11356145143508911
1782845339469289500,1.76728955078125,0.20976415276527405,0.1089019849896431,-0.1714167594909668
1782845339479293700,1.777293701171875,0.2229369431734085,0.09300077706575394,-0.20648393034934998
1782845339489298700,1.787298583984375,0.23699843883514404,0.07066724449396133,-0.22231589257717133
1782845339499302400,1.797302490234375,0.24444516003131866,0.04792012274265289,-0.2234509289264679
1782845339509307400,1.807307373046875,0.24372291564941406,0.041666485369205475,-0.21449445188045502
1782845339519311400,1.817311279296875,0.24067652225494385,0.032289229333400726,-0.2033720314502716
1782845339529316400,1.82731640625,0.22943611443042755,0.030227677896618843,-0.18766523897647858
1782845339539320600,1.837320556640625,0.21205313503742218,0.01284282747656107,-0.15547774732112885
1782845339549325600,1.84732568359375,0.1762828826904297,-0.004658135119825602,-0.11135581880807877
1782845339559329500,1.85732958984375,0.13046932220458984,-0.01492462120950222,-0.0712728500366211
1782845339569333500,1.86733349609375,0.07253119349479675,-0.012001801282167435,-0.04596642777323723
1782845339579338500,1.87733837890625,0.013787451200187206,-0.004860535264015198,-0.02111567184329033
1782845339589342700,1.8873427734375,-0.03477609157562256,0.003049053018912673,0.0028157602064311504
1782845339599347700,1.89734765625,-0.07964955270290375,0.005850964691489935,0.03056776337325573
1782845339609351400,1.907351318359375,-0.11995356529951096,0.005227785091847181,0.05218091234564781
1782845339619356400,1.9173564453125,-0.15645352005958557,0.008052600547671318,0.06677690148353577
1782845339629360400,1.9273603515625,-0.17789490520954132,0.005927131045609713,0.07921811938285828
1782845339639364600,1.937364501953125,-0.18882930278778076,-0.0013635384384542704,0.07977046072483063
1782845339649369600,1.94736962890625,-0.18415199220180511,-0.008476574905216694,0.06526236236095428
1782845339659373600,1.95737353515625,-0.1693757176399231,-0.0060206083580851555,0.052919939160346985
1782845339669378600,1.967378662109375,-0.14377501606941223,0.007410245481878519,0.03868161514401436
1782845339679382500,1.977382568359375,-0.09794334322214127,0.004581702407449484,0.032218921929597855
1782845339689387500,1.987387451171875,-0.0430193729698658,0.003983556292951107,0.034147050231695175
1782845339699391500,1.9973916015625,0.020471986383199692,0.02731977216899395,0.03687945380806923
1782845339709396500,2.007396484375,0.07307767122983932,0.02851792797446251,0.03790264204144478
1782845339719400700,2.017400634765625,0.12187370657920837,0.03479260206222534,0.03482988476753235
1782845339729404700,2.02740478515625,0.16064827144145966,0.044558946043252945,0.022053103893995285
1782845339739409700,2.03740966796875,0.19003704190254211,0.046282809227705,-0.001642371411435306
1782845339749413600,2.04741357421875,0.20354832708835602,0.04854197055101395,-0.03206392750144005
1782845339759418600,2.057418701171875,0.21165712177753448,0.04091174528002739,-0.05715862661600113
1782845339769422600,2.067422607421875,0.2152651697397232,0.025843847543001175,-0.062367502599954605
1782845339779427600,2.077427490234375,0.22028256952762604,0.021160412579774857,-0.06314514577388763
1782845339789431600,2.087431640625,0.21305261552333832,0.021815815940499306,-0.04177248105406761
1782845339799436500,2.0974365234375,0.20101326704025269,0.027216706424951553,-0.01025423500686884
1782845339809440500,2.1074404296875,0.17770954966545105,0.031131554394960403,0.030719829723238945
1782845339819444700,2.11744482421875,0.14832235872745514,0.03674949333071709,0.07158496975898743
1782845339829449700,2.12744970703125,0.11040320992469788,0.042213499546051025,0.11278939992189407
1782845339839453700,2.13745361328125,0.07186433672904968,0.049853309988975525,0.14232012629508972
1782845339849458700,2.147458740234375,0.045695848762989044,0.06239227205514908,0.15477333962917328
1782845339859462700,2.157462646484375,0.036434173583984375,0.06793563812971115,0.15348009765148163
1782845339869467600,2.167467529296875,0.04379275441169739,0.07021637260913849,0.15572381019592285
1782845339879471600,2.1774716796875,0.052680786699056625,0.0715588703751564,0.16162751615047455
1782845339889475600,2.1874755859375,0.06614839285612106,0.07235648483037949,0.17215977609157562
1782845339899480600,2.19748046875,0.08428291976451874,0.06902433931827545,0.18923383951187134
1782845339909484500,2.207484619140625,0.10531843453645706,0.06358855962753296,0.20729513466358185
1782845339919489500,2.217489501953125,0.13477672636508942,0.0649891197681427,0.2274310290813446
1782845339929493800,2.22749365234375,0.17862699925899506,0.07192026078701019,0.2354426085948944
1782845339939498800,2.237498779296875,0.21497514843940735,0.05164135619997978,0.2444659322500229
1782845339949502700,2.247502685546875,0.2480737268924713,0.031096134334802628,0.26695525646209717
1782845339959507700,2.2575078125,0.28970611095428467,0.031858596950769424,0.28226685523986816
1782845339969511400,2.267511474609375,0.3250678479671478,0.04129204526543617,0.3029303252696991
1782845339979515600,2.277515625,0.34380850195884705,0.011889948509633541,0.3135102391242981
1782845339989520600,2.287520751953125,0.34910258650779724,-0.01889699138700962,0.3120114207267761
1782845339999524600,2.297524658203125,0.3349561393260956,-0.03173369541764259,0.2856370806694031
1782845340009529600,2.307529541015625,0.2976934611797333,-0.03689303621649742,0.2109639048576355
1782845340019533600,2.317533447265625,0.25438594818115234,-0.01954706944525242,0.06613347679376602
1782845340029538600,2.32753857421875,0.22287622094154358,0.0014423680258914828,-0.1219530701637268
1782845340039542800,2.337542724609375,0.2062343955039978,0.005397961009293795,-0.28193020820617676
1782845340049546800,2.347546630859375,0.20349906384944916,-0.01557922549545765,-0.38412344455718994
1782845340059551700,2.3575517578125,0.211899995803833,-0.05772534757852554,-0.4256455898284912
1782845340069555500,2.367555419921875,0.22016379237174988,-0.12020763754844666,-0.41316279768943787
1782845340079560400,2.377560546875,0.23796355724334717,-0.18994250893592834,-0.3607217073440552
1782845340089564700,2.387564697265625,0.247092604637146,-0.24378202855587006,-0.2941168546676636
1782845340099569700,2.397569580078125,0.2568240761756897,-0.2739250361919403,-0.21093593537807465
1782845340109573600,2.40757373046875,0.27400118112564087,-0.29197752475738525,-0.12729723751544952
1782845340119578600,2.41757861328125,0.29321029782295227,-0.30012786388397217,-0.025614816695451736
1782845340129582600,2.42758251953125,0.2965608239173889,-0.2652322053909302,0.06893778592348099
1782845340139586600,2.437586669921875,0.2892318069934845,-0.20989437401294708,0.14686481654644012
1782845340149591800,2.447591796875,0.26696404814720154,-0.1307779848575592,0.21219561994075775
1782845340159595800,2.457595703125,0.24133005738258362,-0.06130703166127205,0.27360811829566956
1782845340169600800,2.467600830078125,0.20992393791675568,-0.014796257019042969,0.3184964954853058
1782845340179604500,2.4776044921875,0.16799406707286835,0.018305771052837372,0.3464761972427368
1782845340189609500,2.487609375,0.11264638602733612,0.03197231516242027,0.35820022225379944
1782845340199613700,2.49761376953125,0.05023574084043503,0.03867069631814957,0.36281946301460266
1782845340209618700,2.50761865234375,-0.013157879933714867,0.03651939332485199,0.3600577712059021
1782845340219622700,2.51762255859375,-0.06168093904852867,0.03250148519873619,0.3328421413898468
1782845340229626600,2.527626708984375,-0.11523311585187912,0.029025793075561523,0.27181926369667053
1782845340239631600,2.537631591796875,-0.16537617146968842,0.036857884377241135,0.17397525906562805
1782845340249635600,2.547635498046875,-0.21862953901290894,0.07282227277755737,0.07465612888336182
1782845340259640600,2.557640625,-0.2630752921104431,0.1061067283153534,-0.005275455769151449
1782845340269644800,2.567644775390625,-0.2930377423763275,0.12465138733386993,-0.0510685108602047
1782845340279649800,2.57764990234375,-0.31045135855674744,0.1354779303073883,-0.06174006313085556
1782845340289653500,2.587653564453125,-0.31042125821113586,0.13517805933952332,-0.05642732232809067
1782845340299657500,2.597657470703125,-0.2795293927192688,0.13670991361141205,-0.029210615903139114
1782845340309662500,2.607662353515625,-0.23750948905944824,0.10974887013435364,0.016228238120675087
1782845340319666700,2.617666748046875,-0.18796484172344208,0.08161576837301254,0.04731851443648338
1782845340329671700,2.627671630859375,-0.14448606967926025,0.04802238568663597,0.06386899203062057
1782845340339675600,2.637675537109375,-0.09679977595806122,0.016269251704216003,0.07758986949920654
1782845340349680600,2.6476806640625,-0.04217195510864258,-0.005577990785241127,0.09523729979991913
1782845340359684600,2.6576845703125,0.006171875633299351,-0.021560152992606163,0.11006765067577362
1782845340369689600,2.667689697265625,0.050759848207235336,-0.026613768190145493,0.12270967662334442
1782845340379693600,2.677693603515625,0.08675513416528702,-0.014593323692679405,0.13597114384174347
1782845340389697500,2.687697509765625,0.11243173480033875,0.007769772317260504,0.15693289041519165
1782845340399702500,2.69770263671875,0.12595845758914948,0.045148834586143494,0.18375945091247559
1782845340409706500,2.70770654296875,0.13583213090896606,0.08895224332809448,0.1970454305410385
1782845340419711500,2.71771142578125,0.13809369504451752,0.13211782276630402,0.19357052445411682
1782845340429715700,2.7277158203125,0.13937360048294067,0.1722167730331421,0.18070054054260254
1782845340439720700,2.737720703125,0.14645229279994965,0.19108553230762482,0.1729683130979538
1782845340449724700,2.747724609375,0.14118801057338715,0.20422956347465515,0.159092977643013
1782845340459728600,2.757728759765625,0.12969914078712463,0.2156020700931549,0.13906973600387573
1782845340469733600,2.767733642578125,0.11911334097385406,0.22111107409000397,0.12685860693454742
1782845340479737600,2.777737548828125,0.10524945706129074,0.22344240546226501,0.09093976020812988
1782845340489742600,2.78774267578125,0.08857060968875885,0.22079390287399292,0.04682875797152519
1782845340499746600,2.79774658203125,0.06870076805353165,0.215410053730011,0.004335892386734486
1782845340509751600,2.80775146484375,0.04550516605377197,0.20203804969787598,-0.040328249335289
1782845340519755500,2.817755615234375,0.012495817616581917,0.1882663071155548,-0.0889573022723198
1782845340529760500,2.827760498046875,-0.015104650519788265,0.1691908836364746,-0.12886770069599152
1782845340539764700,2.8377646484375,-0.04942640662193298,0.14515292644500732,-0.14799664914608002
1782845340549768700,2.847768798828125,-0.08071401715278625,0.11516574025154114,-0.14882142841815948
1782845340559773700,2.857773681640625,-0.11701743304729462,0.09524928778409958,-0.13975444436073303
1782845340569777700,2.867777587890625,-0.14053528010845184,0.08230552822351456,-0.11855727434158325
1782845340579782700,2.87778271484375,-0.1545610874891281,0.07257833331823349,-0.08968168497085571
1782845340589786600,2.88778662109375,-0.1585283875465393,0.06456141918897629,-0.04845035821199417
1782845340599791600,2.89779150390625,-0.15806420147418976,0.06186709553003311,-0.018254637718200684
1782845340609795600,2.907795654296875,-0.15139618515968323,0.06733483076095581,-0.01059219054877758
1782845340619800600,2.917800537109375,-0.1312299221754074,0.08418145775794983,-0.021313011646270752
1782845340629804500,2.927804443359375,-0.10507874935865402,0.08266744762659073,-0.03332440182566643
1782845340639808800,2.937808837890625,-0.07433894276618958,0.08835436403751373,-0.050046656280756
1782845340649813800,2.947813720703125,-0.038172151893377304,0.09090647101402283,-0.04773449897766113
1782845340659817700,2.957817626953125,-0.008701878599822521,0.08732638508081436,-0.05170154199004173
1782845340669822700,2.96782275390625,0.02081952802836895,0.0744718387722969,-0.06644906103610992
1782845340679826700,2.97782666015625,0.0488642118871212,0.05818980187177658,-0.08428291976451874
1782845340689831700,2.987831787109375,0.07107444107532501,0.041619349271059036,-0.10158707946538925
1782845340699836000,2.9978359375,0.08333297073841095,0.02882072888314724,-0.11592873185873032
1782845340709841000,3.0078408203125,0.09627433866262436,0.02316976711153984,-0.12121670693159103
1782845340719844600,3.0178447265625,0.1026853621006012,0.018925754353404045,-0.1267496943473816
1782845340729848600,3.0278486328125,0.10973075777292252,0.013230051845312119,-0.12299223244190216
1782845340739853600,3.037853515625,0.12174427509307861,-0.0005552690709009767,-0.1095334142446518
1782845340749857800,3.04785791015625,0.14025138318538666,-0.009824400767683983,-0.08415056020021439
1782845340759862800,3.05786279296875,0.15731079876422882,-0.02155163139104843,-0.05037981644272804
1782845340769866800,3.06786669921875,0.17665785551071167,-0.034636273980140686,-0.021220067515969276
1782845340779871700,3.077871826171875,0.19187302887439728,-0.044774129986763,0.005943376570940018
1782845340789875700,3.087875732421875,0.2045009434223175,-0.051538556814193726,0.022294387221336365
1782845340799879400,3.09787939453125,0.2101857215166092,-0.06047958880662918,0.0507446713745594
1782845340809884700,3.107884765625,0.19986304640769958,-0.06281464546918869,0.08115211129188538
1782845340819888600,3.117888671875,0.17510975897312164,-0.06261011958122253,0.12542903423309326
1782845340829893600,3.1278935546875,0.13222327828407288,-0.07078681886196136,0.16826596856117249
1782845340839897600,3.137897705078125,0.08638256043195724,-0.07895633578300476,0.19373537600040436
1782845340849902600,3.147902587890625,0.051174502819776535,-0.08517348021268845,0.2007506787776947
1782845340859906600,3.157906494140625,0.03516145050525665,-0.08842121064662933,0.19204746186733246
1782845340869910800,3.167910888671875,0.02869422920048237,-0.08962894976139069,0.17995671927928925
1782845340879915800,3.177915771484375,0.03080238774418831,-0.08641718327999115,0.15494510531425476
1782845340889919700,3.187919677734375,0.03371242433786392,-0.09528417140245438,0.11553698033094406
1782845340899924700,3.1979248046875,0.0352591872215271,-0.10297325253486633,0.05128129571676254
1782845340909928400,3.207928466796875,0.035164378583431244,-0.11614657938480377,-0.01956171728670597
1782845340919933400,3.217933349609375,0.028557341545820236,-0.12310168892145157,-0.08626697957515717
1782845340929937700,3.227937744140625,0.015123026445508003,-0.13831473886966705,-0.12018206715583801
1782845340939942700,3.237942626953125,0.006508233025670052,-0.15086674690246582,-0.12625780701637268
1782845340949946600,3.247946533203125,0.0019201391842216253,-0.1703009009361267,-0.11508025228977203
1782845340959950600,3.25795068359375,0.013619937933981419,-0.19496363401412964,-0.08434230834245682
1782845340969955600,3.26795556640625,0.035837892442941666,-0.20619817078113556,-0.05080752074718475
1782845340979959800,3.277959716796875,0.05387548357248306,-0.19974346458911896,-0.008069911040365696
1782845340989964800,3.28796484375,0.08244560658931732,-0.1779838502407074,0.03982198238372803
1782845340999968800,3.29796875,0.10496130585670471,-0.13983219861984253,0.08850110322237015
1782845341009973800,3.307973876953125,0.10397779941558838,-0.09892977774143219,0.11151427775621414
1782845341019977500,3.3179775390625,0.07785271853208542,-0.05320889130234718,0.10322066396474838
1782845341029982500,3.327982421875,0.03690022602677345,-0.009590042755007744,0.049679405987262726
1782845341039986700,3.337986572265625,-0.009302421472966671,0.033490315079689026,-0.024696825072169304
1782845341049990700,3.34799072265625,-0.05955733731389046,0.055641159415245056,-0.10444997251033783
1782845341059995600,3.35799560546875,-0.10742099583148956,0.07063635438680649,-0.170507550239563
1782845341069999600,3.36799951171875,-0.15331578254699707,0.06382691860198975,-0.20587433874607086
1782845341080004600,3.378004638671875,-0.17017972469329834,0.04326757788658142,-0.20025800168514252
1782845341090008800,3.3880087890625,-0.15984772145748138,0.014931279234588146,-0.15849749743938446
1782845341100013800,3.398013916015625,-0.1179649829864502,-0.012853480875492096,-0.10503081232309341
1782845341110017800,3.408017822265625,-0.05163416638970375,-0.04015354439616203,-0.04373176768422127
1782845341120021500,3.418021484375,0.023869646713137627,-0.057188455015420914,0.028074512258172035
1782845341130026500,3.428026611328125,0.10904446244239807,-0.06849677115678787,0.0978245660662651
1782845341140030700,3.43803076171875,0.18824633955955505,-0.05733519420027733,0.17133313417434692
1782845341150035700,3.44803564453125,0.2549643814563751,-0.03495825082063675,0.2318396270275116
1782845341160039700,3.458039794921875,0.2998160123825073,-0.005701827816665173,0.2761165499687195
1782845341170044700,3.468044677734375,0.31975057721138,0.02335512451827526,0.30665552616119385
1782845341180048600,3.478048583984375,0.320465087890625,0.05345310643315315,0.3309693932533264
1782845341190053600,3.4880537109375,0.2981797754764557,0.06498725712299347,0.3406204283237457
1782845341200057900,3.498057861328125,0.24496208131313324,0.08343151211738586,0.30811840295791626
1782845341210061600,3.5080615234375,0.17709648609161377,0.10077933967113495,0.24454183876514435
1782845341220066600,3.518066650390625,0.10707531869411469,0.12020976096391678,0.1595398634672165
1782845341230070500,3.528070556640625,0.05663318559527397,0.1302213817834854,0.06738516688346863
1782845341240075500,3.538075439453125,0.024389762431383133,0.11792690306901932,-0.011802596971392632
1782845341250079700,3.548079833984375,-0.008053398691117764,0.0871783122420311,-0.0740947350859642
1782845341260084700,3.558084716796875,-0.030072148889303207,0.045460160821676254,-0.12484339624643326
1782845341270088700,3.568088623046875,-0.040467265993356705,0.008831840939819813,-0.17529085278511047
1782845341280093700,3.57809375,-0.03513774648308754,-0.020807011052966118,-0.2112717628479004
1782845341290097700,3.58809765625,-0.02407604083418846,-0.04104224219918251,-0.24126455187797546
1782845341300101600,3.5981015625,-0.012349343858659267,-0.03874047100543976,-0.24628673493862152
1782845341310107000,3.60810693359375,-0.010200971737504005,-0.02911953628063202,-0.21899519860744476
1782845341320110600,3.618110595703125,0.0034874093253165483,-0.025544507429003716,-0.1683538556098938
1782845341330115600,3.628115478515625,0.015485482290387154,-0.021449098363518715,-0.11708108335733414
1782845341340119600,3.63811962890625,0.027177559211850166,-0.012479039840400219,-0.08992429822683334
1782845341350124500,3.64812451171875,0.026379143819212914,-0.00923104863613844,-0.08818179368972778
1782845341360128800,3.658128662109375,0.028442293405532837,-0.016108395531773567,-0.10399510711431503
1782845341370132700,3.6681328125,0.039196405559778214,-0.0296670813113451,-0.1398167610168457
1782845341380137700,3.6781376953125,0.050323888659477234,-0.04770094156265259,-0.18277354538440704
1782845341390141700,3.6881416015625,0.052734050899744034,-0.06953513622283936,-0.20629139244556427
1782845341400146700,3.698146728515625,0.0419599674642086,-0.08575058728456497,-0.20201195776462555
1782845341410150700,3.708150634765625,0.030484139919281006,-0.09236960858106613,-0.1912815421819687
1782845341420155600,3.71815576171875,0.006062420085072517,-0.088119737803936,-0.18989084661006927
1782845341430159600,3.72815966796875,-0.018457571044564247,-0.0766734704375267,-0.2003123164176941
1782845341440164600,3.73816455078125,-0.020669326186180115,-0.07086431980133057,-0.2098962366580963
1782845341450168600,3.74816845703125,-0.015476161614060402,-0.059053998440504074,-0.20754200220108032
1782845341460172500,3.758172607421875,-0.008100803010165691,-0.06793084740638733,-0.17667943239212036
1782845341470177500,3.768177490234375,0.00046046054922044277,-0.07520367205142975,-0.12385988980531693
1782845341480181800,3.778181640625,0.0020594224333763123,-0.07834487408399582,-0.056047290563583374
1782845341490186800,3.788186767578125,0.0033718282356858253,-0.07479381561279297,0.01275920495390892
1782845341500190700,3.798190673828125,0.015615710988640785,-0.07662314176559448,0.0793459564447403
1782845341510195700,3.80819580078125,0.027512850239872932,-0.06504584848880768,0.148949533700943
1782845341520199700,3.81819970703125,0.03916444629430771,-0.0587884820997715,0.2022005021572113
1782845341530204700,3.82820458984375,0.03442694991827011,-0.046787746250629425,0.2277841567993164
1782845341540208600,3.838208740234375,0.016882842406630516,-0.020112458616495132,0.22783821821212769
1782845341550212600,3.848212646484375,0.011854262091219425,0.01455737091600895,0.19518227875232697
1782845341560217600,3.858217529296875,0.007586813066154718,0.04422791302204132,0.13589152693748474
1782845341570221600,3.8682216796875,0.010546384379267693,0.05994109809398651,0.04422125592827797
1782845341580226600,3.8782265625,0.019091136753559113,0.05826010927557945,-0.059003930538892746
1782845341590230800,3.888230712890625,0.034925226122140884,0.03868241608142853,-0.15056288242340088
1782845341600235800,3.89823583984375,0.053530603647232056,0.01714356616139412,-0.23396162688732147
1782845341610239700,3.90823974609375,0.07405238598585129,-0.0035350800026208162,-0.2958548367023468
1782845341620243500,3.918243408203125,0.1025942862033844,-0.0252800565212965,-0.3432590961456299
1782845341630248400,3.92824853515625,0.12466336786746979,-0.05149701237678528,-0.3810163140296936
1782845341640252700,3.938252685546875,0.1426655352115631,-0.07419779896736145,-0.4076721668243408
1782845341650257700,3.948257568359375,0.1611737161874771,-0.08244374394416809,-0.42241382598876953
1782845341660261600,3.95826171875,0.17991064488887787,-0.08610798418521881,-0.411434143781662
1782845341670266600,3.9682666015625,0.19284188747406006,-0.07703752815723419,-0.3670733571052551
1782845341680270600,3.9782705078125,0.19559933245182037,-0.060991980135440826,-0.28380802273750305
1782845341690275600,3.988275634765625,0.19073240458965302,-0.04379541799426079,-0.18513549864292145
1782845341700279800,3.99827978515625,0.18040412664413452,-0.028360268101096153,-0.08856821805238724
1782845341710283800,4.00828369140625,0.1637689620256424,-0.015093198977410793,-0.007483216468244791
1782845341720288800,4.018288818359375,0.13979890942573547,-0.002243713242933154,0.04754727706313133
1782845341730292500,4.02829248046875,0.11235130578279495,0.0033683660440146923,0.08584273606538773
1782845341740297500,4.03829736328125,0.08559665828943253,0.005062935408204794,0.09697634726762772
1782845341750301700,4.0483017578125,0.06317204236984253,0.004089550115168095,0.10612670332193375
1782845341760306700,4.058306640625,0.04344654455780983,0.007574296556413174,0.10624334961175919
1782845341770310700,4.068310546875,0.02918291836977005,0.0133288549259305,0.09163244813680649
1782845341780315600,4.078315673828125,0.026261964812874794,0.025081651285290718,0.0821760967373848
1782845341790319600,4.088319580078125,0.031928371638059616,0.03840890899300575,0.07307660579681396
1782845341800323800,4.09832373046875,0.042944539338350296,0.04761412367224693,0.06685226410627365
1782845341810328800,4.108328857421875,0.06463412195444107,0.049514289945364,0.055025167763233185
1782845341820332800,4.118332763671875,0.087269127368927,0.059965599328279495,0.042200718075037
1782845341830337800,4.128337890625,0.107107013463974,0.07145340740680695,0.03495771810412407
1782845341840341500,4.138341552734375,0.12428653240203857,0.08365761488676071,0.028305141255259514
1782845341850346500,4.148346435546875,0.13018757104873657,0.09280557185411453,0.03399791568517685
1782845341860350700,4.158350830078125,0.12186252325773239,0.10173994302749634,0.04831187054514885
1782845341870354700,4.168354736328125,0.10516450554132462,0.1152762621641159,0.062067631632089615
1782845341880359700,4.178359619140625,0.08441661298274994,0.12144120782613754,0.058753594756126404
1782845341890363600,4.18836376953125,0.06465356051921844,0.131930872797966,0.04965463653206825
1782845341900368600,4.19836865234375,0.03127643093466759,0.14957644045352936,0.04225744307041168
1782845341910372600,4.20837255859375,-0.006542054936289787,0.1684555858373642,0.04513711854815483
1782845341920377900,4.2183779296875,-0.054664578288793564,0.1928674578666687,0.04998433589935303
1782845341930381800,4.2283818359375,-0.09298080950975418,0.2129167914390564,0.06879637390375137
1782845341940386800,4.23838671875,-0.12316320836544037,0.22306902706623077,0.07862397283315659
1782845341950390500,4.248390625,-0.13782471418380737,0.21080730855464935,0.11086606234312057
1782845341960394500,4.25839453125,-0.12949301302433014,0.1597406566143036,0.14302586019039154
1782845341970399700,4.268399658203125,-0.11019175499677658,0.08957808464765549,0.15201961994171143
1782845341980403700,4.27840380859375,-0.09035439789295197,0.034147582948207855,0.1480238139629364
1782845341990408700,4.28840869140625,-0.07071491330862045,0.003201385959982872,0.13252049684524536
1782845342000412700,4.29841259765625,-0.04665591940283775,0.0004820321628358215,0.11494895815849304
1782845342010417700,4.308417724609375,-0.013905429281294346,0.006424077320843935,0.09704878181219101
1782845342020421600,4.318421630859375,0.02034708298742771,0.02250903658568859,0.08496948331594467
1782845342030426600,4.328426513671875,0.05505073443055153,0.04733875393867493,0.08107061684131622
1782845342040430800,4.338430908203125,0.08756686747074127,0.07228618115186691,0.09994816780090332
1782845342050434600,4.3484345703125,0.1299462765455246,0.0896260216832161,0.13074283301830292
1782845342060439600,4.358439453125,0.19004397094249725,0.10125711560249329,0.16722680628299713
1782845342070443500,4.368443603515625,0.24777890741825104,0.0896313488483429,0.20650364458560944
1782845342080448500,4.378448486328125,0.2932414710521698,0.07435039430856705,0.23712760210037231
1782845342090452700,4.38845263671875,0.315716952085495,0.080011747777462,0.26849111914634705
1782845342100457700,4.398457763671875,0.30325573682785034,0.08052706718444824,0.2945248484611511
1782845342110461700,4.408461669921875,0.2726496458053589,0.09190036356449127,0.29194876551628113
1782845342120465700,4.418465576171875,0.231888085603714,0.10604707151651382,0.24307815730571747
1782845342130470700,4.428470703125,0.17922301590442657,0.09989383816719055,0.1630014330148697
1782845342140474600,4.438474609375,0.129205122590065,0.08183707296848297,0.04587215185165405
1782845342150479600,4.448479736328125,0.06833724677562714,0.06259653717279434,-0.09251608699560165
1782845342160483600,4.458483642578125,0.010428672656416893,0.0481313094496727,-0.22712716460227966
1782845342170488600,4.468488525390625,-0.032948363572359085,0.03177577257156372,-0.3140982687473297
1782845342180492500,4.478492431640625,-0.05245015770196915,0.005787581671029329,-0.32871928811073303
1782845342190497500,4.48849755859375,-0.049143046140670776,-0.03291214257478714,-0.29890546202659607
1782845342200501800,4.498501708984375,-0.042696863412857056,-0.0715804398059845,-0.22906380891799927
1782845342210505700,4.508505615234375,-0.023918382823467255,-0.10142835229635239,-0.14068999886512756
1782845342220510700,4.5185107421875,-0.001231711939908564,-0.11880628019571304,-0.05529814213514328
1782845342230514700,4.5285146484375,0.031091073527932167,-0.130082905292511,0.024351146072149277
1782845342240519700,4.538519775390625,0.068581722676754,-0.129036545753479,0.09242980182170868
1782845342250523600,4.548523681640625,0.10855790227651596,-0.11158138513565063,0.1454826295375824
1782845342260528600,4.558528564453125,0.14031769335269928,-0.09382769465446472,0.18324652314186096
1782845342270532600,4.56853271484375,0.17135870456695557,-0.08359210193157196,0.2061808705329895
1782845342280537600,4.57853759765625,0.19759084284305573,-0.09429960697889328,0.21124432981014252
1782845342290541600,4.58854150390625,0.21910545229911804,-0.10636478662490845,0.22417478263378143
1782845342300545800,4.5985458984375,0.23160207271575928,-0.11451326310634613,0.24133644998073578
1782845342310550800,4.60855078125,0.22550129890441895,-0.11816738545894623,0.25143328309059143
1782845342320554800,4.6185546875,0.1981562227010727,-0.10178042203187943,0.2438904196023941
1782845342330559700,4.628559814453125,0.14611965417861938,-0.07327527552843094,0.21992383897304535
1782845342340563700,4.638563720703125,0.085495725274086,-0.02732483111321926,0.1815042793750763
1782845342350568700,4.648568603515625,0.01515897922217846,0.022054169327020645,0.14447888731956482
1782845342360572700,4.65857275390625,-0.04969831556081772,0.06679368019104004,0.11073290556669235
1782845342370577700,4.66857763671875,-0.10250800102949142,0.09392543137073517,0.07306648790836334
1782845342380581600,4.67858154296875,-0.1415265053510666,0.10504359751939774,0.04422072321176529
1782845342390585600,4.688585693359375,-0.16368374228477478,0.10330960899591446,0.03181678429245949
1782845342400590600,4.698590576171875,-0.17673268914222717,0.09410253167152405,0.02232261560857296
1782845342410594800,4.7085947265625,-0.18845991790294647,0.09507858008146286,0.027634290978312492
1782845342420599800,4.718599853515625,-0.18974223732948303,0.09215282648801804,0.04627029225230217
1782845342430603800,4.728603759765625,-0.18457117676734924,0.07489101588726044,0.06284980475902557
1782845342440608800,4.73860888671875,-0.16173377633094788,0.051000066101551056,0.09884268790483475
1782845342450612700,4.74861279296875,-0.13325898349285126,0.022961508482694626,0.1446663737297058
1782845342460617700,4.75861767578125,-0.10946977138519287,-0.016694823279976845,0.1908770054578781
1782845342470621700,4.76862158203125,-0.07581939548254013,-0.05288025736808777,0.23162204027175903
1782845342480625700,4.778625732421875,-0.047628238797187805,-0.083299420773983,0.2749743163585663
1782845342490630700,4.788630615234375,-0.028919000178575516,-0.08968354761600494,0.29708361625671387
1782845342500634600,4.798634521484375,-0.024338895455002785,-0.08003997802734375,0.3034972846508026
1782845342510639600,4.8086396484375,-0.04030614346265793,-0.06443038582801819,0.293974369764328
1782845342520643600,4.8186435546875,-0.06051820516586304,-0.0513119250535965,0.28648823499679565
1782845342530648800,4.82864892578125,-0.09349852800369263,-0.03443494066596031,0.27789074182510376
1782845342540652800,4.83865283203125,-0.1220092624425888,-0.012457202188670635,0.2719532251358032
1782845342550656500,4.848656494140625,-0.14095258712768555,0.009687514975667,0.27709683775901794
1782845342560661500,4.85866162109375,-0.16367867588996887,0.04019082710146904,0.2847033739089966
1782845342570665500,4.86866552734375,-0.19046634435653687,0.05753173679113388,0.2817845344543457
1782845342580670700,4.878670654296875,-0.21528621017932892,0.06943020969629288,0.27432024478912354
1782845342590674700,4.8886748046875,-0.22786937654018402,0.05692080780863762,0.2607431709766388
1782845342600679700,4.8986796875,-0.23160207271575928,0.03840251639485359,0.23526178300380707
1782845342610683600,4.90868359375,-0.24131807684898376,0.010896323248744011,0.23127876222133636
1782845342620688600,4.918688720703125,-0.26026034355163574,-0.008280566893517971,0.23666633665561676
1782845342630692600,4.928692626953125,-0.2844602167606354,-0.013048158027231693,0.24391812086105347
1782845342640696800,4.93869677734375,-0.3146791160106659,-0.01732652634382248,0.239244282245636
1782845342650701800,4.948701904296875,-0.35587501525878906,-0.029830865561962128,0.21289736032485962
1782845342660705500,4.95870556640625,-0.3899858593940735,-0.03483281657099724,0.17210838198661804
1782845342670710800,4.968710693359375,-0.4157375395298004,-0.03972184658050537,0.10839544981718063
1782845342680714800,4.97871484375,-0.42627009749412537,-0.062484417110681534,0.041492316871881485
1782845342690719700,4.9887197265625,-0.42967814207077026,-0.09170009195804596,-0.016056198626756668
1782845342700723700,4.9987236328125,-0.43024539947509766,-0.11386451870203018,-0.0513787679374218
1782845342710728700,5.008728759765625,-0.4142818748950958,-0.12215840071439743,-0.06961876153945923
1782845342720732700,5.018732666015625,-0.3834765553474426,-0.11426398903131485,-0.06786560267210007
1782845342730736600,5.028736572265625,-0.3462921679019928,-0.10522868484258652,-0.04625697806477547
1782845342740741600,5.03874169921875,-0.30982762575149536,-0.10158415138721466,-0.03254276141524315
1782845342750745900,5.048745849609375,-0.27993977069854736,-0.0945933535695076,-0.02057531662285328
1782845342760750800,5.058750732421875,-0.2547153830528259,-0.0806940495967865,-0.01883893460035324
1782845342770754800,5.0687548828125,-0.22354014217853546,-0.07729824632406235,-0.023126624524593353
1782845342780759800,5.078759765625,-0.18073302507400513,-0.08030123263597488,-0.03337952867150307
1782845342790763800,5.088763671875,-0.12763039767742157,-0.09660350531339645,-0.05640788376331329
1782845342800768800,5.098768798828125,-0.0759110078215599,-0.11798016726970673,-0.0758683979511261
1782845342810772700,5.108772705078125,-0.031145935878157616,-0.13227681815624237,-0.09413129091262817
1782845342820776700,5.118776611328125,0.011812184937298298,-0.15064410865306854,-0.10274182260036469
1782845342830781700,5.12878173828125,0.0412350557744503,-0.16131912171840668,-0.11097578704357147
1782845342840785700,5.13878564453125,0.061765629798173904,-0.16617006063461304,-0.11918418109416962
1782845342850790700,5.148790771484375,0.06528846174478531,-0.16499054431915283,-0.12109606713056564
1782845342860795000,5.158794921875,0.053103432059288025,-0.1543344408273697,-0.10212396830320358
1782845342870800000,5.1687998046875,0.026644393801689148,-0.14080318808555603,-0.06588687002658844
1782845342880803800,5.178803955078125,-0.0011488876771181822,-0.12266972661018372,-0.028195684775710106
1782845342890808800,5.188808837890625,-0.03140159696340561,-0.11155529320240021,0.0038043255917727947
1782845342900812800,5.198812744140625,-0.05720922723412514,-0.10413093119859695,0.022880548611283302
1782845342910816800,5.208816650390625,-0.07513310015201569,-0.10690993815660477,0.042021751403808594
1782845342920821800,5.21882177734375,-0.09197360277175903,-0.11769893765449524,0.05644543096423149
1782845342930825700,5.22882568359375,-0.1072513535618782,-0.12983575463294983,0.05705023556947708
1782845342940830700,5.238830810546875,-0.12381941080093384,-0.14051289856433868,0.05486777424812317
1782845342950834700,5.248834716796875,-0.13317003846168518,-0.1417989432811737,0.0334748700261116
1782845342960839700,5.258839599609375,-0.14267991483211517,-0.13223686814308167,-0.004938033409416676
1782845342970844000,5.268843994140625,-0.14533695578575134,-0.12167929857969284,-0.04152773693203926
1782845342980849000,5.278848876953125,-0.14203543961048126,-0.12020869553089142,-0.09013548493385315
1782845342990852900,5.288852783203125,-0.12280421704053879,-0.12833720445632935,-0.12928661704063416
1782845343000856600,5.298856689453125,-0.09730498492717743,-0.14335423707962036,-0.16095373034477234
1782845343010861600,5.308861572265625,-0.07396530359983444,-0.1537110060453415,-0.18724632263183594
1782845343020865800,5.31886572265625,-0.04292003810405731,-0.16410505771636963,-0.20697101950645447
1782845343030870800,5.328870849609375,-0.004132959526032209,-0.1674656867980957,-0.2248767912387848
1782845343040874800,5.338874755859375,0.040049679577350616,-0.16156598925590515,-0.22781291604042053
1782845343050879700,5.348879638671875,0.08323683589696884,-0.15840855240821838,-0.21108508110046387
1782845343060883700,5.3588837890625,0.12474672496318817,-0.1520763486623764,-0.16745343804359436
1782845343070888700,5.368888671875,0.14827735722064972,-0.14999109506607056,-0.1065799742937088
1782845343080893000,5.378892822265625,0.16016250848770142,-0.15352989733219147,-0.03514014557003975
1782845343090897000,5.38889697265625,0.15432432293891907,-0.15973560512065887,0.04526867717504501
1782845343100902000,5.39890185546875,0.13962048292160034,-0.16002775728702545,0.1200726106762886
1782845343110905600,5.408905517578125,0.1107558086514473,-0.16149461269378662,0.18449154496192932
1782845343120910600,5.41891064453125,0.08210258930921555,-0.1501985490322113,0.23061136901378632
1782845343130914800,5.428914794921875,0.04740453511476517,-0.12663623690605164,0.27134281396865845
1782845343140919800,5.438919921875,0.004995291121304035,-0.08066528290510178,0.29861918091773987
1782845343150923800,5.448923828125,-0.04899364337325096,-0.01901017688214779,0.29466307163238525
1782845343160928800,5.4589287109375,-0.11273879557847977,0.04927806556224823,0.2655331492424011
1782845343170932700,5.4689326171875,-0.1909307986497879,0.11829974502325058,0.19612076878547668
1782845343180936700,5.478936767578125,-0.245113343000412,0.1666523665189743,0.08541955798864365
1782845343190941700,5.488941650390625,-0.28264713287353516,0.187616765499115,-0.048708684742450714
1782845343200946000,5.49894580078125,-0.3082800805568695,0.17066600918769836,-0.17936336994171143
1782845343210951000,5.508950927734375,-0.32300254702568054,0.1084124967455864,-0.2804652154445648
1782845343220954600,5.51895458984375,-0.32044804096221924,0.02118491381406784,-0.35779356956481934
1782845343230959600,5.528959716796875,-0.29033008217811584,-0.06562162190675735,-0.4237126410007477
1782845343240963600,5.538963623046875,-0.23684316873550415,-0.1529645174741745,-0.46507740020751953
1782845343250968600,5.548968505859375,-0.17098426818847656,-0.19925451278686523,-0.4750285744667053
1782845343260972800,5.558972900390625,-0.08345361053943634,-0.19971205294132233,-0.4278818368911743
1782845343270976800,5.568976806640625,0.02845960482954979,-0.16501745581626892,-0.33980363607406616
1782845343280981800,5.578981689453125,0.1295742392539978,-0.137238010764122,-0.2174939662218094
1782845343290985700,5.58898583984375,0.2202008068561554,-0.08736047148704529,-0.09263938665390015
1782845343300990700,5.59899072265625,0.2894890606403351,-0.030011428520083427,0.005079979542642832
1782845343310995000,5.608994873046875,0.3510163426399231,0.00007776429993100464,0.08728484064340591
1782845343321000000,5.619,0.38609230518341064,0.0020058928057551384,0.15743570029735565
1782845343331003600,5.629003662109375,0.3708116114139557,-0.00007270430069183931,0.21573202311992645
1782845343341008600,5.639008544921875,0.3081623613834381,0.02112818881869316,0.20996680855751038
1782845343351012600,5.6490126953125,0.23796702921390533,0.04154238477349281,0.1616850346326828
1782845343361016800,5.659016845703125,0.17820116877555847,0.07332640886306763,0.09935721009969711
1782845343371021800,5.669021728515625,0.1167050451040268,0.05720869451761246,0.0452742725610733
1782845343381025800,5.67902587890625,0.058395665138959885,0.0637667253613472,-0.006941529456526041
1782845343391030800,5.68903076171875,0.03175180405378342,0.07522684335708618,-0.05035904422402382
1782845343401034800,5.69903466796875,0.03567703813314438,0.07149522006511688,-0.08405735343694687
1782845343411039700,5.709039794921875,0.0327928327023983,0.05952244997024536,-0.0861428752541542
1782845343421043700,5.719043701171875,0.031031152233481407,0.04362497478723526,-0.06474383920431137
1782845343431048700,5.729048583984375,0.03807521238923073,0.030125677585601807,-0.026929352432489395
1782845343441052700,5.739052734375,0.052985984832048416,0.03305089473724365,0.016775785014033318
1782845343451056600,5.749056640625,0.06534358859062195,0.04114610329270363,0.06081967428326607
1782845343461061600,5.7590615234375,0.0812290757894516,0.05491464585065842,0.09323247522115707
1782845343471065900,5.76906591796875,0.08038751780986786,0.070999875664711,0.11906300485134125
1782845343481070800,5.77907080078125,0.07396264374256134,0.08752452582120895,0.13326404988765717
1782845343491074800,5.78907470703125,0.0503033846616745,0.0993654653429985,0.11789867281913757
1782845343501079800,5.799079833984375,0.021627264097332954,0.10920904576778412,0.08429570496082306
1782845343511083800,5.809083740234375,-0.014258830808103085,0.11853943020105362,0.02520548738539219
1782845343521087700,5.819087646484375,-0.037451233714818954,0.11590290069580078,-0.045169342309236526
1782845343531092700,5.8290927734375,-0.06124258413910866,0.09820806235074997,-0.12402847409248352
1782845343541096700,5.8390966796875,-0.08360780775547028,0.0668482705950737,-0.19762785732746124
1782845343551101700,5.849101806640625,-0.10439538210630417,0.028432173654437065,-0.24772565066814423
1782845343561105700,5.859105712890625,-0.11742329597473145,-0.014019944705069065,-0.28694549202919006
1782845343571110700,5.869110595703125,-0.12454112619161606,-0.04291790723800659,-0.3097304403781891
1782845343581115000,5.879114990234375,-0.1264258474111557,-0.054072022438049316,-0.3188900947570801
1782845343591120000,5.889119873046875,-0.11275450885295868,-0.06059969589114189,-0.3100641071796417
1782845343601123800,5.899123779296875,-0.09242686629295349,-0.05688538774847984,-0.2863025963306427
1782845343611128800,5.90912890625,-0.06527674198150635,-0.055021174252033234,-0.24835895001888275
1782845343621132800,5.9191328125,-0.03866963088512421,-0.05089780315756798,-0.1915513277053833
1782845343631136800,5.92913671875,-0.01792813464999199,-0.04318848252296448,-0.13064882159233093
1782845343641141800,5.939141845703125,0.004822185728698969,-0.033295903354883194,-0.06786400079727173
1782845343651145700,5.949145751953125,0.02424382045865059,-0.016800550743937492,0.01299489475786686
1782845343661150700,5.959150634765625,0.04011945798993111,0.0031558459158986807,0.08972056210041046
1782845343671154200,5.969154296875,0.051710065454244614,0.03352999687194824,0.14868135750293732
1782845343681159200,5.9791591796875,0.055867258459329605,0.06450682133436203,0.14902889728546143
1782845343691163400,5.989163330078125,0.0665782243013382,0.0940021276473999,0.0906209796667099
1782845343701168400,5.99916845703125,0.0750018060207367,0.10705667734146118,0.0006056028068996966
1782845343711172400,6.00917236328125,0.09278000146150589,0.09416937828063965,-0.09789833426475525
1782845343721176300,6.01917626953125,0.11770319938659668,0.061950985342264175,-0.17693908512592316
1782845343731181300,6.029181396484375,0.14900758862495422,0.023274961858987808,-0.2465410679578781
1782845343741185500,6.039185546875,0.18578451871871948,-0.015276158228516579,-0.300396591424942
1782845343751190500,6.0491904296875,0.2263505756855011,-0.05439692735671997,-0.33892613649368286
1782845343761194500,6.059194580078125,0.2577444612979889,-0.08221737295389175,-0.3578457534313202
1782845343771199500,6.069199462890625,0.26895636320114136,-0.09753108024597168,-0.3434726893901825
1782845343781203200,6.079203125,0.26962003111839294,-0.09771563857793808,-0.31255871057510376
1782845343791207400,6.08920751953125,0.25979936122894287,-0.0759083479642868,-0.27510401606559753
1782845343801212400,6.09921240234375,0.24209971725940704,-0.04767564311623573,-0.22754314541816711
1782845343811216400,6.10921630859375,0.21490325033664703,-0.009946640580892563,-0.15407265722751617
1782845343821221400,6.119221435546875,0.17950424551963806,0.010479805059731007,-0.07592778652906418
1782845343831225300,6.129225341796875,0.13174951076507568,0.028736839070916176,0.004782504867762327
1782845343841230300,6.139230224609375,0.07700850069522858,0.04303108900785446,0.082234688103199
1782845343851234600,6.149234619140625,0.021095963194966316,0.04397065192461014,0.1411541998386383
1782845343861239600,6.159239501953125,-0.03037921153008938,0.050769172608852386,0.1920461356639862
1782845343871243500,6.169243408203125,-0.07738932967185974,0.051545482128858566,0.21858613193035126
1782845343881248500,6.17924853515625,-0.11600090563297272,0.047030624002218246,0.23532889783382416
1782845343891252200,6.189252197265625,-0.14530552923679352,0.05194921791553497,0.22954531013965607
1782845343901256400,6.19925634765625,-0.16866731643676758,0.06455609202384949,0.19042161107063293
1782845343911261400,6.209261474609375,-0.18017536401748657,0.0817345455288887,0.14342853426933289
1782845343921265400,6.219265380859375,-0.1871941238641739,0.09106146544218063,0.09569776058197021
1782845343931270400,6.2292705078125,-0.18305183947086334,0.09619604051113129,0.04905782267451286
1782845343941274400,6.2392744140625,-0.17408551275730133,0.10019504278898239,-0.0010913633741438389
1782845343951279400,6.249279296875,-0.1601041853427887,0.10589926689863205,-0.04171069338917732
1782845343961283300,6.259283447265625,-0.13964524865150452,0.10881835967302322,-0.06167827919125557
1782845343971288300,6.269288330078125,-0.11738521605730057,0.11008842289447784,-0.05729072168469429
1782845343981292500,6.27929248046875,-0.09117677807807922,0.10403212904930115,-0.04442072659730911
1782845343991296300,6.289296142578125,-0.059426575899124146,0.0981539934873581,-0.01769830286502838
1782845344001301200,6.29930126953125,-0.024104271084070206,0.09060580283403397,0.004611529875546694
1782845344011305200,6.30930517578125,0.004867459647357464,0.10091782361268997,0.023680562153458595
1782845344021310200,6.319310302734375,0.02852378599345684,0.11072465032339096,0.0396970771253109
1782845344031314400,6.329314453125,0.04596110060811043,0.1224268451333046,0.0468018613755703
1782845344041319400,6.3393193359375,0.05674557015299797,0.11761344969272614,0.051115382462739944
1782845344051323400,6.349323486328125,0.06561815738677979,0.10283716768026352,0.05946465954184532
1782845344061328400,6.359328369140625,0.06939718127250671,0.0819084495306015,0.07227925956249237
1782845344071332400,6.369332275390625,0.07302334159612656,0.07258258759975433,0.065256766974926
1782845344081336300,6.37933642578125,0.07716402411460876,0.07646840810775757,0.05205867439508438
1782845344091341300,6.38934130859375,0.08394789695739746,0.08256731182336807,0.03574761003255844
1782845344101345300,6.39934521484375,0.08941803127527237,0.08441581577062607,0.03885791823267937
1782845344111350300,6.409350341796875,0.09397736191749573,0.08366426825523376,0.03737879544496536
1782845344121354200,6.419354248046875,0.0957917720079422,0.08246292173862457,0.04041746258735657
1782845344131359200,6.429359130859375,0.10062114894390106,0.07774645835161209,0.03026416152715683
1782845344141363500,6.439363525390625,0.10280787199735641,0.06711512058973312,0.008941562846302986
1782845344151368400,6.449368408203125,0.10954780131578445,0.059293683618307114,-0.013975736685097218
1782845344161372400,6.459372314453125,0.11631356179714203,0.058097925037145615,-0.027306988835334778
1782845344171376400,6.46937646484375,0.13724280893802643,0.06404076516628265,-0.019040536135435104
1782845344181381400,6.47938134765625,0.16717007756233215,0.07961999624967575,0.009136239998042583
1782845344191385300,6.48938525390625,0.19618628919124603,0.09785518795251846,0.05046796798706055
1782845344201390300,6.499390380859375,0.22733888030052185,0.09920541197061539,0.09178478270769119
1782845344211394300,6.509394287109375,0.26622581481933594,0.10432374477386475,0.12169554084539413
1782845344221399300,6.5193994140625,0.3028557300567627,0.09597340226173401,0.1424863040447235
1782845344231403300,6.5294033203125,0.3223372995853424,0.08956290781497955,0.15630066394805908
1782845344241408300,6.539408203125,0.3209005296230316,0.07752808183431625,0.14650794863700867
1782845344251412500,6.54941259765625,0.300626665353775,0.061460163444280624,0.11008868366479874
1782845344261416400,6.55941650390625,0.26934918761253357,0.04670598730444908,0.05104214325547218
1782845344271421400,6.56942138671875,0.24447126686573029,0.04069123789668083,-0.04362497478723526
1782845344281425400,6.57942529296875,0.21972356736660004,-0.004340952727943659,-0.15337570011615753
1782845344291430400,6.589430419921875,0.2148936688899994,-0.008711998350918293,-0.25020265579223633
1782845344301434400,6.599434326171875,0.21641352772712708,-0.021686386317014694,-0.30438360571861267
1782845344311439400,6.609439453125,0.22545203566551208,-0.037282656878232956,-0.2967062294483185
1782845344321443300,6.619443359375,0.24086454510688782,-0.05251114442944527,-0.2625432014465332
1782845344331448300,6.6294482421875,0.2610720694065094,-0.07453975081443787,-0.21903008222579956
1782845344341452300,6.639452392578125,0.28353530168533325,-0.10046109557151794,-0.1750037670135498
1782845344351457300,6.649457275390625,0.3088555634021759,-0.1299598664045334,-0.1304112672805786
1782845344361461500,6.65946142578125,0.3287419378757477,-0.15620239078998566,-0.06064337491989136
1782845344371465500,6.669465576171875,0.34340396523475647,-0.16065332293510437,0.003427488263696432
1782845344381470500,6.679470458984375,0.34894227981567383,-0.1445571780204773,0.04893345385789871
1782845344391474400,6.689474365234375,0.34966880083084106,-0.11348900943994522,0.07194449752569199
1782845344401479400,6.6994794921875,0.335968941450119,-0.07757015526294708,0.07955661416053772
1782845344411483400,6.7094833984375,0.3173087239265442,-0.04230857640504837,0.08205971866846085
1782845344421488400,6.71948828125,0.2922646105289459,-0.0010237190872430801,0.09152299165725708
1782845344431492400,6.729492431640625,0.25279203057289124,0.022523684427142143,0.1022653877735138
1782845344441497300,6.739497314453125,0.20582079887390137,0.029199697077274323,0.11058936268091202
1782845344451501300,6.749501220703125,0.1467801183462143,0.010330667719244957,0.11401418596506119
1782845344461505500,6.759505615234375,0.08956583589315414,0.0016351809026673436,0.10825936496257782
1782845344471510500,6.769510498046875,0.038478150963783264,-0.005426723510026932,0.11028389632701874
1782845344481514500,6.779514404296875,-0.0038991342298686504,-0.009561547078192234,0.10266326367855072
1782845344491519500,6.78951953125,-0.044857751578092575,-0.0044349622912704945,0.09905201196670532
1782845344501523200,6.799523193359375,-0.08862893283367157,0.007996940053999424,0.09132591634988785
1782845344511528400,6.809528564453125,-0.12459146231412888,0.01733584702014923,0.07728173583745956
1782845344521532400,6.819532470703125,-0.1552705466747284,0.01691373623907566,0.07484068721532822
1782845344531537400,6.829537353515625,-0.17834363877773285,0.012327239848673344,0.0714624673128128
1782845344541541400,6.839541259765625,-0.18547213077545166,0.008166050538420677,0.07218551635742188
1782845344551545300,6.84954541015625,-0.18967539072036743,-0.0020841897930949926,0.07873129844665527
1782845344561550300,6.85955029296875,-0.18713925778865814,-0.0013941648649051785,0.07180894166231155
1782845344571554300,6.86955419921875,-0.17207002639770508,-0.011150388978421688,0.0482703261077404
1782845344581559300,6.879559326171875,-0.1599782109260559,-0.03692632541060448,-0.009678459726274014
1782845344591563500,6.8895634765625,-0.14391589164733887,-0.07953424006700516,-0.042628154158592224
1782845344601568500,6.899568603515625,-0.11473590135574341,-0.10890890657901764,-0.05650615319609642
1782845344611572200,6.909572265625,-0.07879840582609177,-0.10974141210317612,-0.059314191341400146
1782845344621577200,6.9195771484375,-0.04903518781065941,-0.09303753077983856,-0.0766897201538086
1782845344631581200,6.929581298828125,-0.017014402896165848,-0.0813361331820488,-0.10972756147384644
1782845344641585400,6.93958544921875,0.010819624178111553,-0.08680307120084763,-0.12909913063049316
1782845344651590400,6.94959033203125,0.0366661362349987,-0.09339359402656555,-0.1366499960422516
1782845344661594400,6.959594482421875,0.04783783107995987,-0.09196028113365173,-0.1424596756696701
1782845344671599000,6.96959912109375,0.0512717105448246,-0.10076230019330978,-0.1089366003870964
1782845344681603000,6.97960302734375,0.053476542234420776,-0.09838356077671051,-0.06748902797698975
1782845344691608000,6.989608154296875,0.04711105301976204,-0.09284312278032303,-0.027582891285419464
1782845344701612300,6.9996123046875,0.028742965310811996,-0.0943821594119072,0.022294120863080025
1782845344711617300,7.0096171875,0.012589827179908752,-0.08721213042736053,0.06521309167146683
1782845344721621200,7.019621337890625,-0.004245611373335123,-0.07775790989398956,0.09413528442382812
1782845344731626200,7.029626220703125,-0.022654712200164795,-0.06330839544534683,0.1097419410943985
1782845344741630000,7.0396298828125,-0.03386129438877106,-0.05023946985602379,0.10675147920846939
1782845344751634200,7.04963427734375,-0.03976632282137871,-0.0242542065680027,0.10770036280155182
1782845344761639200,7.05963916015625,-0.04851800203323364,0.0067846691235899925,0.10944207012653351
1782845344771643100,7.06964306640625,-0.06309720873832703,0.02959624119102955,0.11213026940822601
1782845344781648100,7.079648193359375,-0.07256101816892624,0.0410212017595768,0.11046312749385834
1782845344791652000,7.089652099609375,-0.07804606854915619,0.04753023386001587,0.10488966107368469
1782845344801657000,7.099656982421875,-0.08898074179887772,0.04740320146083832,0.09130781143903732
1782845344811661300,7.109661376953125,-0.09451904892921448,0.040580980479717255,0.08679428696632385
1782845344821666300,7.119666259765625,-0.10903380811214447,0.02347017265856266,0.08086501806974411
1782845344831670300,7.129670166015625,-0.13065814971923828,0.016826650127768517,0.07226993888616562
1782845344841674000,7.139674072265625,-0.15091201663017273,0.014347780495882034,0.04434988647699356
1782845344851679000,7.149678955078125,-0.16683000326156616,0.01381248515099287,0.016944095492362976
1782845344861683200,7.15968310546875,-0.17498619854450226,0.015632223337888718,-0.0043625240214169025
1782845344871688200,7.169688232421875,-0.17842885851860046,0.009735185652971268,-0.018993131816387177
1782845344881692200,7.179692138671875,-0.16926519572734833,0.0075726984068751335,-0.027762122452259064
1782845344891697200,7.189697265625,-0.1546982377767563,-0.000029294771593413316,-0.027465445920825005
1782845344901701000,7.199701171875,-0.1303928941488266,-0.007724232506006956,-0.026139991357922554
1782845344911706000,7.2097060546875,-0.10711633414030075,-0.009043562225997448,-0.028435369953513145
1782845344921710300,7.21971044921875,-0.08288875967264175,-0.005366535857319832,-0.03472975268959999
1782845344931715300,7.22971533203125,-0.06792152673006058,-0.007495999336242676,-0.03983423113822937
1782845344941719000,7.239718994140625,-0.06708023697137833,0.00013635384675581008,-0.04285905137658119
1782845344951723000,7.249722900390625,-0.07118043303489685,0.01233203336596489,-0.051106858998537064
1782845344961728000,7.25972802734375,-0.08033052831888199,0.015295066870748997,-0.05450452119112015
1782845344971732200,7.269732177734375,-0.1004328653216362,0.011109642684459686,-0.04928499087691307
1782845344981737200,7.2797373046875,-0.11715538799762726,0.010712831281125546,-0.061769623309373856
1782845344991741200,7.2897412109375,-0.1388835906982422,-0.005420331843197346,-0.06543413549661636
1782845345001746200,7.29974609375,-0.15437784790992737,-0.022120481356978416,-0.0660136342048645
1782845345011750100,7.309750244140625,-0.1654968112707138,-0.04500129818916321,-0.06205831095576286
1782845345021755100,7.319755126953125,-0.16949263215065002,-0.06088545545935631,-0.06552627682685852
1782845345031759400,7.32975927734375,-0.16888223588466644,-0.058693405240774155,-0.056593772023916245
1782845345041763000,7.33976318359375,-0.1629689484834671,-0.039979640394449234,-0.054972704499959946
1782845345051768000,7.34976806640625,-0.15768229961395264,-0.032288432121276855,-0.05590534210205078
1782845345061772000,7.35977197265625,-0.148686945438385,-0.03659423068165779,-0.03903688117861748
1782845345071777000,7.369777099609375,-0.13945668935775757,-0.03686746954917908,0.003228017594665289
1782845345081781200,7.37978125,-0.1324872076511383,-0.021377993747591972,0.03924167901277542
1782845345091786200,7.3897861328125,-0.12618163228034973,-0.008595352061092854,0.03945712745189667
1782845345101790200,7.399790283203125,-0.11093876510858536,-0.008082161657512188,0.03202291578054428
1782845345111795200,7.409795166015625,-0.08501981943845749,-0.011501393280923367,0.028110463172197342
1782845345121799200,7.419799072265625,-0.054557252675294876,-0.02972087822854519,0.025788987055420876
1782845345131804200,7.42980419921875,-0.022127140313386917,-0.04663514718413353,0.012520851567387581
1782845345141808400,7.439808349609375,0.01005236804485321,-0.05860365927219391,-0.008360727690160275
1782845345151812000,7.44981201171875,0.03599049150943756,-0.061778146773576736,-0.03650874271988869
1782845345161817000,7.459817138671875,0.056287508457899094,-0.07197751849889755,-0.05506671592593193
1782845345171821000,7.469821044921875,0.06996949762105942,-0.08106981962919235,-0.07298365980386734
1782845345181826000,7.479825927734375,0.07130933552980423,-0.0931943953037262,-0.08324935287237167
1782845345191830300,7.489830322265625,0.05717886611819267,-0.10181717574596405,-0.09434168040752411
1782845345201835300,7.499835205078125,0.037276264280080795,-0.10901569575071335,-0.09752309322357178
1782845345211839200,7.509839111328125,0.008794290944933891,-0.10656958818435669,-0.09139729291200638
1782845345221844200,7.51984423828125,-0.014635934494435787,-0.10780076682567596,-0.07858189195394516
1782845345231848200,7.52984814453125,-0.037279993295669556,-0.10710008442401886,-0.05802148953080177
1782845345241852200,7.53985205078125,-0.05498655140399933,-0.09377282857894897,-0.03455717861652374
1782845345251857400,7.549857421875,-0.06648848205804825,-0.07723859697580338,-0.01871616393327713
1782845345261861000,7.559861083984375,-0.06090835854411125,-0.06330893188714981,0.0018458369886502624
1782845345271866000,7.5698662109375,-0.042697928845882416,-0.05715809389948845,0.016027169302105904
1782845345281870000,7.5798701171875,-0.0170330461114645,-0.05326135829091072,0.02231675758957863
1782845345291875000,7.589875,0.001026382320560515,-0.05538443103432655,0.019649334251880646
1782845345301879000,7.599879150390625,0.01599760912358761,-0.05784226208925247,0.007987885735929012
1782845345311884300,7.60988427734375,0.025192970409989357,-0.06048464775085449,0.005688512232154608
1782845345321888300,7.61988818359375,0.027126159518957138,-0.05682013928890228,0.0017699368763715029
1782845345331893200,7.629893310546875,0.029653498902916908,-0.04771958664059639,-0.013175190426409245
1782845345341897200,7.639897216796875,0.020867997780442238,-0.038236334919929504,-0.03731781244277954
1782845345351901000,7.64990087890625,0.015174691565334797,-0.018311096355319023,-0.06715267151594162
1782845345361906200,7.65990625,-0.004545749630779028,0.00424374733120203,-0.13300038874149323
1782845345371910100,7.66991015625,-0.0460340715944767,0.04193999245762825,-0.23906850814819336
1782845345381915100,7.6799150390625,-0.10693497210741043,0.06604000180959702,-0.36251214146614075
1782845345391919000,7.689919189453125,-0.16371889412403107,0.05523981899023056,-0.49115267395973206
1782845345401924000,7.699924072265625,-0.2021821290254593,-0.0044381581246852875,-0.5788761377334595
1782845345411928000,7.709927978515625,-0.2222333401441574,-0.0667494684457779,-0.6065908670425415
1782845345421933000,7.71993310546875,-0.2276691198348999,-0.1340656578540802,-0.5789845585823059
1782845345431937300,7.729937255859375,-0.21005842089653015,-0.18466758728027344,-0.5091553926467896
1782845345441941200,7.739941162109375,-0.1634877324104309,-0.1817152053117752,-0.40693554282188416
1782845345451946200,7.7499462890625,-0.09200236201286316,-0.14118988811969757,-0.3003603518009186
1782845345461950000,7.759949951171875,-0.005514607764780521,-0.11084582656621933,-0.1795138269662857
1782845345471955000,7.769954833984375,0.07928656786680222,-0.11212733387947083,-0.06534039229154587
1782845345481959200,7.779959228515625,0.14984196424484253,-0.10779330879449844,0.040112532675266266
1782845345491964200,7.789964111328125,0.21410642564296722,-0.1030997559428215,0.13397137820720673
1782845345501968100,7.799968017578125,0.2786974012851715,-0.06725893169641495,0.21423320472240448
1782845345511973000,7.80997314453125,0.33110949397087097,-0.032217059284448624,0.2760896384716034
1782845345521977000,7.81997705078125,0.3426167368888855,0.0017670074012130499,0.30986759066581726
1782845345531982000,7.829982177734375,0.3225431740283966,0.029499568045139313,0.3010626435279846
1782845345541986300,7.839986328125,0.2894824147224426,0.0604281909763813,0.25121864676475525
1782845345551990300,7.849990234375,0.25720009207725525,0.08151909708976746,0.19661878049373627
1782845345561995300,7.859995361328125,0.21334795653820038,0.07973664253950119,0.1473284661769867
1782845345571999000,7.8699990234375,0.16784732043743134,0.06556862592697144,0.10540471971035004
1782845345582004000,7.88000390625,0.12667885422706604,0.07009812444448471,0.06889916956424713
1782845345592008200,7.89000830078125,0.11142266541719437,0.0795704573392868,0.01714196801185608
1782845345602013200,7.90001318359375,0.1155921071767807,0.08823611587285995,-0.049614157527685165
1782845345612017200,7.91001708984375,0.11996795237064362,0.07630675286054611,-0.0993814468383789
1782845345622022100,7.920022216796875,0.11667228490114212,0.04926581680774689,-0.12760350108146667
1782845345632026000,7.930026123046875,0.1045176237821579,0.018087390810251236,-0.12966717779636383
1782845345642030300,7.9400302734375,0.079610675573349,-0.020601946860551834,-0.10273943096399307
1782845345652035300,7.950035400390625,0.04730546474456787,-0.05265495553612709,-0.04983360320329666
1782845345662039300,7.960039306640625,0.014032195322215557,-0.056061405688524246,0.019207783043384552
1782845345672044800,7.970044921875,-0.016447948291897774,-0.05385444313287735,0.09211421757936478
1782845345682048500,7.980048583984375,-0.03743632137775421,-0.04110908508300781,0.14796122908592224
1782845345692053500,7.990053466796875,-0.06653694808483124,-0.019062373787164688,0.18548063933849335
1782845345702057700,8.0000576171875,-0.097394198179245,0.0008711199625395238,0.1978749930858612
1782845345712062700,8.010062744140624,-0.11994531005620956,0.014726747758686543,0.19060483574867249
1782845345722066700,8.020066650390625,-0.13145975768566132,0.01798619143664837,0.16472876071929932
1782845345732071700,8.03007177734375,-0.1307995617389679,0.022964172065258026,0.1183500811457634
1782845345742075600,8.04007568359375,-0.11674179881811142,0.030119286850094795,0.05654903128743172
1782845345752079600,8.05007958984375,-0.09930714219808578,0.042204711586236954,-0.002801911672577262
1782845345762084600,8.060084716796876,-0.07812196761369705,0.050226952880620956,-0.05567018687725067
1782845345772088800,8.0700888671875,-0.042023882269859314,0.0509827584028244,-0.09876839071512222
1782845345782093800,8.08009375,-0.014814898371696472,0.04448970407247543,-0.12697924673557281
1782845345792097500,8.09009765625,0.010597516782581806,0.03301307559013367,-0.13950011134147644
1782845345802102500,8.1001025390625,0.03749384731054306,0.012324577197432518,-0.14923769235610962
1782845345812106500,8.1101064453125,0.06594040244817734,-0.011514709331095219,-0.16575221717357635
1782845345822111500,8.120111572265625,0.09072989970445633,-0.03298884257674217,-0.18528224527835846
1782845345832115700,8.13011572265625,0.10891156643629074,-0.059962667524814606,-0.18428249657154083
1782845345842120700,8.14012060546875,0.12590201199054718,-0.0765208750963211,-0.15276478230953217
1782845345852124700,8.150124755859375,0.12974362075328827,-0.08252204209566116,-0.10811927914619446
1782845345862128600,8.160128662109376,0.11268606781959534,-0.07429047673940659,-0.04914490878582001
1782845345872133600,8.170133544921875,0.08816021680831909,-0.059779975563287735,0.019586484879255295
1782845345882137900,8.180137939453125,0.05688858404755592,-0.031076159328222275,0.08570878207683563
1782845345892142800,8.190142822265624,0.022885341197252274,-0.006394516211003065,0.1310453712940216
1782845345902146600,8.200146484375,-0.009493903256952763,0.017469804733991623,0.15495948493480682
1782845345912151600,8.210151611328126,-0.03724244236946106,0.03501710668206215,0.1582636684179306
1782845345922155500,8.220155517578124,-0.042924828827381134,0.06057785823941231,0.1457236409187317
1782845345932160500,8.230160400390625,-0.04391153156757355,0.08246957510709763,0.11633672565221786
1782845345942164700,8.240164794921874,-0.03948589041829109,0.07975342124700546,0.07241667807102203
1782845345952169700,8.250169677734375,-0.018193118274211884,0.07600342482328415,0.03531644493341446
1782845345962173700,8.260173583984376,0.013940316624939442,0.06531216204166412,-0.010546118021011353
1782845345972177700,8.270177734375,0.05411276966333389,0.04613526910543442,-0.052922070026397705
1782845345982182700,8.2801826171875,0.10285687446594238,0.02539270743727684,-0.07674431055784225
1782845345992187000,8.290186767578126,0.1473364531993866,0.010118946433067322,-0.09977160394191742
1782845346002192000,8.30019189453125,0.18471817672252655,0.004853877238929272,-0.13223473727703094
1782845346012195600,8.310195556640625,0.21523721516132355,0.007951666601002216,-0.1738026887178421
1782845346022200600,8.32020068359375,0.24014975130558014,0.008163121528923512,-0.20703068375587463
1782845346032204500,8.33020458984375,0.26063159108161926,0.007153250742703676,-0.22856047749519348
1782845346042209500,8.34020947265625,0.27454155683517456,0.005224855616688728,-0.23804372549057007
1782845346052213800,8.3502138671875,0.2747543454170227,-0.015803996473550797,-0.2267250269651413
1782845346062217700,8.3602177734375,0.27555540204048157,-0.03506344556808472,-0.20412437617778778
1782845346072222700,8.37022265625,0.266324907541275,-0.0450817234814167,-0.16281341016292572
1782845346082226700,8.380226806640625,0.25502216815948486,-0.03982198238372803,-0.11463576555252075
1782845346092231700,8.390231689453126,0.23140525817871094,-0.030899858102202415,-0.05985933914780617
1782845346102235600,8.400235595703125,0.19888220727443695,-0.02418762817978859,-0.015103052370250225
1782845346112240600,8.41024072265625,0.1642770916223526,-0.008799084462225437,0.029806097969412804
1782845346122244600,8.42024462890625,0.13975417613983154,-0.00040986048406921327,0.05766303092241287
1782845346132249600,8.43024951171875,0.12357573211193085,0.0017891116440296173,0.07179082930088043
1782845346142253600,8.440253662109376,0.11181441694498062,0.000565122754778713,0.07197964936494827
1782845346152258600,8.450258544921875,0.11443256586790085,-0.0049436260014772415,0.046966709196567535
1782845346162262800,8.4602626953125,0.11962573230266571,-0.01185239851474762,0.013727263547480106
1782845346172266800,8.470266845703126,0.13495169579982758,-0.008376440964639187,-0.022434735670685768
1782845346182271700,8.480271728515625,0.1561102420091629,-0.006060555577278137,-0.05121711641550064
1782845346192275700,8.490275634765625,0.17641711235046387,-0.0043867588974535465,-0.05824652686715126
1782845346202280700,8.50028076171875,0.19507041573524475,-0.009273393079638481,-0.05487789586186409
1782845346212284700,8.51028466796875,0.2090671956539154,-0.010367685928940773,-0.0421740859746933
1782845346222289700,8.52028955078125,0.21579700708389282,0.004779575392603874,-0.02172713354229927
1782845346232293600,8.530293701171875,0.2300979197025299,0.024586569517850876,-0.012374910525977612
1782845346242298600,8.540298583984375,0.24432797729969025,0.03711940348148346,-0.008493619970977306
1782845346252302600,8.550302490234374,0.2607487738132477,0.04482819139957428,0.009491772390902042
1782845346262307600,8.5603076171875,0.26542767882347107,0.05744704604148865,0.030788272619247437
1782845346272311800,8.570311767578126,0.26453444361686707,0.06753909587860107,0.05079846456646919
1782845346282315800,8.580315673828125,0.257850706577301,0.07353892922401428,0.0722305178642273
1782845346292320800,8.59032080078125,0.26442551612854004,0.08221817016601562,0.08679801225662231
1782845346302324700,8.60032470703125,0.2706940770149231,0.07978084683418274,0.09010965377092361
1782845346312329700,8.610329833984375,0.27940288186073303,0.07168004661798477,0.08392685651779175
1782845346322333700,8.620333740234376,0.28238028287887573,0.0655321404337883,0.08153241127729416
1782845346332338700,8.630338623046875,0.2738184928894043,0.10618449002504349,0.09399121254682541
1782845346342342700,8.6403427734375,0.24644573032855988,0.14999988675117493,0.10481323301792145
1782845346352347600,8.65034765625,0.22642914950847626,0.16911259293556213,0.0956980288028717
1782845346362351600,8.6603515625,0.18844901025295258,0.2068522423505783,0.13342143595218658
1782845346372356600,8.670356689453126,0.17002418637275696,0.11458490043878555,0.08974853157997131
1782845346382360600,8.680360595703124,0.16726729273796082,0.044440966099500656,0.044307809323072433
1782845346392364800,8.69036474609375,0.17276565730571747,-0.022215556353330612,0.0011494202772155404
1782845346402369800,8.700369873046874,0.1805572658777237,-0.04752837121486664,-0.02588379569351673
1782845346412373800,8.710373779296875,0.1840880811214447,-0.021266939118504524,-0.040048349648714066
1782845346422378800,8.720378662109376,0.18747802078723907,0.00968405231833458,-0.0571218766272068
1782845346432382500,8.730382568359374,0.19003784656524658,0.04361831769347191,-0.054244596511125565
1782845346442387500,8.740387451171875,0.1929825097322464,0.06972954422235489,-0.0342828705906868
1782845346452391700,8.7503916015625,0.20210888981819153,0.09060819447040558,0.0031342741567641497
