time,seconds_elapsed,z,y,x
1782846951353367000,0.065366943359375,-0.019824571907520294,-0.9907430410385132,0.30339184403419495
1782846951363372000,0.0753720703125,-0.008594552986323833,-1.0755610466003418,0.24445661902427673
1782846951373377000,0.085376953125,-0.023557789623737335,-1.052009105682373,0.2212812602519989
1782846951383382000,0.095382080078125,-0.053403303027153015,-0.972149133682251,0.216624453663826
1782846951393387000,0.105386962890625,-0.0834972932934761,-0.8108816742897034,0.22884143888950348
1782846951403393300,0.115393310546875,-0.10544626414775848,-0.6132620573043823,0.2742648422718048
1782846951413398300,0.125398193359375,-0.1069008857011795,-0.4477817714214325,0.3474471867084503
1782846951423403300,0.1354033203125,-0.08868219703435898,-0.3592841327190399,0.4419611692428589
1782846951433408300,0.145408203125,-0.0549740344285965,-0.3289552628993988,0.5242624282836914
1782846951443413200,0.155413330078125,-0.03927896171808243,-0.32937949895858765,0.5619882345199585
1782846951453418200,0.165418212890625,-0.05294550582766533,-0.28491348028182983,0.531535804271698
1782846951463423200,0.17542333984375,-0.07835739105939865,-0.19373059272766113,0.44188687205314636
1782846951473429200,0.18542919921875,-0.12440184503793716,-0.11895088851451874,0.3170945942401886
1782846951483434200,0.195434326171875,-0.17799609899520874,-0.10337565839290619,0.1855863779783249
1782846951493439200,0.205439208984375,-0.21480311453342438,-0.17442452907562256,0.04423803463578224
1782846951503444200,0.2154443359375,-0.2414749413728714,-0.2856155037879944,-0.1260404884815216
1782846951513449200,0.22544921875,-0.2491786628961563,-0.36596599221229553,-0.29692327976226807
1782846951523454200,0.2354541015625,-0.21780848503112793,-0.37118953466415405,-0.4525962471961975
1782846951533459200,0.245459228515625,-0.14910559356212616,-0.3274172842502594,-0.5665965676307678
1782846951543465200,0.25546533203125,-0.04578453302383423,-0.2726392447948456,-0.6262713670730591
1782846951553470200,0.26547021484375,0.07705643773078918,-0.2515166401863098,-0.6493324637413025
1782846951563475200,0.27547509765625,0.18653632700443268,-0.2248658686876297,-0.6500387191772461
1782846951573480200,0.285480224609375,0.24908891320228577,-0.19939060509204865,-0.629644513130188
1782846951583485200,0.295485107421875,0.26762452721595764,-0.19558733701705933,-0.5942167639732361
1782846951593490200,0.305490234375,0.2620348036289215,-0.16015638411045074,-0.550662636756897
1782846951603495200,0.3154951171875,0.2359776496887207,-0.11296410113573074,-0.48213547468185425
1782846951613501200,0.325501220703125,0.19238649308681488,-0.09222926199436188,-0.39969971776008606
1782846951623506400,0.33550634765625,0.13628460466861725,-0.10490511357784271,-0.323409765958786
1782846951633511400,0.345511474609375,0.06731219589710236,-0.0012825783342123032,-0.23856091499328613
1782846951643516400,0.355516357421875,-0.08043146133422852,0.23963603377342224,-0.09370145946741104
1782846951653521400,0.365521484375,-0.3051753640174866,0.5953621864318848,0.15359142422676086
1782846951663526400,0.3755263671875,-0.6059117317199707,0.8326849937438965,0.4264623820781708
1782846951673531400,0.385531494140625,-0.8536168932914734,1.0197728872299194,0.5743639469146729
1782846951683537200,0.395537109375,-0.8771374225616455,1.1410555839538574,0.5418254733085632
1782846951693542100,0.405542236328125,-0.6162490844726562,1.0827635526657104,0.3549572825431824
1782846951703547100,0.415547119140625,-0.12091949582099915,0.4657149612903595,0.03050118312239647
1782846951713552100,0.42555224609375,0.3563738167285919,-0.24609819054603577,-0.42354726791381836
1782846951723557000,0.43555712890625,0.5346500873565674,-0.6756354570388794,-0.9499706029891968
1782846951733562000,0.44556201171875,0.3416699767112732,-0.9878622889518738,-1.4483736753463745
1782846951743567000,0.455567138671875,0.04565829783678055,-0.9980840682983398,-1.79450261592865
1782846951753573000,0.465572998046875,-0.17418457567691803,-0.8440390825271606,-1.9352754354476929
1782846951763578000,0.475578125,-0.2750142514705658,-0.7356793284416199,-1.9390952587127686
1782846951773583000,0.4855830078125,-0.23209474980831146,-0.6967644095420837,-1.7638965845108032
1782846951783588000,0.495588134765625,-0.12459146231412888,-0.637932538986206,-1.3731580972671509
1782846951793593000,0.505593017578125,-0.06261970847845078,-0.40263667702674866,-0.8436569571495056
1782846951803598000,0.51559814453125,-0.039330095052719116,-0.09230835735797882,-0.3951859474182129
1782846951813603000,0.52560302734375,0.0508570559322834,0.11274652183055878,-0.21809744834899902
1782846951823609000,0.535609130859375,0.2542344033718109,0.156683087348938,-0.2847558259963989
1782846951833614000,0.545614013671875,0.524523138999939,0.10825323313474655,-0.4242631196975708
1782846951843619000,0.555619140625,0.7385238409042358,0.065069280564785,-0.47294092178344727
1782846951853624000,0.5656240234375,0.7631825804710388,0.09544369578361511,-0.3865072429180145
1782846951863629000,0.575629150390625,0.6217032074928284,0.19263309240341187,-0.1884671151638031
1782846951873634000,0.585634033203125,0.4185408055782318,0.25665441155433655,0.0909394919872284
1782846951883639000,0.59563916015625,0.23825624585151672,0.24971263110637665,0.38539350032806396
1782846951893645300,0.605645263671875,0.08909206092357635,0.21497541666030884,0.673280656337738
1782846951903650300,0.615650390625,-0.049665555357933044,0.1671258807182312,0.8871748447418213
1782846951913655300,0.6256552734375,-0.17134858667850494,0.1515360027551651,0.9944406151771545
1782846951923660300,0.635660400390625,-0.283624529838562,0.1613803654909134,0.9848513603210449
1782846951933665300,0.645665283203125,-0.4017695486545563,0.21694429218769073,0.8866690993309021
1782846951943670300,0.655670166015625,-0.5151411294937134,0.28706425428390503,0.7476374506950378
1782846951953675300,0.66567529296875,-0.6298226714134216,0.33778682351112366,0.6132354736328125
1782846951963680300,0.67568017578125,-0.6823385953903198,0.30438971519470215,0.48840615153312683
1782846951973686500,0.6856865234375,-0.7052921652793884,0.15969938039779663,0.39300480484962463
1782846951983691500,0.69569140625,-0.7152648568153381,-0.05468028783798218,0.32989534735679626
1782846951993696500,0.705696533203125,-0.7179543972015381,-0.2397255152463913,0.2555833160877228
1782846952003701500,0.715701416015625,-0.7198897004127502,-0.30390849709510803,0.1429784595966339
1782846952013706500,0.72570654296875,-0.7153578400611877,-0.24077825248241425,-0.014949388802051544
1782846952023711500,0.73571142578125,-0.7013086080551147,-0.13175217807292938,-0.188362717628479
1782846952033716500,0.745716552734375,-0.6409174203872681,-0.06765308231115341,-0.34235095977783203
1782846952043722800,0.75572265625,-0.5497310161590576,-0.027333619073033333,-0.4580341577529907
1782846952053727700,0.765727783203125,-0.46175163984298706,0.031567513942718506,-0.5125248432159424
1782846952063732700,0.775732666015625,-0.38763266801834106,0.07802848517894745,-0.48804131150245667
1782846952073737700,0.78573779296875,-0.3010280132293701,0.04964345321059227,-0.3801819682121277
1782846952083742700,0.79574267578125,-0.20350810885429382,-0.030401581898331642,-0.24517087638378143
1782846952093747700,0.805747802734375,-0.1230420395731926,-0.04433257877826691,-0.12033279985189438
1782846952103752700,0.815752685546875,-0.11662967503070831,0.052074119448661804,0.011197526939213276
1782846952113758500,0.825758544921875,-0.1925034075975418,0.1873650997877121,0.14714790880680084
1782846952123763500,0.835763427734375,-0.34969809651374817,0.28021034598350525,0.2479000836610794
1782846952133768400,0.8457685546875,-0.5210671424865723,0.4311516582965851,0.27540627121925354
1782846952143773400,0.8557734375,-0.6468560099601746,0.6796560287475586,0.22138671576976776
1782846952153778400,0.8657783203125,-0.6552193760871887,0.8907783627510071,0.1239488422870636
1782846952163783400,0.875783447265625,-0.5333722829818726,0.954287052154541,0.059477973729372025
1782846952173788700,0.88578857421875,-0.31919342279434204,0.817252516746521,0.13425074517726898
1782846952183794400,0.89579443359375,-0.074287548661232,0.48852306604385376,0.4158933460712433
1782846952193799400,0.90579931640625,0.15945303440093994,0.06814123690128326,0.8057529926300049
1782846952203804400,0.915804443359375,0.34323832392692566,-0.3127712309360504,1.1060638427734375
1782846952213809400,0.925809326171875,0.5148369669914246,-0.4980334937572479,1.1384565830230713
1782846952223814400,0.935814453125,0.6664307713508606,-0.4556410312652588,0.9158885478973389
1782846952233819400,0.9458193359375,0.755844235420227,-0.26908713579177856,0.5240488648414612
1782846952243824400,0.955824462890625,0.8186975121498108,0.08192096650600433,0.21407634019851685
1782846952253830400,0.965830322265625,0.8123850226402283,0.3476370573043823,0.08249381184577942
1782846952263835400,0.97583544921875,0.7118757367134094,0.513087272644043,0.10088054090738297
1782846952273840400,0.98584033203125,0.5774649381637573,0.5068983435630798,0.2261367291212082
1782846952283845400,0.995845458984375,0.47649091482162476,0.2804409861564636,0.3950573205947876
1782846952293850400,1.005850341796875,0.4005306363105774,-0.0626806914806366,0.5729889869689941
1782846952303855400,1.01585546875,0.3293920159339905,-0.3800559937953949,0.7270227074623108
1782846952313860400,1.0258603515625,0.3147139847278595,-0.6064773797988892,0.8650761842727661
1782846952323866600,1.03586669921875,0.30723291635513306,-0.7127218246459961,0.9643247723579407
1782846952333871600,1.04587158203125,0.2770955264568329,-0.635767936706543,1.0170825719833374
1782846952343876600,1.055876708984375,0.2707175016403198,-0.5785983800888062,0.9562838673591614
1782846952353881600,1.065881591796875,0.28880223631858826,-0.5577018857002258,0.8251445293426514
1782846952363886600,1.075886474609375,0.28571510314941406,-0.5406875014305115,0.6791771650314331
1782846952373891600,1.0858916015625,0.22799162566661835,-0.5092083811759949,0.530569851398468
1782846952383896600,1.095896484375,0.11743954569101334,-0.4896456003189087,0.3953140377998352
1782846952393901600,1.105901611328125,-0.01468493603169918,-0.5094627141952515,0.3149651288986206
1782846952403907600,1.115907470703125,-0.15124838054180145,-0.5860466957092285,0.30908408761024475
1782846952413912600,1.12591259765625,-0.2886600196361542,-0.6159766316413879,0.3491523861885071
1782846952423917600,1.13591748046875,-0.41396522521972656,-0.49444007873535156,0.4211525619029999
1782846952433922600,1.145922607421875,-0.5002779960632324,-0.3510509729385376,0.4772834777832031
1782846952443927600,1.155927490234375,-0.5375092625617981,-0.24665452539920807,0.4772118330001831
1782846952453932500,1.1659326171875,-0.5308383107185364,-0.1704321950674057,0.4308805465698242
1782846952463937500,1.1759375,-0.4882242679595947,-0.1292027235031128,0.3449091911315918
1782846952473943600,1.185943603515625,-0.4344867467880249,-0.14068734645843506,0.2307400107383728
1782846952483948500,1.195948486328125,-0.3825039565563202,-0.2068740874528885,0.0898132398724556
1782846952493953500,1.20595361328125,-0.32135459780693054,-0.2987118661403656,-0.04727590084075928
1782846952503958500,1.21595849609375,-0.25897297263145447,-0.3958565294742584,-0.1566375494003296
1782846952513963500,1.225963623046875,-0.2093241959810257,-0.4716394245624542,-0.2228836715221405
1782846952523968500,1.235968505859375,-0.16899222135543823,-0.5287996530532837,-0.23001402616500854
1782846952533973500,1.245973388671875,-0.13605424761772156,-0.578088641166687,-0.18325024843215942
1782846952543978500,1.255978515625,-0.12050830572843552,-0.5796180963516235,-0.08829710632562637
1782846952553984800,1.26598486328125,-0.10421694815158844,-0.5241116881370544,0.04104756936430931
1782846952563989800,1.27598974609375,-0.0821065902709961,-0.4270309507846832,0.17321465909481049
1782846952573994800,1.285994873046875,-0.0854608416557312,-0.30830562114715576,0.29342761635780334
1782846952583999700,1.295999755859375,-0.1248396709561348,-0.17895697057247162,0.3890870213508606
1782846952594004700,1.306004638671875,-0.18543244898319244,-0.044138431549072266,0.49523690342903137
1782846952604009700,1.316009765625,-0.2433338314294815,0.1104964166879654,0.6462352275848389
1782846952614014700,1.3260146484375,-0.28194141387939453,0.30036887526512146,0.8122246861457825
1782846952624020500,1.3360205078125,-0.305329829454422,0.6810693740844727,0.9783332347869873
1782846952634025500,1.346025390625,-0.3508469760417938,1.2026917934417725,1.0342881679534912
1782846952644030500,1.356030517578125,-0.4389078617095947,1.6527851819992065,0.8766023516654968
1782846952654035500,1.366035400390625,-0.5073401927947998,1.703244686126709,0.5705103278160095
1782846952664040400,1.37604052734375,-0.46479564905166626,1.2355607748031616,0.21329203248023987
1782846952674045400,1.38604541015625,-0.33159950375556946,0.6406609416007996,-0.11453083902597427
1782846952684050400,1.396050537109375,-0.166245698928833,0.08585391938686371,-0.5664224028587341
1782846952694055700,1.4060556640625,-0.04851001128554344,-0.6094201803207397,-1.3541969060897827
1782846952704061400,1.4160615234375,-0.15227848291397095,-1.0534781217575073,-2.107464075088501
1782846952714066400,1.42606640625,-0.4219030439853668,-0.8309688568115234,-2.266136646270752
1782846952724071400,1.436071533203125,-0.5963081121444702,-0.3044123649597168,-1.918052315711975
1782846952734076400,1.446076416015625,-0.4806491732597351,0.0393599234521389,-1.1515476703643799
1782846952744081400,1.456081298828125,-0.15164971351623535,0.12904587388038635,-0.07568623870611191
1782846952754086400,1.46608642578125,0.22374068200588226,0.18069148063659668,1.0173310041427612
1782846952764091400,1.47609130859375,0.5293821096420288,0.35484251379966736,1.8305107355117798
1782846952774097400,1.486097412109375,0.7514364719390869,0.631291389465332,2.163973808288574
1782846952784102400,1.496102294921875,0.8668035268783569,0.9462160468101501,2.0158779621124268
1782846952794107400,1.506107421875,0.8347665071487427,1.0567470788955688,1.434413194656372
1782846952804112400,1.5161123046875,0.6904226541519165,0.9230537414550781,0.6320427060127258
1782846952814117400,1.526117431640625,0.48287397623062134,0.6455150842666626,-0.15157434344291687
1782846952824122400,1.536122314453125,0.29810813069343567,0.28104978799819946,-0.753001868724823
1782846952834127400,1.54612744140625,0.17225512862205505,-0.08812746405601501,-1.1311286687850952
1782846952844132400,1.55613232421875,0.10104592144489288,-0.3505348563194275,-1.3077445030212402
1782846952854138600,1.566138671875,0.06668262183666229,-0.4519141912460327,-1.3110380172729492
1782846952864143600,1.5761435546875,0.08784197270870209,-0.47229963541030884,-1.173445701599121
1782846952874148600,1.586148681640625,0.14246580004692078,-0.4751465618610382,-0.931495189666748
1782846952884153600,1.596153564453125,0.19983002543449402,-0.4896562397480011,-0.6328358054161072
1782846952894158600,1.60615869140625,0.23863068222999573,-0.5022450089454651,-0.3264518678188324
1782846952904163600,1.61616357421875,0.2463676929473877,-0.48662877082824707,-0.04874889552593231
1782846952914168600,1.62616845703125,0.21680554747581482,-0.4541270136833191,0.18496425449848175
1782846952924174600,1.636174560546875,0.15243268013000488,-0.3911097049713135,0.3823090195655823
1782846952934179600,1.6461796875,0.06865309923887253,-0.30753839015960693,0.5258067846298218
1782846952944184600,1.6561845703125,-0.024763936176896095,-0.21773365139961243,0.5938559174537659
1782846952954189600,1.666189453125,-0.11507625877857208,-0.13148079812526703,0.5784825086593628
1782846952964194600,1.676194580078125,-0.19206877052783966,-0.07662446796894073,0.471615731716156
1782846952974200300,1.686200439453125,-0.2481410950422287,-0.07957818359136581,0.27740418910980225
1782846952984205300,1.696205322265625,-0.27980849146842957,-0.07965648174285889,0.005666141398251057
1782846952994211000,1.706211181640625,-0.29747509956359863,-0.0614982470870018,-0.32887083292007446
1782846953004216300,1.71621630859375,-0.3002775311470032,-0.05807502195239067,-0.6582143902778625
1782846953014221300,1.72622119140625,-0.2731095552444458,-0.09219544380903244,-0.970208466053009
1782846953024226300,1.736226318359375,-0.21060730516910553,-0.16743560135364532,-1.2634224891662598
1782846953034231300,1.746231201171875,-0.13423104584217072,-0.23196318745613098,-1.5200634002685547
1782846953044236300,1.756236328125,-0.050879158079624176,-0.2554386854171753,-1.6721508502960205
1782846953054241300,1.7662412109375,0.04216982424259186,-0.24527554214000702,-1.6803110837936401
1782846953064246300,1.776246337890625,0.15377624332904816,-0.218063086271286,-1.5237630605697632
1782846953074252000,1.786251953125,0.26387664675712585,-0.1575549989938736,-1.1825034618377686
1782846953084257000,1.796257080078125,0.34175652265548706,-0.04477705806493759,-0.6729986667633057
1782846953094262000,1.806261962890625,0.3651002049446106,0.1423262506723404,-0.0892140343785286
1782846953104267000,1.81626708984375,0.32276207208633423,0.4315878748893738,0.43297672271728516
1782846953114272000,1.82627197265625,0.2305852770805359,0.7826244831085205,0.7898703813552856
1782846953124277000,1.836277099609375,0.11566774547100067,1.1318516731262207,0.9592176079750061
1782846953134282200,1.8462822265625,0.012630308046936989,1.4069533348083496,0.9752240180969238
1782846953144287200,1.856287353515625,-0.049195509403944016,1.536636233329773,0.8221122026443481
1782846953154293000,1.86629296875,-0.045520082116127014,1.4441635608673096,0.5333302021026611
1782846953164298000,1.876298095703125,-0.03466237336397171,1.1659317016601562,0.1741156131029129
1782846953174303000,1.886302978515625,-0.05644756183028221,0.8482562303543091,-0.16394472122192383
1782846953184308000,1.896307861328125,-0.13130316138267517,0.6218475699424744,-0.40085873007774353
1782846953194313000,1.90631298828125,-0.22103624045848846,0.5187597870826721,-0.4969131052494049
1782846953204318000,1.91631787109375,-0.28309935331344604,0.5061100721359253,-0.4986809194087982
1782846953214323000,1.926322998046875,-0.30163708329200745,0.515543520450592,-0.4820263087749481
1782846953224329200,1.9363291015625,-0.2750864326953888,0.5176458358764648,-0.443145215511322
1782846953234334200,1.946334228515625,-0.2310318797826767,0.41486668586730957,-0.35943540930747986
1782846953244339200,1.956339111328125,-0.1704052835702896,0.12094639241695404,-0.2162580043077469
1782846953254344200,1.96634423828125,-0.11566454917192459,-0.36261680722236633,-0.01411475334316492
1782846953264349200,1.97634912109375,-0.0666208416223526,-0.8588132262229919,0.23635874688625336
1782846953274354200,1.986354248046875,-0.0340714156627655,-1.2577813863754272,0.4805663526058197
1782846953284359200,1.996359130859375,-0.0017100156983360648,-1.5244351625442505,0.6329801082611084
1782846953294364200,2.0063642578125,0.07727827876806259,-1.6383684873580933,0.6608061790466309
1782846953304370200,2.0163701171875,0.2205590009689331,-1.6016119718551636,0.5770699977874756
1782846953314375200,2.026375244140625,0.4103696942329407,-1.3520914316177368,0.3893059492111206
1782846953324380200,2.036380126953125,0.5910228490829468,-0.8759517669677734,0.13648247718811035
1782846953334385200,2.04638525390625,0.7333333492279053,-0.2873678505420685,-0.0673617273569107
1782846953344390100,2.05639013671875,0.8187662363052368,0.27648618817329407,-0.15347078442573547
1782846953354395100,2.06639501953125,0.8553434014320374,0.601921021938324,-0.07603271305561066
1782846953364400000,2.076400146484375,0.8619997501373291,0.7044742703437805,0.1325649619102478
1782846953374406100,2.08640625,0.845790684223175,0.6326780915260315,0.4059147536754608
1782846953384411100,2.0964111328125,0.8163368701934814,0.42955589294433594,0.6815058588981628
1782846953394416000,2.106416015625,0.7559806108474731,0.21346993744373322,0.9181609749794006
1782846953404421000,2.116421142578125,0.698823869228363,0.013255883939564228,1.0961061716079712
1782846953414426000,2.126426025390625,0.642279326915741,-0.14868801832199097,1.2273821830749512
1782846953424431000,2.13643115234375,0.5790497660636902,-0.2119431495666504,1.2898062467575073
1782846953434436000,2.14643603515625,0.5099082589149475,-0.12540851533412933,1.272659182548523
1782846953444442000,2.156442138671875,0.418121874332428,0.05314471200108528,1.1897892951965332
1782846953454447000,2.166447021484375,0.3266090154647827,0.21809078752994537,1.071000099182129
1782846953464452400,2.176452392578125,0.2598922848701477,0.30418840050697327,0.9274777770042419
1782846953474457300,2.186457275390625,0.19758310914039612,0.2864096462726593,0.7697733640670776
1782846953484462300,2.19646240234375,0.13652828335762024,0.16457296907901764,0.5982674360275269
1782846953494467300,2.20646728515625,0.09076585620641708,-0.05378706380724907,0.4288347065448761
1782846953504472300,2.216472412109375,0.04607401788234711,-0.31091368198394775,0.25766322016716003
1782846953514477300,2.226477294921875,-0.009522398933768272,-0.5658745765686035,0.08482780307531357
1782846953524483300,2.2364833984375,-0.06551589071750641,-0.761591911315918,-0.08922814577817917
1782846953534488300,2.24648828125,-0.11610876023769379,-0.8492743372917175,-0.2502652406692505
1782846953544493300,2.256493408203125,-0.1474272757768631,-0.8265405297279358,-0.391927033662796
1782846953554498300,2.266498291015625,-0.1509423702955246,-0.7116847634315491,-0.5002588033676147
1782846953564503300,2.27650341796875,-0.1374199092388153,-0.5687268376350403,-0.5663856267929077
1782846953574508300,2.28650830078125,-0.12291606515645981,-0.41985905170440674,-0.5992804765701294
1782846953584513300,2.29651318359375,-0.10800982266664505,-0.302229642868042,-0.6237810254096985
1782846953594518300,2.306518310546875,-0.09855533391237259,-0.21701566874980927,-0.6085194945335388
1782846953604524000,2.31652392578125,-0.11170735955238342,-0.11473723500967026,-0.5515342950820923
1782846953614529000,2.326529052734375,-0.17193233966827393,-0.021287178620696068,-0.5216221809387207
1782846953624534000,2.336533935546875,-0.2598390281200409,0.1742037534713745,-0.6356549859046936
1782846953634539000,2.3465390625,-0.32130932807922363,0.5649992227554321,-0.9613324403762817
1782846953644544000,2.3565439453125,-0.27253857254981995,0.7755860090255737,-1.394690752029419
1782846953654549200,2.36654931640625,-0.11985183507204056,0.46703776717185974,-1.762891411781311
1782846953664554200,2.37655419921875,0.02749074622988701,-0.11070813983678818,-1.952231764793396
1782846953674560000,2.38656005859375,0.07673872262239456,-0.6510193347930908,-2.0219173431396484
1782846953684565000,2.39656494140625,0.022351644933223724,-1.119409441947937,-1.968048334121704
1782846953694570000,2.406570068359375,-0.06845203042030334,-1.4418729543685913,-1.7348555326461792
1782846953704575000,2.416574951171875,-0.17996737360954285,-1.4531303644180298,-1.3571043014526367
1782846953714580000,2.426580078125,-0.21896857023239136,-1.1519434452056885,-0.8918929100036621
1782846953724585000,2.4365849609375,-0.12463673949241638,-0.728044867515564,-0.36975595355033875
1782846953734590000,2.44658984375,0.09992846101522446,-0.28105831146240234,0.1904919147491455
1782846953744595000,2.456594970703125,0.3635406494140625,0.14666028320789337,0.7069105505943298
1782846953754601200,2.466601318359375,0.5847218036651611,0.49190130829811096,1.0592094659805298
1782846953764606200,2.476606201171875,0.7174204587936401,0.719684362411499,1.195260763168335
1782846953774611200,2.486611083984375,0.7413138151168823,0.7797900438308716,1.1319481134414673
1782846953784616200,2.4966162109375,0.6575877070426941,0.6709259152412415,0.9440267086029053
1782846953794621200,2.50662109375,0.49260249733924866,0.46551868319511414,0.6933848857879639
1782846953804626200,2.516626220703125,0.29579728841781616,0.22036539018154144,0.42967042326927185
1782846953814631200,2.526631103515625,0.1057373508810997,-0.07563670724630356,0.20474834740161896
1782846953824637200,2.53663720703125,-0.057006027549505234,-0.33746084570884705,0.014010624028742313
1782846953834642200,2.54664208984375,-0.1975112110376358,-0.4477540850639343,-0.12559200823307037
1782846953844647200,2.556647216796875,-0.31926026940345764,-0.41148367524147034,-0.16962231695652008
1782846953854652200,2.566652099609375,-0.42429614067077637,-0.32429444789886475,-0.11030573397874832
1782846953864657200,2.5766572265625,-0.4954259991645813,-0.23619762063026428,0.0036972665693610907
1782846953874662100,2.586662109375,-0.5389665365219116,-0.1563698947429657,0.13597728312015533
1782846953884667100,2.596667236328125,-0.5452052354812622,-0.10419031977653503,0.24359454214572906
1782846953894673200,2.606673095703125,-0.5281218886375427,-0.0726797953248024,0.31564557552337646
1782846953904678100,2.61667822265625,-0.48513659834861755,-0.0850784108042717,0.33674341440200806
1782846953914683100,2.62668310546875,-0.42911168932914734,-0.1432117521762848,0.3074907064437866
1782846953924688100,2.636688232421875,-0.3743040859699249,-0.19740894436836243,0.24109676480293274
1782846953934693000,2.646693115234375,-0.3215298354625702,-0.2317405492067337,0.1484382003545761
1782846953944698000,2.656697998046875,-0.28845417499542236,-0.2715774476528168,0.03665974363684654
1782846953954703000,2.666703125,-0.2779381275177002,-0.29596641659736633,-0.07182332128286362
1782846953964708000,2.6767080078125,-0.2867540121078491,-0.3092116415500641,-0.16506831347942352
1782846953974713000,2.686713134765625,-0.3050784170627594,-0.31747862696647644,-0.26543354988098145
1782846953984718000,2.696718017578125,-0.32518208026885986,-0.32841089367866516,-0.36635375022888184
1782846953994723000,2.70672314453125,-0.3518584370613098,-0.35477539896965027,-0.49204298853874207
1782846954004728000,2.71672802734375,-0.386285662651062,-0.3791038990020752,-0.5946926474571228
1782846954014733000,2.726733154296875,-0.4256564974784851,-0.4337272047996521,-0.6613273620605469
1782846954024738000,2.736738037109375,-0.4496643543243408,-0.5113546252250671,-0.6551357507705688
1782846954034743000,2.746742919921875,-0.4766522943973541,-0.62605220079422,-0.5817174911499023
1782846954044748000,2.756748046875,-0.5080943703651428,-0.7175477147102356,-0.5002622604370117
1782846954054754300,2.76675439453125,-0.5228655934333801,-0.7260528206825256,-0.4158816337585449
1782846954064759300,2.77675927734375,-0.5029403567314148,-0.6174957156181335,-0.3537870943546295
1782846954074764300,2.786764404296875,-0.41444697976112366,-0.3359617590904236,-0.3091602325439453
1782846954084769300,2.796769287109375,-0.2940124571323395,0.003626692807301879,-0.2361755222082138
1782846954094774300,2.806774169921875,-0.21093539893627167,0.29724952578544617,-0.12532569468021393
1782846954104779300,2.816779296875,-0.18513496220111847,0.5186266303062439,-0.0051995557732880116
1782846954114784300,2.8267841796875,-0.20144683122634888,0.6314024925231934,0.11982333660125732
1782846954124790300,2.836790283203125,-0.2448129504919052,0.6409861445426941,0.27086716890335083
1782846954134795300,2.846795166015625,-0.27960875630378723,0.6114231944084167,0.508756160736084
1782846954144800300,2.85680029296875,-0.29647988080978394,0.587881326675415,0.8011334538459778
1782846954154805200,2.86680517578125,-0.29133784770965576,0.5534416437149048,0.9938699007034302
1782846954164810200,2.876810302734375,-0.261138916015625,0.45293498039245605,0.9851666688919067
1782846954174815200,2.886815185546875,-0.2089633345603943,0.30414897203445435,0.8185100555419922
1782846954184820200,2.8968203125,-0.14018826186656952,0.1703384518623352,0.5820218920707703
1782846954194825200,2.9068251953125,-0.06710793077945709,0.07663165777921677,0.3349665403366089
1782846954204831200,2.916831298828125,-0.020057331770658493,-0.02671443484723568,0.09247400611639023
1782846954214836200,2.926836181640625,0.00031878036679700017,-0.13461986184120178,-0.09598378837108612
1782846954224841200,2.93684130859375,0.008678709156811237,-0.19825848937034607,-0.17963260412216187
1782846954234846200,2.94684619140625,0.0070459251292049885,-0.1945420503616333,-0.14049825072288513
1782846954244851200,2.956851318359375,0.0019491675775498152,-0.1169431284070015,-0.03684403374791145
1782846954254856200,2.966856201171875,0.011336278170347214,0.052436310797929764,0.11454974859952927
1782846954264861200,2.976861083984375,0.041488587856292725,0.27424299716949463,0.2335994392633438
1782846954274866200,2.9868662109375,0.11198059469461441,0.4725068211555481,0.27897918224334717
1782846954284872000,2.996871826171875,0.21738983690738678,0.5922670364379883,0.22712822258472443
1782846954294877000,3.006876953125,0.3701186776161194,0.6605435609817505,0.060798902064561844
1782846954304882200,3.016882080078125,0.5480082631111145,0.7038527131080627,-0.21034951508045197
1782846954314887200,3.02688720703125,0.6956599950790405,0.6802674531936646,-0.4857161045074463
1782846954324892200,3.03689208984375,0.8127642869949341,0.5186615586280823,-0.688215434551239
1782846954334897200,3.046897216796875,0.8839604258537292,0.2280142605304718,-0.8020410537719727
1782846954344902100,3.056902099609375,0.9189189076423645,-0.0848110243678093,-0.841163694858551
1782846954354908200,3.066908203125,0.9155628085136414,-0.31150516867637634,-0.8222134113311768
1782846954364913200,3.0769130859375,0.857464611530304,-0.35011619329452515,-0.7325277328491211
1782846954374918100,3.086918212890625,0.7683200836181641,-0.20059381425380707,-0.5374650359153748
1782846954384923100,3.096923095703125,0.6801249980926514,0.03904513642191887,-0.2711249887943268
1782846954394928000,3.10692822265625,0.5774250030517578,0.3132631182670593,0.025234516710042953
1782846954404933000,3.11693310546875,0.48350968956947327,0.5409641861915588,0.28156137466430664
1782846954414938000,3.126938232421875,0.4059871733188629,0.6785017848014832,0.4412913918495178
1782846954424943000,3.136943115234375,0.3523958623409271,0.7128272652626038,0.49916931986808777
1782846954434949000,3.14694921875,0.32225820422172546,0.634342610836029,0.4791189134120941
1782846954444954000,3.1569541015625,0.3045564293861389,0.4795413017272949,0.3802490532398224
1782846954454959000,3.166958984375,0.282731294631958,0.32454079389572144,0.22202427685260773
1782846954464964000,3.176964111328125,0.2556498944759369,0.17552867531776428,0.044137634336948395
1782846954474969000,3.186968994140625,0.22871147096157074,0.03804458677768707,-0.11807391047477722
1782846954484974000,3.19697412109375,0.20012909173965454,-0.05444113910198212,-0.2667006552219391
1782846954494979000,3.20697900390625,0.17676810920238495,-0.07954142987728119,-0.3784184157848358
1782846954504985000,3.216985107421875,0.15988607704639435,-0.055689360946416855,-0.4304161071777344
1782846954514990000,3.226989990234375,0.13256044685840607,-0.01972869783639908,-0.41154998540878296
1782846954524995000,3.2369951171875,0.09140314906835556,-0.002427737694233656,-0.34147876501083374
1782846954535000000,3.247,0.002582201035693288,-0.02779807522892952,-0.25227591395378113
1782846954545005000,3.257005126953125,-0.13199558854103088,-0.10512961447238922,-0.17873458564281464
1782846954555010000,3.267010009765625,-0.30995625257492065,-0.19706512987613678,-0.12534832954406738
1782846954565015000,3.27701513671875,-0.5267910957336426,-0.25491005182266235,-0.08460383117198944
1782846954575021300,3.287021240234375,-0.7719883322715759,-0.27571573853492737,-0.07861624658107758
1782846954585026300,3.2970263671875,-1.0016449689865112,-0.22156567871570587,-0.11321070790290833
1782846954595031300,3.30703125,-1.1693657636642456,-0.02955549582839012,-0.14910639822483063
1782846954605036300,3.317036376953125,-1.248457431793213,0.3877756893634796,-0.0951763167977333
1782846954615041300,3.327041259765625,-1.281928300857544,0.8277048468589783,0.02520388923585415
1782846954625046300,3.33704638671875,-1.2738051414489746,1.1137968301773071,0.11953411996364594
1782846954635051300,3.34705126953125,-1.1360193490982056,1.1079615354537964,0.03111530840396881
1782846954645056300,3.35705615234375,-0.8195276260375977,0.699432909488678,-0.3499542772769928
1782846954655062300,3.367062255859375,-0.5034301280975342,0.007096525281667709,-1.0660966634750366
1782846954665067300,3.3770673828125,-0.4524976909160614,-0.6385639905929565,-1.9198315143585205
1782846954675072300,3.387072265625,-0.6110266447067261,-0.973865270614624,-2.396486282348633
1782846954685077200,3.3970771484375,-0.749334454536438,-1.0404727458953857,-2.2871105670928955
1782846954695082200,3.407082275390625,-0.7168084383010864,-0.9525250792503357,-1.8299980163574219
1782846954705087200,3.417087158203125,-0.4961059093475342,-0.7575579881668091,-1.2317343950271606
1782846954715092200,3.42709228515625,-0.1792440563440323,-0.4857861399650574,-0.6767004132270813
1782846954725097200,3.43709716796875,0.11506932973861694,-0.12251099944114685,-0.3130612373352051
1782846954735103200,3.447103271484375,0.3250686228275299,0.2104259431362152,-0.18342788517475128
1782846954745108200,3.457108154296875,0.45571425557136536,0.36311161518096924,-0.1897781938314438
1782846954755113200,3.46711328125,0.5517260432243347,0.3001515567302704,-0.20299412310123444
1782846954765118200,3.4771181640625,0.6427302360534668,0.11984491348266602,-0.16442835330963135
1782846954775123200,3.487123291015625,0.7360484600067139,-0.07014686614274979,-0.05399026349186897
1782846954785128200,3.497128173828125,0.821364164352417,-0.25090280175209045,0.10753738135099411
1782846954795133200,3.50713330078125,0.8852390050888062,-0.428617388010025,0.29623591899871826
1782846954805139000,3.517138916015625,0.9307769536972046,-0.6154900789260864,0.48045504093170166
1782846954815144000,3.52714404296875,0.9295193552970886,-0.744109570980072,0.6241490840911865
1782846954825149200,3.537149169921875,0.8812927007675171,-0.753978431224823,0.7258445620536804
1782846954835154200,3.547154296875,0.7956209778785706,-0.627540111541748,0.8231260776519775
1782846954845159200,3.5571591796875,0.6784341335296631,-0.3928133249282837,0.9260636568069458
1782846954855164200,3.5671640625,0.5164068937301636,-0.09663386642932892,1.0200101137161255
1782846954865169200,3.577169189453125,0.32699570059776306,0.18790306150913239,1.0857281684875488
1782846954875174100,3.587174072265625,0.1308344453573227,0.4015175998210907,1.080043077468872
1782846954885180200,3.59718017578125,-0.06053311750292778,0.48876169323921204,1.0107170343399048
1782846954895185200,3.60718505859375,-0.23505859076976776,0.47342509031295776,0.8724760413169861
1782846954905190100,3.617190185546875,-0.3919789493083954,0.3847346305847168,0.6867751479148865
1782846954915195100,3.627195068359375,-0.5357558131217957,0.27822601795196533,0.44222375750541687
1782846954925200100,3.6372001953125,-0.6531708836555481,0.19018937647342682,0.16749338805675507
1782846954935205000,3.647205078125,-0.7236341238021851,0.09386098384857178,-0.12684662640094757
1782846954945210000,3.657210205078125,-0.7353051900863647,-0.023068301379680634,-0.41096171736717224
1782846954955216100,3.667216064453125,-0.6951313614845276,-0.1063205823302269,-0.671333909034729
1782846954965221000,3.67722119140625,-0.6286210417747498,-0.16611307859420776,-0.884275496006012
1782846954975225900,3.687225830078125,-0.5432542562484741,-0.23271074891090393,-1.0214588642120361
1782846954985230800,3.69723095703125,-0.4315522015094757,-0.3049396574497223,-1.0321416854858398
1782846954995235800,3.70723583984375,-0.3202421963214874,-0.3661830425262451,-0.9392204880714417
1782846955005240800,3.71724072265625,-0.2200000137090683,-0.38369545340538025,-0.7801048755645752
1782846955015245800,3.727245849609375,-0.144616037607193,-0.3381437063217163,-0.5930468440055847
1782846955025250800,3.737250732421875,-0.0994083434343338,-0.2404450923204422,-0.4120517373085022
1782846955035256800,3.7472568359375,-0.07195115834474564,-0.11198965460062027,-0.24042165279388428
1782846955045261800,3.75726171875,-0.054717306047677994,0.03586425632238388,-0.0661313459277153
1782846955055266800,3.767266845703125,-0.02365233190357685,0.16873842477798462,0.08416175097227097
1782846955065271800,3.777271728515625,0.03139547258615494,0.2566951811313629,0.20566368103027344
1782846955075276800,3.78727685546875,0.10882049053907394,0.2764233350753784,0.2718416452407837
1782846955085281800,3.79728173828125,0.19132068753242493,0.25239309668540955,0.25785258412361145
1782846955095286800,3.807286865234375,0.2455623596906662,0.21297085285186768,0.15476560592651367
1782846955105291800,3.817291748046875,0.25176647305488586,0.27709951996803284,-0.03405969962477684
1782846955115297800,3.8272978515625,0.23917770385742188,0.5242810845375061,-0.29708972573280334
1782846955125302800,3.837302734375,0.2638063430786133,0.8015872240066528,-0.5997539758682251
1782846955135307800,3.847307861328125,0.35982340574264526,0.9112820625305176,-0.8360323309898376
1782846955145312800,3.857312744140625,0.45221301913261414,0.7192441821098328,-0.8718608617782593
1782846955155317800,3.86731787109375,0.4147404730319977,0.2717348337173462,-0.6240636110305786
1782846955165322800,3.87732275390625,0.22661343216896057,-0.25312572717666626,-0.10375888645648956
1782846955175328000,3.887327880859375,0.0830027386546135,-0.6356222629547119,0.5068421363830566
1782846955185333000,3.8973330078125,0.13542546331882477,-0.7130073308944702,0.9838159084320068
1782846955195339000,3.907339111328125,0.3684627115726471,-0.4689789414405823,1.2226388454437256
1782846955205344000,3.917343994140625,0.6928961873054504,-0.05100672319531441,1.1745789051055908
1782846955215349000,3.927348876953125,0.9435443878173828,0.30325841903686523,0.9394710659980774
1782846955225354000,3.93735400390625,1.0075230598449707,0.4246956408023834,0.6918476819992065
1782846955235359000,3.94735888671875,0.8834983706474304,0.324383944272995,0.5145448446273804
1782846955245364000,3.957364013671875,0.6592809557914734,0.11196648329496384,0.38147759437561035
1782846955255369000,3.967368896484375,0.43047016859054565,-0.12650014460086823,0.24382491409778595
1782846955265375000,3.977375,0.2610744833946228,-0.3123629689216614,0.09479574859142303
1782846955275380000,3.9873798828125,0.18595123291015625,-0.41195693612098694,-0.05199236050248146
1782846955285385000,3.997385009765625,0.21248190104961395,-0.4502939283847809,-0.14746534824371338
1782846955295390000,4.007389892578125,0.2871505618095398,-0.47032463550567627,-0.17819955945014954
1782846955305395000,4.01739501953125,0.35680580139160156,-0.45970526337623596,-0.13118332624435425
1782846955315400000,4.02739990234375,0.3910958468914032,-0.428056001663208,-0.030402647331357002
1782846955325405000,4.037405029296875,0.36973971128463745,-0.3288218379020691,0.07813075184822083
1782846955335410000,4.047409912109375,0.3169920742511749,-0.23889140784740448,0.1622011512517929
1782846955345416000,4.057416015625,0.26326438784599304,-0.2842240035533905,0.24422785639762878
1782846955355421000,4.0674208984375,0.21985699236392975,-0.4563755393028259,0.35815680027008057
1782846955365426000,4.077426025390625,0.14442242681980133,-0.5722086429595947,0.521675705909729
1782846955375431000,4.087430908203125,0.00872131995856762,-0.5606334805488586,0.7320880889892578
1782846955385436000,4.097435791015625,-0.17200292646884918,-0.4490172266960144,0.9706599116325378
1782846955395441000,4.10744091796875,-0.34591132402420044,-0.3020898103713989,1.183005452156067
1782846955405446000,4.11744580078125,-0.47180721163749695,-0.17512601613998413,1.2708349227905273
1782846955415452000,4.127451904296875,-0.5109841823577881,-0.06880942732095718,1.1871240139007568
1782846955425457000,4.137456787109375,-0.47880786657333374,0.03797987103462219,0.9475290179252625
1782846955435462000,4.1474619140625,-0.4116229712963104,0.12584687769412994,0.6239094138145447
1782846955445467000,4.157466796875,-0.35640764236450195,0.13882260024547577,0.2960052788257599
1782846955455471900,4.167471923828125,-0.3109546899795532,0.07968204468488693,0.044441767036914825
1782846955465476900,4.177476806640625,-0.2790321707725525,-0.0653100311756134,-0.10959812998771667
1782846955475482000,4.187482177734375,-0.23292699456214905,-0.275407612323761,-0.19169007241725922
1782846955485487000,4.197487060546875,-0.15688228607177734,-0.4838734567165375,-0.23158928751945496
1782846955495492900,4.207492919921875,-0.0831121951341629,-0.6022214293479919,-0.271750807762146
1782846955505497900,4.217497802734375,-0.03497263044118881,-0.5501030683517456,-0.3266103267669678
1782846955515502800,4.2275029296875,-0.017238374799489975,-0.35655251145362854,-0.39815589785575867
1782846955525507800,4.2375078125,-0.02430533990263939,-0.11250230669975281,-0.48948901891708374
1782846955535512800,4.247512939453125,-0.04319008067250252,0.10034790635108948,-0.5868464708328247
1782846955545517800,4.257517822265625,-0.06814230233430862,0.24419455230236053,-0.6408361792564392
1782846955555522800,4.267522705078125,-0.09319252520799637,0.30503714084625244,-0.6243025064468384
1782846955565528800,4.27752880859375,-0.1455947458744049,0.3224209249019623,-0.5712195634841919
1782846955575533800,4.287533935546875,-0.23280449211597443,0.4118645191192627,-0.5389838814735413
1782846955585538800,4.297538818359375,-0.3152189254760742,0.5394397974014282,-0.5398901104927063
1782846955595543800,4.307543701171875,-0.38262274861335754,0.6925355792045593,-0.5921522378921509
1782846955605548800,4.317548828125,-0.42854708433151245,0.9242194294929504,-0.6620823740959167
1782846955615553800,4.3275537109375,-0.4671006202697754,1.212883710861206,-0.6756458282470703
1782846955625558800,4.337558837890625,-0.5162766575813293,1.3490138053894043,-0.6264082193374634
1782846955635563800,4.347563720703125,-0.5120441317558289,1.1581001281738281,-0.5847643613815308
1782846955645569800,4.35756982421875,-0.39720702171325684,0.6585603356361389,-0.5989955067634583
1782846955655574800,4.36757470703125,-0.22344693541526794,0.010700847953557968,-0.7377384901046753
1782846955665579800,4.377579833984375,-0.07665190100669861,-0.585033118724823,-1.2388684749603271
1782846955675584800,4.387584716796875,-0.18807455897331238,-0.8130393624305725,-1.9730318784713745
1782846955685589800,4.39758984375,-0.567474901676178,-0.6478142142295837,-2.3392295837402344
1782846955695594800,4.4075947265625,-0.8857167959213257,-0.32527610659599304,-2.12516713142395
1782846955705599700,4.417599853515625,-0.9326863884925842,-0.09875506907701492,-1.5478465557098389
1782846955715604700,4.427604736328125,-0.7637967467308044,-0.10366328060626984,-0.6290562152862549
1782846955725611000,4.437611083984375,-0.5555870532989502,-0.09404899924993515,0.4437739849090576
1782846955735616000,4.447615966796875,-0.37675607204437256,0.09698087722063065,1.3223789930343628
1782846955745621000,4.45762109375,-0.12550465762615204,0.41068235039711,1.726632833480835
1782846955755626000,4.4676259765625,0.3039010465145111,0.6242369413375854,1.5576509237289429
1782846955765631000,4.477630859375,0.8720569014549255,0.6038523316383362,0.9968454241752625
1782846955775636000,4.487635986328125,1.3608521223068237,0.5219238996505737,0.392939031124115
1782846955785641000,4.497640869140625,1.514068841934204,0.5493350028991699,-0.017472200095653534
1782846955795647000,4.50764697265625,1.375937581062317,0.5807970762252808,-0.2268589735031128
1782846955805652000,4.51765185546875,1.0989015102386475,0.5557135939598083,-0.2896009087562561
1782846955815657000,4.527656982421875,0.7626593112945557,0.5100662112236023,-0.19147436320781708
1782846955825662000,4.537661865234375,0.46889424324035645,0.4636438190937042,-0.011805260553956032
1782846955835667000,4.5476669921875,0.27336710691452026,0.3807564079761505,0.13818717002868652
1782846955845672000,4.557671875,0.17734788358211517,0.27860739827156067,0.23239116370677948
1782846955855677000,4.567677001953125,0.14501550793647766,0.22298167645931244,0.2947557270526886
1782846955865682000,4.577681884765625,0.10401694476604462,0.14035631716251373,0.3738904893398285
1782846955875688000,4.58768798828125,0.0339832678437233,-0.017610419541597366,0.5107061266899109
1782846955885693000,4.59769287109375,-0.007500526960939169,-0.13545769453048706,0.649136483669281
1782846955895698000,4.607697998046875,0.007020891644060612,-0.18022462725639343,0.7406575679779053
1782846955905703000,4.617702880859375,0.041135985404253006,-0.2017056941986084,0.7868112325668335
1782846955915708000,4.6277080078125,0.03129906579852104,-0.22821345925331116,0.7971506714820862
1782846955925713000,4.637712890625,-0.03332573175430298,-0.18284279108047485,0.7550378441810608
1782846955935718000,4.6477177734375,-0.20453183352947235,-0.13251356780529022,0.6706159114837646
1782846955945723000,4.657722900390625,-0.37352004647254944,-0.06238987296819687,0.4975128471851349
1782846955955729000,4.66772900390625,-0.465559184551239,0.053105827420949936,0.2685616910457611
1782846955965734000,4.67773388671875,-0.46866175532341003,0.12459732592105865,0.00022024342615623027
1782846955975739400,4.687739501953125,-0.40656721591949463,0.11861719191074371,-0.265959769487381
1782846955985744400,4.697744384765625,-0.3114095628261566,0.049857836216688156,-0.5035470128059387
1782846955995749400,4.707749267578125,-0.22173532843589783,-0.06990185379981995,-0.6841272115707397
1782846956005754400,4.71775439453125,-0.18762849271297455,-0.25160348415374756,-0.7365350127220154
1782846956015759400,4.72775927734375,-0.21465611457824707,-0.4070551097393036,-0.6606857776641846
1782846956025765400,4.737765380859375,-0.27981194853782654,-0.44908618927001953,-0.49282753467559814
1782846956035770400,4.747770263671875,-0.34212005138397217,-0.3932466208934784,-0.2600899040699005
1782846956045775400,4.757775390625,-0.37030428647994995,-0.2699792981147766,-0.0021662150975316763
1782846956055780400,4.7677802734375,-0.3600636422634125,-0.0942215770483017,0.2376711517572403
1782846956065785300,4.777785400390625,-0.3121110200881958,0.09281276166439056,0.4223605692386627
1782846956075790300,4.787790283203125,-0.24672110378742218,0.28423598408699036,0.5319477915763855
1782846956085795300,4.79779541015625,-0.16455139219760895,0.5161619186401367,0.5753799676895142
1782846956095800300,4.80780029296875,-0.10732139647006989,0.7770422101020813,0.5603018999099731
1782846956105806300,4.817806396484375,-0.11228472739458084,0.9485082626342773,0.5171898603439331
1782846956115811300,4.827811279296875,-0.16687873005867004,0.9161679148674011,0.47432923316955566
1782846956125816300,4.83781640625,-0.22350285947322845,0.8521018028259277,0.41152894496917725
1782846956135821300,4.8478212890625,-0.287068247795105,0.9464024901390076,0.24871394038200378
1782846956145826300,4.857826416015625,-0.36171481013298035,1.1982879638671875,0.020323913544416428
1782846956155831300,4.867831298828125,-0.3658943772315979,1.3161370754241943,-0.14456836879253387
1782846956165836300,4.877836181640625,-0.23858913779258728,1.165879487991333,-0.18165341019630432
1782846956175842300,4.88784228515625,-0.00515721132978797,0.7777900099754333,-0.09168145060539246
1782846956185847300,4.897847412109375,0.22555989027023315,0.26634007692337036,0.07486359030008316
1782846956195852500,4.9078525390625,0.3751797378063202,-0.10672324895858765,0.2701486647129059
1782846956205857500,4.917857421875,0.42985764145851135,-0.15275545418262482,0.45117971301078796
1782846956215862500,4.927862548828125,0.42252489924430847,-0.051112983375787735,0.5847979187965393
1782846956225867500,4.937867431640625,0.3764399588108063,0.05492556467652321,0.6331121921539307
1782846956235872500,4.94787255859375,0.2950449585914612,0.13445740938186646,0.6314597129821777
1782846956245877500,4.95787744140625,0.17939798533916473,0.10619647800922394,0.6040781736373901
1782846956255883500,4.967883544921875,0.033784862607717514,-0.07124355435371399,0.5491030812263489
1782846956265888500,4.977888427734375,-0.12299703061580658,-0.3416750431060791,0.48257890343666077
1782846956275893500,4.9878935546875,-0.2476223111152649,-0.6165899634361267,0.38712242245674133
1782846956285898500,4.9978984375,-0.31202232837677,-0.8094151020050049,0.26510384678840637
1782846956295903500,5.007903564453125,-0.31391584873199463,-0.9463385939598083,0.14862382411956787
1782846956305908500,5.017908447265625,-0.25802382826805115,-1.0224062204360962,0.0729178860783577
1782846956315913500,5.02791357421875,-0.17150810360908508,-1.0118094682693481,0.027782361954450607
1782846956325919500,5.03791943359375,-0.09405539184808731,-0.8621853590011597,-0.0056951697915792465
1782846956335924500,5.047924560546875,-0.05456630513072014,-0.6382151246070862,-0.03766854852437973
1782846956345929500,5.057929443359375,-0.04385320842266083,-0.44879430532455444,-0.04358609393239021
1782846956355934500,5.0679345703125,-0.029213545843958855,-0.35981303453445435,-0.02070421352982521
1782846956365939500,5.077939453125,-0.018975023180246353,-0.36063700914382935,0.010369017720222473
1782846956375944400,5.0879443359375,-0.03326208144426346,-0.34278663992881775,0.08512794226408005
1782846956385949400,5.097949462890625,-0.07145580649375916,-0.3614921569824219,0.2152814120054245
1782846956395954400,5.107954345703125,-0.12573076784610748,-0.35010021924972534,0.38221821188926697
1782846956405960400,5.11796044921875,-0.18643911182880402,-0.2912081480026245,0.5457581281661987
1782846956415965400,5.12796533203125,-0.24174338579177856,-0.19036728143692017,0.6749653816223145
1782846956425970400,5.137970458984375,-0.2804234027862549,-0.028133368119597435,0.7259010076522827
1782846956435975400,5.147975341796875,-0.29675203561782837,0.17663975059986115,0.6560558676719666
1782846956445980400,5.15798046875,-0.2616784870624542,0.3355620205402374,0.5010117292404175
1782846956455985400,5.1679853515625,-0.1815365105867386,0.3869647681713104,0.29465028643608093
1782846956465990400,5.177990478515625,-0.08805369585752487,0.33978205919265747,0.06359921395778656
1782846956475996400,5.187996337890625,-0.030369091778993607,0.21554186940193176,-0.1651410162448883
1782846956486001400,5.19800146484375,-0.005783853121101856,0.039796680212020874,-0.3766956031322479
1782846956496006400,5.20800634765625,0.031064175069332123,-0.14504507184028625,-0.55649733543396
1782846956506011400,5.218011474609375,0.07790784537792206,-0.2929210960865021,-0.6864217519760132
1782846956516016400,5.228016357421875,0.11347436159849167,-0.3695625960826874,-0.8007041215896606
1782846956526021400,5.238021484375,0.12890231609344482,-0.35514503717422485,-0.8985657095909119
1782846956536026400,5.2480263671875,0.11539609730243683,-0.2670482099056244,-0.9620930552482605
1782846956546032400,5.258032470703125,0.08594473451375961,-0.15239007771015167,-0.9640776515007019
1782846956556037400,5.268037353515625,0.0734449252486229,-0.10693790018558502,-0.9191476702690125
1782846956566042400,5.27804248046875,0.11939510703086853,-0.16131725907325745,-0.8633770942687988
1782846956576047400,5.28804736328125,0.21875950694084167,-0.2032167613506317,-0.8064137101173401
1782846956586052400,5.29805224609375,0.33734607696533203,-0.14851170778274536,-0.7186928987503052
1782846956596057300,5.308057373046875,0.43192318081855774,0.006609699688851833,-0.591830313205719
1782846956606062300,5.318062255859375,0.5312721133232117,0.051352668553590775,-0.5223545432090759
1782846956616067300,5.3280673828125,0.6382995247840881,0.32673096656799316,-0.45233869552612305
1782846956626073300,5.3380732421875,0.6706331968307495,0.6503833532333374,-0.3659244477748871
1782846956636078300,5.348078369140625,0.6635801196098328,0.7538221478462219,-0.29322922229766846
1782846956646083300,5.358083251953125,0.6888750791549683,0.5336641669273376,-0.25957271456718445
1782846956656088300,5.36808837890625,0.7075073719024658,0.14966486394405365,-0.26618722081184387
1782846956666093300,5.37809326171875,0.6880487203598022,-0.20993459224700928,-0.4461234211921692
1782846956676098300,5.388098388671875,0.654742419719696,-0.47592419385910034,-0.956459105014801
1782846956686103300,5.398103271484375,0.5354964733123779,-0.6839088201522827,-1.4990675449371338
1782846956696109300,5.408109375,0.2789091169834137,-0.7534924149513245,-1.596479058265686
1782846956706114300,5.4181142578125,0.046655651181936264,-0.7696660757064819,-1.3101083040237427
1782846956716119300,5.428119384765625,0.03278724104166031,-0.880914032459259,-0.8574172258377075
1782846956726124300,5.438124267578125,0.18170614540576935,-1.0061286687850952,-0.25252652168273926
1782846956736129300,5.44812939453125,0.34263643622398376,-0.9464914202690125,0.4469181001186371
1782846956746134300,5.45813427734375,0.43596160411834717,-0.6246883869171143,1.1295475959777832
1782846956756139500,5.468139404296875,0.4663762152194977,-0.05513782054185867,1.670474648475647
1782846956766145500,5.4781455078125,0.4538937211036682,0.5788758993148804,1.9005260467529297
1782846956776150500,5.488150634765625,0.46108850836753845,1.0338928699493408,1.743600845336914
1782846956786155500,5.498155517578125,0.5082318186759949,1.1095997095108032,1.2767812013626099
1782846956796160500,5.508160400390625,0.541845440864563,0.8247205018997192,0.6373003125190735
1782846956806165500,5.51816552734375,0.5100336670875549,0.3968525528907776,-0.0021193434949964285
1782846956816170500,5.52817041015625,0.421737402677536,0.015142201445996761,-0.5016748309135437
1782846956826175500,5.538175537109375,0.2879851758480072,-0.20461173355579376,-0.8190818428993225
1782846956836181500,5.548181396484375,0.15144091844558716,-0.2601817846298218,-0.9622206091880798
1782846956846186500,5.5581865234375,0.05878768116235733,-0.250336617231369,-0.9664438366889954
1782846956856191500,5.56819140625,0.012864133343100548,-0.2244269847869873,-0.8638753890991211
1782846956866196500,5.578196533203125,0.03181225806474686,-0.18658505380153656,-0.6685261130332947
1782846956876201500,5.588201416015625,0.09552039951086044,-0.19548454880714417,-0.4455721378326416
1782846956886206500,5.59820654296875,0.13980290293693542,-0.1998787671327591,-0.24510589241981506
1782846956896211500,5.60821142578125,0.1423504799604416,-0.15300072729587555,-0.07658691704273224
1782846956906216400,5.618216552734375,0.0792495459318161,-0.11533458530902863,0.054843008518218994
1782846956916222200,5.62822216796875,-0.020363062620162964,-0.10465770214796066,0.15906289219856262
1782846956926227500,5.6382275390625,-0.13268187642097473,-0.1301867663860321,0.23904214799404144
1782846956936232400,5.648232421875,-0.25795164704322815,-0.19312125444412231,0.2769647538661957
1782846956946237400,5.658237548828125,-0.3855532705783844,-0.24276737868785858,0.27820631861686707
1782846956956242400,5.668242431640625,-0.4954443573951721,-0.24089303612709045,0.22731703519821167
1782846956966247400,5.678247314453125,-0.5693047642707825,-0.19326479732990265,0.1279475837945938
1782846956976252700,5.688252685546875,-0.6078923344612122,-0.10931690037250519,-0.007783354725688696
1782846956986258700,5.6982587890625,-0.6047524809837341,-0.036381177604198456,-0.17677876353263855
1782846956996263700,5.708263671875,-0.5702973008155823,-0.011260377243161201,-0.3368528485298157
1782846957006268700,5.7182685546875,-0.5161046385765076,-0.038244325667619705,-0.45973536372184753
1782846957016273700,5.728273681640625,-0.464290976524353,-0.07119295001029968,-0.5391452312469482
1782846957026278700,5.738278564453125,-0.4359501600265503,-0.06741179525852203,-0.573157548904419
1782846957036283600,5.74828369140625,-0.4258714020252228,-0.03558169677853584,-0.5285141468048096
1782846957046288600,5.75828857421875,-0.43305715918540955,-0.0480109341442585,-0.4066005051136017
1782846957056294700,5.768294677734375,-0.44134917855262756,-0.09872417896986008,-0.23513448238372803
1782846957066299600,5.778299560546875,-0.45448973774909973,-0.13810913264751434,-0.07625588774681091
1782846957076304600,5.7883046875,-0.4576200246810913,-0.10999361425638199,0.033359020948410034
1782846957086309600,5.7983095703125,-0.4287380278110504,0.03479126840829849,0.09960808604955673
1782846957096314600,5.808314697265625,-0.3716371953487396,0.24477486312389374,0.1061733067035675
1782846957106319600,5.818319580078125,-0.3099789023399353,0.475580632686615,0.06211583688855171
1782846957116324600,5.82832470703125,-0.273321270942688,0.6987863183021545,-0.05343686044216156
1782846957126331000,5.838330810546875,-0.2417745441198349,0.8346229791641235,-0.18894115090370178
1782846957136336000,5.8483359375,-0.18608678877353668,0.7704631686210632,-0.2797964811325073
1782846957146340900,5.8583408203125,-0.13139557838439941,0.5166383385658264,-0.2720341682434082
1782846957156345900,5.868345947265625,-0.12247398495674133,0.15757577121257782,-0.11766404658555984
1782846957166350800,5.878350830078125,-0.11236009746789932,-0.16854506731033325,0.15175144374370575
1782846957176355800,5.88835595703125,-0.05709391087293625,-0.319419264793396,0.4675738513469696
1782846957186360800,5.89836083984375,0.06640006601810455,-0.2239292412996292,0.7418834567070007
1782846957196366800,5.908366943359375,0.27041417360305786,-0.0009206547983922064,0.8904313445091248
1782846957206371800,5.918371826171875,0.5034967064857483,0.18020546436309814,0.9190701842308044
1782846957216376800,5.928376953125,0.6927909851074219,0.24047252535820007,0.878907322883606
1782846957226381800,5.9383818359375,0.7820338010787964,0.21233010292053223,0.8022868633270264
1782846957236386800,5.94838671875,0.7774885892868042,0.16246481239795685,0.7206953167915344
1782846957246391800,5.958391845703125,0.75494784116745,0.0665246993303299,0.7016494870185852
1782846957256396800,5.968396728515625,0.7478188276290894,-0.0854235514998436,0.7826873064041138
1782846957266402800,5.97840283203125,0.7811908721923828,-0.3007936477661133,0.9018435478210449
1782846957276407800,5.98840771484375,0.8391953706741333,-0.45530280470848083,1.0114840269088745
1782846957286412800,5.998412841796875,0.9050124287605286,-0.5228232741355896,1.06227445602417
1782846957296417800,6.008417724609375,0.9510318636894226,-0.5233755707740784,1.0391649007797241
1782846957306422800,6.0184228515625,0.9869397878646851,-0.4718937575817108,0.9629122018814087
1782846957316427800,6.028427734375,0.9991703629493713,-0.38092443346977234,0.8264231085777283
1782846957326432800,6.038432861328125,0.9499679207801819,-0.20376883447170258,0.6294554471969604
1782846957336438500,6.0484384765625,0.8124297857284546,0.0014197311829775572,0.3404372036457062
1782846957346443800,6.05844384765625,0.6008749008178711,0.14049026370048523,0.009302155114710331
1782846957356448800,6.06844873046875,0.37776246666908264,0.16942204535007477,-0.3046770691871643
1782846957366453800,6.078453857421875,0.18704845011234283,0.04297862574458122,-0.5645422339439392
1782846957376459000,6.088458984375,0.05020191892981529,-0.04331444948911667,-0.7148987054824829
1782846957386464000,6.098464111328125,-0.08884970843791962,-0.06820328533649445,-0.7164217233657837
1782846957396469000,6.108468994140625,-0.19844837486743927,0.0316103920340538,-0.5891228914260864
1782846957406474800,6.118474853515625,-0.27950620651245117,0.2592659294605255,-0.36483070254325867
1782846957416479700,6.128479736328125,-0.3250468075275421,0.5234578847885132,-0.12230407446622849
1782846957426484700,6.138484619140625,-0.3253757059574127,0.7497325539588928,0.05351089686155319
1782846957436489700,6.14848974609375,-0.28787359595298767,0.927692711353302,0.0980416089296341
1782846957446494700,6.15849462890625,-0.22703155875205994,1.0069643259048462,0.015080415643751621
1782846957456499700,6.168499755859375,-0.15010428428649902,0.9541317820549011,-0.14832262694835663
1782846957466504700,6.178504638671875,-0.07033301889896393,0.7858056426048279,-0.3696630001068115
1782846957476510700,6.1885107421875,-0.004221110139042139,0.5404374003410339,-0.6043487191200256
1782846957486515700,6.198515625,0.038775358349084854,0.2827802896499634,-0.8114904761314392
1782846957496520700,6.208520751953125,0.06126096099615097,0.06656517833471298,-0.9399145245552063
1782846957506525700,6.218525634765625,0.0652807354927063,-0.06546343117952347,-0.9740767478942871
1782846957516530700,6.22853076171875,0.06416753679513931,-0.11776791512966156,-0.9214636087417603
1782846957526535700,6.23853564453125,0.05563876032829285,-0.11557693034410477,-0.8074051737785339
1782846957536540700,6.248540771484375,0.053163886070251465,-0.056782856583595276,-0.6564090251922607
1782846957546546700,6.258546630859375,0.04300525784492493,0.011956261470913887,-0.4944235682487488
1782846957556551700,6.2685517578125,0.0024972460232675076,0.052018195390701294,-0.35052579641342163
1782846957566556700,6.278556640625,-0.09163884073495865,0.02468004636466503,-0.22643180191516876
1782846957576561700,6.288561767578125,-0.23415923118591309,-0.05296574532985687,-0.13931794464588165
1782846957586566700,6.298566650390625,-0.36102795600891113,-0.09536566585302353,-0.11410579830408096
1782846957596571600,6.308571533203125,-0.4422341287136078,-0.06582162529230118,-0.1743379831314087
1782846957606576600,6.31857666015625,-0.4894043207168579,0.0712512731552124,-0.3021886348724365
1782846957616583000,6.3285830078125,-0.4791375696659088,0.2950896918773651,-0.42049580812454224
1782846957626588000,6.338587890625,-0.4724418520927429,0.4199477434158325,-0.5724067687988281
1782846957636593000,6.348593017578125,-0.5655717849731445,0.5977339744567871,-0.6808426976203918
1782846957646598000,6.358597900390625,-0.7459008097648621,0.7017117738723755,-0.6486629247665405
1782846957656603000,6.368602783203125,-0.9714625477790833,0.5910323858261108,-0.5097508430480957
1782846957666607900,6.37860791015625,-1.2050217390060425,0.3641470670700073,-0.38416019082069397
1782846957676612900,6.38861279296875,-1.34513258934021,0.1517021805047989,-0.5592989921569824
1782846957686619000,6.398618896484375,-1.3368005752563477,-0.14615534245967865,-1.1586029529571533
1782846957696623900,6.408623779296875,-1.2580077648162842,-0.5675811171531677,-1.7418791055679321
1782846957706628900,6.41862890625,-1.1122404336929321,-0.8530565500259399,-1.8545337915420532
1782846957716633900,6.4286337890625,-0.9201689958572388,-0.8456178307533264,-1.6376731395721436
1782846957726638800,6.438638916015625,-0.7435116767883301,-0.6557443141937256,-1.2401864528656006
1782846957736643800,6.448643798828125,-0.5773267149925232,-0.4077451527118683,-0.7117569446563721
1782846957746648800,6.45864892578125,-0.3929648697376251,-0.14800304174423218,-0.2295607626438141
1782846957756654800,6.46865478515625,-0.1642981320619583,0.04647429287433624,0.01745222695171833
1782846957766659800,6.478659912109375,0.11683899909257889,0.12948262691497803,0.041791390627622604
1782846957776664800,6.488664794921875,0.408633291721344,0.11034328490495682,-0.016756076365709305
1782846957786669800,6.498669921875,0.60708087682724,0.0932612344622612,-0.04086407646536827
1782846957796674800,6.5086748046875,0.6672480702400208,0.1480696201324463,0.007125020958483219
1782846957806679800,6.5186796875,0.6573930382728577,0.21072635054588318,0.10808465629816055
1782846957816684800,6.528684814453125,0.6212976574897766,0.2410466969013214,0.22066792845726013
1782846957826690600,6.538690673828125,0.60222327709198,0.2500668168067932,0.35074469447135925
1782846957836695600,6.548695556640625,0.6005673408508301,0.2258664220571518,0.5231793522834778
1782846957846700500,6.558700439453125,0.6021066308021545,0.18193651735782623,0.7278600335121155
1782846957856705800,6.568705810546875,0.5781475305557251,0.13987533748149872,0.942409336566925
1782846957866710800,6.578710693359375,0.5287051200866699,0.10019690543413162,1.1240906715393066
1782846957876715800,6.5887158203125,0.46992596983909607,0.04309287667274475,1.2659698724746704
1782846957886720800,6.598720703125,0.41681426763534546,-0.032173383980989456,1.3526432514190674
1782846957896726800,6.608726806640625,0.3650573194026947,-0.11136993020772934,1.398863673210144
1782846957906731800,6.618731689453125,0.3099493384361267,-0.168971449136734,1.376278281211853
1782846957916736800,6.62873681640625,0.24528858065605164,-0.12085584551095963,1.2809605598449707
1782846957926741800,6.63874169921875,0.1604144424200058,0.052499692887067795,1.1133885383605957
1782846957936746800,6.648746826171875,0.0601741261780262,0.27411729097366333,0.9157111644744873
1782846957946751700,6.658751708984375,-0.02991076000034809,0.4623394012451172,0.6982435584068298
1782846957956756700,6.6687568359375,-0.11516094207763672,0.565022349357605,0.494478702545166
1782846957966762800,6.6787626953125,-0.20493105053901672,0.5151892900466919,0.31032219529151917
1782846957976767500,6.688767578125,-0.29527372121810913,0.32868441939353943,0.11418196558952332
1782846957986772500,6.6987724609375,-0.3736199140548706,0.08229780197143555,-0.0861348882317543
1782846957996777500,6.708777587890625,-0.4254751205444336,-0.13524997234344482,-0.26160576939582825
1782846958006782500,6.718782470703125,-0.4353538751602173,-0.29080280661582947,-0.38929927349090576
1782846958016787700,6.72878759765625,-0.3864686191082001,-0.31795239448547363,-0.4453423023223877
1782846958026792700,6.738792724609375,-0.3014344274997711,-0.23650574684143066,-0.4183269441127777
1782846958036798700,6.748798828125,-0.21083979308605194,-0.1242271438241005,-0.3194946348667145
1782846958046803700,6.7588037109375,-0.14704696834087372,0.003938548732548952,-0.1550351232290268
1782846958056808700,6.76880859375,-0.1375834345817566,0.10013379156589508,0.051950015127658844
1782846958066813700,6.778813720703125,-0.17566050589084625,0.17789995670318604,0.28687623143196106
1782846958076818700,6.788818603515625,-0.24519670009613037,0.2539212107658386,0.5622193813323975
1782846958086823700,6.79882373046875,-0.32642659544944763,0.27709951996803284,0.851472795009613
1782846958096828700,6.80882861328125,-0.3807145953178406,0.26363644003868103,1.0570392608642578
1782846958106834700,6.818834716796875,-0.4099246561527252,0.3421427011489868,1.0724014043807983
1782846958116839700,6.828839599609375,-0.40219777822494507,0.523018479347229,0.8614247441291809
1782846958126844700,6.8388447265625,-0.31047797203063965,0.6916780471801758,0.45329052209854126
1782846958136849700,6.848849609375,-0.15817072987556458,0.7597894668579102,-0.026982614770531654
1782846958146854700,6.858854736328125,-0.08527468144893646,0.6475151181221008,-0.4414493143558502
1782846958156859600,6.868859619140625,-0.1777774542570114,0.3655276596546173,-0.6440932154655457
1782846958166865700,6.87886572265625,-0.3293595314025879,0.05428880453109741,-0.5493467450141907
1782846958176870700,6.88887060546875,-0.43690061569213867,-0.14007002115249634,-0.24025681614875793
1782846958186875600,6.898875732421875,-0.44567760825157166,-0.1683083176612854,0.106938436627388
1782846958196880600,6.908880615234375,-0.3520786762237549,-0.13244272768497467,0.3612423539161682
1782846958206885600,6.9188857421875,-0.2351406067609787,-0.15766100585460663,0.4730759561061859
1782846958216890600,6.928890625,-0.13155429065227509,-0.262934148311615,0.4944305121898651
1782846958226895600,6.9388955078125,-0.05597591772675514,-0.40548011660575867,0.4770997166633606
1782846958236902000,6.94890185546875,0.002788329729810357,-0.5749767422676086,0.46511468291282654
1782846958246907000,6.958906982421875,0.09295790642499924,-0.7272219657897949,0.43315836787223816
1782846958256912000,6.968911865234375,0.22532020509243011,-0.8604774475097656,0.3715762197971344
1782846958266916900,6.978916748046875,0.39099758863449097,-0.9846814274787903,0.27569442987442017
1782846958276921900,6.988921875,0.5778798460960388,-1.0481975078582764,0.14304104447364807
1782846958286926800,6.9989267578125,0.7675570845603943,-1.0279295444488525,0.0032200280111283064
1782846958296931800,7.008931884765625,0.9653977751731873,-0.9305902123451233,-0.08976210653781891
1782846958306937600,7.0189375,1.124586582183838,-0.7803632020950317,-0.0936194360256195
1782846958316942600,7.028942626953125,1.2070082426071167,-0.6073805093765259,-0.03121890500187874
1782846958326947600,7.038947509765625,1.207112431526184,-0.4171607494354248,0.06813164800405502
1782846958336952600,7.04895263671875,1.1338413953781128,-0.1698489487171173,0.1875712275505066
1782846958346957600,7.05895751953125,1.005014419555664,0.09500694274902344,0.34258556365966797
1782846958356962600,7.068962646484375,0.8665755391120911,0.2818830907344818,0.5423516631126404
1782846958366967600,7.078967529296875,0.7372428774833679,0.37285318970680237,0.7706575393676758
1782846958376973600,7.0889736328125,0.5856562852859497,0.43008187413215637,0.984920859336853
1782846958386978600,7.098978515625,0.43264544010162354,0.4758980870246887,1.1703402996063232
1782846958396983600,7.108983642578125,0.304439514875412,0.5525246858596802,1.2957695722579956
1782846958406988500,7.118988525390625,0.20028090476989746,0.6340712308883667,1.3669816255569458
1782846958416993500,7.12899365234375,0.12442528456449509,0.6878255009651184,1.331669807434082
1782846958426998500,7.13899853515625,0.05974455550312996,0.671780526638031,1.1708678007125854
1782846958437004500,7.149004638671875,-0.006202768534421921,0.5763168334960938,0.9020757675170898
1782846958447009500,7.159009521484375,-0.051290616393089294,0.45069313049316406,0.5595168471336365
1782846958457014500,7.1690146484375,-0.0961928442120552,0.3229362368583679,0.1934589445590973
1782846958467019500,7.17901953125,-0.14095258712768555,0.21011808514595032,-0.12977424263954163
1782846958477024500,7.1890244140625,-0.1593979150056839,0.09437177330255508,-0.3656722605228424
1782846958487029500,7.199029541015625,-0.15678001940250397,-0.025485917925834656,-0.5052149891853333
1782846958497034500,7.209034423828125,-0.13918238878250122,-0.1165258139371872,-0.561806321144104
1782846958507040800,7.219040771484375,-0.11443150043487549,-0.1558830738067627,-0.5704416632652283
1782846958517045800,7.229045654296875,-0.09828449040651321,-0.09978305548429489,-0.5581114888191223
1782846958527050800,7.23905078125,-0.10226405411958694,0.04529637470841408,-0.5371478796005249
1782846958537055700,7.2490556640625,-0.11735352128744125,0.19216890633106232,-0.5198943018913269
1782846958547060700,7.259060791015625,-0.12096743285655975,0.29450592398643494,-0.48510676622390747
1782846958557065700,7.269065673828125,-0.12210060656070709,0.34262391924858093,-0.38715890049934387
1782846958567070700,7.27907080078125,-0.16802628338336945,0.3437749445438385,-0.24800394475460052
1782846958577076700,7.28907666015625,-0.24101340770721436,0.3385471701622009,-0.09830925613641739
1782846958587081700,7.299081787109375,-0.3131091892719269,0.4121721088886261,-0.007451258134096861
1782846958597086700,7.309086669921875,-0.37361541390419006,0.5726425051689148,0.022915968671441078
1782846958607091700,7.319091796875,-0.4470917582511902,0.7474302649497986,-0.030712638050317764
1782846958617096700,7.3290966796875,-0.5171235799789429,1.0545241832733154,-0.19401846826076508
1782846958627101700,7.339101806640625,-0.5740241408348083,1.3550843000411987,-0.42866453528404236
1782846958637106700,7.349106689453125,-0.5539193749427795,1.3427602052688599,-0.6178749203681946
1782846958647112700,7.35911279296875,-0.42082178592681885,0.9234646558761597,-0.6814574003219604
1782846958657117700,7.36911767578125,-0.29530808329582214,0.2665134370326996,-0.6248995661735535
1782846958667122700,7.379122802734375,-0.2832293212413788,-0.30348557233810425,-0.6375911235809326
1782846958677127700,7.389127685546875,-0.3290921449661255,-0.5970168113708496,-0.7696958780288696
1782846958687132700,7.399132568359375,-0.38763055205345154,-0.5529228448867798,-0.8993212580680847
1782846958697137700,7.4091376953125,-0.3955630362033844,-0.2781336307525635,-0.86350017786026
1782846958707142700,7.419142578125,-0.3329648971557617,-0.021625665947794914,-0.6680771112442017
1782846958717148400,7.4291484375,-0.21573495864868164,0.15273122489452362,-0.3433304727077484
1782846958727153700,7.439153564453125,-0.10707958042621613,0.23808740079402924,0.05879087746143341
1782846958737158700,7.44915869140625,-0.034211233258247375,0.2892025113105774,0.4151500463485718
1782846958747163600,7.45916357421875,0.028383703902363777,0.3413655757904053,0.5925184488296509
1782846958757168600,7.469168701171875,0.1052156314253807,0.39303651452064514,0.5022793412208557
1782846958767174000,7.479173828125,0.17356033623218536,0.4133332371711731,0.1999935358762741
1782846958777179600,7.4891796875,0.18511073291301727,0.21740901470184326,-0.15708282589912415
1782846958787184600,7.4991845703125,0.18174102902412415,0.007285876199603081,-0.47037842869758606
1782846958797189600,7.509189697265625,0.12166837602853775,-0.44159871339797974,-0.6446727514266968
1782846958807194600,7.519194580078125,0.02485661394894123,-0.7679067850112915,-0.7461005449295044
1782846958817199600,7.52919970703125,0.02785773016512394,-0.8119269609451294,-0.6551112532615662
1782846958827204600,7.53920458984375,0.028869464993476868,-0.6747824549674988,-0.38603025674819946
1782846958837209600,7.549209716796875,0.08018271625041962,-0.4252508878707886,-0.0399538092315197
1782846958847215600,7.559215576171875,0.16773493587970734,-0.21191172301769257,0.28570684790611267
1782846958857220600,7.569220703125,0.28213873505592346,-0.09403461962938309,0.5155176520347595
1782846958867225600,7.5792255859375,0.383897066116333,-0.036376118659973145,0.6493386030197144
1782846958877230600,7.589230712890625,0.435714453458786,-0.027420438826084137,0.6925992369651794
1782846958887235600,7.599235595703125,0.4379781484603882,-0.05764785036444664,0.6752921342849731
1782846958897240600,7.609240478515625,0.4018736779689789,-0.20722483098506927,0.6208142638206482
1782846958907245600,7.61924560546875,0.3368387520313263,-0.40036898851394653,0.5289839506149292
1782846958917251600,7.62925146484375,0.2752470076084137,-0.5307040810585022,0.39890024065971375
1782846958927256600,7.639256591796875,0.23701360821723938,-0.546193540096283,0.24130769073963165
1782846958937261600,7.649261474609375,0.22301897406578064,-0.43992650508880615,0.05938955768942833
1782846958947266600,7.6592666015625,0.21567903459072113,-0.29069921374320984,-0.09795292466878891
1782846958957271600,7.669271484375,0.2118730992078781,-0.14221467077732086,-0.2261764109134674
1782846958967276500,7.679276611328125,0.2274150401353836,-0.02353275567293167,-0.3419831693172455
1782846958977282000,7.689281982421875,0.2539558410644531,-0.029995182529091835,-0.43087202310562134
1782846958987287000,7.699287109375,0.237692192196846,-0.09719179570674896,-0.5277746319770813
1782846958997292000,7.7092919921875,0.21343478560447693,-0.13093112409114838,-0.6296660900115967
1782846959007297000,7.719297119140625,0.2061619609594345,-0.061945393681526184,-0.6873648166656494
1782846959017302000,7.729302001953125,0.221797376871109,-0.03133315593004227,-0.6697232127189636
1782846959027307000,7.73930712890625,0.23982803523540497,-0.045155227184295654,-0.6064497232437134
1782846959037312000,7.74931201171875,0.2396267056465149,-0.11937326192855835,-0.5411120057106018
1782846959047318000,7.759318115234375,0.23094800114631653,-0.19134145975112915,-0.43232718110084534
1782846959057323000,7.769322998046875,0.23064333200454712,-0.2753719091415405,-0.2614819407463074
1782846959067328000,7.779327880859375,0.20872950553894043,-0.34176105260849,-0.08442699909210205
1782846959077333000,7.7893330078125,0.1722697764635086,-0.35607340931892395,0.05048980563879013
1782846959087338000,7.799337890625,0.13012337684631348,-0.2655387222766876,0.1348760575056076
1782846959097343000,7.809343017578125,0.08799030631780624,-0.034987546503543854,0.2155514657497406
1782846959107348000,7.819347900390625,0.0457211509346962,0.24400468170642853,0.3015633225440979
1782846959117354200,7.829354248046875,0.022158564999699593,0.481366902589798,0.4005924165248871
1782846959127359200,7.839359130859375,0.045472677797079086,0.7887982130050659,0.40774965286254883
1782846959137364200,7.8493642578125,0.13820713758468628,1.054019808769226,0.3556979298591614
1782846959147369200,7.859369140625,0.2512604594230652,1.08109450340271,0.3537364900112152
1782846959157374200,7.869374267578125,0.26178181171417236,0.8317616581916809,0.5220163464546204
1782846959167379200,7.879379150390625,0.22020374238491058,0.4363189935684204,0.8703548312187195
1782846959177385200,7.88938525390625,0.22447118163108826,0.00782862864434719,1.2557775974273682
1782846959187390200,7.89939013671875,0.29521167278289795,-0.2810297906398773,1.485253930091858
1782846959197395200,7.909395263671875,0.3741951584815979,-0.5344311594963074,1.5076853036880493
1782846959207400200,7.919400146484375,0.4027479887008667,-0.7156717777252197,1.3247753381729126
1782846959217405200,7.9294052734375,0.35041260719299316,-0.8082142472267151,1.0327975749969482
1782846959227410200,7.93941015625,0.24353621900081635,-0.8502719402313232,0.758235514163971
1782846959237415200,7.949415283203125,0.15517014265060425,-0.7731034159660339,0.5212234854698181
1782846959247421000,7.9594208984375,0.10784684121608734,-0.6005648970603943,0.3759256899356842
1782846959257426000,7.969426025390625,0.09653293341398239,-0.40480393171310425,0.3153377175331116
1782846959267431000,7.979430908203125,0.12103214859962463,-0.22296597063541412,0.33166155219078064
1782846959277436000,7.989435791015625,0.16279397904872894,-0.08651278913021088,0.3696041405200958
1782846959287441000,7.99944091796875,0.23787035048007965,0.0011398328933864832,0.4095715284347534
1782846959297446000,8.00944580078125,0.3255469501018524,0.048703890293836594,0.43843701481819153
1782846959307451100,8.019451171875,0.4297125041484833,0.033846382051706314,0.4302741587162018
1782846959317457000,8.029456787109375,0.5332514047622681,0.012822854332625866,0.397537499666214
1782846959327462000,8.0394619140625,0.5918542742729187,-0.047323837876319885,0.3517351448535919
1782846959337467000,8.049466796875,0.5904513001441956,-0.13782604038715363,0.3740617334842682
1782846959347472000,8.059471923828125,0.5132023096084595,-0.23040871322155,0.4574999213218689
1782846959357476900,8.069476806640624,0.4014318585395813,-0.34558188915252686,0.5227473378181458
1782846959367481900,8.07948193359375,0.2910821735858917,-0.3762929439544678,0.5746313333511353
1782846959377487000,8.089487060546874,0.18489901721477509,-0.3370344936847687,0.5981633067131042
1782846959387493000,8.0994931640625,0.09736783057451248,-0.29045021533966064,0.5678938031196594
1782846959397498000,8.109498046875,0.05727820470929146,-0.2133610099554062,0.46530404686927795
1782846959407503000,8.119503173828125,0.04165423661470413,-0.10540258884429932,0.30640146136283875
1782846959417508000,8.129508056640624,0.04054822400212288,0.014671887271106243,0.12342126667499542
1782846959427513000,8.13951318359375,0.04146302118897438,0.12128142267465591,-0.040227580815553665
1782846959437518000,8.14951806640625,0.02618206851184368,0.20560401678085327,-0.1561826765537262
1782846959447524000,8.159524169921875,0.002040514023974538,0.2560301721096039,-0.24653521180152893
1782846959457529000,8.169529052734376,-0.03245354816317558,0.25714871287345886,-0.31565195322036743
1782846959467534000,8.1795341796875,-0.0702294185757637,0.23418666422367096,-0.362382173538208
1782846959477539000,8.1895390625,-0.11158138513565063,0.19053532183170319,-0.39038345217704773
1782846959487544000,8.1995439453125,-0.1546710729598999,0.0771629586815834,-0.41692692041397095
1782846959497549000,8.209549072265625,-0.19419637322425842,-0.060257747769355774,-0.4483780562877655
1782846959507554000,8.219553955078124,-0.2208908349275589,-0.14913462102413177,-0.4649549126625061
1782846959517560000,8.22956005859375,-0.23354724049568176,-0.1556985229253769,-0.4597090184688568
1782846959527565000,8.23956494140625,-0.24919064342975616,-0.088251031935215,-0.44884970784187317
1782846959537570000,8.249570068359375,-0.2644697427749634,0.006842725910246372,-0.4137260615825653
1782846959547575000,8.259574951171874,-0.2732672095298767,0.04836007580161095,-0.36603471636772156
1782846959557580000,8.269580078125,-0.27365177869796753,0.026972228661179543,-0.33246371150016785
1782846959567585000,8.2795849609375,-0.29636988043785095,-0.012463860213756561,-0.3281339406967163
1782846959577590000,8.289590087890625,-0.3411807715892792,-0.027425499632954597,-0.29079243540763855
1782846959587596300,8.29959619140625,-0.35212501883506775,0.011694739572703838,-0.20263566076755524
1782846959597601300,8.309601318359375,-0.34737181663513184,0.09566234052181244,-0.0889517068862915
1782846959607606300,8.319606201171876,-0.3513769507408142,0.14653778076171875,0.031672440469264984
1782846959617611300,8.329611328125,-0.33092600107192993,0.1810118556022644,0.13574451208114624
1782846959627616300,8.3396162109375,-0.2757359743118286,0.2706216275691986,0.1903635561466217
1782846959637621200,8.349621337890625,-0.19678416848182678,0.4137023687362671,0.16246160864830017
1782846959647626200,8.359626220703126,-0.12226332724094391,0.5773277878761292,0.10707851499319077
1782846959657632000,8.369632080078125,-0.05920899659395218,0.5520424246788025,0.018221881240606308
1782846959667637000,8.379636962890626,0.001446096459403634,0.34094852209091187,-0.12552596628665924
1782846959677642000,8.38964208984375,0.04801706224679947,0.10743031650781631,-0.34342288970947266
1782846959687647200,8.399647216796875,0.12711933255195618,0.11691064387559891,-0.6159949898719788
1782846959697652200,8.40965234375,0.214847594499588,0.3335723876953125,-0.863798975944519
1782846959707657200,8.4196572265625,0.18628491461277008,0.5058093667030334,-0.97409588098526
1782846959717663000,8.4296630859375,0.07513070106506348,0.5540514588356018,-0.8960016369819641
1782846959727668000,8.43966796875,-0.03537077456712723,0.5072267055511475,-0.5465437769889832
1782846959737673000,8.4496728515625,-0.0836096778512001,0.3602151572704315,-0.33879590034484863
1782846959747678000,8.459677978515625,-0.09897425025701523,0.026798591017723083,-0.3147648572921753
1782846959757683000,8.469682861328126,-0.14109773933887482,-0.37260687351226807,-0.32688331604003906
1782846959767688000,8.47968798828125,-0.2166377604007721,-0.5964452624320984,-0.23528867959976196
1782846959777693000,8.48969287109375,-0.26489609479904175,-0.5861750841140747,-0.08884917944669724
1782846959787699000,8.499698974609375,-0.3278478980064392,-0.4754469692707062,-0.10360149294137955
