time,seconds_elapsed,z,y,x
1782846951372125200,0.084125244140625,-0.02545780874788761,-1.0523085594177246,0.22330203652381897
1782846951382130200,0.094130126953125,-0.05102335661649704,-0.9837542772293091,0.21765267848968506
1782846951392135200,0.10413525390625,-0.08224564045667648,-0.828742504119873,0.22791528701782227
1782846951402140200,0.11414013671875,-0.10553551465272903,-0.6338621973991394,0.26787814497947693
1782846951412145200,0.124145263671875,-0.11085101217031479,-0.45979946851730347,0.3390327990055084
1782846951422150100,0.134150146484375,-0.09578736871480942,-0.3617999255657196,0.42849209904670715
1782846951432155100,0.144155029296875,-0.06235426291823387,-0.33015361428260803,0.5174063444137573
1782846951442161200,0.1541611328125,-0.04368177428841591,-0.32582545280456543,0.5608276128768921
1782846951452166100,0.164166259765625,-0.05351513624191284,-0.29178985953330994,0.5397195816040039
1782846951462171100,0.174171142578125,-0.07533015310764313,-0.20209114253520966,0.4579019546508789
1782846951472176000,0.184176025390625,-0.12021215260028839,-0.12416817992925644,0.3367660939693451
1782846951482181000,0.19418115234375,-0.1704031527042389,-0.09829903393983841,0.2019219994544983
1782846951492186400,0.204186279296875,-0.2150898277759552,-0.1586567461490631,0.06474287807941437
1782846951502191400,0.21419140625,-0.2396755963563919,-0.26849961280822754,-0.10101678967475891
1782846951512197400,0.224197265625,-0.2527185380458832,-0.357402503490448,-0.2716474235057831
1782846951522202400,0.234202392578125,-0.22813674807548523,-0.36956408619880676,-0.4341801702976227
1782846951532207400,0.244207275390625,-0.16048358380794525,-0.33135882019996643,-0.5513478517532349
1782846951542212400,0.25421240234375,-0.06291894614696503,-0.27473336458206177,-0.6202632188796997
1782846951552217300,0.26421728515625,0.05908196046948433,-0.249585822224617,-0.6460506916046143
1782846951562222300,0.274222412109375,0.17189612984657288,-0.22788318991661072,-0.6505820751190186
1782846951572227300,0.284227294921875,0.24167507886886597,-0.20015664398670197,-0.6312651038169861
1782846951582233000,0.294233154296875,0.2663695216178894,-0.19318076968193054,-0.5982387065887451
1782846951592238000,0.304238037109375,0.2592787742614746,-0.16133235394954681,-0.5550005435943604
1782846951602243000,0.3142431640625,0.23723764717578888,-0.11650121957063675,-0.49161991477012634
1782846951612248000,0.324248046875,0.19601185619831085,-0.09127441048622131,-0.4074319005012512
1782846951622253000,0.334253173828125,0.14165355265140533,-0.1019773855805397,-0.33426129817962646
1782846951632258300,0.34425830078125,0.07702954858541489,-0.020993057638406754,-0.25205323100090027
1782846951642263300,0.35426318359375,-0.05565446615219116,0.20832587778568268,-0.11764001846313477
1782846951652269000,0.36426904296875,-0.27660879492759705,0.5522371530532837,0.11807045340538025
1782846951662274000,0.374274169921875,-0.5715964436531067,0.8116519451141357,0.3989673852920532
1782846951672279000,0.384279052734375,-0.834526002407074,1.000044822692871,0.5685080289840698
1782846951682284000,0.394283935546875,-0.8921003341674805,1.134101152420044,0.5590987801551819
1782846951692289000,0.4042890625,-0.6671827435493469,1.1194281578063965,0.3870578706264496
1782846951702294000,0.4142939453125,-0.18409943580627441,0.5767500400543213,0.0798121765255928
1782846951712299000,0.424299072265625,0.3029637634754181,-0.17031128704547882,-0.36179906129837036
1782846951722305300,0.43430517578125,0.5345887541770935,-0.6258774399757385,-0.8806211352348328
1782846951732310300,0.444310302734375,0.375065416097641,-0.9598535299301147,-1.3932580947875977
1782846951742315300,0.454315185546875,0.07932031899690628,-1.0073869228363037,-1.764154076576233
1782846951752320300,0.4643203125,-0.15865695476531982,-0.8596773743629456,-1.925359845161438
1782846951762325200,0.4743251953125,-0.27182692289352417,-0.7415054440498352,-1.9444563388824463
1782846951772330200,0.484330322265625,-0.248682901263237,-0.6971259713172913,-1.7953280210494995
1782846951782335200,0.494335205078125,-0.14427953958511353,-0.6480617523193359,-1.4282597303390503
1782846951792341200,0.50434130859375,-0.06731057167053223,-0.4359821379184723,-0.910269558429718
1782846951802346200,0.51434619140625,-0.046116601675748825,-0.1197674497961998,-0.44153931736946106
1782846951812351200,0.524351318359375,0.03158547729253769,0.09823928773403168,-0.22290106117725372
1782846951822356200,0.534356201171875,0.2209937572479248,0.16560260951519012,-0.2670224606990814
1782846951832361200,0.544361328125,0.4892709255218506,0.1161273643374443,-0.409601628780365
1782846951842366200,0.5543662109375,0.7175152897834778,0.07312557101249695,-0.4722224175930023
1782846951852371200,0.56437109375,0.7706016898155212,0.08969082683324814,-0.4031673073768616
1782846951862377200,0.574377197265625,0.6422386765480042,0.18409055471420288,-0.2191857546567917
1782846951872382200,0.58438232421875,0.4425925314426422,0.2537873685359955,0.053932253271341324
1782846951882387200,0.59438720703125,0.2562636733055115,0.25732511281967163,0.35292482376098633
1782846951892392200,0.60439208984375,0.10499542951583862,0.22373324632644653,0.6399355530738831
1782846951902397200,0.614397216796875,-0.03867971524596214,0.17565973103046417,0.8663391470909119
1782846951912402200,0.624402099609375,-0.1579238772392273,0.15517523884773254,0.9877722859382629
1782846951922407200,0.6344072265625,-0.2708815932273865,0.15861018002033234,0.9944831728935242
1782846951932413200,0.6444130859375,-0.38575759530067444,0.21066021919250488,0.9029233455657959
1782846951942418200,0.654418212890625,-0.501933753490448,0.28122463822364807,0.7684469819068909
1782846951952423200,0.664423095703125,-0.6208422780036926,0.3390790522098541,0.6306689977645874
1782846951962428200,0.67442822265625,-0.6794009208679199,0.31657055020332336,0.5043656826019287
1782846951972433700,0.68443359375,-0.7058960199356079,0.18740084767341614,0.4012352526187897
1782846951982438700,0.694438720703125,-0.7178557515144348,-0.02269831672310829,0.3347856402397156
1782846951992443600,0.704443603515625,-0.7200245261192322,-0.21816784143447876,0.26783931255340576
1782846952002449400,0.714449462890625,-0.7226685285568237,-0.3000217080116272,0.16176322102546692
1782846952012454400,0.724454345703125,-0.7202984094619751,-0.24993619322776794,0.007295761723071337
1782846952022459400,0.73445947265625,-0.7078979015350342,-0.13954897224903107,-0.16423338651657104
1782846952032464400,0.74446435546875,-0.6500992178916931,-0.07256388664245605,-0.32513606548309326
1782846952042469400,0.754469482421875,-0.5639709830284119,-0.027623580768704414,-0.4479924738407135
1782846952052474600,0.764474609375,-0.47385314106941223,0.027475619688630104,-0.5084232687950134
1782846952062479600,0.774479736328125,-0.4008985161781311,0.0775558277964592,-0.49245309829711914
1782846952072484600,0.784484619140625,-0.3170004189014435,0.06087293103337288,-0.3956989645957947
1782846952082490400,0.794490478515625,-0.21546635031700134,-0.018529748544096947,-0.2601025104522705
1782846952092495400,0.804495361328125,-0.13248251378536224,-0.04811513051390648,-0.13334599137306213
1782846952102500400,0.814500244140625,-0.1172870546579361,0.036332376301288605,-0.0014058074448257685
1782846952112505300,0.82450537109375,-0.17921926081180573,0.1750764399766922,0.1319628208875656
1782846952122510300,0.83451025390625,-0.3296462893486023,0.2696346342563629,0.23866157233715057
1782846952132515300,0.844515380859375,-0.5017449259757996,0.4116254150867462,0.27689313888549805
1782846952142520300,0.854520263671875,-0.6413041353225708,0.6478422284126282,0.2335139662027359
1782846952152526600,0.864526611328125,-0.6648682951927185,0.874319314956665,0.13315993547439575
1782846952162531600,0.874531494140625,-0.5565205216407776,0.9626954793930054,0.06290734559297562
1782846952172536600,0.88453662109375,-0.35087254643440247,0.8539900779724121,0.11482390016317368
1782846952182541600,0.89454150390625,-0.10667026042938232,0.5401738882064819,0.37187671661376953
1782846952192546600,0.904546630859375,0.13071203231811523,0.12390803545713425,0.7588278651237488
1782846952202551600,0.914551513671875,0.32028621435165405,-0.26590707898139954,1.0829834938049316
1782846952212556500,0.924556640625,0.48724159598350525,-0.4887025058269501,1.1501611471176147
1782846952222562600,0.9345625,0.647405207157135,-0.46626991033554077,0.9557200074195862
1782846952232567600,0.944567626953125,0.741824746131897,-0.29849451780319214,0.5773105025291443
1782846952242572500,0.954572509765625,0.8099939823150635,0.041431915014982224,0.24464383721351624
1782846952252577500,0.96457763671875,0.8178576827049255,0.32296833395957947,0.09035229682922363
1782846952262582500,0.97458251953125,0.7281461954116821,0.5034601092338562,0.09483519941568375
1782846952272587500,0.98458740234375,0.5898427963256836,0.523666501045227,0.2080920785665512
1782846952282592500,0.994592529296875,0.4851219356060028,0.32228681445121765,0.37363842129707336
1782846952292597500,1.004597412109375,0.4082852900028229,-0.012815186753869057,0.54847651720047
1782846952302603500,1.014603515625,0.3337828516960144,-0.3409019708633423,0.7107061743736267
1782846952312608500,1.0246083984375,0.3117746412754059,-0.579991340637207,0.8501352071762085
1782846952322613500,1.034613525390625,0.30964067578315735,-0.7053234577178955,0.9568965435028076
1782846952332618500,1.044618408203125,0.2782985270023346,-0.6440406441688538,1.0188186168670654
1782846952342623500,1.05462353515625,0.26656651496887207,-0.5752705931663513,0.9698622822761536
1782846952352628500,1.06462841796875,0.28493762016296387,-0.5553380250930786,0.8467493057250977
1782846952362633500,1.074633544921875,0.28518983721733093,-0.5404557585716248,0.700036346912384
1782846952372639500,1.084639404296875,0.2398148626089096,-0.511109471321106,0.5498295426368713
1782846952382644500,1.09464453125,0.13238108158111572,-0.4864957332611084,0.4110429286956787
1782846952392649500,1.1046494140625,0.0007410936523228884,-0.5005263686180115,0.3220084607601166
1782846952402654500,1.114654541015625,-0.13612301647663116,-0.5688303112983704,0.3052390515804291
1782846952412659500,1.124659423828125,-0.27298903465270996,-0.6163129806518555,0.34283527731895447
1782846952422664700,1.134664794921875,-0.40256673097610474,-0.5092677474021912,0.4118785262107849
1782846952432669700,1.144669677734375,-0.4957176148891449,-0.3661690354347229,0.4733717739582062
1782846952442675700,1.15467578125,-0.5392805337905884,-0.2579871714115143,0.48513415455818176
1782846952452680700,1.1646806640625,-0.5360553860664368,-0.17320165038108826,0.43976378440856934
1782846952462685700,1.174685791015625,-0.49717190861701965,-0.12761951982975006,0.3570268154144287
1782846952472690700,1.184690673828125,-0.4409985840320587,-0.1320229470729828,0.24649178981781006
1782846952482695700,1.19469580078125,-0.3900536596775055,-0.19129106402397156,0.10850542038679123
1782846952492700700,1.20470068359375,-0.3348299562931061,-0.28349077701568604,-0.03130298852920532
1782846952502705700,1.21470556640625,-0.2668604850769043,-0.3809816539287567,-0.14310701191425323
1782846952512710700,1.224710693359375,-0.21735133230686188,-0.4618091881275177,-0.21623893082141876
1782846952522716400,1.23471630859375,-0.17268958687782288,-0.517945408821106,-0.23336970806121826
1782846952532721400,1.244721435546875,-0.1419275403022766,-0.5741846561431885,-0.18899112939834595
1782846952542726400,1.254726318359375,-0.12471020221710205,-0.5815584063529968,-0.10104477405548096
1782846952552731400,1.2647314453125,-0.10715926438570023,-0.5283382534980774,0.024330783635377884
1782846952562736400,1.274736328125,-0.0879589393734932,-0.4403119683265686,0.155929297208786
1782846952572741600,1.28474169921875,-0.08414173871278763,-0.3202251195907593,0.284242182970047
1782846952582746600,1.29474658203125,-0.12047098577022552,-0.19323335587978363,0.3781002461910248
1782846952592752400,1.30475244140625,-0.181461900472641,-0.0601477324962616,0.48178428411483765
1782846952602757400,1.31475732421875,-0.23799122869968414,0.0941515564918518,0.6267433166503906
1782846952612762400,1.324762451171875,-0.28084075450897217,0.2698538303375244,0.789254903793335
1782846952622767400,1.334767333984375,-0.3052979111671448,0.6245067119598389,0.9609387516975403
1782846952632772400,1.3447724609375,-0.34568899869918823,1.1424089670181274,1.039618968963623
1782846952642777300,1.35477734375,-0.4308963119983673,1.6150028705596924,0.9067482352256775
1782846952652782300,1.3647822265625,-0.5062803030014038,1.7318841218948364,0.6125736832618713
1782846952662788600,1.37478857421875,-0.47511762380599976,1.3170274496078491,0.25967472791671753
1782846952672793600,1.384793701171875,-0.35495761036872864,0.7132238149642944,-0.07304856926202774
1782846952682798600,1.394798583984375,-0.18926796317100525,0.16483266651630402,-0.4930245280265808
1782846952692803600,1.404803466796875,-0.05483012646436691,-0.5152468085289001,-1.2442083358764648
1782846952702808600,1.41480859375,-0.1269376128911972,-1.0303021669387817,-2.0383036136627197
1782846952712813600,1.4248134765625,-0.3927367925643921,-0.883841872215271,-2.2798702716827393
1782846952722818600,1.434818603515625,-0.5898889899253845,-0.3645899295806885,-1.981900691986084
1782846952732823600,1.444823486328125,-0.5146908760070801,0.016517039388418198,-1.2680063247680664
1782846952742829600,1.45482958984375,-0.2003113478422165,0.1309536099433899,-0.21761611104011536
1782846952752834600,1.46483447265625,0.1772039234638214,0.17239947617053986,0.8940709233283997
1782846952762839600,1.474839599609375,0.4944332540035248,0.3303891122341156,1.751493215560913
1782846952772844500,1.484844482421875,0.728448212146759,0.5963960289955139,2.1496198177337646
1782846952782849500,1.494849609375,0.8565161824226379,0.9169564843177795,2.0626473426818848
1782846952792854500,1.5048544921875,0.844028890132904,1.0666296482086182,1.5281404256820679
1782846952802859500,1.514859619140625,0.708871066570282,0.9532862901687622,0.7341464161872864
1782846952812865500,1.524865478515625,0.5076903700828552,0.689034640789032,-0.058720216155052185
1782846952822870500,1.53487060546875,0.316040575504303,0.3313606381416321,-0.6886462569236755
1782846952832875500,1.54487548828125,0.1835440844297409,-0.03957696259021759,-1.0942493677139282
1782846952842880500,1.554880615234375,0.10681015998125076,-0.3236507475376129,-1.296164870262146
1782846952852885500,1.564885498046875,0.06820604205131531,-0.4461929202079773,-1.3182861804962158
1782846952862890500,1.574890380859375,0.08154261857271194,-0.4664105772972107,-1.19650399684906
1782846952872895500,1.5848955078125,0.13447268307209015,-0.46878430247306824,-0.9621273279190063
1782846952882900500,1.594900390625,0.19176553189754486,-0.4842279851436615,-0.6688799858093262
1782846952892906500,1.604906494140625,0.2359233796596527,-0.4980369210243225,-0.3633548319339752
1782846952902911500,1.614911376953125,0.24468331038951874,-0.4846239387989044,-0.07905253767967224
1782846952912916500,1.62491650390625,0.21793299913406372,-0.4540405869483948,0.15888842940330505
1782846952922921500,1.63492138671875,0.16171661019325256,-0.3943977653980255,0.36212438344955444
1782846952932926500,1.644926513671875,0.07690885663032532,-0.31333714723587036,0.5118438005447388
1782846952942931500,1.654931396484375,-0.017414189875125885,-0.2267514169216156,0.5917479395866394
1782846952952936400,1.6649365234375,-0.10256889462471008,-0.13451306521892548,0.5864274501800537
1782846952962942700,1.674942626953125,-0.18674875795841217,-0.07647852599620819,0.4931153357028961
1782846952972948000,1.684947998046875,-0.2439091056585312,-0.07567986845970154,0.3084062933921814
1782846952982953000,1.694952880859375,-0.2800804376602173,-0.07720346003770828,0.045113127678632736
1782846952992958000,1.7049580078125,-0.30086177587509155,-0.06209397315979004,-0.28245824575424194
1782846953002963000,1.714962890625,-0.3050088584423065,-0.056486956775188446,-0.6162367463111877
1782846953012968000,1.724968017578125,-0.2789839208126068,-0.08261309564113617,-0.9326948523521423
1782846953022973200,1.73497314453125,-0.2228054255247116,-0.15399998426437378,-1.2235957384109497
1782846953032978200,1.744978271484375,-0.14518439769744873,-0.22355136275291443,-1.4920676946640015
1782846953042984200,1.754984130859375,-0.06471539288759232,-0.2506127953529358,-1.6602580547332764
1782846953052989200,1.7649892578125,0.025883473455905914,-0.24400688707828522,-1.6873315572738647
1782846953062994200,1.774994140625,0.13237076997756958,-0.22019636631011963,-1.551315188407898
1782846953072999200,1.784999267578125,0.2500607371330261,-0.163542240858078,-1.232202410697937
1782846953083004200,1.795004150390625,0.3337620496749878,-0.05816974490880966,-0.7395487427711487
1782846953093009200,1.805009033203125,0.3605889081954956,0.11941195279359818,-0.16348667442798615
1782846953103014100,1.81501416015625,0.32725414633750916,0.39332446455955505,0.37771347165107727
1782846953113020200,1.825020263671875,0.24405518174171448,0.7400459051132202,0.7589538097381592
1782846953123025200,1.835025146484375,0.12587475776672363,1.094820261001587,0.948456883430481
1782846953133030100,1.845030029296875,0.02302199974656105,1.386518955230713,0.9808822274208069
1782846953143035100,1.85503515625,-0.04852169379591942,1.5347081422805786,0.8529820442199707
1782846953153040100,1.8650400390625,-0.051375579088926315,1.473870038986206,0.5766003131866455
1782846953163045000,1.875045166015625,-0.03913409262895584,1.208604335784912,0.22063156962394714
1782846953173050000,1.885050048828125,-0.05575159564614296,0.8877734541893005,-0.1260492205619812
1782846953183055000,1.89505517578125,-0.12185151875019073,0.6446247100830078,-0.37444067001342773
1782846953193061000,1.90506103515625,-0.21252673864364624,0.5320096611976624,-0.4902898073196411
1782846953203066000,1.915066162109375,-0.27789244055747986,0.5056707262992859,-0.5000748038291931
1782846953213071000,1.925071044921875,-0.3049446642398834,0.5169551968574524,-0.48103955388069153
1782846953223076000,1.935076171875,-0.2838239073753357,0.5243009924888611,-0.4447787404060364
1782846953233081000,1.9450810546875,-0.23863086104393005,0.4377081096172333,-0.37205037474632263
1782846953243086000,1.955086181640625,-0.17953398823738098,0.17518086731433868,-0.23721373081207275
1782846953253091000,1.965091064453125,-0.12200584262609482,-0.294830858707428,-0.042333897203207016
1782846953263097000,1.97509716796875,-0.07661838829517365,-0.7984122633934021,0.20621812343597412
1782846953273102000,1.98510205078125,-0.03982287272810936,-1.2104843854904175,0.45266202092170715
1782846953283107000,1.995107177734375,-0.009004239924252033,-1.4946218729019165,0.6220753192901611
1782846953293112000,2.005112060546875,0.06442584097385406,-1.63048255443573,0.662366509437561
1782846953303117000,2.015116943359375,0.19733436405658722,-1.611116886138916,0.5947073101997375
1782846953313122000,2.0251220703125,0.38256627321243286,-1.3942334651947021,0.41941016912460327
1782846953323127000,2.035126953125,0.5679561495780945,-0.9391868114471436,0.17114603519439697
1782846953333132300,2.04513232421875,0.7155634164810181,-0.3598756790161133,-0.04574081301689148
1782846953343138300,2.05513818359375,0.8090715408325195,0.21986493468284607,-0.14984405040740967
1782846953353143300,2.065143310546875,0.8497753739356995,0.5782846212387085,-0.09446962177753448
1782846953363148300,2.075148193359375,0.8601105809211731,0.7005003094673157,0.10469168424606323
1782846953373153300,2.0851533203125,0.8447983264923096,0.6528490781784058,0.37125757336616516
1782846953383158300,2.095158203125,0.8181731104850769,0.4610055983066559,0.6532783508300781
1782846953393163300,2.105163330078125,0.7620756030082703,0.2436559498310089,0.8930915594100952
1782846953403168300,2.115168212890625,0.7071422934532166,0.04338303580880165,1.077776551246643
1782846953413174300,2.12517431640625,0.6476854681968689,-0.12930049002170563,1.2147234678268433
1782846953423179300,2.13517919921875,0.5867475867271423,-0.21014873683452606,1.288801908493042
1782846953433184300,2.145184326171875,0.5169696807861328,-0.14014370739459991,1.2821191549301147
1782846953443189200,2.155189208984375,0.42456597089767456,0.02831108495593071,1.2037817239761353
1782846953453194200,2.1651943359375,0.33545297384262085,0.20337162911891937,1.0872291326522827
1782846953463199200,2.17519921875,0.26461154222488403,0.3014526665210724,0.9488640427589417
1782846953473204200,2.185204345703125,0.20234666764736176,0.2982349395751953,0.7916033864021301
1782846953483209200,2.195209228515625,0.13849525153636932,0.18788285553455353,0.6192659735679626
1782846953493215000,2.205215087890625,0.09500028938055038,-0.021262986585497856,0.45120716094970703
1782846953503220000,2.215219970703125,0.04810894653201103,-0.27636054158210754,0.27984073758125305
1782846953513225000,2.225224853515625,-0.002643399406224489,-0.5320770740509033,0.10750170797109604
1782846953523230000,2.23522998046875,-0.06431847810745239,-0.7364038228988647,-0.06545036286115646
1782846953533235200,2.245235107421875,-0.11361368000507355,-0.8393761515617371,-0.2285183221101761
1782846953543240200,2.255240234375,-0.14654846489429474,-0.8344413042068481,-0.37365153431892395
1782846953553245200,2.2652451171875,-0.15350762009620667,-0.7249101996421814,-0.4870462417602539
1782846953563251200,2.275251220703125,-0.14149756729602814,-0.5824273228645325,-0.5596621036529541
1782846953573256200,2.285256103515625,-0.1277017444372177,-0.43510565161705017,-0.5972446203231812
1782846953583261200,2.29526123046875,-0.10978773236274719,-0.31309959292411804,-0.6199904084205627
1782846953593266200,2.30526611328125,-0.1034269705414772,-0.2227412611246109,-0.6124289631843567
1782846953603271200,2.315271240234375,-0.10887154191732407,-0.12544000148773193,-0.5576599836349487
1782846953613276200,2.325276123046875,-0.1656188815832138,-0.0317179299890995,-0.5209550261497498
1782846953623281200,2.33528125,-0.2501116693019867,0.1413867473602295,-0.6076342463493347
1782846953633286100,2.3452861328125,-0.3213549852371216,0.5189570188522339,-0.9092146158218384
1782846953643292200,2.355292236328125,-0.28755176067352295,0.7809199094772339,-1.3403228521347046
1782846953653297200,2.365297119140625,-0.1404867023229599,0.5317851901054382,-1.723240613937378
1782846953663302100,2.37530224609375,0.012770765461027622,-0.03555599972605705,-1.9381086826324463
1782846953673307100,2.38530712890625,0.07761140912771225,-0.5849025249481201,-2.018157720565796
1782846953683312000,2.39531201171875,0.02814399264752865,-1.062958836555481,-1.981921911239624
1782846953693317000,2.405317138671875,-0.05562189966440201,-1.412652611732483,-1.772002935409546
1782846953703322000,2.415322021484375,-0.1667497456073761,-1.4682537317276,-1.4065886735916138
1782846953713328000,2.425328125,-0.2256242036819458,-1.196582555770874,-0.9526336193084717
1782846953723333000,2.4353330078125,-0.14628782868385315,-0.7799203991889954,-0.43829306960105896
1782846953733338000,2.445338134765625,0.06405597925186157,-0.3356214463710785,0.12366867065429688
1782846953743343000,2.455343017578125,0.3297553062438965,0.09685567021369934,0.650118350982666
1782846953753348000,2.46534814453125,0.5616028308868408,0.45921337604522705,1.0283259153366089
1782846953763353000,2.47535302734375,0.7036440968513489,0.7036582231521606,1.189208984375
1782846953773358000,2.485358154296875,0.7404221892356873,0.7824401259422302,1.1504193544387817
1782846953783363000,2.495363037109375,0.6712188720703125,0.6943086981773376,0.9743641018867493
1782846953793369000,2.505369140625,0.5147342085838318,0.49772486090660095,0.7257292866706848
1782846953803374000,2.5153740234375,0.31940439343452454,0.2560400366783142,0.46245771646499634
1782846953813379000,2.525379150390625,0.1296791285276413,-0.031191766262054443,0.23158979415893555
1782846953823384000,2.535384033203125,-0.04167931526899338,-0.3086795508861542,0.039931148290634155
1782846953833389000,2.54538916015625,-0.18529920279979706,-0.4405638575553894,-0.1126367375254631
1782846953843394000,2.55539404296875,-0.3063441514968872,-0.4200071692466736,-0.17034263908863068
1782846953853399000,2.56539892578125,-0.4125470519065857,-0.330774188041687,-0.11968450248241425
1782846953863404000,2.575404052734375,-0.4922834038734436,-0.2431873381137848,-0.011517549864947796
1782846953873410300,2.585410400390625,-0.5383012890815735,-0.16362610459327698,0.12125197052955627
1782846953883415300,2.595415283203125,-0.5470702648162842,-0.1065274104475975,0.23185279965400696
1782846953893420300,2.605420166015625,-0.5387224555015564,-0.07022543996572495,0.31074419617652893
1782846953903425300,2.61542529296875,-0.4944465756416321,-0.0766601637005806,0.33825811743736267
1782846953913430300,2.62543017578125,-0.43936169147491455,-0.13096490502357483,0.31568771600723267
1782846953923435300,2.635435302734375,-0.38316312432289124,-0.1869991421699524,0.25199422240257263
1782846953933440300,2.645440185546875,-0.32794249057769775,-0.22464831173419952,0.16278515756130219
1782846953943446300,2.6554462890625,-0.2919485569000244,-0.26475682854652405,0.05293749272823334
1782846953953451300,2.665451171875,-0.2805061638355255,-0.2908068597316742,-0.0592464879155159
1782846953963456300,2.675456298828125,-0.2869664430618286,-0.3027982711791992,-0.15362544357776642
1782846953973460200,2.685460205078125,-0.30520159006118774,-0.3132137656211853,-0.2510879635810852
1782846953983465200,2.69546533203125,-0.3216082453727722,-0.3232339024543762,-0.3506600856781006
1782846953993470200,2.70547021484375,-0.3486970365047455,-0.3481861650943756,-0.47385457158088684
1782846954003475200,2.71547509765625,-0.38418686389923096,-0.3721247911453247,-0.5819733738899231
1782846954013481200,2.725481201171875,-0.4227139353752136,-0.42084595561027527,-0.6561819314956665
1782846954023486200,2.735486328125,-0.449847549200058,-0.4962054193019867,-0.6596395373344421
1782846954033491200,2.7454912109375,-0.4733707010746002,-0.6049580574035645,-0.590491771697998
1782846954043496200,2.75549609375,-0.5065025687217712,-0.7089532017707825,-0.5090832114219666
1782846954053501200,2.765501220703125,-0.5243087410926819,-0.7274688482284546,-0.42271366715431213
1782846954063506200,2.775506103515625,-0.5081870555877686,-0.6378005146980286,-0.359293133020401
1782846954073511200,2.78551123046875,-0.43220460414886475,-0.37418651580810547,-0.315146267414093
1782846954083516200,2.79551611328125,-0.3079494833946228,-0.03445449844002724,-0.24447928369045258
1782846954093522200,2.805522216796875,-0.21811245381832123,0.26713135838508606,-0.13856826722621918
1782846954103527200,2.815527099609375,-0.18654119968414307,0.4983685612678528,-0.018559299409389496
1782846954113532200,2.8255322265625,-0.200922429561615,0.6261557936668396,0.10329185426235199
1782846954123537200,2.835537109375,-0.23968181014060974,0.6472024917602539,0.251591295003891
1782846954133542100,2.845542236328125,-0.27866679430007935,0.6163660883903503,0.47468751668930054
1782846954143547100,2.855547119140625,-0.29489636421203613,0.5932453274726868,0.7690219879150391
1782846954153552100,2.86555224609375,-0.2927185893058777,0.5621475577354431,0.9825032353401184
1782846954163558100,2.87555810546875,-0.269047349691391,0.4736190438270569,0.9973836541175842
1782846954173563100,2.885563232421875,-0.2209298014640808,0.3281604051589966,0.8467130064964294
1782846954183568100,2.895568115234375,-0.15295261144638062,0.1899961531162262,0.6161367893218994
1782846954193573000,2.905572998046875,-0.07873387634754181,0.0896557942032814,0.36541450023651123
1782846954203578000,2.915578125,-0.025396620854735374,-0.009006334468722343,0.12285807728767395
1782846954213583000,2.9255830078125,-0.0036399168893694878,-0.11769919842481613,-0.07674335688352585
1782846954223588400,2.93558837890625,0.005187663249671459,-0.19297558069229126,-0.1753532886505127
1782846954233593300,2.94559326171875,0.004176203161478043,-0.1966906189918518,-0.14705604314804077
1782846954243599000,2.95559912109375,0.00016255327500402927,-0.1282188892364502,-0.05165468528866768
1782846954253604000,2.96560400390625,0.005052907392382622,0.03218776732683182,0.09594693034887314
1782846954263609000,2.975609130859375,0.03215989097952843,0.24605530500411987,0.22378849983215332
1782846954273614000,2.985614013671875,0.09794178605079651,0.4558171331882477,0.2809849977493286
1782846954283619000,2.995619140625,0.19827158749103546,0.5853509306907654,0.24021650850772858
1782846954293624000,3.0056240234375,0.3482881486415863,0.655390202999115,0.08787509053945541
1782846954303629000,3.015629150390625,0.5234923958778381,0.7038541436195374,-0.17311708629131317
1782846954313634000,3.025634033203125,0.6757577061653137,0.6924874782562256,-0.4532209038734436
1782846954323640000,3.03564013671875,0.7979898452758789,0.5481172800064087,-0.6663930416107178
1782846954333645000,3.04564501953125,0.8771108388900757,0.27058470249176025,-0.7913879752159119
1782846954343650000,3.055650146484375,0.9100090861320496,-0.04478682950139046,-0.8392995595932007
1782846954353655000,3.065655029296875,0.9132731556892395,-0.28823766112327576,-0.8262491822242737
1782846954363660000,3.075659912109375,0.8645932674407959,-0.35099825263023376,-0.7490505576133728
1782846954373665000,3.0856650390625,0.7802488207817078,-0.22475455701351166,-0.5696035623550415
1782846954383670000,3.095669921875,0.6875044703483582,0.009786571376025677,-0.3065679669380188
1782846954393676000,3.105676025390625,0.5881823301315308,0.28122955560684204,-0.012182807549834251
1782846954403681000,3.115680908203125,0.49418261647224426,0.5219809412956238,0.25453436374664307
1782846954413686000,3.12568603515625,0.41091814637184143,0.6709682941436768,0.4275776743888855
1782846954423691000,3.13569091796875,0.35651934146881104,0.7165560126304626,0.49791017174720764
1782846954433696000,3.145696044921875,0.32276663184165955,0.6524924039840698,0.489793598651886
1782846954443701200,3.155701171875,0.3045647442340851,0.5052270293235779,0.39812174439430237
1782846954453706200,3.165706298828125,0.2811741828918457,0.3491552174091339,0.24405422806739807
1782846954463711200,3.175711181640625,0.2583130896091461,0.1984620988368988,0.06428179889917374
1782846954473717200,3.18571728515625,0.23348595201969147,0.0590529665350914,-0.09743247181177139
1782846954483722200,3.19572216796875,0.2021264284849167,-0.04330110177397728,-0.24918046593666077
1782846954493727200,3.205727294921875,0.17810630798339844,-0.07425667345523834,-0.36771276593208313
1782846954503732200,3.215732177734375,0.15999335050582886,-0.05744973570108414,-0.4263579845428467
1782846954513737200,3.2257373046875,0.13746421039104462,-0.020254194736480713,-0.41826725006103516
1782846954523742200,3.2357421875,0.0974896177649498,0.0006857081316411495,-0.3537934422492981
1782846954533747200,3.245747314453125,0.015516366809606552,-0.019231917336583138,-0.26266613602638245
1782846954543753200,3.255753173828125,-0.11574844270944595,-0.08996281027793884,-0.1872645765542984
1782846954553758200,3.26575830078125,-0.28483620285987854,-0.18269723653793335,-0.13297908008098602
1782846954563763200,3.27576318359375,-0.50272136926651,-0.24577847123146057,-0.08749574422836304
1782846954573768200,3.285768310546875,-0.7466115355491638,-0.27200785279273987,-0.07335218042135239
1782846954583773200,3.295773193359375,-0.9772918820381165,-0.22953657805919647,-0.10803186148405075
1782846954593778200,3.305778076171875,-1.1552249193191528,-0.06549875438213348,-0.14534105360507965
1782846954603783200,3.315783203125,-1.244247555732727,0.3328227996826172,-0.10762988775968552
1782846954613788200,3.3257880859375,-1.2804285287857056,0.7804957628250122,0.012864109128713608
1782846954623794200,3.335794189453125,-1.2820788621902466,1.095735788345337,0.11693671345710754
1782846954633799200,3.345799072265625,-1.166991949081421,1.132048487663269,0.05904310569167137
1782846954643804200,3.35580419921875,-0.8681548833847046,0.7729385495185852,-0.2823541760444641
1782846954653809200,3.36580908203125,-0.5381899476051331,0.1022142767906189,-0.960292398929596
1782846954663814100,3.375814208984375,-0.4469641447067261,-0.5692064166069031,-1.8212292194366455
1782846954673819100,3.385819091796875,-0.5901342034339905,-0.9452590942382812,-2.3720593452453613
1782846954683824000,3.39582421875,-0.7415341138839722,-1.0380762815475464,-2.3223559856414795
1782846954693829000,3.4058291015625,-0.7333611845970154,-0.9660434126853943,-1.899234652519226
1782846954703835100,3.415835205078125,-0.5339178442955017,-0.7838003635406494,-1.3072013854980469
1782846954713840000,3.425840087890625,-0.2226061373949051,-0.5226079821586609,-0.7385689616203308
1782846954723845000,3.43584521484375,0.08104030787944794,-0.16746081411838531,-0.3482978641986847
1782846954733850400,3.445850341796875,0.29973047971725464,0.17789679765701294,-0.18861590325832367
1782846954743855400,3.45585546875,0.4396979808807373,0.3595938980579376,-0.18457935750484467
1782846954753860400,3.4658603515625,0.537970781326294,0.32083410024642944,-0.20254383981227875
1782846954763865300,3.475865234375,0.6287899017333984,0.14911800622940063,-0.1733955442905426
1782846954773871000,3.48587109375,0.7245345711708069,-0.04196707904338837,-0.07062865793704987
1782846954783876000,3.4958759765625,0.8087120056152344,-0.22143776714801788,0.08461525291204453
1782846954793881000,3.505881103515625,0.8743035197257996,-0.4012450575828552,0.27376511693000793
1782846954803886000,3.515885986328125,0.925671398639679,-0.5903369784355164,0.45979732275009155
1782846954813891000,3.52589111328125,0.9329369068145752,-0.7274662852287292,0.6098360419273376
1782846954823896000,3.53589599609375,0.8848761916160583,-0.7564244270324707,0.7175707221031189
1782846954833901000,3.545901123046875,0.8086754083633423,-0.642788827419281,0.8102667331695557
1782846954843906000,3.555906005859375,0.6925488114356995,-0.42194992303848267,0.9121877551078796
1782846954853912000,3.565912109375,0.5375621914863586,-0.13115769624710083,1.0105785131454468
1782846954863917000,3.5759169921875,0.348507285118103,0.15943366289138794,1.0780342817306519
1782846954873922000,3.585922119140625,0.15171007812023163,0.3853437900543213,1.084730863571167
1782846954883927000,3.595927001953125,-0.03792589157819748,0.4904734194278717,1.0176950693130493
1782846954893932000,3.60593212890625,-0.21377886831760406,0.48439347743988037,0.8924776911735535
1782846954903937000,3.61593701171875,-0.3729666769504547,0.40102189779281616,0.7149508595466614
1782846954913942000,3.62594189453125,-0.5196245908737183,0.29466837644577026,0.4773162305355072
1782846954923947000,3.635947021484375,-0.6414234638214111,0.20394298434257507,0.20866850018501282
1782846954933953000,3.645953125,-0.7208961844444275,0.10955370962619781,-0.0849527046084404
1782846954943958000,3.6559580078125,-0.7376088500022888,-0.0045571476221084595,-0.37849029898643494
1782846954953963000,3.665962890625,-0.703218936920166,-0.09472919255495071,-0.6391674876213074
1782846954963968000,3.675968017578125,-0.6405113339424133,-0.15469986200332642,-0.8621273040771484
1782846954973972700,3.68597265625,-0.5548340082168579,-0.2195948213338852,-1.009312391281128
1782846954983977700,3.695977783203125,-0.4472806453704834,-0.2922903597354889,-1.0375001430511475
1782846954993982700,3.705982666015625,-0.33596736192703247,-0.3570999205112457,-0.951070249080658
1782846955003989000,3.715989013671875,-0.23392727971076965,-0.38136929273605347,-0.7990722060203552
1782846955013994000,3.725993896484375,-0.15524275600910187,-0.3416515290737152,-0.6142243146896362
1782846955023999000,3.7359990234375,-0.10522032529115677,-0.25017303228378296,-0.43269631266593933
1782846955034004000,3.74600390625,-0.07855793088674545,-0.12670964002609253,-0.2579345107078552
1782846955044009000,3.756009033203125,-0.06147029250860214,0.02076450176537037,-0.08518695086240768
1782846955054014000,3.766013916015625,-0.03289182111620903,0.15712565183639526,0.06865502148866653
1782846955064019000,3.77601904296875,0.0229440126568079,0.2511086165904999,0.19515357911586761
1782846955074024000,3.78602392578125,0.09311600029468536,0.2799225151538849,0.2696631848812103
1782846955084030000,3.796030029296875,0.177947536110878,0.2623823881149292,0.2665254473686218
1782846955094035000,3.806034912109375,0.23891286551952362,0.21918939054012299,0.17162534594535828
1782846955104040000,3.8160400390625,0.25079667568206787,0.2603676915168762,-0.006037064827978611
1782846955114045000,3.826044921875,0.23670907318592072,0.4891067147254944,-0.25451403856277466
1782846955124050000,3.8360498046875,0.25513097643852234,0.7719488143920898,-0.5622681379318237
1782846955134055000,3.846054931640625,0.3412827253341675,0.9164248704910278,-0.8120819330215454
1782846955144060000,3.856059814453125,0.44076189398765564,0.7643150091171265,-0.8775866031646729
1782846955154066000,3.86606591796875,0.4269914925098419,0.33879029750823975,-0.6703413724899292
1782846955164071000,3.87607080078125,0.2518276572227478,-0.19103789329528809,-0.17554788291454315
1782846955174076000,3.886075927734375,0.08769010752439499,-0.5975141525268555,0.43609774112701416
1782846955184081000,3.896080810546875,0.116689532995224,-0.7186938524246216,0.935969889163971
1782846955194086000,3.9060859375,0.33097150921821594,-0.5066590309143066,1.2103989124298096
1782846955204091000,3.9160908203125,0.6507013440132141,-0.1058138832449913,1.1982172727584839
1782846955214096000,3.926095947265625,0.9184984564781189,0.27247995138168335,0.9689968228340149
1782846955224102000,3.936101806640625,1.0077236890792847,0.4270673990249634,0.7172356843948364
1782846955234107100,3.946107177734375,0.9020688533782959,0.3487715721130371,0.5347929000854492
1782846955244112100,3.956112060546875,0.6886807084083557,0.14399448037147522,0.39820897579193115
1782846955254117000,3.9661171875,0.4548751413822174,-0.09640315175056458,0.2645154595375061
1782846955264122000,3.9761220703125,0.2758537232875824,-0.2943476736545563,0.11046943813562393
1782846955274127000,3.986127197265625,0.18654079735279083,-0.3989570736885071,-0.03382173553109169
1782846955284132000,3.996132080078125,0.20260977745056152,-0.44454026222229004,-0.14070050418376923
1782846955294137000,4.00613720703125,0.2737424373626709,-0.46481582522392273,-0.17858946323394775
1782846955304142800,4.016142822265625,0.34941643476486206,-0.45788466930389404,-0.1389504373073578
1782846955314147800,4.02614794921875,0.3864828646183014,-0.4298444390296936,-0.044002845883369446
1782846955324152800,4.03615283203125,0.37342432141304016,-0.3464864492416382,0.06736202538013458
1782846955334157800,4.04615771484375,0.3200097978115082,-0.24088338017463684,0.1572820246219635
1782846955344162800,4.056162841796875,0.2673591077327728,-0.26478657126426697,0.23694568872451782
1782846955354168000,4.06616796875,0.22217172384262085,-0.4309861660003662,0.3453178107738495
1782846955364173000,4.076173095703125,0.15381744503974915,-0.5644240975379944,0.4992751479148865
1782846955374178000,4.086177978515625,0.026432322338223457,-0.567153811454773,0.7060270309448242
1782846955384183800,4.096183837890625,-0.1508612334728241,-0.463348925113678,0.9448310732841492
1782846955394188800,4.106188720703125,-0.32635506987571716,-0.3188905417919159,1.162074327468872
1782846955404193800,4.11619384765625,-0.45817941427230835,-0.18460680544376373,1.269997000694275
1782846955414198800,4.12619873046875,-0.5149322748184204,-0.07969753444194794,1.211764931678772
1782846955424203800,4.136203857421875,-0.4874125123023987,0.02895357832312584,0.9824196696281433
1782846955434208800,4.146208740234375,-0.42277055978775024,0.12378386408090591,0.6692113876342773
1782846955444213800,4.1562138671875,-0.3637109696865082,0.14587265253067017,0.3357207775115967
1782846955454219800,4.1662197265625,-0.3183048367500305,0.09520447999238968,0.07207346707582474
1782846955464224800,4.176224853515625,-0.28561028838157654,-0.03826649487018585,-0.09884155541658401
1782846955474229800,4.186229736328125,-0.2433994710445404,-0.2408028393983841,-0.18379978835582733
1782846955484234800,4.19623486328125,-0.16897504031658173,-0.4591650068759918,-0.22729027271270752
1782846955494239700,4.20623974609375,-0.09333202987909317,-0.5924201011657715,-0.26608341932296753
1782846955504244700,4.21624462890625,-0.04003472253680229,-0.558613121509552,-0.31897592544555664
1782846955514249700,4.226249755859375,-0.021902985870838165,-0.3795783817768097,-0.3864551782608032
1782846955524254700,4.236254638671875,-0.023099277168512344,-0.13902434706687927,-0.4764511287212372
1782846955534261000,4.246260986328125,-0.04520845413208008,0.08017981797456741,-0.5746781229972839
1782846955544266000,4.256265869140625,-0.06911671906709671,0.23273073136806488,-0.6374062299728394
1782846955554271000,4.26627099609375,-0.09094744920730591,0.30747634172439575,-0.6291946172714233
1782846955564276000,4.27627587890625,-0.1386023312807083,0.3214779198169708,-0.5757638812065125
1782846955574281000,4.286281005859375,-0.22213876247406006,0.3961907625198364,-0.5391603708267212
1782846955584286000,4.296285888671875,-0.3089231252670288,0.5286148190498352,-0.5374904274940491
1782846955594291000,4.306291015625,-0.3770814538002014,0.6757558584213257,-0.5820252299308777
1782846955604296000,4.3162958984375,-0.4254117012023926,0.8927667140960693,-0.652970552444458
1782846955614302000,4.326302001953125,-0.4623582065105438,1.1824661493301392,-0.6777937412261963
1782846955624307000,4.336306884765625,-0.5113539695739746,1.3533321619033813,-0.6328625082969666
1782846955634312000,4.34631201171875,-0.5210390686988831,1.2061235904693604,-0.587591290473938
1782846955644317000,4.35631689453125,-0.4160953462123871,0.7376174330711365,-0.5932114124298096
1782846955654322000,4.366322021484375,-0.24796630442142487,0.09857771545648575,-0.7030327916145325
1782846955664327000,4.376326904296875,-0.08943338692188263,-0.5202527642250061,-1.1526063680648804
1782846955674332000,4.386331787109375,-0.16184787452220917,-0.8065330386161804,-1.8912204504013062
1782846955684338000,4.396337890625,-0.5182978510856628,-0.6802877187728882,-2.3286333084106445
1782846955694343000,4.406343017578125,-0.8603774905204773,-0.3668833076953888,-2.1738812923431396
1782846955704348000,4.416347900390625,-0.9458958506584167,-0.11070267111063004,-1.6367675065994263
1782846955714353000,4.426352783203125,-0.7918855547904968,-0.09118229150772095,-0.758133053779602
1782846955724358000,4.43635791015625,-0.582363486289978,-0.10088711977005005,0.31585296988487244
1782846955734363000,4.44636279296875,-0.4027910828590393,0.06510765105485916,1.233532190322876
1782846955744367900,4.456367919921875,-0.16824863851070404,0.3732508420944214,1.7111239433288574
1782846955754372900,4.466372802734375,0.23796764016151428,0.6167086958885193,1.6075371503829956
1782846955764379000,4.47637890625,0.799145519733429,0.6193060874938965,1.0802379846572876
1782846955774383900,4.4863837890625,1.3119462728500366,0.5281996130943298,0.4621092975139618
1782846955784388900,4.496388916015625,1.5122573375701904,0.5443183779716492,0.02208423800766468
1782846955794394000,4.50639404296875,1.4017724990844727,0.5820295214653015,-0.21163921058177948
1782846955804399000,4.516399169921875,1.1373629570007324,0.5640244483947754,-0.2901651859283447
1782846955814404000,4.526404052734375,0.8024051785469055,0.5190626978874207,-0.20935410261154175
1782846955824409000,4.5364091796875,0.4972255229949951,0.4744619131088257,-0.03462463989853859
1782846955834414000,4.5464140625,0.2887033522129059,0.3982854187488556,0.12349673360586166
1782846955844419800,4.556419921875,0.1826552152633667,0.29515132308006287,0.22478555142879486
1782846955854424800,4.5664248046875,0.1454235315322876,0.23363301157951355,0.2874484360218048
1782846955864429800,4.576429931640625,0.1103755310177803,0.15928608179092407,0.36106058955192566
1782846955874435000,4.58643505859375,0.03794445842504501,0.007080769166350365,0.49344438314437866
1782846955884440000,4.596440185546875,-0.00975195411592722,-0.12464583665132523,0.6362995505332947
1782846955894445000,4.606445068359375,-0.0009231806034222245,-0.17017340660095215,0.7321316003799438
1782846955904450000,4.616449951171875,0.03649582713842392,-0.1965847760438919,0.7839193940162659
1782846955914455800,4.626455810546875,0.03267236799001694,-0.22326551377773285,0.8034970164299011
1782846955924460800,4.636460693359375,-0.02001747488975525,-0.189949631690979,0.7612563371658325
1782846955934465800,4.6464658203125,-0.18246784806251526,-0.13254901766777039,0.6833420395851135
1782846955944470800,4.656470703125,-0.35948097705841064,-0.0734713077545166,0.5229041576385498
1782846955954475800,4.666475830078125,-0.4606330692768097,0.04269813746213913,0.29792287945747375
1782846955964480800,4.676480712890625,-0.4717475175857544,0.1250515878200531,0.03663535416126251
1782846955974486300,4.686486328125,-0.41941913962364197,0.12518638372421265,-0.23100315034389496
1782846955984491300,4.6964912109375,-0.3274482190608978,0.06277920305728912,-0.4725646376609802
1782846955994497300,4.706497314453125,-0.23289956152439117,-0.04976999759674072,-0.6637001633644104
1782846956004502300,4.716502197265625,-0.19061201810836792,-0.2221899777650833,-0.7379586696624756
1782846956014507300,4.72650732421875,-0.21270817518234253,-0.38957566022872925,-0.6729685664176941
1782846956024512300,4.73651220703125,-0.27306604385375977,-0.4504552483558655,-0.5180932283401489
1782846956034517200,4.746517333984375,-0.3394252061843872,-0.40044665336608887,-0.2870369851589203
1782846956044522200,4.756522216796875,-0.37159594893455505,-0.2840515971183777,-0.03246035799384117
1782846956054527200,4.76652734375,-0.3674798607826233,-0.11453031748533249,0.21181553602218628
1782846956064533500,4.776533447265625,-0.3233630061149597,0.07381775230169296,0.40563613176345825
1782846956074538500,4.78653857421875,-0.260038822889328,0.26394012570381165,0.5227164030075073
1782846956084543500,4.79654345703125,-0.17817561328411102,0.4864128828048706,0.5756770968437195
1782846956094548500,4.806548583984375,-0.11395031213760376,0.7505869269371033,0.5647616982460022
1782846956104553500,4.816553466796875,-0.11242803931236267,0.9411869645118713,0.5235649943351746
1782846956114558500,4.826558349609375,-0.16103096306324005,0.9289306998252869,0.47999107837677
1782846956124563500,4.8365634765625,-0.21803486347198486,0.8557904362678528,0.4252665638923645
1782846956134568400,4.846568359375,-0.27983900904655457,0.9235637187957764,0.2752181589603424
1782846956144574500,4.856574462890625,-0.356842964887619,1.170168399810791,0.04817940294742584
1782846956154579500,4.866579345703125,-0.3732379674911499,1.3197916746139526,-0.1308070570230484
1782846956164584400,4.87658447265625,-0.26167333126068115,1.2019697427749634,-0.17900387942790985
1782846956174589400,4.88658935546875,-0.0378669835627079,0.8384105563163757,-0.10829407721757889
1782846956184594400,4.896594482421875,0.19911813735961914,0.33392640948295593,0.051310762763023376
1782846956194599400,4.906599365234375,0.36018720269203186,-0.07264401018619537,0.2476583868265152
1782846956204604400,4.9166044921875,0.42729753255844116,-0.15584595501422882,0.4297615885734558
1782846956214610400,4.9266103515625,0.4242454469203949,-0.06069371476769447,0.5717412233352661
1782846956224615400,4.936615478515625,0.38247883319854736,0.04299752786755562,0.6317076086997986
1782846956234620400,4.946620361328125,0.30480387806892395,0.13356739282608032,0.634788990020752
1782846956244625400,4.95662548828125,0.19289784133434296,0.11970724910497665,0.6109167337417603
1782846956254630400,4.96663037109375,0.05112761631608009,-0.04065044969320297,0.5590853691101074
1782846956264635400,4.976635498046875,-0.1038033738732338,-0.3017861545085907,0.49166882038116455
1782846956274640400,4.986640380859375,-0.23770621418952942,-0.5821598172187805,0.4019164443016052
1782846956284645400,4.996645263671875,-0.30895453691482544,-0.7836138606071472,0.28177139163017273
1782846956294651400,5.0066513671875,-0.3201456367969513,-0.9266030192375183,0.16507138311862946
1782846956304656400,5.016656494140625,-0.2704707682132721,-1.0140849351882935,0.08087660372257233
1782846956314661400,5.026661376953125,-0.18620504438877106,-1.0179325342178345,0.03607049956917763
1782846956324666600,5.03666650390625,-0.10430563986301422,-0.8863528966903687,0.002050750656053424
1782846956334671600,5.046671630859375,-0.05966394394636154,-0.6635141968727112,-0.033226560801267624
1782846956344676600,5.056676513671875,-0.04597343131899834,-0.4630674123764038,-0.04485685005784035
1782846956354681600,5.066681640625,-0.03496398776769638,-0.36061057448387146,-0.024182898923754692
1782846956364687400,5.076687255859375,-0.019156264141201973,-0.35973384976387024,0.006635200697928667
1782846956374692400,5.0866923828125,-0.030908171087503433,-0.3361869156360626,0.07543258368968964
1782846956384697300,5.096697265625,-0.06772103905677795,-0.3585833013057709,0.1990208476781845
1782846956394702300,5.106702392578125,-0.12217065691947937,-0.3519912362098694,0.36298149824142456
1782846956404707300,5.116707275390625,-0.18058550357818604,-0.29647284746170044,0.5284088253974915
1782846956414712300,5.12671240234375,-0.23536236584186554,-0.20344053208827972,0.6670268774032593
1782846956424717300,5.13671728515625,-0.27651888132095337,-0.04892498999834061,0.7268427610397339
1782846956434722300,5.146722412109375,-0.29866936802864075,0.1561831384897232,0.673486590385437
1782846956444728300,5.156728271484375,-0.26931998133659363,0.3234115540981293,0.523004949092865
1782846956454733300,5.1667333984375,-0.19458477199077606,0.39111581444740295,0.3236280381679535
1782846956464738300,5.17673828125,-0.09873174130916595,0.35377004742622375,0.09428859502077103
1782846956474743300,5.186743408203125,-0.036662306636571884,0.23698492348194122,-0.13758264482021332
1782846956484748300,5.196748291015625,-0.012969760224223137,0.0666869506239891,-0.3526070713996887
1782846956494753300,5.206753173828125,0.02232353389263153,-0.12074925005435944,-0.5347234010696411
1782846956504758300,5.21675830078125,0.06905774772167206,-0.2756802439689636,-0.6703227758407593
1782846956514764300,5.226764404296875,0.10941487550735474,-0.36077946424484253,-0.786564826965332
1782846956524769300,5.236769287109375,0.126583993434906,-0.3607666790485382,-0.8886041045188904
1782846956534774300,5.246774169921875,0.1156572476029396,-0.27727535367012024,-0.9533929824829102
1782846956544779300,5.256779296875,0.08732574433088303,-0.1600765585899353,-0.9657561779022217
1782846956554784300,5.2667841796875,0.07140350341796875,-0.1024363711476326,-0.9225606322288513
1782846956564789200,5.276789306640625,0.10762116312980652,-0.14621128141880035,-0.870965301990509
1782846956574794200,5.286794189453125,0.19845035672187805,-0.19977137446403503,-0.8150339126586914
1782846956584800500,5.296800537109375,0.32388126850128174,-0.16356302797794342,-0.7285251021385193
1782846956594805500,5.306805419921875,0.41636186838150024,0.011607864871621132,-0.6041268110275269
1782846956604810500,5.316810546875,0.516204833984375,0.03523516282439232,-0.5298576354980469
1782846956614815500,5.3268154296875,0.6280453205108643,0.28927522897720337,-0.46276596188545227
1782846956624820500,5.336820556640625,0.6700124740600586,0.6224633455276489,-0.37760046124458313
1782846956634825500,5.346825439453125,0.6614423990249634,0.7638596296310425,-0.2976585030555725
1782846956644830500,5.35683056640625,0.6819724440574646,0.5801331996917725,-0.2623114287853241
1782846956654835500,5.36683544921875,0.7047897577285767,0.20445911586284637,-0.25944870710372925
1782846956664841500,5.376841552734375,0.6879284977912903,-0.166879802942276,-0.40530630946159363
1782846956674846500,5.386846435546875,0.6588224768638611,-0.4448556900024414,-0.8796722888946533
1782846956684851500,5.3968515625,0.5575238466262817,-0.6599147319793701,-1.4446051120758057
1782846956694856400,5.4068564453125,0.3113158047199249,-0.7504382133483887,-1.6098847389221191
1782846956704861400,5.416861328125,0.06685545295476913,-0.7613773941993713,-1.3577654361724854
1782846956714866400,5.426866455078125,0.019721753895282745,-0.8611567616462708,-0.922001302242279
1782846956724871400,5.436871337890625,0.1581302285194397,-0.9927483797073364,-0.3369170129299164
1782846956734877400,5.44687744140625,0.3238227069377899,-0.9656736254692078,0.35889947414398193
1782846956744882400,5.45688232421875,0.42738479375839233,-0.6780450344085693,1.0508118867874146
1782846956754887400,5.466887451171875,0.46045413613319397,-0.1312045156955719,1.6139460802078247
1782846956764892400,5.476892333984375,0.45216771960258484,0.509084939956665,1.893600583076477
1782846956774897400,5.4868974609375,0.45530036091804504,0.9957732558250427,1.783399224281311
1782846956784902400,5.49690234375,0.5006822347640991,1.1263872385025024,1.3478636741638184
1782846956794907400,5.506907470703125,0.5367730855941772,0.879783034324646,0.7199839353561401
1782846956804913400,5.516913330078125,0.5152938961982727,0.4540746212005615,0.07396391779184341
1782846956814918400,5.52691845703125,0.4319572448730469,0.05835069715976715,-0.44853195548057556
1782846956824923400,5.53692333984375,0.3056491017341614,-0.1834547370672226,-0.7887950539588928
1782846956834928600,5.5469287109375,0.16307274997234344,-0.2588708698749542,-0.9504030346870422
1782846956844933600,5.55693359375,0.06753849983215332,-0.2506219744682312,-0.9711179137229919
1782846956854938600,5.566938720703125,0.01104872114956379,-0.2257651388645172,-0.8795005679130554
1782846956864943600,5.576943603515625,0.02224837802350521,-0.18739084899425507,-0.6963688135147095
1782846956874948600,5.586948486328125,0.08354844897985458,-0.18864639103412628,-0.47301816940307617
1782846956884954400,5.596954345703125,0.13243849575519562,-0.19826838374137878,-0.2651911973953247
1782846956894959400,5.60695947265625,0.14477494359016418,-0.15510617196559906,-0.09546905010938644
1782846956904964400,5.61696435546875,0.08732417970895767,-0.11294619739055634,0.043649960309267044
1782846956914969300,5.62696923828125,-0.010059659369289875,-0.1011335551738739,0.1522381752729416
1782846956924974300,5.636974365234375,-0.12195370346307755,-0.1215839684009552,0.23314979672431946
1782846956934979300,5.646979248046875,-0.24533095955848694,-0.17947150766849518,0.2765950560569763
1782846956944984300,5.656984375,-0.36949869990348816,-0.23547857999801636,0.2809748649597168
1782846956954990300,5.666990234375,-0.48657652735710144,-0.24140913784503937,0.2359289973974228
1782846956964995300,5.676995361328125,-0.5655187964439392,-0.19885821640491486,0.14538392424583435
1782846956975000800,5.687000732421875,-0.6068300604820251,-0.11743010580539703,0.010588242672383785
1782846956985005800,5.697005859375,-0.6092082858085632,-0.039447687566280365,-0.15546837449073792
1782846956995010800,5.7070107421875,-0.5768614411354065,-0.011024047620594501,-0.3154068887233734
1782846957005015800,5.717015869140625,-0.5219997763633728,-0.03036046028137207,-0.44681793451309204
1782846957015020800,5.727020751953125,-0.46932876110076904,-0.06457837671041489,-0.5288205742835999
1782846957025026800,5.73702685546875,-0.4414409399032593,-0.06751265376806259,-0.5714252591133118
1782846957035031800,5.74703173828125,-0.4284859895706177,-0.03460137918591499,-0.539584755897522
1782846957045036800,5.757036865234375,-0.4336080551147461,-0.03737106919288635,-0.4259077310562134
1782846957055041800,5.767041748046875,-0.44228291511535645,-0.08834891021251678,-0.25259336829185486
1782846957065046800,5.777046875,-0.45418673753738403,-0.1335134655237198,-0.08962496370077133
1782846957075051800,5.7870517578125,-0.4599909782409668,-0.11400111019611359,0.024181002750992775
1782846957085056800,5.797056884765625,-0.43651893734931946,0.016350505873560905,0.0972972959280014
1782846957095062800,5.807062744140625,-0.3833291232585907,0.22221708297729492,0.10942866653203964
1782846957105067800,5.81706787109375,-0.31852641701698303,0.44769546389579773,0.07200752198696136
1782846957115072800,5.82707275390625,-0.28054291009902954,0.6776332855224609,-0.03350650146603584
1782846957125077800,5.837077880859375,-0.2505202889442444,0.828629195690155,-0.17183001339435577
1782846957135082800,5.847082763671875,-0.19567540287971497,0.7927324175834656,-0.27185118198394775
1782846957145087700,5.857087646484375,-0.139299213886261,0.5592944025993347,-0.2794443666934967
1782846957155092700,5.8670927734375,-0.12560218572616577,0.2081240862607956,-0.14211490750312805
1782846957165098800,5.8770986328125,-0.11606381088495255,-0.1307903230190277,0.11423537135124207
1782846957175103700,5.887103759765625,-0.06988193839788437,-0.3078567683696747,0.4300488829612732
1782846957185108700,5.897108642578125,0.04440681263804436,-0.24327191710472107,0.7164641618728638
1782846957195113700,5.90711376953125,0.24014604091644287,-0.023616477847099304,0.8806928992271423
1782846957205118700,5.91711865234375,0.47197234630584717,0.16633987426757812,0.9217042326927185
1782846957215124000,5.9271240234375,0.6705971956253052,0.24337002635002136,0.8898227214813232
1782846957225129000,5.93712890625,0.7762826681137085,0.21814163029193878,0.8121079802513123
1782846957235134000,5.947134033203125,0.777696967124939,0.17568115890026093,0.7310054302215576
1782846957245139700,5.9571396484375,0.7544808983802795,0.0834851786494255,0.7023690342903137
1782846957255145000,5.96714501953125,0.7452533841133118,-0.056427549570798874,0.7698908448219299
1782846957265150000,5.97714990234375,0.7720080614089966,-0.27362510561943054,0.8879082798957825
1782846957275155000,5.987155029296875,0.8284515142440796,-0.43749091029167175,0.9998899102210999
1782846957285160000,5.997159912109375,0.8953455686569214,-0.5154719948768616,1.0608272552490234
1782846957295165000,6.0071650390625,0.9453534483909607,-0.5256137251853943,1.0473970174789429
1782846957305170000,6.017169921875,0.9785670638084412,-0.47699397802352905,0.9762561321258545
1782846957315175700,6.02717578125,0.9969139099121094,-0.3944297730922699,0.8475024104118347
1782846957325180700,6.0371806640625,0.9610955119132996,-0.2248242348432541,0.6607887148857117
1782846957335185700,6.047185546875,0.8291385769844055,-0.02008974552154541,0.37942788004875183
1782846957345190700,6.057190673828125,0.6266182065010071,0.13238075375556946,0.05411504581570625
1782846957355195600,6.067195556640625,0.4023750424385071,0.1787814050912857,-0.2679504156112671
1782846957365200600,6.07720068359375,0.20618368685245514,0.06720986217260361,-0.5339112877845764
1782846957375205600,6.08720556640625,0.06546809524297714,-0.03165319189429283,-0.7040213942527771
1782846957385211600,6.097211669921875,-0.07403094321489334,-0.06568519026041031,-0.7243818044662476
1782846957395216600,6.107216552734375,-0.18818098306655884,0.014874564483761787,-0.610473096370697
1782846957405221600,6.1172216796875,-0.2731259763240814,0.2285812497138977,-0.39447662234306335
1782846957415226600,6.1272265625,-0.3264668583869934,0.4941706955432892,-0.14973272383213043
1782846957425231600,6.137231689453125,-0.3283800780773163,0.7275067567825317,0.04152032360434532
1782846957435236600,6.147236572265625,-0.29695895314216614,0.9111918807029724,0.10157142579555511
1782846957445243000,6.157242919921875,-0.23564793169498444,1.0067908763885498,0.03559534251689911
1782846957455248000,6.167247802734375,-0.1601431667804718,0.9710739254951477,-0.12381934374570847
1782846957465252900,6.1772529296875,-0.0811583399772644,0.814294159412384,-0.3390192687511444
1782846957475257900,6.1872578125,-0.012943577952682972,0.5755940675735474,-0.5743923187255859
1782846957485262800,6.197262939453125,0.031116558238863945,0.31472092866897583,-0.7874598503112793
1782846957495267800,6.207267822265625,0.059731386601924896,0.09135295450687408,-0.929625928401947
1782846957505272800,6.21727294921875,0.06280521303415298,-0.04799588397145271,-0.9767023921012878
1782846957515278800,6.22727880859375,0.06297792494297028,-0.11234841495752335,-0.9314144849777222
1782846957525283800,6.237283935546875,0.05446486920118332,-0.1184672936797142,-0.826305091381073
1782846957535288800,6.247288818359375,0.04975122585892677,-0.06523945927619934,-0.6779741048812866
1782846957545293800,6.2572939453125,0.043079208582639694,0.006466686725616455,-0.5147942304611206
1782846957555298800,6.267298828125,0.005653321743011475,0.05532282963395119,-0.36736220121383667
1782846957565303800,6.2773037109375,-0.07976916432380676,0.03405828773975372,-0.2364414632320404
1782846957575308800,6.287308837890625,-0.21935860812664032,-0.0393955372273922,-0.1472150832414627
1782846957585314800,6.297314697265625,-0.3468254506587982,-0.08756546676158905,-0.11484142392873764
1782846957595319800,6.30731982421875,-0.4357115924358368,-0.06834044307470322,-0.16095735132694244
1782846957605324800,6.31732470703125,-0.4870773255825043,0.044853225350379944,-0.2860226035118103
1782846957615329800,6.327329833984375,-0.48566222190856934,0.2872367203235626,-0.40289801359176636
1782846957625334800,6.337334716796875,-0.47271525859832764,0.404849112033844,-0.5511505603790283
1782846957635339800,6.34733984375,-0.5495061278343201,0.5804054141044617,-0.6711353659629822
1782846957645344800,6.3573447265625,-0.7245154976844788,0.703900933265686,-0.6589415669441223
1782846957655350800,6.367350830078125,-0.942330002784729,0.6202656626701355,-0.5321422815322876
1782846957665355800,6.377355712890625,-1.1805140972137451,0.3953298032283783,-0.3855445384979248
1782846957675360800,6.38736083984375,-1.3365330696105957,0.1808711737394333,-0.5093122124671936
1782846957685365800,6.39736572265625,-1.3460967540740967,-0.09286662191152573,-1.0748168230056763
1782846957695370800,6.407370849609375,-1.2703171968460083,-0.512274444103241,-1.6897484064102173
1782846957705375700,6.417375732421875,-1.1379649639129639,-0.8290175199508667,-1.8608722686767578
1782846957715380700,6.427380615234375,-0.9503198862075806,-0.8579444885253906,-1.6730835437774658
1782846957725386800,6.43738671875,-0.7681087851524353,-0.6775834560394287,-1.2958862781524658
1782846957735391700,6.447391845703125,-0.5996409058570862,-0.43580538034439087,-0.7793951630592346
1782846957745396700,6.457396728515625,-0.4211832880973816,-0.17804841697216034,-0.2789067327976227
1782846957755401700,6.467401611328125,-0.19808770716190338,0.030657866969704628,0.0035570496693253517
1782846957765406700,6.47740673828125,0.07597871869802475,0.13112880289554596,0.04664753004908562
1782846957775412000,6.487411865234375,0.37723761796951294,0.12037511169910431,-0.008832915686070919
1782846957785417000,6.4974169921875,0.589809775352478,0.09203241765499115,-0.03993331268429756
1782846957795422700,6.507422607421875,0.6617203950881958,0.14294502139091492,-0.001135847414843738
1782846957805427700,6.517427734375,0.6559621095657349,0.20981326699256897,0.09672760218381882
1782846957815432700,6.5274326171875,0.6233043670654297,0.24205638468265533,0.20782309770584106
1782846957825437700,6.537437744140625,0.601463258266449,0.25176602602005005,0.33535948395729065
1782846957835442700,6.547442626953125,0.5978569388389587,0.23367640376091003,0.49960407614707947
1782846957845447700,6.55744775390625,0.6006567478179932,0.19097314774990082,0.7024195194244385
1782846957855452700,6.56745263671875,0.5792016983032227,0.14960500597953796,0.9137110114097595
1782846957865458700,6.577458740234375,0.5321084856987,0.11036786437034607,1.102861762046814
1782846957875463700,6.587463623046875,0.47375988960266113,0.057423725724220276,1.253234624862671
1782846957885468700,6.59746875,0.4186420142650604,-0.020510487258434296,1.344759225845337
1782846957895473700,6.6074736328125,0.3678453266620636,-0.09817869961261749,1.3976881504058838
1782846957905478700,6.617478759765625,0.3135930001735687,-0.16313187777996063,1.3859633207321167
1782846957915483600,6.627483642578125,0.2513183057308197,-0.13077683746814728,1.299067497253418
1782846957925488600,6.637488525390625,0.1676284819841385,0.0309702567756176,1.1375759840011597
1782846957935494700,6.64749462890625,0.06844393908977509,0.24762538075447083,0.944761335849762
1782846957945499600,6.657499755859375,-0.022554146125912666,0.445570170879364,0.7248311042785645
1782846957955504600,6.667504638671875,-0.10718272626399994,0.5629725456237793,0.5202803611755371
1782846957965510000,6.677510009765625,-0.19493654370307922,0.5342583656311035,0.3350260257720947
1782846957975514600,6.6875146484375,-0.286115437746048,0.3602142333984375,0.1399696171283722
1782846957985519600,6.69751953125,-0.3680550456047058,0.11461006104946136,-0.05702121928334236
1782846957995524600,6.707524658203125,-0.42397624254226685,-0.1111973375082016,-0.238733172416687
1782846958005530600,6.717530517578125,-0.43853306770324707,-0.2721199095249176,-0.3768790662288666
1782846958015535600,6.72753564453125,-0.3985159695148468,-0.32041501998901367,-0.4416629672050476
1782846958025540600,6.73754052734375,-0.3160213530063629,-0.24678583443164825,-0.423893004655838
1782846958035545600,6.747545654296875,-0.22374823689460754,-0.13532227277755737,-0.3328866958618164
1782846958045550600,6.757550537109375,-0.15387168526649475,-0.007868164218962193,-0.17501583695411682
1782846958055555600,6.7675556640625,-0.1383247971534729,0.09253043681383133,0.02499636448919773
1782846958065560600,6.777560546875,-0.1720188409090042,0.1724255383014679,0.25632280111312866
1782846958075566600,6.787566650390625,-0.23938332498073578,0.24887871742248535,0.5250769257545471
1782846958085571800,6.79757177734375,-0.3192371726036072,0.2823285460472107,0.820446789264679
1782846958095576800,6.807576904296875,-0.3796555995941162,0.2645590305328369,1.0367664098739624
1782846958105581800,6.817581787109375,-0.40872159600257874,0.3295188546180725,1.0871102809906006
1782846958115586800,6.8275869140625,-0.40950945019721985,0.5012938976287842,0.9018868207931519
1782846958125591800,6.837591796875,-0.3291049003601074,0.6786231398582458,0.5106815099716187
1782846958135597800,6.847597900390625,-0.17942564189434052,0.7625606656074524,0.030911145731806755
1782846958145602800,6.857602783203125,-0.0874108299612999,0.67626953125,-0.39781880378723145
1782846958155607800,6.86760791015625,-0.1603223830461502,0.40949615836143494,-0.6349185109138489
1782846958165612800,6.87761279296875,-0.3140770494937897,0.0889783427119255,-0.5738591551780701
1782846958175617800,6.88761767578125,-0.43100884556770325,-0.12121640890836716,-0.28443169593811035
1782846958185622800,6.897622802734375,-0.4539375901222229,-0.1694404035806656,0.06458595395088196
1782846958195627800,6.907627685546875,-0.36959242820739746,-0.13217051327228546,0.33503416180610657
1782846958205633500,6.917633544921875,-0.25082263350486755,-0.14788289368152618,0.46431997418403625
1782846958215638500,6.927638427734375,-0.14267580211162567,-0.2436329424381256,0.495059996843338
1782846958225643500,6.9376435546875,-0.066485695540905,-0.3827064335346222,0.4790797233581543
1782846958235648500,6.9476484375,-0.007829509675502777,-0.550751268863678,0.47048667073249817
1782846958245653500,6.957653564453125,0.07660149037837982,-0.7043429613113403,0.43837347626686096
1782846958255658800,6.96765869140625,0.2044878602027893,-0.8411826491355896,0.3816366493701935
1782846958265663700,6.977663818359375,0.36788395047187805,-0.964809000492096,0.2893456220626831
1782846958275669500,6.98766943359375,0.549798846244812,-1.042044758796692,0.1642630249261856
1782846958285674500,6.997674560546875,0.7420950531959534,-1.0344589948654175,0.02081131748855114
1782846958295679500,7.007679443359375,0.938474714756012,-0.9445013999938965,-0.07888416945934296
1782846958305684500,7.0176845703125,1.1059476137161255,-0.7988243103027344,-0.09498510509729385
1782846958315689500,7.027689453125,1.2000607252120972,-0.626928985118866,-0.03811071068048477
1782846958325694500,7.037694580078125,1.2112553119659424,-0.4401404857635498,0.056997958570718765
1782846958335699500,7.047699462890625,1.147508978843689,-0.19938501715660095,0.16930420696735382
1782846958345705700,7.057705810546875,1.0187411308288574,0.06726717948913574,0.3229542374610901
1782846958355710700,7.067710693359375,0.8798311352729797,0.26867830753326416,0.5136674046516418
1782846958365715700,7.0777158203125,0.7501533031463623,0.36875271797180176,0.7418910264968872
1782846958375720700,7.087720703125,0.6007476449012756,0.4258669316768646,0.9613795280456543
1782846958385725700,7.0977255859375,0.444603830575943,0.4724557399749756,1.1481616497039795
1782846958395730700,7.107730712890625,0.31474795937538147,0.5454686880111694,1.2843674421310425
1782846958405735700,7.117735595703125,0.21231134235858917,0.6278941035270691,1.3613479137420654
1782846958415741700,7.12774169921875,0.13100403547286987,0.6868488192558289,1.345234990119934
1782846958425746700,7.13774658203125,0.06549055129289627,0.6814745664596558,1.199672818183899
1782846958435751700,7.147751708984375,-0.0002310243435204029,0.5956418514251709,0.9414174556732178
1782846958445756700,7.157756591796875,-0.0494915135204792,0.4662415683269501,0.6075265407562256
1782846958455761700,7.16776171875,-0.09142369776964188,0.34412872791290283,0.23894838988780975
1782846958465766700,7.1777666015625,-0.13891319930553436,0.22538690268993378,-0.09383941441774368
1782846958475772700,7.187772705078125,-0.16233159601688385,0.11196192353963852,-0.3412468731403351
1782846958485777700,7.197777587890625,-0.1617497056722641,-0.008775679394602776,-0.48990026116371155
1782846958495782700,7.20778271484375,-0.14456458389759064,-0.1050441563129425,-0.5566058158874512
1782846958505787600,7.21778759765625,-0.11895004659891129,-0.15515819191932678,-0.570976734161377
1782846958515792600,7.227792724609375,-0.10058527439832687,-0.10972436517477036,-0.5574141144752502
1782846958525797600,7.237797607421875,-0.10254403203725815,0.02906733751296997,-0.5375075340270996
1782846958535802600,7.247802734375,-0.11745388060808182,0.17956866323947906,-0.5215644240379333
1782846958545808600,7.25780859375,-0.12410006672143936,0.28725385665893555,-0.4908864200115204
1782846958555813600,7.267813720703125,-0.12334875017404556,0.3432687819004059,-0.4024011492729187
1782846958565818600,7.277818603515625,-0.16295768320560455,0.35001909732818604,-0.2674230933189392
1782846958575823600,7.28782373046875,-0.23284612596035004,0.3402478098869324,-0.11429034173488617
1782846958585828600,7.29782861328125,-0.306765079498291,0.3991206884384155,-0.01265106163918972
1782846958595833600,7.30783349609375,-0.36907482147216797,0.5556482076644897,0.022199762985110283
1782846958605838600,7.317838623046875,-0.4418907165527344,0.7218955159187317,-0.016714345663785934
1782846958615844600,7.3278447265625,-0.5103236436843872,1.0132566690444946,-0.1660434901714325
1782846958625849600,7.337849609375,-0.56906658411026,1.331382155418396,-0.39709988236427307
1782846958635854800,7.347854736328125,-0.5656659007072449,1.3714991807937622,-0.5980185270309448
1782846958645859800,7.35785986328125,-0.4423074424266815,0.9974428415298462,-0.684081494808197
1782846958655864800,7.36786474609375,-0.3059081435203552,0.3520244359970093,-0.6344425678253174
1782846958665869800,7.377869873046875,-0.2858034074306488,-0.24248553812503815,-0.6247654557228088
1782846958675874800,7.387874755859375,-0.322146475315094,-0.5739118456840515,-0.7520445585250854
1782846958685880600,7.397880615234375,-0.3816683888435364,-0.5749635100364685,-0.8907260298728943
1782846958695885600,7.407885498046875,-0.4029383957386017,-0.3115529716014862,-0.8776534199714661
1782846958705890600,7.417890625,-0.3444569706916809,-0.04469652101397514,-0.7018624544143677
1782846958715895600,7.4278955078125,-0.2348172515630722,0.14065594971179962,-0.3918644189834595
1782846958725900500,7.437900634765625,-0.12099694460630417,0.23302049934864044,0.009655590169131756
1782846958735905500,7.447905517578125,-0.04661768302321434,0.2854941487312317,0.3802749812602997
1782846958745911600,7.45791162109375,0.019363999366760254,0.33949241042137146,0.5838656425476074
1782846958755916500,7.46791650390625,0.09609153121709824,0.3910350203514099,0.5317610502243042
1782846958765921500,7.477921630859375,0.16306230425834656,0.4163028299808502,0.24597619473934174
1782846958775926500,7.487926513671875,0.185185968875885,0.27611395716667175,-0.11743034422397614
1782846958785931500,7.497931640625,0.18422643840312958,0.025255898013710976,-0.4341808557510376
1782846958795936500,7.5079365234375,0.12726394832134247,-0.3520636558532715,-0.6323813796043396
1782846958805941500,7.51794140625,0.02975897118449211,-0.7576207518577576,-0.737179160118103
1782846958815947500,7.527947509765625,0.02341936156153679,-0.8096283674240112,-0.682316243648529
1782846958825952800,7.537952880859375,0.029973400756716728,-0.6970741152763367,-0.42643463611602783
1782846958835957800,7.547957763671875,0.06928719580173492,-0.45141905546188354,-0.08520068228244781
1782846958845962800,7.557962646484375,0.1515570431947708,-0.23235437273979187,0.2516721487045288
1782846958855967700,7.5679677734375,0.261508584022522,-0.10275103896856308,0.4918515384197235
1782846958865972700,7.57797265625,0.369473397731781,-0.036286260932683945,0.638737142086029
1782846958875977700,7.587977783203125,0.43120020627975464,-0.022117789834737778,0.6928653120994568
1782846958885983700,7.597983642578125,0.43848341703414917,-0.047367751598358154,0.6807231903076172
1782846958895988700,7.60798876953125,0.4075998365879059,-0.17426066100597382,0.627985954284668
1782846958905993700,7.61799365234375,0.34265971183776855,-0.3779136538505554,0.5442356467247009
1782846958915998700,7.627998779296875,0.27803876996040344,-0.5172741413116455,0.42010167241096497
1782846958926003700,7.638003662109375,0.2365214079618454,-0.5489263534545898,0.26311951875686646
1782846958936008700,7.6480087890625,0.221360981464386,-0.4553396701812744,0.0863981768488884
1782846958946013700,7.658013671875,0.2137853503227234,-0.3071132004261017,-0.07511349022388458
1782846958956019700,7.668019775390625,0.2093043029308319,-0.15781302750110626,-0.21209630370140076
1782846958966024700,7.678024658203125,0.223870187997818,-0.027554892003536224,-0.32331472635269165
1782846958976029200,7.688029296875,0.25055474042892456,-0.020716682076454163,-0.4189400374889374
1782846958986034200,7.6980341796875,0.24002911150455475,-0.09051813930273056,-0.5127352476119995
1782846958996039200,7.7080390625,0.21380366384983063,-0.12615729868412018,-0.617770254611969
1782846959006044200,7.718044189453125,0.2046107053756714,-0.0673765242099762,-0.6830954551696777
1782846959016050200,7.72805029296875,0.21698269248008728,-0.02802095375955105,-0.6727413535118103
1782846959026055200,7.73805517578125,0.23851275444030762,-0.03678594529628754,-0.6135294437408447
1782846959036060200,7.74806005859375,0.23937229812145233,-0.10572030395269394,-0.5505642294883728
1782846959046065200,7.758065185546875,0.2264985740184784,-0.17784136533737183,-0.44920217990875244
1782846959056070100,7.768070068359375,0.2262231558561325,-0.26336097717285156,-0.28353384137153625
1782846959066075100,7.7780751953125,0.21265435218811035,-0.32906967401504517,-0.10313848406076431
1782846959076080000,7.788080078125,0.17757850885391235,-0.3543589115142822,0.04032651707530022
1782846959086086100,7.798086181640625,0.1321689486503601,-0.27977627515792847,0.12601825594902039
1782846959096091100,7.808091064453125,0.09102347493171692,-0.062415286898612976,0.20540019869804382
1782846959106096000,7.81809619140625,0.04783898964524269,0.21944597363471985,0.2884990870952606
1782846959116101000,7.82810107421875,0.020825166255235672,0.44984063506126404,0.3906289339065552
1782846959126106000,7.838106201171875,0.035241127014160156,0.7542247772216797,0.4120388925075531
1782846959136111000,7.848111083984375,0.11994637548923492,1.0311521291732788,0.36406633257865906
1782846959146116000,7.8581162109375,0.237489253282547,1.095503330230713,0.3485267758369446
1782846959156121900,7.868121826171875,0.2647843062877655,0.8799486756324768,0.4914461374282837
1782846959166126800,7.878126953125,0.22316977381706238,0.49633681774139404,0.8206615447998047
1782846959176131800,7.8881318359375,0.21613794565200806,0.054102618247270584,1.2160658836364746
1782846959186137000,7.89813720703125,0.28216755390167236,-0.24488328397274017,1.4664384126663208
1782846959196142000,7.90814208984375,0.36097726225852966,-0.503020703792572,1.520520567893982
1782846959206147000,7.91814697265625,0.4000037610530853,-0.6927642226219177,1.358690619468689
1782846959216153000,7.928153076171875,0.3599812686443329,-0.7986109256744385,1.0702496767044067
1782846959226158000,7.938157958984375,0.25624847412109375,-0.8465930819511414,0.7913680672645569
1782846959236163000,7.9481630859375,0.16286632418632507,-0.7850893139839172,0.5431857705116272
1782846959246168000,7.95816796875,0.10780147463083267,-0.6195219159126282,0.3871892988681793
1782846959256173000,7.968173095703125,0.09507377445697784,-0.42501309514045715,0.31746065616607666
1782846959266178000,7.978177978515625,0.11471618711948395,-0.24071568250656128,0.32403919100761414
1782846959276183000,7.98818310546875,0.15343424677848816,-0.09561407566070557,0.3672010898590088
1782846959286189000,7.99818896484375,0.2235853672027588,-0.0037470015231519938,0.40421342849731445
1782846959296194000,8.008194091796875,0.31210869550704956,0.05183899775147438,0.4331066608428955
1782846959306199000,8.018198974609374,0.4107700288295746,0.03997541591525078,0.4361935257911682
1782846959316204000,8.0282041015625,0.5178449153900146,0.01846163161098957,0.406304270029068
1782846959326209000,8.038208984375,0.5855100154876709,-0.03647005930542946,0.356840580701828
1782846959336214000,8.048214111328125,0.5946798920631409,-0.12151380628347397,0.36611464619636536
1782846959346219000,8.058218994140624,0.5235772132873535,-0.2134605199098587,0.4507163465023041
1782846959356225000,8.06822509765625,0.41325271129608154,-0.3302640914916992,0.5165066123008728
1782846959366230000,8.07822998046875,0.3007621169090271,-0.3794145882129669,0.5677695274353027
1782846959376235000,8.088235107421875,0.19730553030967712,-0.3385743200778961,0.5996904969215393
1782846959386240000,8.098239990234376,0.10560863465070724,-0.29130855202674866,0.5766245722770691
1782846959396245000,8.108244873046875,0.054285213351249695,-0.22052937746047974,0.48448213934898376
1782846959406250000,8.11825,0.039155263453722,-0.11767967790365219,0.3287079930305481
1782846959416256000,8.128256103515625,0.04145466163754463,0.003925378434360027,0.1480564922094345
1782846959426261000,8.138260986328126,0.038885511457920074,0.11318555474281311,-0.018523164093494415
1782846959436266200,8.148266357421875,0.02677781879901886,0.19917066395282745,-0.14436760544776917
1782846959446271200,8.158271240234376,0.004366253037005663,0.2569996416568756,-0.2341638058423996
1782846959456276200,8.168276123046875,-0.02948135882616043,0.2597912847995758,-0.30525127053260803
1782846959466281200,8.17828125,-0.06878562271595001,0.24147889018058777,-0.3549264073371887
1782846959476286200,8.1882861328125,-0.10987989604473114,0.20168443024158478,-0.3872225880622864
1782846959486292200,8.198292236328125,-0.1503106653690338,0.09776335954666138,-0.4123505651950836
1782846959496297200,8.208297119140624,-0.1940937638282776,-0.042084239423274994,-0.44211500883102417
1782846959506302200,8.21830224609375,-0.22040899097919464,-0.13832582533359528,-0.4608902931213379
1782846959516307200,8.22830712890625,-0.23657432198524475,-0.1569506675004959,-0.4604651927947998
1782846959526312200,8.238312255859375,-0.24901847541332245,-0.09383533149957657,-0.4496474266052246
1782846959536317200,8.248317138671876,-0.2647249400615692,0.000036217737942934036,-0.41941338777542114
1782846959546322200,8.258322265625,-0.2762327194213867,0.04877898842096329,-0.36887460947036743
1782846959556328000,8.268327880859376,-0.27483871579170227,0.03829237446188927,-0.33506640791893005
1782846959566333000,8.2783330078125,-0.2911820113658905,-0.005093446932733059,-0.3260665237903595
1782846959576338200,8.288338134765626,-0.33797353506088257,-0.02322491444647312,-0.2980003356933594
1782846959586343200,8.29834326171875,-0.3538148105144501,0.0054661184549331665,-0.21353046596050262
1782846959596348200,8.30834814453125,-0.3488653600215912,0.08845104277133942,-0.09997580945491791
1782846959606353200,8.318353271484375,-0.3523634374141693,0.14440353214740753,0.015717236325144768
1782846959616358100,8.328358154296875,-0.3381425440311432,0.17744144797325134,0.12739796936511993
1782846959626364000,8.338364013671875,-0.28574642539024353,0.2585110068321228,0.18813535571098328
1782846959636369000,8.348368896484375,-0.20976866781711578,0.3943803906440735,0.17093655467033386
1782846959646374000,8.358373779296874,-0.1332656443119049,0.5683199167251587,0.11598808318376541
1782846959656379000,8.36837890625,-0.06869909167289734,0.5717310309410095,0.034989483654499054
1782846959666384000,8.3783837890625,-0.007506569381803274,0.3786453902721405,-0.1049383208155632
1782846959676388900,8.388388916015625,0.037523895502090454,0.1336687058210373,-0.31182608008384705
1782846959686395100,8.39839501953125,0.11390015482902527,0.10274913907051086,-0.5812095999717712
1782846959696400100,8.408400146484375,0.20645414292812347,0.3050364553928375,-0.8356536030769348
1782846959706405000,8.418405029296874,0.19728541374206543,0.4948716461658478,-0.9697844982147217
1782846959716410000,8.42841015625,0.08555830270051956,0.5444451570510864,-0.9258267879486084
1782846959726415000,8.4384150390625,-0.028385844081640244,0.5326676368713379,-0.5759313702583313
1782846959736420000,8.448420166015625,-0.08199666440486908,0.386551171541214,-0.35820630192756653
1782846959746425000,8.458425048828126,-0.09865739941596985,0.08720175176858902,-0.3089439272880554
1782846959756431000,8.46843115234375,-0.13632653653621674,-0.326649934053421,-0.3278871774673462
1782846959766436000,8.47843603515625,-0.20927958190441132,-0.5779317021369934,-0.2506163716316223
1782846959776441000,8.488441162109375,-0.2615683078765869,-0.5958732962608337,-0.10278921574354172
1782846959786446000,8.498446044921875,-0.32228970527648926,-0.48642536997795105,-0.09090698510408401
