time,seconds_elapsed,z,y,x
1782846840798449200,0.05744921875,0.1954803466796875,0.0666351318359375,-0.0639801025390625
1782846840808453000,0.067453125,0.15924072265625,0.0655059814453125,-0.059967041015625
1782846840818458000,0.0774580078125,0.118438720703125,0.063629150390625,-0.047637939453125
1782846840828463000,0.087463134765625,0.0552978515625,0.05023193359375,-0.0220947265625
1782846840838468000,0.097468017578125,0.0160980224609375,0.028564453125,0.010406494140625
1782846840848473000,0.10747314453125,0.0010528564453125,0.003997802734375,0.031280517578125
1782846840858477600,0.1174775390625,-0.0162811279296875,-0.0094146728515625,0.0570526123046875
1782846840868481500,0.1274814453125,-0.059417724609375,-0.012176513671875,0.0791778564453125
1782846840878486500,0.137486572265625,-0.08392333984375,-0.0573577880859375,0.0591888427734375
1782846840888491500,0.147491455078125,-0.1370849609375,-0.109039306640625,0.0210723876953125
1782846840898496500,0.15749658203125,-0.257110595703125,-0.1519012451171875,-0.0244903564453125
1782846840908501500,0.16750146484375,-0.4468536376953125,-0.19464111328125,-0.083709716796875
1782846840918505700,0.177505615234375,-0.7045745849609375,-0.2539825439453125,-0.094512939453125
1782846840928510700,0.1875107421875,-0.9748992919921875,-0.331756591796875,-0.041595458984375
1782846840938515700,0.197515625,-1.1923675537109375,-0.4095001220703125,0.0480499267578125
1782846840948520700,0.207520751953125,-1.3630523681640625,-0.4697723388671875,0.152435302734375
1782846840958525700,0.217525634765625,-1.53131103515625,-0.4596710205078125,0.3400726318359375
1782846840968530700,0.22753076171875,-1.732940673828125,-0.3765869140625,0.5388946533203125
1782846840978534700,0.23753466796875,-1.970550537109375,-0.357025146484375,0.5709381103515625
1782846840988539600,0.24753955078125,-2.1345367431640625,-0.38812255859375,0.4959869384765625
1782846840998544600,0.257544677734375,-2.2728424072265625,-0.5068206787109375,0.33209228515625
1782846841008549600,0.267549560546875,-2.424163818359375,-0.6531524658203125,0.236480712890625
1782846841018554600,0.2775546875,-2.50048828125,-0.63665771484375,0.26531982421875
1782846841028558600,0.28755859375,-2.482391357421875,-0.5010986328125,0.35205078125
1782846841038563600,0.2975634765625,-2.4232025146484375,-0.3943634033203125,0.390716552734375
1782846841048568600,0.307568603515625,-2.3238525390625,-0.3858642578125,0.3451080322265625
1782846841058573800,0.31757373046875,-2.1621246337890625,-0.4522552490234375,0.2607879638671875
1782846841068578800,0.327578857421875,-1.950225830078125,-0.5650787353515625,0.182464599609375
1782846841078583800,0.337583740234375,-1.6846160888671875,-0.686859130859375,0.1348876953125
1782846841088587500,0.34758740234375,-1.4277496337890625,-0.7535400390625,0.13177490234375
1782846841098592500,0.357592529296875,-1.233184814453125,-0.7253265380859375,0.1635284423828125
1782846841108597500,0.367597412109375,-1.0959930419921875,-0.6198577880859375,0.19598388671875
1782846841118602500,0.3776025390625,-1.0196075439453125,-0.4653472900390625,0.2231597900390625
1782846841128607500,0.387607421875,-0.9568023681640625,-0.3255157470703125,0.2190093994140625
1782846841138611500,0.397611572265625,-0.9011993408203125,-0.2022705078125,0.1872100830078125
1782846841148616400,0.407616455078125,-0.865509033203125,-0.103790283203125,0.146270751953125
1782846841158621400,0.417621337890625,-0.8287353515625,-0.0342254638671875,0.09222412109375
1782846841168626400,0.42762646484375,-0.7701568603515625,0.0263519287109375,0.0453033447265625
1782846841178631400,0.43763134765625,-0.6970977783203125,0.06683349609375,-0.0015869140625
1782846841188636400,0.447636474609375,-0.6194305419921875,0.099456787109375,-0.037322998046875
1782846841198640600,0.457640625,-0.536102294921875,0.112396240234375,-0.0775909423828125
1782846841208645600,0.467645751953125,-0.4462432861328125,0.117431640625,-0.1199188232421875
1782846841218650600,0.477650634765625,-0.397918701171875,0.103485107421875,-0.152923583984375
1782846841228655600,0.487655517578125,-0.3775482177734375,0.07501220703125,-0.176116943359375
1782846841238660600,0.49766064453125,-0.36651611328125,0.0405120849609375,-0.1854400634765625
1782846841248665600,0.50766552734375,-0.357208251953125,0.00689697265625,-0.17767333984375
1782846841258669600,0.517669677734375,-0.345794677734375,-0.0265960693359375,-0.17047119140625
1782846841268674600,0.527674560546875,-0.3330841064453125,-0.0473785400390625,-0.161102294921875
1782846841278679600,0.537679443359375,-0.3246917724609375,-0.0617218017578125,-0.1397552490234375
1782846841288684500,0.5476845703125,-0.348907470703125,-0.0726318359375,-0.094207763671875
1782846841298689500,0.557689453125,-0.4046783447265625,-0.0773773193359375,-0.0397186279296875
1782846841308693800,0.56769384765625,-0.4753570556640625,-0.070953369140625,0.0035247802734375
1782846841318698800,0.57769873046875,-0.5437774658203125,-0.046630859375,0.0398101806640625
1782846841328703700,0.587703857421875,-0.6304473876953125,-0.0039520263671875,0.0817108154296875
1782846841338708700,0.597708740234375,-0.728485107421875,0.042510986328125,0.1326904296875
1782846841348713700,0.607713623046875,-0.80224609375,0.0853271484375,0.1890106201171875
1782846841358718700,0.61771875,-0.8797607421875,0.1198272705078125,0.2460784912109375
1782846841368722700,0.62772265625,-0.95635986328125,0.120819091796875,0.2724609375
1782846841378727700,0.637727783203125,-0.985260009765625,0.0716705322265625,0.2544097900390625
1782846841388732700,0.647732666015625,-1.01287841796875,-0.0096435546875,0.2320404052734375
1782846841398737700,0.657737548828125,-1.0647125244140625,-0.113616943359375,0.20257568359375
1782846841408742700,0.66774267578125,-1.14837646484375,-0.1901092529296875,0.1826629638671875
1782846841418746600,0.67774658203125,-1.3250885009765625,-0.214019775390625,0.1748046875
1782846841428751600,0.687751708984375,-1.58770751953125,-0.2131195068359375,0.1675872802734375
1782846841438756600,0.697756591796875,-1.8629608154296875,-0.23052978515625,0.1674041748046875
1782846841448761600,0.70776171875,-2.0494384765625,-0.2852783203125,0.207305908203125
1782846841458766600,0.7177666015625,-2.1507110595703125,-0.3557891845703125,0.281982421875
1782846841468771600,0.727771484375,-2.1955718994140625,-0.4251251220703125,0.3714599609375
1782846841478775600,0.737775634765625,-2.2226715087890625,-0.46795654296875,0.4373626708984375
1782846841488780500,0.747780517578125,-2.3116302490234375,-0.48541259765625,0.447357177734375
1782846841498785500,0.75778564453125,-2.433258056640625,-0.488128662109375,0.3943023681640625
1782846841508790500,0.76779052734375,-2.5270843505859375,-0.48455810546875,0.2981109619140625
1782846841518795500,0.77779541015625,-2.5288238525390625,-0.497589111328125,0.19769287109375
1782846841528800500,0.787800537109375,-2.43701171875,-0.5076904296875,0.1229095458984375
1782846841538804500,0.797804443359375,-2.280914306640625,-0.518646240234375,0.0767364501953125
1782846841548809500,0.8078095703125,-2.1018218994140625,-0.535186767578125,0.0177764892578125
1782846841558814500,0.817814453125,-1.916351318359375,-0.5210113525390625,-0.05328369140625
1782846841568819500,0.8278193359375,-1.7216339111328125,-0.4576873779296875,-0.0961151123046875
1782846841578824400,0.837824462890625,-1.5475616455078125,-0.3519439697265625,-0.1224822998046875
1782846841588828700,0.84782861328125,-1.372100830078125,-0.2420654296875,-0.123870849609375
1782846841598833700,0.857833740234375,-1.180877685546875,-0.15252685546875,-0.110595703125
1782846841608838700,0.867838623046875,-0.9763641357421875,-0.07965087890625,-0.0820770263671875
1782846841618843600,0.87784375,-0.7680206298828125,-0.0481414794921875,-0.0578460693359375
1782846841628848600,0.8878486328125,-0.5774383544921875,-0.0369110107421875,-0.02734375
1782846841638853600,0.897853515625,-0.4267120361328125,-0.036407470703125,0.0161895751953125
1782846841648857600,0.907857666015625,-0.3147125244140625,-0.053802490234375,0.0722503662109375
1782846841658862600,0.917862548828125,-0.228302001953125,-0.0622100830078125,0.126220703125
1782846841668867600,0.92786767578125,-0.1501922607421875,-0.0430450439453125,0.165557861328125
1782846841678872600,0.93787255859375,-0.093902587890625,-0.0076446533203125,0.1783905029296875
1782846841688877600,0.947877685546875,-0.081451416015625,0.0197296142578125,0.1725921630859375
1782846841698882600,0.957882568359375,-0.0805816650390625,0.047821044921875,0.15313720703125
1782846841708886500,0.967886474609375,-0.073638916015625,0.08038330078125,0.128692626953125
1782846841718891500,0.9778916015625,-0.0612335205078125,0.111236572265625,0.1062469482421875
1782846841728896500,0.987896484375,-0.03564453125,0.121063232421875,0.076629638671875
1782846841738901500,0.997901611328125,-0.0025482177734375,0.1000823974609375,0.0406494140625
1782846841748906500,1.007906494140625,0.0385589599609375,0.0523834228515625,0.0025634765625
1782846841758910700,1.01791064453125,0.102783203125,-0.0079498291015625,-0.0247344970703125
1782846841768915700,1.027915771484375,0.20367431640625,-0.065032958984375,-0.0415802001953125
1782846841778920700,1.037920654296875,0.2830047607421875,-0.10870361328125,-0.044189453125
1782846841788925700,1.04792578125,0.33447265625,-0.11614990234375,-0.035797119140625
1782846841798930700,1.0579306640625,0.345611572265625,-0.1071014404296875,-0.0260009765625
1782846841808935700,1.067935791015625,0.3152008056640625,-0.1014862060546875,-0.0277557373046875
1782846841818939600,1.077939697265625,0.23797607421875,-0.071746826171875,-0.0244293212890625
1782846841828944600,1.087944580078125,0.1333770751953125,-0.035858154296875,-0.025787353515625
1782846841838949600,1.09794970703125,0.047760009765625,-0.0132598876953125,-0.03485107421875
1782846841848954600,1.10795458984375,-0.025299072265625,0.0087432861328125,-0.036590576171875
1782846841858959000,1.117958984375,-0.0818634033203125,0.01708984375,-0.0329132080078125
1782846841868963300,1.12796337890625,-0.1341552734375,0.0063018798828125,-0.02154541015625
1782846841878968300,1.13796826171875,-0.2438201904296875,-0.01629638671875,0.012603759765625
1782846841888973300,1.147973388671875,-0.44866943359375,-0.0455322265625,0.0283660888671875
1782846841898978300,1.157978271484375,-0.702728271484375,-0.0569915771484375,0.0372467041015625
1782846841908983300,1.1679833984375,-0.9561614990234375,-0.0855255126953125,0.049041748046875
1782846841918988300,1.17798828125,-1.1772918701171875,-0.1768951416015625,0.077117919921875
1782846841928992300,1.1879921875,-1.351226806640625,-0.3103179931640625,0.10614013671875
1782846841938997200,1.197997314453125,-1.4319610595703125,-0.4237823486328125,0.126678466796875
1782846841949002200,1.208002197265625,-1.512481689453125,-0.4879608154296875,0.1887664794921875
1782846841959007200,1.21800732421875,-1.6328277587890625,-0.5341796875,0.2869415283203125
1782846841969012200,1.22801220703125,-1.7354888916015625,-0.543243408203125,0.3688812255859375
1782846841979017200,1.238017333984375,-1.8394317626953125,-0.59771728515625,0.364959716796875
1782846841989021200,1.248021240234375,-1.96820068359375,-0.75335693359375,0.3204345703125
1782846841999026200,1.258026123046875,-2.07965087890625,-0.88653564453125,0.2684326171875
1782846842009031200,1.26803125,-2.143890380859375,-0.9170684814453125,0.2468109130859375
1782846842019036400,1.278036376953125,-2.20098876953125,-0.846527099609375,0.2765960693359375
1782846842029041400,1.28804150390625,-2.2950286865234375,-0.70416259765625,0.3303375244140625
1782846842039045400,1.29804541015625,-2.3853912353515625,-0.5440216064453125,0.381011962890625
1782846842049050400,1.30805029296875,-2.3797607421875,-0.4191741943359375,0.399078369140625
1782846842059055400,1.318055419921875,-2.23382568359375,-0.351776123046875,0.3884429931640625
1782846842069060400,1.328060302734375,-2.004119873046875,-0.3612518310546875,0.3445892333984375
1782846842079065300,1.3380654296875,-1.70465087890625,-0.4213714599609375,0.2816162109375
1782846842089070300,1.3480703125,-1.404205322265625,-0.4687652587890625,0.22735595703125
1782846842099074300,1.35807421875,-1.122467041015625,-0.4781494140625,0.1889801025390625
1782846842109079300,1.368079345703125,-0.89935302734375,-0.44891357421875,0.153472900390625
1782846842119084300,1.378084228515625,-0.7331085205078125,-0.395721435546875,0.109130859375
1782846842129089300,1.38808935546875,-0.6156463623046875,-0.339691162109375,0.052001953125
1782846842139094300,1.39809423828125,-0.54937744140625,-0.2881011962890625,0.012481689453125
1782846842149099300,1.408099365234375,-0.5113067626953125,-0.2353515625,0.0050506591796875
1782846842159103500,1.418103515625,-0.4839935302734375,-0.1751708984375,0.014190673828125
1782846842169108500,1.4281083984375,-0.4644622802734375,-0.1172637939453125,0.0184478759765625
1782846842179113500,1.438113525390625,-0.4511566162109375,-0.0677032470703125,0.015106201171875
1782846842189118500,1.448118408203125,-0.4347381591796875,-0.0333404541015625,-0.008270263671875
1782846842199123500,1.45812353515625,-0.412689208984375,0.000213623046875,-0.027862548828125
1782846842209127400,1.46812744140625,-0.3726654052734375,0.0221099853515625,-0.0576171875
1782846842219132400,1.47813232421875,-0.3327484130859375,0.0145111083984375,-0.077301025390625
1782846842229137400,1.488137451171875,-0.30181884765625,-0.017242431640625,-0.0738067626953125
1782846842239142400,1.498142333984375,-0.26318359375,-0.0456695556640625,-0.0544586181640625
1782846842249147400,1.5081474609375,-0.2272796630859375,-0.056976318359375,-0.0010833740234375
1782846842259152400,1.51815234375,-0.204376220703125,-0.06329345703125,0.0625
1782846842269156000,1.528156005859375,-0.2096405029296875,-0.0748138427734375,0.1082611083984375
1782846842279161000,1.5381611328125,-0.2318878173828125,-0.0941162109375,0.1222686767578125
1782846842289166300,1.548166259765625,-0.2540435791015625,-0.1150054931640625,0.120330810546875
1782846842299171300,1.55817138671875,-0.265625,-0.127197265625,0.120880126953125
1782846842309176300,1.56817626953125,-0.32598876953125,-0.1179962158203125,0.1259918212890625
1782846842319181300,1.578181396484375,-0.4302215576171875,-0.0935516357421875,0.1195220947265625
1782846842329185300,1.588185302734375,-0.55303955078125,-0.048736572265625,0.0728759765625
1782846842339190300,1.598190185546875,-0.70416259765625,-0.00823974609375,0.035736083984375
1782846842349195300,1.6081953125,-0.7901153564453125,-0.0018768310546875,0.0185699462890625
1782846842359200300,1.6182001953125,-0.8486328125,-0.0142669677734375,0.056243896484375
1782846842369205200,1.628205322265625,-0.9597930908203125,-0.018951416015625,0.123504638671875
1782846842379209200,1.638209228515625,-1.0963287353515625,-0.03204345703125,0.145721435546875
1782846842389214200,1.648214111328125,-1.2613983154296875,-0.0616607666015625,0.1154327392578125
1782846842399219200,1.65821923828125,-1.42523193359375,-0.08447265625,0.0583953857421875
1782846842409224200,1.66822412109375,-1.5623016357421875,-0.113311767578125,0.0022430419921875
1782846842419229200,1.678229248046875,-1.64337158203125,-0.150177001953125,-0.010772705078125
1782846842429234200,1.688234130859375,-1.70306396484375,-0.2132415771484375,-0.001556396484375
1782846842439238400,1.69823828125,-1.7513580322265625,-0.3233795166015625,0.05780029296875
1782846842449243400,1.708243408203125,-1.765625,-0.4737701416015625,0.13507080078125
1782846842459248400,1.718248291015625,-1.743804931640625,-0.630523681640625,0.206878662109375
1782846842469253400,1.72825341796875,-1.70111083984375,-0.7744293212890625,0.286468505859375
1782846842479258400,1.73825830078125,-1.7122039794921875,-0.8802947998046875,0.39752197265625
1782846842489263400,1.748263427734375,-1.8055877685546875,-0.9344024658203125,0.5187835693359375
1782846842499267300,1.758267333984375,-2.02557373046875,-0.9104766845703125,0.631378173828125
1782846842509272300,1.768272216796875,-2.3421478271484375,-0.8118743896484375,0.6833648681640625
1782846842519277300,1.77827734375,-2.57904052734375,-0.7250518798828125,0.6638336181640625
1782846842529282300,1.7882822265625,-2.642120361328125,-0.69903564453125,0.5830230712890625
1782846842539287300,1.798287353515625,-2.522430419921875,-0.7166748046875,0.421142578125
1782846842549291300,1.808291259765625,-2.3091583251953125,-0.764404296875,0.1970672607421875
1782846842559296300,1.818296142578125,-2.114288330078125,-0.79071044921875,0.017181396484375
1782846842569301200,1.82830126953125,-1.913604736328125,-0.791046142578125,-0.116790771484375
1782846842579306200,1.83830615234375,-1.7299652099609375,-0.7374114990234375,-0.201385498046875
1782846842589311500,1.8483115234375,-1.5762176513671875,-0.596588134765625,-0.2273712158203125
1782846842599316500,1.85831640625,-1.4228057861328125,-0.3995361328125,-0.2001495361328125
1782846842609320400,1.868320556640625,-1.2375335693359375,-0.1959686279296875,-0.14508056640625
1782846842619325400,1.878325439453125,-1.018463134765625,-0.0697174072265625,-0.121185302734375
1782846842629330400,1.888330322265625,-0.7990264892578125,-0.03265380859375,-0.129058837890625
1782846842639335400,1.89833544921875,-0.583648681640625,-0.0270233154296875,-0.12628173828125
1782846842649340400,1.90834033203125,-0.40087890625,-0.0466156005859375,-0.1175689697265625
1782846842659345400,1.918345458984375,-0.253631591796875,-0.0845947265625,-0.0970306396484375
1782846842669349400,1.928349365234375,-0.14447021484375,-0.13232421875,-0.0615386962890625
1782846842679354400,1.938354248046875,-0.052886962890625,-0.1427154541015625,-0.0148468017578125
1782846842689359400,1.948359375,0.0033416748046875,-0.1071014404296875,0.051300048828125
1782846842699364400,1.9583642578125,0.0088653564453125,-0.05291748046875,0.1162109375
1782846842709369300,1.968369384765625,-0.046142578125,0.0036773681640625,0.1304779052734375
1782846842719373300,1.978373291015625,-0.153045654296875,0.067291259765625,0.1224365234375
1782846842729378300,1.98837841796875,-0.2352142333984375,0.11956787109375,0.1247406005859375
1782846842739383300,1.99838330078125,-0.2416839599609375,0.1381072998046875,0.1298065185546875
1782846842749388300,2.00838818359375,-0.18682861328125,0.128662109375,0.1227874755859375
1782846842759393300,2.018393310546875,-0.10479736328125,0.08917236328125,0.110198974609375
1782846842769398300,2.028398193359375,-0.0296173095703125,0.0501861572265625,0.094451904296875
1782846842779402200,2.03840234375,0.0380401611328125,0.0283966064453125,0.0894012451171875
1782846842789407200,2.0484072265625,0.1002044677734375,0.009857177734375,0.0805511474609375
1782846842799412200,2.058412109375,0.138031005859375,-0.0028076171875,0.0703887939453125
1782846842809417200,2.068417236328125,0.162445068359375,-0.002685546875,0.0656585693359375
1782846842819422200,2.078422119140625,0.1815185546875,-0.0019378662109375,0.0582122802734375
1782846842829427200,2.08842724609375,0.18365478515625,0.0082244873046875,0.047088623046875
1782846842839431200,2.09843115234375,0.1885223388671875,0.01580810546875,0.0260467529296875
1782846842849436200,2.108436279296875,0.1839447021484375,0.01727294921875,0.0088958740234375
1782846842859441400,2.11844140625,0.152862548828125,0.0183868408203125,-0.0107421875
1782846842869446400,2.1284462890625,0.0982666015625,0.0145263671875,-0.0163116455078125
1782846842879451400,2.138451416015625,0.0283660888671875,0.001678466796875,-0.0144500732421875
1782846842889456400,2.148456298828125,-0.060272216796875,0.0041656494140625,-0.0199432373046875
1782846842899460600,2.158460693359375,-0.2177886962890625,-0.026092529296875,-0.039306640625
1782846842909465600,2.168465576171875,-0.435699462890625,-0.073333740234375,-0.0446014404296875
1782846842919470600,2.178470703125,-0.66729736328125,-0.1420440673828125,-0.0219573974609375
1782846842929475600,2.1884755859375,-0.887451171875,-0.2245025634765625,0.050537109375
1782846842939480600,2.19848046875,-1.09173583984375,-0.3376617431640625,0.120269775390625
1782846842949484500,2.208484619140625,-1.3178558349609375,-0.4705963134765625,0.1100006103515625
1782846842959489500,2.218489501953125,-1.5715484619140625,-0.5460205078125,0.0830841064453125
1782846842969494500,2.22849462890625,-1.789703369140625,-0.528533935546875,0.1350860595703125
1782846842979499500,2.23849951171875,-1.89569091796875,-0.4416961669921875,0.2799224853515625
1782846842989504500,2.24850439453125,-1.97509765625,-0.35003662109375,0.41436767578125
1782846842999509500,2.258509521484375,-2.0939788818359375,-0.363800048828125,0.446258544921875
1782846843009513700,2.268513671875,-2.2477569580078125,-0.50970458984375,0.3841705322265625
1782846843019518700,2.278518798828125,-2.3502349853515625,-0.645751953125,0.269500732421875
1782846843029523700,2.288523681640625,-2.2769012451171875,-0.6682586669921875,0.2227935791015625
1782846843039528700,2.29852880859375,-2.162353515625,-0.580474853515625,0.28155517578125
1782846843049533700,2.30853369140625,-2.1015472412109375,-0.4806060791015625,0.3657684326171875
1782846843059538700,2.31853857421875,-2.0224151611328125,-0.4200439453125,0.4107818603515625
1782846843069542700,2.328542724609375,-1.897705078125,-0.413330078125,0.3987579345703125
1782846843079547600,2.338547607421875,-1.7405548095703125,-0.4451446533203125,0.3435516357421875
1782846843089552600,2.348552734375,-1.53692626953125,-0.5132598876953125,0.26605224609375
1782846843099557600,2.3585576171875,-1.3033447265625,-0.603973388671875,0.2086944580078125
1782846843109562600,2.368562744140625,-1.09893798828125,-0.669036865234375,0.193328857421875
1782846843119566600,2.378566650390625,-0.9353179931640625,-0.6736907958984375,0.201873779296875
1782846843129571600,2.388571533203125,-0.836822509765625,-0.6085968017578125,0.2130889892578125
1782846843139576600,2.39857666015625,-0.8197174072265625,-0.501068115234375,0.20001220703125
1782846843149581600,2.40858154296875,-0.8524169921875,-0.376068115234375,0.16595458984375
1782846843159586600,2.418586669921875,-0.883331298828125,-0.255401611328125,0.1469879150390625
1782846843169591600,2.428591552734375,-0.8892059326171875,-0.1544189453125,0.1336822509765625
1782846843179595500,2.438595458984375,-0.8646392822265625,-0.0768280029296875,0.129241943359375
1782846843189600500,2.4486005859375,-0.826507568359375,-0.0214080810546875,0.1180572509765625
1782846843199605500,2.45860546875,-0.7678070068359375,0.004608154296875,0.088470458984375
1782846843209610500,2.468610595703125,-0.674774169921875,0.011932373046875,0.04815673828125
1782846843219615500,2.478615478515625,-0.5815887451171875,0.0048980712890625,0.021209716796875
1782846843229620500,2.488620361328125,-0.4968719482421875,-0.0127105712890625,0.0009002685546875
1782846843239624400,2.49862451171875,-0.436981201171875,-0.027557373046875,-0.00543212890625
1782846843249629400,2.50862939453125,-0.4123687744140625,-0.0476226806640625,-0.0079193115234375
1782846843259634400,2.518634521484375,-0.3929901123046875,-0.0606231689453125,-0.001434326171875
1782846843269639400,2.528639404296875,-0.379241943359375,-0.0660552978515625,0.01055908203125
1782846843279644400,2.53864453125,-0.3769683837890625,-0.0638427734375,0.023040771484375
1782846843289649400,2.5486494140625,-0.3692169189453125,-0.073638916015625,0.0451812744140625
1782846843299653600,2.558653564453125,-0.359649658203125,-0.0839996337890625,0.070556640625
1782846843309658600,2.56865869140625,-0.3667144775390625,-0.1159515380859375,0.0778656005859375
1782846843319663600,2.57866357421875,-0.385772705078125,-0.1113433837890625,0.095367431640625
1782846843329668600,2.588668701171875,-0.4444427490234375,-0.0797119140625,0.110565185546875
1782846843339673600,2.598673583984375,-0.52325439453125,-0.05322265625,0.120269775390625
1782846843349678600,2.6086787109375,-0.5953216552734375,-0.0221710205078125,0.131500244140625
1782846843359682600,2.6186826171875,-0.6695404052734375,0.0098724365234375,0.144439697265625
1782846843369687600,2.6286875,-0.7355804443359375,0.0361480712890625,0.155426025390625
1782846843379692500,2.638692626953125,-0.8183746337890625,0.0568695068359375,0.14208984375
1782846843389697500,2.648697509765625,-0.9356536865234375,0.072998046875,0.1249847412109375
1782846843399702500,2.65870263671875,-1.015869140625,0.059173583984375,0.1280975341796875
1782846843409706500,2.66870654296875,-1.052001953125,0.0192413330078125,0.1451568603515625
1782846843419711500,2.67871142578125,-1.089935302734375,-0.021759033203125,0.1775970458984375
1782846843429716500,2.688716552734375,-1.1690216064453125,-0.060638427734375,0.2160797119140625
1782846843439721500,2.698721435546875,-1.287261962890625,-0.1099090576171875,0.23779296875
1782846843449726500,2.7087265625,-1.42864990234375,-0.169281005859375,0.2480926513671875
1782846843459731500,2.7187314453125,-1.56646728515625,-0.227752685546875,0.240478515625
1782846843469735700,2.728735595703125,-1.6722564697265625,-0.285308837890625,0.2384490966796875
1782846843479740700,2.73874072265625,-1.7552337646484375,-0.3347320556640625,0.240936279296875
1782846843489745700,2.74874560546875,-1.8591766357421875,-0.374359130859375,0.2474365234375
1782846843499750700,2.758750732421875,-2.0155181884765625,-0.413665771484375,0.255157470703125
1782846843509755600,2.768755615234375,-2.2205963134765625,-0.43975830078125,0.2913055419921875
1782846843519760600,2.7787607421875,-2.4076080322265625,-0.4601593017578125,0.3766937255859375
1782846843529764600,2.7887646484375,-2.5229034423828125,-0.478485107421875,0.46624755859375
1782846843539769600,2.79876953125,-2.596527099609375,-0.487396240234375,0.5138092041015625
1782846843549774600,2.808774658203125,-2.608734130859375,-0.5096893310546875,0.452362060546875
1782846843559779600,2.818779541015625,-2.501953125,-0.5570831298828125,0.29541015625
1782846843569784600,2.82878466796875,-2.3184051513671875,-0.5990142822265625,0.13043212890625
1782846843579788500,2.83878857421875,-2.118804931640625,-0.623748779296875,0.0067596435546875
1782846843589793800,2.848793701171875,-1.8621978759765625,-0.611968994140625,-0.0689849853515625
1782846843599798800,2.858798828125,-1.604400634765625,-0.5562286376953125,-0.118011474609375
1782846843609803800,2.8688037109375,-1.3583831787109375,-0.491973876953125,-0.1710662841796875
1782846843619808800,2.878808837890625,-1.1510467529296875,-0.403778076171875,-0.20758056640625
1782846843629813800,2.888813720703125,-1.002471923828125,-0.2954254150390625,-0.2151336669921875
1782846843639817500,2.8988173828125,-0.8907623291015625,-0.1797943115234375,-0.18719482421875
1782846843649822500,2.908822509765625,-0.79339599609375,-0.0642852783203125,-0.124053955078125
1782846843659827500,2.918827392578125,-0.69659423828125,0.0204315185546875,-0.0441741943359375
1782846843669832400,2.92883251953125,-0.603118896484375,0.06048583984375,0.018341064453125
1782846843679837400,2.93883740234375,-0.497283935546875,0.0632781982421875,0.0594482421875
1782846843689842400,2.948842529296875,-0.3802032470703125,0.039398193359375,0.0852813720703125
1782846843699846400,2.958846435546875,-0.26055908203125,-0.0059356689453125,0.1067352294921875
1782846843709851400,2.968851318359375,-0.1379852294921875,-0.0409393310546875,0.1286773681640625
1782846843719856400,2.9788564453125,-0.029083251953125,-0.0654449462890625,0.1430511474609375
1782846843729861400,2.988861328125,0.05914306640625,-0.069366455078125,0.152191162109375
1782846843739866400,2.998866455078125,0.1146240234375,-0.0702056884765625,0.157684326171875
1782846843749870600,3.00887060546875,0.133331298828125,-0.0487823486328125,0.1728973388671875
1782846843759875600,3.01887548828125,0.1159820556640625,-0.0105743408203125,0.1830902099609375
1782846843769880600,3.028880615234375,0.08056640625,0.029510498046875,0.1840362548828125
1782846843779885600,3.038885498046875,0.01873779296875,0.0714874267578125,0.169158935546875
1782846843789890600,3.048890625,-0.027587890625,0.092681884765625,0.155303955078125
1782846843799895600,3.0588955078125,-0.0185699462890625,0.086212158203125,0.1498870849609375
1782846843809899500,3.0688994140625,0.0369873046875,0.0547332763671875,0.130523681640625
1782846843819904500,3.078904541015625,0.1118927001953125,0.01629638671875,0.10247802734375
1782846843829909500,3.088909423828125,0.157470703125,-0.003448486328125,0.079193115234375
1782846843839914500,3.09891455078125,0.1884613037109375,-0.0142822265625,0.050933837890625
1782846843849919500,3.10891943359375,0.2021026611328125,-0.02130126953125,0.0213623046875
1782846843859924500,3.118924560546875,0.179931640625,-0.024139404296875,-0.0068817138671875
1782846843869929000,3.128928955078125,0.1137542724609375,-0.01007080078125,-0.03399658203125
1782846843879934000,3.138933837890625,0.0245513916015625,0.02020263671875,-0.06243896484375
1782846843889939200,3.148939208984375,-0.0565185546875,0.0321502685546875,-0.1054534912109375
1782846843899944200,3.158944091796875,-0.147705078125,0.004730224609375,-0.1229705810546875
1782846843909949200,3.16894921875,-0.2685089111328125,-0.037994384765625,-0.1173858642578125
1782846843919954200,3.1789541015625,-0.396087646484375,-0.0826263427734375,-0.0921478271484375
1782846843929958100,3.188958251953125,-0.558685302734375,-0.119049072265625,-0.040740966796875
1782846843939963100,3.198963134765625,-0.8009185791015625,-0.1577301025390625,-0.0009918212890625
1782846843949968100,3.208968017578125,-1.1230316162109375,-0.2077178955078125,0.008575439453125
1782846843959973000,3.21897314453125,-1.4807281494140625,-0.301727294921875,-0.0155029296875
1782846843969978000,3.22897802734375,-1.6525115966796875,-0.4253082275390625,0.0076141357421875
1782846843979982000,3.238982177734375,-1.6994476318359375,-0.51666259765625,0.1004180908203125
1782846843989987000,3.248987060546875,-1.790985107421875,-0.5388336181640625,0.261322021484375
1782846843999992000,3.258991943359375,-1.93084716796875,-0.472747802734375,0.43328857421875
1782846844009997000,3.2689970703125,-2.16278076171875,-0.4470367431640625,0.5059051513671875
1782846844020002000,3.279001953125,-2.3643035888671875,-0.4683990478515625,0.4797821044921875
1782846844030007000,3.289007080078125,-2.4274444580078125,-0.4535980224609375,0.4015655517578125
1782846844040011300,3.29901123046875,-2.3640899658203125,-0.430816650390625,0.3271026611328125
1782846844050016300,3.309016357421875,-2.1986083984375,-0.4302215576171875,0.2968597412109375
1782846844060021200,3.319021240234375,-2.014251708984375,-0.447296142578125,0.2859649658203125
1782846844070026200,3.329026123046875,-1.8013153076171875,-0.480865478515625,0.2962188720703125
1782846844080031200,3.33903125,-1.588836669921875,-0.556884765625,0.28167724609375
1782846844090036200,3.3490361328125,-1.3947601318359375,-0.648345947265625,0.2296142578125
1782846844100040200,3.359040283203125,-1.2244720458984375,-0.7142333984375,0.1678619384765625
1782846844110045200,3.369045166015625,-1.0837249755859375,-0.73687744140625,0.11907958984375
1782846844120050200,3.37905029296875,-0.9996795654296875,-0.7108306884765625,0.09112548828125
1782846844130055200,3.38905517578125,-0.97442626953125,-0.6326446533203125,0.0899810791015625
1782846844140060200,3.39906005859375,-1.0132904052734375,-0.5109100341796875,0.10675048828125
1782846844150064000,3.409064208984375,-1.0741119384765625,-0.400604248046875,0.1126251220703125
1782846844160069000,3.419069091796875,-1.088653564453125,-0.298614501953125,0.117156982421875
1782846844170074000,3.42907421875,-1.0532989501953125,-0.219085693359375,0.13775634765625
1782846844180079000,3.4390791015625,-0.9892120361328125,-0.1516265869140625,0.1597900390625
1782846844190084000,3.449083984375,-0.9042205810546875,-0.117767333984375,0.155120849609375
1782846844200089300,3.45908935546875,-0.795623779296875,-0.0916290283203125,0.1285400390625
1782846844210093300,3.46909326171875,-0.6846160888671875,-0.0685577392578125,0.0719146728515625
1782846844220098300,3.479098388671875,-0.5943450927734375,-0.05859375,0.0239105224609375
1782846844230103300,3.489103271484375,-0.5304412841796875,-0.0469970703125,-0.0048675537109375
1782846844240108300,3.4991083984375,-0.4783935546875,-0.044097900390625,-0.025054931640625
1782846844250113300,3.50911328125,-0.432220458984375,-0.05419921875,-0.0369873046875
1782846844260118300,3.5191181640625,-0.4037933349609375,-0.0500946044921875,-0.0422210693359375
1782846844270122200,3.529122314453125,-0.4037933349609375,-0.0430755615234375,-0.0437164306640625
1782846844280127200,3.539127197265625,-0.39312744140625,-0.060516357421875,-0.036651611328125
1782846844290132200,3.54913232421875,-0.3573760986328125,-0.080535888671875,-0.017333984375
1782846844300137200,3.55913720703125,-0.3256683349609375,-0.09991455078125,0.002960205078125
1782846844310142200,3.56914208984375,-0.3009796142578125,-0.124267578125,0.0104827880859375
1782846844320147200,3.579147216796875,-0.28466796875,-0.1337738037109375,0.005401611328125
1782846844330151200,3.589151123046875,-0.2967071533203125,-0.128082275390625,0.014495849609375
1782846844340156200,3.59915625,-0.350128173828125,-0.1050872802734375,0.0283966064453125
1782846844350161200,3.6091611328125,-0.4234466552734375,-0.0670623779296875,0.0466461181640625
1782846844360166100,3.619166259765625,-0.513671875,-0.01751708984375,0.0593109130859375
1782846844370171100,3.629171142578125,-0.6040496826171875,0.0269317626953125,0.0670318603515625
1782846844380175000,3.639175048828125,-0.65191650390625,0.0550537109375,0.0603790283203125
1782846844390180000,3.64918017578125,-0.6749267578125,0.0593719482421875,0.054595947265625
1782846844400185000,3.65918505859375,-0.7065582275390625,0.03594970703125,0.0376739501953125
1782846844410190000,3.669190185546875,-0.7477569580078125,-0.01129150390625,0.0091400146484375
1782846844420195000,3.679195068359375,-0.8000030517578125,-0.067779541015625,-0.004974365234375
1782846844430200000,3.689199951171875,-0.8778228759765625,-0.127349853515625,0.006683349609375
1782846844440204000,3.6992041015625,-1,-0.1768341064453125,0.0324554443359375
1782846844450209000,3.709208984375,-1.1901092529296875,-0.2154388427734375,0.0654296875
1782846844460214000,3.719214111328125,-1.435150146484375,-0.2451629638671875,0.12103271484375
1782846844470219000,3.729218994140625,-1.698638916015625,-0.2786712646484375,0.217041015625
1782846844480224300,3.739224365234375,-1.89031982421875,-0.320953369140625,0.2913360595703125
1782846844490228200,3.749228271484375,-2.04949951171875,-0.36376953125,0.3602447509765625
1782846844500233200,3.759233154296875,-2.19659423828125,-0.412384033203125,0.4378814697265625
1782846844510238200,3.76923828125,-2.322265625,-0.4529876708984375,0.5042724609375
1782846844520243200,3.7792431640625,-2.51556396484375,-0.4515228271484375,0.5439605712890625
1782846844530248200,3.789248291015625,-2.77838134765625,-0.407745361328125,0.525177001953125
1782846844540253200,3.799253173828125,-2.97314453125,-0.376312255859375,0.44354248046875
1782846844550257200,3.809257080078125,-3.0168609619140625,-0.3824615478515625,0.3316192626953125
1782846844560262100,3.81926220703125,-2.90460205078125,-0.4110870361328125,0.223358154296875
1782846844570267100,3.82926708984375,-2.7193603515625,-0.427520751953125,0.132293701171875
1782846844580272000,3.839272216796875,-2.5171661376953125,-0.4149932861328125,0.0853424072265625
1782846844590277000,3.849277099609375,-2.2500762939453125,-0.3867645263671875,0.065460205078125
1782846844600282000,3.8592822265625,-1.9900360107421875,-0.3388214111328125,0.0610504150390625
1782846844610286300,3.869286376953125,-1.73126220703125,-0.27081298828125,0.0607757568359375
1782846844620291300,3.879291259765625,-1.475555419921875,-0.214202880859375,0.076629638671875
1782846844630296300,3.88929638671875,-1.2237091064453125,-0.186248779296875,0.104217529296875
1782846844640301300,3.89930126953125,-0.96624755859375,-0.15069580078125,0.1320037841796875
1782846844650306300,3.909306396484375,-0.7284088134765625,-0.1309967041015625,0.1306915283203125
1782846844660310300,3.919310302734375,-0.510894775390625,-0.0972442626953125,0.093231201171875
1782846844670315300,3.929315185546875,-0.31573486328125,-0.0597076416015625,0.040435791015625
1782846844680320300,3.9393203125,-0.1784210205078125,-0.032135009765625,-0.020416259765625
1782846844690325200,3.9493251953125,-0.0954132080078125,-0.0233917236328125,-0.083526611328125
1782846844700330200,3.959330322265625,-0.0569000244140625,-0.0108795166015625,-0.123565673828125
1782846844710335200,3.969335205078125,-0.031341552734375,0.0216217041015625,-0.12017822265625
1782846844720339200,3.979339111328125,-0.013671875,0.0637664794921875,-0.075836181640625
1782846844730344200,3.98934423828125,-0.025726318359375,0.0885009765625,-0.0250701904296875
1782846844740349200,3.99934912109375,-0.053985595703125,0.1014251708984375,0.0057525634765625
1782846844750354200,4.009354248046875,-0.050750732421875,0.1180267333984375,0.03265380859375
1782846844760359200,4.019359130859375,-0.0291900634765625,0.1244354248046875,0.0582733154296875
1782846844770364200,4.0293642578125,-0.0031280517578125,0.1171112060546875,0.0824737548828125
1782846844780368100,4.0393681640625,0.031707763671875,0.08831787109375,0.0836639404296875
1782846844790373000,4.049373046875,0.0830230712890625,0.043182373046875,0.0631866455078125
1782846844800378000,4.059378173828125,0.1459808349609375,-0.00677490234375,0.0459136962890625
1782846844810383000,4.069383056640625,0.21331787109375,-0.0486602783203125,0.0421295166015625
1782846844820388000,4.07938818359375,0.2654571533203125,-0.06829833984375,0.04449462890625
1782846844830393000,4.08939306640625,0.291717529296875,-0.07098388671875,0.0433197021484375
1782846844840397000,4.09939697265625,0.296295166015625,-0.064971923828125,0.0336456298828125
1782846844850402000,4.109402099609375,0.276519775390625,-0.0573272705078125,0.0214996337890625
1782846844860407000,4.119406982421875,0.2403106689453125,-0.0430755615234375,0.0077056884765625
1782846844870412500,4.12941259765625,0.1846923828125,-0.0231781005859375,-0.0113525390625
1782846844880417500,4.13941748046875,0.10455322265625,0.002105712890625,-0.02960205078125
1782846844890421500,4.14942138671875,0.0320892333984375,0.027496337890625,-0.0405426025390625
1782846844900426500,4.159426513671875,-0.026885986328125,0.033477783203125,-0.0516204833984375
1782846844910431500,4.169431396484375,-0.11614990234375,0.0225067138671875,-0.0638885498046875
1782846844920436500,4.1794365234375,-0.2439117431640625,-0.0091705322265625,-0.069610595703125
1782846844930441500,4.18944140625,-0.3942413330078125,-0.0494842529296875,-0.054931640625
1782846844940446500,4.199446533203125,-0.610687255859375,-0.11309814453125,-0.0587158203125
1782846844950450400,4.209450439453125,-0.8950042724609375,-0.182159423828125,-0.06805419921875
1782846844960455400,4.219455322265625,-1.2177734375,-0.25238037109375,-0.0636749267578125
1782846844970460400,4.22946044921875,-1.4585418701171875,-0.351776123046875,-0.051177978515625
1782846844980465400,4.23946533203125,-1.56402587890625,-0.4217376708984375,0.039459228515625
1782846844990470400,4.249470458984375,-1.642730712890625,-0.40130615234375,0.1967315673828125
1782846845000475400,4.259475341796875,-1.7750244140625,-0.3822174072265625,0.328857421875
1782846845010479400,4.269479248046875,-1.9255218505859375,-0.512481689453125,0.33685302734375
1782846845020484400,4.279484375,-2.000579833984375,-0.891754150390625,0.2175750732421875
1782846845030489300,4.2894892578125,-1.90191650390625,-1.2338104248046875,0.105804443359375
1782846845040494300,4.299494384765625,-1.9863433837890625,-1.2211151123046875,0.060333251953125
1782846845050499300,4.309499267578125,-2.3982391357421875,-0.860198974609375,0.12677001953125
1782846845060503600,4.319503662109375,-2.714935302734375,-0.456634521484375,0.2779388427734375
1782846845070508500,4.329508544921875,-2.7593994140625,-0.05126953125,0.4908447265625
1782846845080513500,4.339513427734375,-2.712158203125,0.2286376953125,0.55804443359375
1782846845090518500,4.3495185546875,-2.62677001953125,0.2336273193359375,0.4234619140625
1782846845100523500,4.3595234375,-2.396240234375,0.025604248046875,0.2273101806640625
1782846845110528500,4.369528564453125,-1.9945220947265625,-0.273895263671875,0.0850830078125
1782846845120532500,4.379532470703125,-1.4759063720703125,-0.6802520751953125,0.00909423828125
1782846845130537500,4.389537353515625,-0.8730621337890625,-0.88916015625,0.0057220458984375
1782846845140542500,4.39954248046875,-0.4437713623046875,-0.7384185791015625,0.008819580078125
1782846845150547500,4.40954736328125,-0.5201416015625,-0.579833984375,-0.0997161865234375
1782846845160552400,4.419552490234375,-0.8563232421875,-0.46783447265625,-0.23956298828125
1782846845170557400,4.429557373046875,-1.044097900390625,-0.3206634521484375,-0.270355224609375
1782846845180561700,4.439561767578125,-1.0683746337890625,-0.14306640625,-0.243988037109375
1782846845190566700,4.449566650390625,-1.0381927490234375,0.029052734375,-0.1917266845703125
1782846845200571600,4.459571533203125,-0.985992431640625,0.1533203125,-0.1149749755859375
1782846845210576600,4.46957666015625,-0.8854217529296875,0.2111968994140625,-0.0443572998046875
1782846845220581600,4.47958154296875,-0.7692413330078125,0.2270050048828125,0.004241943359375
1782846845230585600,4.489585693359375,-0.666290283203125,0.203277587890625,0.0334930419921875
1782846845240590600,4.499590576171875,-0.5643463134765625,0.1565399169921875,0.0426483154296875
1782846845250595600,4.509595703125,-0.4567413330078125,0.1004638671875,0.037872314453125
1782846845260600600,4.5196005859375,-0.36334228515625,0.0382080078125,0.01947021484375
1782846845270605600,4.52960546875,-0.2872161865234375,-0.0119171142578125,0.002410888671875
1782846845280610600,4.539610595703125,-0.2298736572265625,-0.04364013671875,0.0008392333984375
1782846845290614300,4.5496142578125,-0.1930999755859375,-0.0649261474609375,0.0091705322265625
1782846845300619300,4.559619384765625,-0.1668701171875,-0.0796356201171875,0.0265045166015625
1782846845310624500,4.56962451171875,-0.158721923828125,-0.0895233154296875,0.057952880859375
1782846845320629500,4.57962939453125,-0.1761322021484375,-0.0904388427734375,0.10723876953125
1782846845330634500,4.589634521484375,-0.220245361328125,-0.0882415771484375,0.1522064208984375
1782846845340638500,4.599638427734375,-0.26416015625,-0.0986480712890625,0.1862030029296875
1782846845350643500,4.6096435546875,-0.294952392578125,-0.10577392578125,0.220001220703125
1782846845360648400,4.6196484375,-0.335235595703125,-0.0949554443359375,0.2552337646484375
1782846845370653400,4.6296533203125,-0.3974151611328125,-0.0789642333984375,0.26055908203125
1782846845380658400,4.639658447265625,-0.4679718017578125,-0.066802978515625,0.2197265625
1782846845390663400,4.649663330078125,-0.5666656494140625,-0.0408477783203125,0.15594482421875
1782846845400667400,4.65966748046875,-0.68994140625,0.0063018798828125,0.08984375
1782846845410672400,4.66967236328125,-0.8203125,0.0334625244140625,0.035797119140625
1782846845420677400,4.679677490234375,-0.93133544921875,0.0348358154296875,0.023284912109375
1782846845430682400,4.689682373046875,-1.016448974609375,0.015777587890625,0.064605712890625
1782846845440687400,4.699687255859375,-1.094573974609375,-0.0018768310546875,0.1483612060546875
1782846845450692400,4.7096923828125,-1.1958770751953125,-0.02435302734375,0.2197265625
1782846845460696600,4.719696533203125,-1.3226776123046875,-0.090545654296875,0.2577667236328125
1782846845470701600,4.72970166015625,-1.466949462890625,-0.203643798828125,0.27392578125
1782846845480706600,4.73970654296875,-1.6162872314453125,-0.32659912109375,0.29437255859375
1782846845490711600,4.749711669921875,-1.756622314453125,-0.4337921142578125,0.3233184814453125
1782846845500716500,4.759716552734375,-1.9057769775390625,-0.562744140625,0.369354248046875
1782846845510721500,4.769721435546875,-2.0250091552734375,-0.6732940673828125,0.468536376953125
1782846845520725500,4.7797255859375,-2.04656982421875,-0.749908447265625,0.6023712158203125
1782846845530730500,4.78973046875,-2.0572357177734375,-0.836944580078125,0.695556640625
1782846845540735500,4.799735595703125,-2.2008819580078125,-0.89605712890625,0.704437255859375
1782846845550740500,4.809740478515625,-2.3649444580078125,-0.8612060546875,0.6654205322265625
1782846845560745500,4.819745361328125,-2.482696533203125,-0.807861328125,0.565704345703125
1782846845570749400,4.82974951171875,-2.5151824951171875,-0.776763916015625,0.3925323486328125
1782846845580754400,4.83975439453125,-2.4944915771484375,-0.718658447265625,0.220245361328125
1782846845590759400,4.849759521484375,-2.41314697265625,-0.639068603515625,0.0828094482421875
1782846845600764400,4.859764404296875,-2.318115234375,-0.5711669921875,-0.01123046875
1782846845610769400,4.869769287109375,-2.1954193115234375,-0.5119476318359375,-0.0531463623046875
1782846845620774400,4.8797744140625,-2.0093994140625,-0.436431884765625,-0.054351806640625
1782846845630778600,4.889778564453125,-1.7817840576171875,-0.34307861328125,-0.02801513671875
1782846845640783600,4.89978369140625,-1.5133819580078125,-0.2512664794921875,-0.0202789306640625
1782846845650788600,4.90978857421875,-1.2209625244140625,-0.1798858642578125,-0.042724609375
1782846845660793600,4.919793701171875,-0.92669677734375,-0.1227874755859375,-0.0499725341796875
1782846845670798600,4.929798583984375,-0.68408203125,-0.084869384765625,-0.0528717041015625
1782846845680802600,4.939802490234375,-0.4873504638671875,-0.072052001953125,-0.0497283935546875
1782846845690807600,4.9498076171875,-0.3394622802734375,-0.07421875,-0.030364990234375
1782846845700812500,4.9598125,-0.249053955078125,-0.0655517578125,0.009979248046875
1782846845710817500,4.969817626953125,-0.209991455078125,-0.0474700927734375,0.0575714111328125
1782846845720822500,4.979822509765625,-0.1689453125,-0.0266876220703125,0.0834503173828125
1782846845730827500,4.98982763671875,-0.127197265625,0.0059051513671875,0.0918121337890625
1782846845740831500,4.99983154296875,-0.1055145263671875,0.0437469482421875,0.0764617919921875
1782846845750836500,5.00983642578125,-0.102020263671875,0.0839080810546875,0.050872802734375
1782846845760841500,5.019841552734375,-0.106719970703125,0.1256256103515625,0.024871826171875
1782846845770846500,5.029846435546875,-0.1004791259765625,0.152587890625,0.010650634765625
1782846845780851500,5.0398515625,-0.0523834228515625,0.156005859375,0.0003509521484375
1782846845790856400,5.0498564453125,0.0303497314453125,0.138275146484375,-0.014434814453125
1782846845800860400,5.0598603515625,0.0916748046875,0.097259521484375,-0.0149688720703125
1782846845810865400,5.069865478515625,0.129852294921875,0.05755615234375,-0.0050811767578125
1782846845820870400,5.079870361328125,0.17779541015625,0.0323333740234375,0.016326904296875
1782846845830875400,5.08987548828125,0.2263641357421875,-0.0002899169921875,0.0350341796875
1782846845840880400,5.09988037109375,0.275848388671875,-0.0293426513671875,0.0507965087890625
1782846845850884400,5.10988427734375,0.306732177734375,-0.0457305908203125,0.0686187744140625
1782846845860889300,5.119889404296875,0.3128509521484375,-0.0528564453125,0.079986572265625
1782846845870893800,5.129893798828125,0.291259765625,-0.05224609375,0.0746917724609375
1782846845880898800,5.13989892578125,0.238433837890625,-0.05810546875,0.04736328125
1782846845890903800,5.14990380859375,0.1629791259765625,-0.0611419677734375,0.0113677978515625
1782846845900908800,5.15990869140625,0.0873565673828125,-0.04974365234375,-0.0157318115234375
1782846845910912800,5.169912841796875,0.0103912353515625,-0.039306640625,-0.0324554443359375
1782846845920917800,5.179917724609375,-0.08477783203125,-0.032958984375,-0.038909912109375
1782846845930922800,5.1899228515625,-0.222900390625,-0.03997802734375,-0.043548583984375
1782846845940927700,5.199927734375,-0.4077301025390625,-0.0487823486328125,-0.0504150390625
1782846845950932700,5.2099326171875,-0.6509246826171875,-0.0489654541015625,-0.048309326171875
1782846845960937700,5.219937744140625,-0.974884033203125,-0.0438690185546875,-0.0087890625
1782846845970941700,5.229941650390625,-1.3097991943359375,-0.0601043701171875,0.0496368408203125
1782846845980946700,5.23994677734375,-1.562103271484375,-0.15850830078125,0.107666015625
1782846845990951700,5.24995166015625,-1.7029876708984375,-0.3505859375,0.17071533203125
1782846846000956700,5.259956787109375,-1.74481201171875,-0.566741943359375,0.263946533203125
1782846846010961700,5.269961669921875,-1.7470245361328125,-0.752227783203125,0.3527069091796875
1782846846020966000,5.2799658203125,-1.6942596435546875,-0.90753173828125,0.39019775390625
1782846846030971000,5.289970947265625,-1.5849609375,-1.021087646484375,0.391448974609375
1782846846040976000,5.299975830078125,-1.6012420654296875,-1.221954345703125,0.3360748291015625
1782846846050980900,5.30998095703125,-1.7497100830078125,-1.3504486083984375,0.303955078125
1782846846060985900,5.31998583984375,-1.917449951171875,-1.222564697265625,0.3107147216796875
1782846846070990800,5.329990966796875,-2.1036529541015625,-0.9265594482421875,0.3572235107421875
1782846846080994800,5.339994873046875,-2.220458984375,-0.6218719482421875,0.406005859375
1782846846090999800,5.349999755859375,-2.2483367919921875,-0.3318939208984375,0.4001617431640625
1782846846101004800,5.3600048828125,-2.28558349609375,-0.1558074951171875,0.3074798583984375
1782846846111009800,5.370009765625,-2.2551116943359375,-0.1660308837890625,0.158172607421875
1782846846121014800,5.380014892578125,-2.017608642578125,-0.323516845703125,0.01837158203125
1782846846131019800,5.390019775390625,-1.6340484619140625,-0.57843017578125,-0.02789306640625
1782846846141024000,5.40002392578125,-1.2241363525390625,-0.84722900390625,0.0260772705078125
1782846846151029000,5.410029052734375,-0.82855224609375,-0.9207000732421875,0.138092041015625
1782846846161034000,5.420033935546875,-0.59564208984375,-0.770538330078125,0.25250244140625
1782846846171039000,5.4300390625,-0.5844268798828125,-0.590301513671875,0.3275299072265625
1782846846181044000,5.4400439453125,-0.699310302734375,-0.442535400390625,0.3170013427734375
1782846846191048000,5.4500478515625,-0.8196563720703125,-0.31842041015625,0.2780609130859375
1782846846201053000,5.460052978515625,-0.861297607421875,-0.1999664306640625,0.2881622314453125
1782846846211058000,5.470057861328125,-0.87335205078125,-0.106353759765625,0.2686767578125
1782846846221063000,5.48006298828125,-0.832611083984375,-0.0424957275390625,0.21002197265625
1782846846231068000,5.49006787109375,-0.7198486328125,-0.002044677734375,0.126556396484375
1782846846241073000,5.500072998046875,-0.6034088134765625,0.0209808349609375,0.0465850830078125
1782846846251076600,5.51007666015625,-0.4929656982421875,0.0158538818359375,-0.0252227783203125
1782846846261081600,5.52008154296875,-0.38458251953125,0.01239013671875,-0.086273193359375
1782846846271086800,5.5300869140625,-0.2960968017578125,0.0145263671875,-0.123870849609375
1782846846281091800,5.540091796875,-0.247589111328125,0.0051727294921875,-0.1469268798828125
1782846846291096800,5.550096923828125,-0.223297119140625,-0.012603759765625,-0.149322509765625
1782846846301101800,5.560101806640625,-0.182159423828125,-0.0373992919921875,-0.12890625
1782846846311105800,5.570105712890625,-0.1431427001953125,-0.0720977783203125,-0.1203765869140625
1782846846321110800,5.58011083984375,-0.1579437255859375,-0.1104278564453125,-0.127716064453125
1782846846331115800,5.59011572265625,-0.1731414794921875,-0.14031982421875,-0.1264801025390625
1782846846341120800,5.600120849609375,-0.1670379638671875,-0.1479644775390625,-0.0927734375
1782846846351125800,5.610125732421875,-0.18450927734375,-0.140411376953125,-0.056854248046875
1782846846361129700,5.620129638671875,-0.238250732421875,-0.1201171875,-0.0323333740234375
1782846846371134700,5.630134765625,-0.2928924560546875,-0.1153564453125,-0.0005645751953125
1782846846381139700,5.6401396484375,-0.3325042724609375,-0.0953826904296875,0.044342041015625
1782846846391144700,5.650144775390625,-0.4072418212890625,-0.0528717041015625,0.10211181640625
1782846846401149700,5.660149658203125,-0.5435333251953125,0.0185546875,0.177154541015625
1782846846411154700,5.67015478515625,-0.7210845947265625,0.096466064453125,0.2266082763671875
1782846846421159000,5.680158935546875,-0.9145660400390625,0.1304931640625,0.1982574462890625
1782846846431164000,5.690163818359375,-1.09320068359375,0.1202392578125,0.1187896728515625
1782846846441169000,5.7001689453125,-1.1983642578125,0.08099365234375,0.0428009033203125
1782846846451174000,5.710173828125,-1.2550201416015625,0.024810791015625,0.0492706298828125
1782846846461179000,5.720178955078125,-1.33544921875,-0.0894775390625,0.121429443359375
1782846846471184000,5.730183837890625,-1.4862213134765625,-0.272369384765625,0.197174072265625
1782846846481187800,5.740187744140625,-1.653717041015625,-0.4452972412109375,0.2395782470703125
1782846846491192800,5.75019287109375,-1.7728424072265625,-0.580352783203125,0.2119903564453125
1782846846501197800,5.76019775390625,-1.847747802734375,-0.6797637939453125,0.23193359375
1782846846511202800,5.770202880859375,-1.9486083984375,-0.76861572265625,0.3444366455078125
1782846846521207800,5.780207763671875,-2.1577606201171875,-0.81414794921875,0.5091705322265625
1782846846531211800,5.790211669921875,-2.6153411865234375,-0.7940826416015625,0.65936279296875
1782846846541216800,5.800216796875,-3.1068267822265625,-0.7066802978515625,0.6733856201171875
1782846846551221800,5.8102216796875,-3.2037353515625,-0.61962890625,0.6270904541015625
1782846846561226800,5.820226806640625,-3.1373291015625,-0.6170501708984375,0.5776519775390625
1782846846571231700,5.830231689453125,-2.970672607421875,-0.6512908935546875,0.47711181640625
1782846846581236700,5.84023681640625,-2.726715087890625,-0.6829986572265625,0.3542633056640625
1782846846591241000,5.850240966796875,-2.4841156005859375,-0.6672210693359375,0.22216796875
1782846846601246000,5.860245849609375,-2.2134857177734375,-0.63812255859375,0.0796051025390625
1782846846611251000,5.8702509765625,-1.9361419677734375,-0.5719451904296875,-0.0443878173828125
1782846846621256000,5.880255859375,-1.718719482421875,-0.40887451171875,-0.0800933837890625
1782846846631261000,5.890260986328125,-1.49078369140625,-0.2554779052734375,-0.0660400390625
1782846846641266000,5.900265869140625,-1.2498931884765625,-0.16180419921875,-0.0607147216796875
1782846846651270000,5.910269775390625,-0.983428955078125,-0.0879058837890625,-0.04278564453125
1782846846661275000,5.92027490234375,-0.7136688232421875,-0.055633544921875,-0.02874755859375
1782846846671279900,5.93027978515625,-0.4776458740234375,-0.05401611328125,-0.0302276611328125
1782846846681284900,5.940284912109375,-0.2720489501953125,-0.05401611328125,-0.034881591796875
1782846846691289900,5.950289794921875,-0.1047515869140625,-0.0543060302734375,-0.0499420166015625
1782846846701293800,5.9602939453125,0.0205078125,-0.037353515625,-0.0832366943359375
1782846846711298800,5.970298828125,0.1117706298828125,-0.0214996337890625,-0.1185302734375
1782846846721303800,5.9803037109375,0.1726837158203125,-0.0079345703125,-0.1367950439453125
1782846846731308800,5.990308837890625,0.2264251708984375,0.01446533203125,-0.1173553466796875
1782846846741313800,6.000313720703125,0.2618408203125,0.0312652587890625,-0.0746002197265625
1782846846751319000,6.010319091796875,0.2491302490234375,0.0567169189453125,-0.040252685546875
1782846846761322800,6.02032275390625,0.1705322265625,0.100372314453125,-0.0319976806640625
1782846846771327700,6.03032763671875,0.074920654296875,0.1436767578125,-0.03057861328125
1782846846781332700,6.040332763671875,0.026458740234375,0.165618896484375,-0.018646240234375
1782846846791337700,6.050337646484375,0.0283203125,0.1536102294921875,-0.00457763671875
1782846846801342700,6.0603427734375,0.056304931640625,0.115264892578125,0.0313568115234375
1782846846811347700,6.07034765625,0.1069488525390625,0.049835205078125,0.0642852783203125
1782846846821351700,6.0803515625,0.1718597412109375,-0.0201416015625,0.08868408203125
1782846846831356700,6.090356689453125,0.2144012451171875,-0.0563812255859375,0.10906982421875
1782846846841361700,6.100361572265625,0.2297515869140625,-0.0691375732421875,0.125030517578125
1782846846851366700,6.11036669921875,0.2232818603515625,-0.05419921875,0.1341400146484375
1782846846861371600,6.12037158203125,0.19818115234375,-0.0316619873046875,0.1316680908203125
1782846846871376000,6.1303759765625,0.1475982666015625,-0.0061187744140625,0.1265106201171875
1782846846881380900,6.140380859375,0.0775604248046875,0.018707275390625,0.0960235595703125
1782846846891385900,6.1503857421875,0.0045623779296875,0.0417022705078125,0.070037841796875
1782846846901390800,6.160390869140625,-0.0369110107421875,0.057861328125,0.0519561767578125
1782846846911395800,6.170395751953125,-0.0836029052734375,0.05377197265625,0.0353240966796875
1782846846921400800,6.18040087890625,-0.1646881103515625,0.0271759033203125,0.019683837890625
1782846846931404500,6.190404541015625,-0.272735595703125,-0.020599365234375,-0.00189208984375
1782846846941409500,6.200409423828125,-0.4677734375,-0.06817626953125,-0.0307464599609375
1782846846951414500,6.21041455078125,-0.7701263427734375,-0.105682373046875,-0.04534912109375
1782846846961419500,6.22041943359375,-1.098846435546875,-0.1711578369140625,-0.0392913818359375
1782846846971424500,6.230424560546875,-1.3732452392578125,-0.2919158935546875,-0.044891357421875
1782846846981429500,6.240429443359375,-1.5609588623046875,-0.4463653564453125,-0.00689697265625
1782846846991433700,6.250433837890625,-1.6771697998046875,-0.531707763671875,0.13201904296875
1782846847001438700,6.260438720703125,-1.7489013671875,-0.551361083984375,0.29217529296875
1782846847011443700,6.270443603515625,-1.81658935546875,-0.5610504150390625,0.423675537109375
1782846847021448700,6.28044873046875,-1.86322021484375,-0.5951995849609375,0.5131988525390625
1782846847031453700,6.29045361328125,-1.9852294921875,-0.8149566650390625,0.4994049072265625
1782846847041458700,6.300458740234375,-2.16607666015625,-1.024200439453125,0.4903717041015625
1782846847051462700,6.310462646484375,-2.2711639404296875,-0.993927001953125,0.5292205810546875
1782846847061467600,6.320467529296875,-2.302581787109375,-0.76409912109375,0.60980224609375
1782846847071472600,6.33047265625,-2.347564697265625,-0.554595947265625,0.6295166015625
1782846847081477600,6.3404775390625,-2.3400726318359375,-0.4399871826171875,0.5794525146484375
1782846847091482600,6.350482666015625,-2.23358154296875,-0.371337890625,0.4833221435546875
1782846847101486600,6.360486572265625,-2.062408447265625,-0.363983154296875,0.3513336181640625
1782846847111491600,6.37049169921875,-1.835662841796875,-0.4175567626953125,0.229156494140625
1782846847121496600,6.38049658203125,-1.54864501953125,-0.5083770751953125,0.1456146240234375
1782846847131501600,6.39050146484375,-1.229156494140625,-0.5921478271484375,0.1015167236328125
1782846847141506600,6.400506591796875,-0.945068359375,-0.62115478515625,0.0927734375
1782846847151511600,6.410511474609375,-0.7791290283203125,-0.5970306396484375,0.084869384765625
1782846847161515800,6.420515869140625,-0.7121124267578125,-0.51580810546875,0.079345703125
1782846847171520800,6.430520751953125,-0.71783447265625,-0.4066009521484375,0.0760498046875
1782846847181525800,6.44052587890625,-0.767822265625,-0.2755126953125,0.0850830078125
1782846847191530800,6.45053076171875,-0.8219451904296875,-0.1342620849609375,0.1112213134765625
1782846847201535700,6.46053564453125,-0.8514251708984375,-0.0215911865234375,0.1402435302734375
1782846847211539700,6.470539794921875,-0.83624267578125,0.0518951416015625,0.1725616455078125
1782846847221544700,6.480544677734375,-0.79052734375,0.0897064208984375,0.1881866455078125
1782846847231549700,6.4905498046875,-0.7228240966796875,0.09210205078125,0.15545654296875
1782846847241554700,6.5005546875,-0.6448822021484375,0.0815582275390625,0.0968475341796875
1782846847251559700,6.5105595703125,-0.5803985595703125,0.0614013671875,0.0504913330078125
1782846847261564700,6.520564697265625,-0.52984619140625,0.03802490234375,-0.0005340576171875
1782846847271569000,6.53056884765625,-0.506927490234375,0.0191802978515625,-0.0448760986328125
1782846847281574000,6.540573974609375,-0.4852447509765625,-0.0055389404296875,-0.0819549560546875
1782846847291579000,6.550578857421875,-0.4553070068359375,-0.0314483642578125,-0.0975494384765625
1782846847301584000,6.560583984375,-0.4272918701171875,-0.0651397705078125,-0.0842742919921875
1782846847311588900,6.5705888671875,-0.4043426513671875,-0.0881805419921875,-0.036102294921875
1782846847321593900,6.58059375,-0.3903961181640625,-0.094757080078125,0.0223846435546875
1782846847331597800,6.590597900390625,-0.386199951171875,-0.0889434814453125,0.075653076171875
1782846847341602800,6.600602783203125,-0.3989105224609375,-0.0692291259765625,0.1162109375
1782846847351607800,6.61060791015625,-0.438201904296875,-0.038360595703125,0.140228271484375
1782846847361612800,6.62061279296875,-0.5011444091796875,-0.00335693359375,0.1576385498046875
1782846847371617800,6.63061767578125,-0.57391357421875,0.042724609375,0.1822967529296875
1782846847381621500,6.64062158203125,-0.6493682861328125,0.077484130859375,0.2003021240234375
1782846847391626500,6.65062646484375,-0.709686279296875,0.0876617431640625,0.20635986328125
1782846847401631500,6.660631591796875,-0.751983642578125,0.0807647705078125,0.196044921875
1782846847411636500,6.670636474609375,-0.7964324951171875,0.06036376953125,0.1669921875
1782846847421641500,6.680641357421875,-0.83221435546875,0.0154571533203125,0.117706298828125
1782846847431646500,6.690646484375,-0.88232421875,-0.0308990478515625,0.0692138671875
1782846847441650700,6.700650634765625,-0.9761505126953125,-0.079376220703125,0.0606842041015625
1782846847451655700,6.71065576171875,-1.0824127197265625,-0.13482666015625,0.0833282470703125
1782846847461660700,6.72066064453125,-1.1959686279296875,-0.194732666015625,0.122039794921875
1782846847471665700,6.730665771484375,-1.3405303955078125,-0.25494384765625,0.20526123046875
1782846847481670700,6.740670654296875,-1.519805908203125,-0.3267364501953125,0.293304443359375
1782846847491675600,6.750675537109375,-1.681915283203125,-0.4045257568359375,0.374298095703125
1782846847501679600,6.7606796875,-1.8022613525390625,-0.481292724609375,0.4473724365234375
1782846847511684600,6.7706845703125,-1.9151153564453125,-0.565521240234375,0.4811859130859375
1782846847521689600,6.780689697265625,-2.027801513671875,-0.6670989990234375,0.4779510498046875
1782846847531694600,6.790694580078125,-2.1858367919921875,-0.7848663330078125,0.469329833984375
1782846847541699600,6.800699462890625,-2.3690185546875,-0.887786865234375,0.5003204345703125
1782846847551703800,6.810703857421875,-2.505340576171875,-0.92169189453125,0.528289794921875
1782846847561708800,6.820708740234375,-2.5860137939453125,-0.8916473388671875,0.51904296875
1782846847571713800,6.8307138671875,-2.581390380859375,-0.84417724609375,0.455902099609375
1782846847581718800,6.84071875,-2.472259521484375,-0.8035125732421875,0.3380889892578125
1782846847591723800,6.850723876953125,-2.270050048828125,-0.7504119873046875,0.2006683349609375
1782846847601728800,6.860728759765625,-2.0946044921875,-0.6584320068359375,0.1197662353515625
1782846847611732700,6.870732666015625,-1.9028472900390625,-0.53302001953125,0.06536865234375
1782846847621737700,6.88073779296875,-1.6998291015625,-0.3429718017578125,0.0720672607421875
1782846847631742700,6.89074267578125,-1.5227203369140625,-0.153289794921875,0.110809326171875
1782846847641747700,6.900747802734375,-1.354156494140625,-0.032501220703125,0.1298828125
1782846847651752700,6.910752685546875,-1.1921844482421875,0.030242919921875,0.119964599609375
1782846847661757700,6.9207578125,-1.0078125,0.0607147216796875,0.1079559326171875
1782846847671761700,6.93076171875,-0.812896728515625,0.0470123291015625,0.100494384765625
1782846847681766700,6.9407666015625,-0.63739013671875,-0.01690673828125,0.10809326171875
1782846847691771600,6.950771728515625,-0.47088623046875,-0.095855712890625,0.122161865234375
1782846847701776600,6.960776611328125,-0.31304931640625,-0.1546783447265625,0.1280670166015625
1782846847711781600,6.97078173828125,-0.1781463623046875,-0.1759185791015625,0.1217041015625
1782846847721785900,6.980785888671875,-0.0748291015625,-0.1676483154296875,0.1041259765625
1782846847731790800,6.990790771484375,-0.0039215087890625,-0.1376190185546875,0.07598876953125
1782846847741795800,7.0007958984375,0.052459716796875,-0.0989837646484375,0.036041259765625
1782846847751800800,7.01080078125,0.0837554931640625,-0.05731201171875,-0.000274658203125
1782846847761805800,7.020805908203125,0.0683135986328125,0.000640869140625,-0.0265655517578125
1782846847771810800,7.030810791015625,0.0223388671875,0.0675506591796875,-0.051025390625
1782846847781814500,7.040814453125,0.00701904296875,0.10906982421875,-0.0729522705078125
1782846847791819500,7.050819580078125,0.0262603759765625,0.1188201904296875,-0.0884552001953125
1782846847801824500,7.060824462890625,0.0503692626953125,0.111419677734375,-0.0965118408203125
1782846847811829800,7.070829833984375,0.0858154296875,0.1012420654296875,-0.08978271484375
1782846847821834800,7.080834716796875,0.132232666015625,0.080078125,-0.0837249755859375
1782846847831838700,7.090838623046875,0.1815185546875,0.0438232421875,-0.0777435302734375
1782846847841843700,7.10084375,0.231536865234375,-0.0072479248046875,-0.0811309814453125
1782846847851848700,7.1108486328125,0.2855224609375,-0.0540313720703125,-0.0944366455078125
1782846847861853700,7.120853759765625,0.3282623291015625,-0.081634521484375,-0.0985107421875
1782846847871858700,7.130858642578125,0.343109130859375,-0.0921173095703125,-0.0899505615234375
1782846847881863700,7.14086376953125,0.312255859375,-0.0780487060546875,-0.0626068115234375
1782846847891867600,7.15086767578125,0.2100677490234375,-0.0316162109375,-0.0442352294921875
1782846847901872600,7.16087255859375,0.0720672607421875,0.011077880859375,-0.058685302734375
1782846847911877600,7.170877685546875,-0.049713134765625,0.0135040283203125,-0.0666046142578125
1782846847921882600,7.180882568359375,-0.1595611572265625,-0.0138092041015625,-0.049468994140625
1782846847931887600,7.1908876953125,-0.27691650390625,-0.0587005615234375,-0.0189208984375
1782846847941892600,7.200892578125,-0.4651947021484375,-0.0927581787109375,0.0113372802734375
1782846847951896600,7.210896484375,-0.778594970703125,-0.0997314453125,0.0201568603515625
1782846847961901600,7.220901611328125,-1.08013916015625,-0.1258544921875,0.052734375
1782846847971906600,7.230906494140625,-1.27838134765625,-0.1859130859375,0.136932373046875
1782846847981911600,7.24091162109375,-1.431549072265625,-0.2374114990234375,0.26947021484375
1782846847991916500,7.25091650390625,-1.5755615234375,-0.3243865966796875,0.388885498046875
1782846848001920800,7.260920654296875,-1.6655731201171875,-0.4658203125,0.4527130126953125
1782846848011925800,7.27092578125,-1.686309814453125,-0.6663665771484375,0.4648284912109375
1782846848021930800,7.2809306640625,-1.624053955078125,-0.82952880859375,0.4790802001953125
1782846848031935700,7.290935791015625,-1.5329437255859375,-0.9711761474609375,0.484161376953125
1782846848041940700,7.300940673828125,-1.6226959228515625,-1.0970001220703125,0.4871978759765625
1782846848051945700,7.31094580078125,-1.850433349609375,-0.9940948486328125,0.493316650390625
1782846848061949700,7.32094970703125,-2.1035614013671875,-0.7685699462890625,0.4929962158203125
1782846848071954700,7.33095458984375,-2.2992095947265625,-0.582427978515625,0.4839935302734375
1782846848081959700,7.340959716796875,-2.35736083984375,-0.4284210205078125,0.5032501220703125
1782846848091964700,7.350964599609375,-2.3328857421875,-0.301544189453125,0.6338043212890625
1782846848101969700,7.3609697265625,-2.2296295166015625,-0.3717193603515625,0.779022216796875
1782846848111974700,7.370974609375,-2.0532989501953125,-0.4875946044921875,0.594970703125
1782846848121979000,7.380978759765625,-1.655426025390625,-0.621185302734375,0.5020751953125
1782846848131984000,7.39098388671875,-1.46063232421875,-0.66741943359375,0.5074310302734375
1782846848141988900,7.40098876953125,-1.193267822265625,-0.66510009765625,0.379669189453125
1782846848151993900,7.410993896484375,-0.999908447265625,-0.605926513671875,0.276092529296875
1782846848161998800,7.420998779296875,-0.905426025390625,-0.4905853271484375,0.1386260986328125
1782846848172002800,7.4310029296875,-0.8294219970703125,-0.381927490234375,0.0480499267578125
1782846848182007800,7.4410078125,-0.77337646484375,-0.2799072265625,-0.0108795166015625
1782846848192012800,7.4510126953125,-0.7213287353515625,-0.1840667724609375,-0.03863525390625
1782846848202017800,7.461017822265625,-0.6774139404296875,-0.10614013671875,-0.0544281005859375
1782846848212022800,7.471022705078125,-0.655517578125,-0.04376220703125,-0.076446533203125
1782846848222027800,7.48102783203125,-0.63189697265625,0.0032196044921875,-0.0767822265625
1782846848232031500,7.491031494140625,-0.57440185546875,0.0225830078125,-0.060791015625
1782846848242036500,7.501036376953125,-0.4931488037109375,0.00689697265625,-0.02850341796875
1782846848252041500,7.51104150390625,-0.4149169921875,-0.0286712646484375,0.0384674072265625
1782846848262046500,7.52104638671875,-0.390533447265625,-0.068603515625,0.1409149169921875
1782846848272051500,7.531051513671875,-0.3649444580078125,-0.099700927734375,0.177886962890625
1782846848282055700,7.5410556640625,-0.33514404296875,-0.0879364013671875,0.15679931640625
1782846848292060700,7.551060791015625,-0.3463287353515625,-0.073211669921875,0.1581878662109375
1782846848302065700,7.561065673828125,-0.3575439453125,-0.06622314453125,0.1127166748046875
1782846848312070700,7.571070556640625,-0.381378173828125,-0.033447265625,0.0823822021484375
1782846848322075600,7.58107568359375,-0.3844451904296875,-0.002227783203125,0.0780792236328125
1782846848332080600,7.59108056640625,-0.3575897216796875,0.01470947265625,0.0979461669921875
1782846848342084600,7.601084716796875,-0.343658447265625,0.017974853515625,0.144805908203125
1782846848352089600,7.611089599609375,-0.3665924072265625,0.005889892578125,0.1944580078125
1782846848362094600,7.621094482421875,-0.4020233154296875,-0.001556396484375,0.239501953125
1782846848372099600,7.631099609375,-0.44842529296875,-0.008331298828125,0.2900543212890625
1782846848382104600,7.6411044921875,-0.51708984375,-0.0223541259765625,0.285003662109375
1782846848392108800,7.65110888671875,-0.597259521484375,-0.025604248046875,0.228546142578125
1782846848402113800,7.66111376953125,-0.6435546875,-0.0385894775390625,0.1719970703125
1782846848412118800,7.671118896484375,-0.6537017822265625,-0.0625457763671875,0.116424560546875
1782846848422123800,7.681123779296875,-0.706634521484375,-0.089630126953125,0.1057891845703125
1782846848432128800,7.691128662109375,-0.790283203125,-0.160369873046875,0.13641357421875
1782846848442133800,7.7011337890625,-0.87005615234375,-0.230865478515625,0.1898956298828125
1782846848452137700,7.7111376953125,-0.9180755615234375,-0.3284912109375,0.231842041015625
1782846848462142700,7.721142822265625,-0.960235595703125,-0.4276275634765625,0.28143310546875
1782846848472147700,7.731147705078125,-1.087921142578125,-0.5086822509765625,0.2968597412109375
1782846848482152700,7.741152587890625,-1.302093505859375,-0.544158935546875,0.264404296875
1782846848492157700,7.75115771484375,-1.5847625732421875,-0.5236968994140625,0.2179107666015625
1782846848502162700,7.76116259765625,-1.868499755859375,-0.5264892578125,0.1961517333984375
1782846848512166700,7.771166748046875,-2.0948333740234375,-0.5450592041015625,0.219390869140625
1782846848522171600,7.781171630859375,-2.3098297119140625,-0.536773681640625,0.2787933349609375
1782846848532176600,7.7911767578125,-2.5254974365234375,-0.515350341796875,0.3495635986328125
1782846848542181600,7.801181640625,-2.663177490234375,-0.49127197265625,0.3728790283203125
1782846848552186600,7.8111865234375,-2.7265167236328125,-0.5215301513671875,0.4097900390625
1782846848562190800,7.82119091796875,-2.6807098388671875,-0.62213134765625,0.4644775390625
1782846848572195800,7.83119580078125,-2.5515899658203125,-0.7241973876953125,0.4380950927734375
1782846848582200800,7.841200927734375,-2.396209716796875,-0.831939697265625,0.3501129150390625
1782846848592205800,7.851205810546875,-2.2791290283203125,-0.896270751953125,0.271728515625
1782846848602210800,7.8612109375,-2.153961181640625,-0.881256103515625,0.220062255859375
1782846848612214800,7.87121484375,-2.0303802490234375,-0.8143463134765625,0.1834259033203125
1782846848622219800,7.8812197265625,-1.90887451171875,-0.701202392578125,0.1624755859375
1782846848632224800,7.891224853515625,-1.747100830078125,-0.5861663818359375,0.151580810546875
1782846848642229800,7.901229736328125,-1.5489654541015625,-0.471832275390625,0.159210205078125
1782846848652234800,7.91123486328125,-1.334381103515625,-0.36199951171875,0.164886474609375
1782846848662239700,7.92123974609375,-1.10504150390625,-0.2797698974609375,0.1736602783203125
1782846848672243700,7.93124365234375,-0.89642333984375,-0.227386474609375,0.1704559326171875
1782846848682248700,7.941248779296875,-0.7253875732421875,-0.18365478515625,0.1543426513671875
1782846848692253700,7.951253662109375,-0.5918121337890625,-0.1404266357421875,0.1414337158203125
1782846848702258700,7.9612587890625,-0.490692138671875,-0.104339599609375,0.12353515625
1782846848712263700,7.971263671875,-0.399444580078125,-0.0748443603515625,0.0919342041015625
1782846848722268700,7.9812685546875,-0.32232666015625,-0.0447998046875,0.04705810546875
1782846848732272600,7.991272705078125,-0.2558746337890625,-0.0268096923828125,0.007080078125
1782846848742277600,8.001277587890625,-0.1760711669921875,-0.009368896484375,-0.0286865234375
1782846848752282600,8.01128271484375,-0.1103057861328125,0.0126495361328125,-0.071441650390625
1782846848762287600,8.02128759765625,-0.07769775390625,0.03094482421875,-0.096435546875
1782846848772292600,8.031292724609376,-0.020965576171875,0.0318145751953125,-0.0894012451171875
1782846848782296600,8.041296630859375,0.048126220703125,0.0303192138671875,-0.06866455078125
1782846848792301600,8.051301513671875,0.130157470703125,0.01800537109375,-0.033477783203125
1782846848802306600,8.061306640625,0.2140655517578125,0.00091552734375,-0.0055389404296875
1782846848812311600,8.0713115234375,0.2836761474609375,-0.013519287109375,0.0071258544921875
1782846848822316500,8.081316650390624,0.31610107421875,-0.019287109375,0.0084686279296875
1782846848832321500,8.091321533203125,0.3189697265625,-0.0316314697265625,-0.0002593994140625
1782846848842325800,8.10132568359375,0.2930145263671875,-0.0369720458984375,-0.0059661865234375
1782846848852330800,8.111330810546875,0.244781494140625,-0.0291290283203125,-0.01318359375
1782846848862335700,8.121335693359375,0.175689697265625,-0.0163116455078125,-0.0311279296875
1782846848872341200,8.13134130859375,0.10198974609375,0.0076751708984375,-0.0438385009765625
1782846848882346200,8.14134619140625,0.0472564697265625,0.034912109375,-0.0344696044921875
1782846848892350200,8.15135009765625,0.007354736328125,0.051788330078125,-0.0100555419921875
1782846848902355200,8.161355224609375,-0.0333099365234375,0.0612335205078125,0.013275146484375
1782846848912360200,8.171360107421876,-0.05718994140625,0.050445556640625,0.02996826171875
1782846848922365200,8.181365234375,-0.0719451904296875,0.0347442626953125,0.046905517578125
1782846848932370200,8.1913701171875,-0.1048431396484375,0.0200347900390625,0.056182861328125
1782846848942375200,8.201375244140625,-0.15765380859375,-0.00433349609375,0.053680419921875
1782846848952379000,8.21137890625,-0.242034912109375,-0.041717529296875,0.0341033935546875
1782846848962384100,8.221384033203124,-0.3801727294921875,-0.10906982421875,-0.002716064453125
1782846848972389000,8.23138916015625,-0.551605224609375,-0.20166015625,-0.0284271240234375
1782846848982394000,8.24139404296875,-0.7389373779296875,-0.3108673095703125,0.0017242431640625
1782846848992399000,8.251399169921875,-0.8967742919921875,-0.414276123046875,0.1181793212890625
1782846849002403000,8.261403076171876,-1.074951171875,-0.5020904541015625,0.2642822265625
1782846849012408000,8.271407958984375,-1.313873291015625,-0.531707763671875,0.384552001953125
1782846849022413000,8.2814130859375,-1.5880584716796875,-0.5015716552734375,0.4561614990234375
1782846849032418000,8.29141796875,-1.8409423828125,-0.4860992431640625,0.5224151611328125
1782846849042423000,8.301423095703125,-2.027191162109375,-0.5625152587890625,0.518890380859375
1782846849052428000,8.311427978515624,-2.1253814697265625,-0.7344818115234375,0.4543304443359375
1782846849062432000,8.321431884765625,-2.18017578125,-0.8841705322265625,0.3740692138671875
1782846849072437000,8.33143701171875,-2.221710205078125,-0.8467254638671875,0.3468170166015625
1782846849082442000,8.34144189453125,-2.14288330078125,-0.668609619140625,0.3963470458984375
1782846849092447000,8.351447021484375,-2.0407257080078125,-0.52081298828125,0.441192626953125
1782846849102452000,8.361451904296874,-2.038543701171875,-0.4095916748046875,0.4748687744140625
1782846849112456200,8.371456298828125,-2.057342529296875,-0.30816650390625,0.5026397705078125
1782846849122461200,8.381461181640624,-2.0729522705078125,-0.28204345703125,0.4621734619140625
1782846849132466200,8.391466064453125,-2.019012451171875,-0.3446807861328125,0.3836517333984375
1782846849142471200,8.40147119140625,-1.854644775390625,-0.450714111328125,0.296905517578125
1782846849152476200,8.41147607421875,-1.584197998046875,-0.5691986083984375,0.226348876953125
1782846849162481200,8.421481201171876,-1.2876739501953125,-0.6850738525390625,0.1535797119140625
1782846849172485000,8.431485107421874,-1.0379791259765625,-0.72576904296875,0.1040191650390625
1782846849182490000,8.441489990234375,-0.8611602783203125,-0.64813232421875,0.080169677734375
1782846849192495000,8.4514951171875,-0.76959228515625,-0.504486083984375,0.0679931640625
1782846849202500000,8.4615,-0.7471923828125,-0.3594512939453125,0.0512542724609375
1782846849212505000,8.471505126953126,-0.7574462890625,-0.2647857666015625,0.063201904296875
1782846849222510000,8.481510009765625,-0.8148956298828125,-0.186553955078125,0.0712127685546875
1782846849232514000,8.49151416015625,-0.8058624267578125,-0.1059112548828125,0.11566162109375
1782846849242519000,8.50151904296875,-0.7185516357421875,-0.0579833984375,0.1861114501953125
1782846849252524000,8.51152392578125,-0.62548828125,-0.043304443359375,0.179962158203125
1782846849262529000,8.521529052734374,-0.551483154296875,-0.0325775146484375,0.1443939208984375
1782846849272534000,8.531533935546875,-0.5038299560546875,-0.03125,0.1130218505859375
1782846849282538200,8.541538330078126,-0.49755859375,-0.0293426513671875,0.0916748046875
1782846849292543200,8.551543212890625,-0.488037109375,-0.041107177734375,0.07147216796875
1782846849302548200,8.56154833984375,-0.4841156005859375,-0.05853271484375,0.0537872314453125
1782846849312553200,8.57155322265625,-0.4982147216796875,-0.08172607421875,0.0460357666015625
1782846849322558200,8.58155810546875,-0.5529632568359375,-0.104644775390625,0.046051025390625
1782846849332563200,8.591563232421874,-0.537109375,-0.10833740234375,0.0684356689453125
1782846849342567200,8.601567138671875,-0.48883056640625,-0.133453369140625,0.0888671875
1782846849352572200,8.611572265625,-0.4336395263671875,-0.1544342041015625,0.1106109619140625
1782846849362577200,8.6215771484375,-0.4055328369140625,-0.155426025390625,0.134429931640625
1782846849372582100,8.63158203125,-0.402008056640625,-0.15606689453125,0.1620941162109375
1782846849382587100,8.641587158203125,-0.43560791015625,-0.14495849609375,0.1889495849609375
1782846849392591000,8.651591064453125,-0.5381622314453125,-0.1027069091796875,0.198760986328125
