time,seconds_elapsed,z,y,x
1782846840812203300,0.071203369140625,-0.18934589624404907,-0.2117777317762375,-0.30124786496162415
1782846840822208300,0.081208251953125,-0.23177647590637207,-0.19396308064460754,-0.3463791310787201
1782846840832213200,0.091213134765625,-0.252067893743515,-0.15275971591472626,-0.3390384018421173
1782846840842218200,0.10121826171875,-0.2541859447956085,-0.11709176003932953,-0.31109729409217834
1782846840852223200,0.11122314453125,-0.24771738052368164,-0.096342533826828,-0.27164870500564575
1782846840862227700,0.121227783203125,-0.2400282323360443,-0.08599354326725006,-0.22300955653190613
1782846840872231700,0.131231689453125,-0.25509533286094666,-0.09225782752037048,-0.18777593970298767
1782846840882236700,0.141236572265625,-0.29474490880966187,-0.14910075068473816,-0.16024160385131836
1782846840892241700,0.15124169921875,-0.3839576244354248,-0.17485778033733368,-0.1416149139404297
1782846840902246700,0.16124658203125,-0.5173515677452087,-0.06451936066150665,-0.1035061851143837
1782846840912251600,0.171251708984375,-0.6762613654136658,0.20223937928676605,-0.009592738933861256
1782846840922255600,0.181255615234375,-0.8011234402656555,0.49603885412216187,0.12044546008110046
1782846840932260600,0.191260498046875,-0.8665884733200073,0.6527397632598877,0.20888210833072662
1782846840942265600,0.201265625,-0.850975751876831,0.6153737902641296,0.12582385540008545
1782846840952270600,0.2112705078125,-0.6943302154541016,0.5029788613319397,-0.1780867576599121
1782846840962275600,0.221275634765625,-0.41654542088508606,0.30614984035491943,-0.597227156162262
1782846840972280600,0.231280517578125,-0.16549137234687805,0.04813346639275551,-0.9369458556175232
1782846840982284500,0.241284423828125,0.029973868280649185,-0.16241732239723206,-1.2669509649276733
1782846840992289500,0.25128955078125,0.07871663570404053,-0.2344992458820343,-1.5121631622314453
1782846841002294500,0.26129443359375,-0.03626618906855583,-0.23468974232673645,-1.4879813194274902
1782846841012299500,0.271299560546875,-0.1908283233642578,-0.2850906252861023,-1.2358771562576294
1782846841022304500,0.281304443359375,-0.24756501615047455,-0.3846183717250824,-0.9143016934394836
1782846841032308500,0.29130859375,-0.19484800100326538,-0.40259549021720886,-0.619673490524292
1782846841042313500,0.3013134765625,-0.09215502440929413,-0.3157920837402344,-0.3332541584968567
1782846841052318500,0.311318359375,0.03348972275853157,-0.170298770070076,-0.07992789149284363
1782846841062323500,0.321323486328125,0.1534569412469864,-0.00692104734480381,0.04945264011621475
1782846841072328400,0.331328369140625,0.21406301856040955,0.09338399022817612,-0.029539115726947784
1782846841082333400,0.34133349609375,0.20049989223480225,0.10828805714845657,-0.27603521943092346
1782846841092337700,0.351337646484375,0.14250396192073822,0.02154117450118065,-0.5525983572006226
1782846841102342700,0.3613427734375,0.07890896499156952,-0.10859464854001999,-0.7738886475563049
1782846841112347600,0.37134765625,0.048072755336761475,-0.21398206055164337,-0.9266328811645508
1782846841122352600,0.3813525390625,0.08142725378274918,-0.2799217700958252,-1.0034962892532349
1782846841132357600,0.391357666015625,0.15305350720882416,-0.3157002925872803,-0.9936143755912781
1782846841142361600,0.401361572265625,0.2441350668668747,-0.32250380516052246,-0.8991668224334717
1782846841152366600,0.41136669921875,0.33199408650398254,-0.28416627645492554,-0.7206788063049316
1782846841162371600,0.42137158203125,0.41643816232681274,-0.16677621006965637,-0.521452009677887
1782846841172376600,0.43137646484375,0.4875682592391968,-0.021449118852615356,-0.3271368741989136
1782846841182381600,0.441381591796875,0.5323306322097778,0.10736941546201706,-0.13718768954277039
1782846841192386600,0.451386474609375,0.5352321863174438,0.18729861080646515,0.036423783749341965
1782846841202390800,0.461390869140625,0.47785457968711853,0.2056487798690796,0.17008626461029053
1782846841212395800,0.471395751953125,0.3684151768684387,0.22513699531555176,0.27358707785606384
1782846841222400800,0.48140087890625,0.22800396382808685,0.2508756220340729,0.34420108795166016
1782846841232405800,0.49140576171875,0.06826595962047577,0.25043487548828125,0.3858276307582855
1782846841242410800,0.50141064453125,-0.09290918707847595,0.21330580115318298,0.3900739550590515
1782846841252415700,0.511415771484375,-0.2618979215621948,0.136196106672287,0.35335588455200195
1782846841262419700,0.521419677734375,-0.4463399052619934,0.04079670459032059,0.2575991749763489
1782846841272424700,0.5314248046875,-0.6142996549606323,-0.05095052719116211,0.10040342807769775
1782846841282429700,0.5414296875,-0.7438399195671082,-0.11316857486963272,-0.09346975386142731
1782846841292434700,0.5514345703125,-0.823200523853302,-0.13513274490833282,-0.2802564203739166
1782846841302439700,0.561439697265625,-0.8530415892601013,-0.14918838441371918,-0.43907710909843445
1782846841312443400,0.571443359375,-0.8512146472930908,-0.17681895196437836,-0.5653852224349976
1782846841322448400,0.581448486328125,-0.8207805752754211,-0.21276545524597168,-0.6449158191680908
1782846841332453400,0.591453369140625,-0.7714250087738037,-0.23254209756851196,-0.6523972153663635
1782846841342458400,0.601458251953125,-0.7063049674034119,-0.26525813341140747,-0.5995689630508423
1782846841352463600,0.611463623046875,-0.6062009930610657,-0.29988107085227966,-0.48967868089675903
1782846841362468600,0.621468505859375,-0.5062806010246277,-0.36883753538131714,-0.32596397399902344
1782846841372472600,0.63147265625,-0.4456356167793274,-0.45372340083122253,-0.1578892022371292
1782846841382477600,0.6414775390625,-0.4135756492614746,-0.5071218609809875,-0.015271871350705624
1782846841392482600,0.651482666015625,-0.40411052107810974,-0.5035145878791809,0.0981668084859848
1782846841402487600,0.661487548828125,-0.4059816598892212,-0.4386386275291443,0.19317102432250977
1782846841412492500,0.671492431640625,-0.3883779048919678,-0.24694667756557465,0.2922355532646179
1782846841422496500,0.68149658203125,-0.34176650643348694,0.07072453200817108,0.4681302011013031
1782846841432501500,0.69150146484375,-0.24803844094276428,0.42139866948127747,0.7400256395339966
1782846841442506500,0.701506591796875,-0.10078717023134232,0.7302904725074768,1.014305591583252
1782846841452511500,0.711511474609375,0.09901995211839676,0.9382807016372681,1.183083415031433
1782846841462516500,0.7215166015625,0.3358634412288666,0.9690183997154236,1.1641147136688232
1782846841472521500,0.731521484375,0.5562626123428345,0.7827768921852112,0.9845260977745056
1782846841482525700,0.741525634765625,0.6808251142501831,0.45172402262687683,0.8325900435447693
1782846841492530700,0.75153076171875,0.673136830329895,0.06617846339941025,0.8218604326248169
1782846841502535700,0.76153564453125,0.5859400629997253,-0.22152940928936005,0.9587758183479309
1782846841512540700,0.771540771484375,0.5043588876724243,-0.3640654981136322,1.1329145431518555
1782846841522545700,0.781545654296875,0.47368180751800537,-0.3745659589767456,1.2435557842254639
1782846841532550700,0.791550537109375,0.503972589969635,-0.3450655937194824,1.2339532375335693
1782846841542554600,0.8015546875,0.5154890418052673,-0.3630143105983734,1.121544599533081
1782846841552559600,0.8115595703125,0.45136329531669617,-0.3828524649143219,0.9223363399505615
1782846841562564600,0.821564697265625,0.3187914490699768,-0.4245067834854126,0.6804065108299255
1782846841572569600,0.831569580078125,0.1508711278438568,-0.5285375714302063,0.45722880959510803
1782846841582574600,0.84157470703125,-0.03825371339917183,-0.6815094947814941,0.2782649099826813
1782846841592578600,0.85157861328125,-0.24983972311019897,-0.8586446046829224,0.1187271848320961
1782846841602583600,0.86158349609375,-0.4477350115776062,-1.0325373411178589,-0.02188584953546524
1782846841612588500,0.871588623046875,-0.6207613945007324,-1.1714365482330322,-0.1749052256345749
1782846841622593500,0.881593505859375,-0.7492768168449402,-1.245901107788086,-0.34011781215667725
1782846841632598500,0.8915986328125,-0.7997019290924072,-1.230880618095398,-0.48364993929862976
1782846841642603500,0.901603515625,-0.7558760643005371,-1.1261084079742432,-0.5904648900032043
1782846841652607700,0.911607666015625,-0.6370444893836975,-0.9343831539154053,-0.6398470997810364
1782846841662612700,0.92161279296875,-0.47175803780555725,-0.6990411281585693,-0.6310216188430786
1782846841672617700,0.93161767578125,-0.3125026226043701,-0.4586831033229828,-0.5586318373680115
1782846841682622700,0.941622802734375,-0.17284230887889862,-0.2217124104499817,-0.41358986496925354
1782846841692627700,0.951627685546875,-0.06040392071008682,-0.031184548512101173,-0.2036707103252411
1782846841702632700,0.9616328125,0.03395657241344452,0.09440717846155167,0.04969295486807823
1782846841712636700,0.97163671875,0.1027367040514946,0.1692017912864685,0.3234741687774658
1782846841722641700,0.9816416015625,0.13691145181655884,0.19325242936611176,0.5895156860351562
1782846841732646700,0.991646728515625,0.12684443593025208,0.22573554515838623,0.8150103092193604
1782846841742651600,1.001651611328125,0.085514135658741,0.2650876045227051,0.9872123599052429
1782846841752656600,1.01165673828125,0.04472089931368828,0.2837425172328949,1.078880786895752
1782846841762660600,1.02166064453125,0.010719746351242065,0.27562445402145386,1.0408216714859009
1782846841772665600,1.03166552734375,-0.008773261681199074,0.28386586904525757,0.8718594312667847
1782846841782670600,1.041670654296875,-0.011895026080310345,0.32475990056991577,0.5839600563049316
1782846841792675600,1.051675537109375,-0.013282799161970615,0.36383751034736633,0.24090760946273804
1782846841802680600,1.0616806640625,-0.022431649267673492,0.35774070024490356,-0.09863359481096268
1782846841812685600,1.071685546875,-0.03269600495696068,0.302864670753479,-0.3515303134918213
1782846841822689500,1.081689453125,-0.0608445443212986,0.2489994764328003,-0.4891265332698822
1782846841832694500,1.091694580078125,-0.10803762823343277,0.2148505598306656,-0.5236901044845581
1782846841842699500,1.101699462890625,-0.15350021421909332,0.2215363085269928,-0.47857218980789185
1782846841852704500,1.11170458984375,-0.21343465149402618,0.2537570893764496,-0.3910506069660187
1782846841862709200,1.121709228515625,-0.2650924026966095,0.29122301936149597,-0.2986387610435486
1782846841872713200,1.131713134765625,-0.2830873727798462,0.3677372634410858,-0.19562608003616333
1782846841882718200,1.14171826171875,-0.2671753764152527,0.5177751779556274,-0.00981269869953394
1782846841892723200,1.15172314453125,-0.24270997941493988,0.7355937957763672,0.27129432559013367
1782846841902728200,1.161728271484375,-0.2304147481918335,0.8576064109802246,0.6137636303901672
1782846841912733400,1.1717333984375,-0.20487557351589203,0.8613465428352356,0.9590603113174438
1782846841922738400,1.181738525390625,-0.14704813063144684,0.8288366794586182,1.2273344993591309
1782846841932742400,1.191742431640625,-0.07334968447685242,0.8346684575080872,1.2476024627685547
1782846841942747400,1.201747314453125,0.02222708985209465,0.9018681645393372,1.007997751235962
1782846841952752400,1.21175244140625,0.15594786405563354,0.968987762928009,0.6130088567733765
1782846841962757400,1.22175732421875,0.2965259552001953,0.9313709735870361,0.1068224236369133
1782846841972762400,1.231762451171875,0.2789677381515503,0.6633474826812744,-0.38200533390045166
1782846841982767400,1.241767333984375,0.0696391612291336,0.25310784578323364,-0.7096578478813171
1782846841992771300,1.251771240234375,-0.21291476488113403,-0.14240433275699615,-0.9277395606040955
1782846842002776300,1.2617763671875,-0.4452320635318756,-0.39920520782470703,-1.1762306690216064
1782846842012781300,1.27178125,-0.531898021697998,-0.49051886796951294,-1.3847769498825073
1782846842022786300,1.281786376953125,-0.4778694808483124,-0.46957722306251526,-1.367136001586914
1782846842032791300,1.291791259765625,-0.3405217230319977,-0.3469974994659424,-1.0917978286743164
1782846842042795500,1.30179541015625,-0.1359042227268219,-0.16319361329078674,-0.6561650037765503
1782846842052800500,1.311800537109375,0.09683741629123688,-0.00284043001011014,-0.19129987061023712
1782846842062805500,1.321805419921875,0.30936557054519653,0.1289084255695343,0.22481514513492584
1782846842072810500,1.331810546875,0.47668877243995667,0.2123841494321823,0.5078575015068054
1782846842082815500,1.3418154296875,0.602124810218811,0.25319620966911316,0.6432470083236694
1782846842092820500,1.351820556640625,0.6937229037284851,0.23590990900993347,0.6384210586547852
1782846842102824200,1.36182421875,0.7236743569374084,0.20662444829940796,0.5459601283073425
1782846842112829200,1.3718291015625,0.6926485896110535,0.18762865662574768,0.3924879729747772
1782846842122834200,1.381834228515625,0.6041783094406128,0.1582096517086029,0.23259815573692322
1782846842132839200,1.391839111328125,0.4683874547481537,0.12523598968982697,0.08529046177864075
1782846842142844200,1.40184423828125,0.3254323899745941,0.06965858489274979,-0.022829212248325348
1782846842152849200,1.41184912109375,0.2003737837076187,-0.023118752986192703,-0.09896765649318695
1782846842162853000,1.42185302734375,0.10427570343017578,-0.12152700871229172,-0.12655796110630035
1782846842172858000,1.431858154296875,0.04188290610909462,-0.18456697463989258,-0.09846268594264984
1782846842182863400,1.44186328125,-0.0033120037987828255,-0.21260926127433777,-0.02424570918083191
1782846842192868400,1.451868408203125,-0.03461772948503494,-0.1931074559688568,0.07670673727989197
1782846842202873300,1.461873291015625,-0.06233670189976692,-0.17590540647506714,0.18761645257472992
1782846842212877300,1.471877197265625,-0.10525567084550858,-0.17774830758571625,0.3054299056529999
1782846842222882300,1.48188232421875,-0.1685500293970108,-0.1318555474281311,0.38855475187301636
1782846842232887300,1.49188720703125,-0.24184606969356537,-0.029542751610279083,0.4029187858104706
1782846842242892300,1.501892333984375,-0.29830503463745117,0.07387294620275497,0.3551490306854248
1782846842252897300,1.511897216796875,-0.320549339056015,0.10161270201206207,0.25368446111679077
1782846842262902300,1.52190234375,-0.30921438336372375,0.01918969489634037,0.1271647959947586
1782846842272906200,1.53190625,-0.29575982689857483,-0.14188574254512787,-0.016238445416092873
1782846842282911200,1.5419111328125,-0.3053129017353058,-0.3247748613357544,-0.1819830983877182
1782846842292916200,1.551916259765625,-0.33986130356788635,-0.473603755235672,-0.3883730471134186
1782846842302921200,1.561921142578125,-0.36588016152381897,-0.5308371782302856,-0.5990476012229919
1782846842312926200,1.57192626953125,-0.35156700015068054,-0.5020635724067688,-0.7586210370063782
1782846842322931200,1.58193115234375,-0.30458754301071167,-0.39791393280029297,-0.8665338754653931
1782846842332935400,1.591935302734375,-0.2413308173418045,-0.21883869171142578,-0.8754618763923645
1782846842342940400,1.6019404296875,-0.19285573065280914,-0.0878174901008606,-0.8511517643928528
1782846842352945400,1.6119453125,-0.15714487433433533,-0.05807691067457199,-0.8314368724822998
1782846842362950400,1.621950439453125,-0.12149203568696976,-0.11539699882268906,-0.8047128915786743
1782846842372955400,1.631955322265625,-0.08484853804111481,-0.23448289930820465,-0.7232958078384399
1782846842382959400,1.64195947265625,-0.07675404101610184,-0.2966281771659851,-0.5675955414772034
1782846842392964400,1.65196435546875,-0.09678500145673752,-0.21207335591316223,-0.33420488238334656
1782846842402969300,1.66196923828125,-0.13737180829048157,0.017769096419215202,-0.05794960632920265
1782846842412974300,1.671974365234375,-0.17645129561424255,0.279043048620224,0.25388017296791077
1782846842422979300,1.681979248046875,-0.21009229123592377,0.4874364733695984,0.5863690972328186
1782846842432984300,1.691984375,-0.23274141550064087,0.5830439329147339,0.9123626351356506
1782846842442988300,1.70198828125,-0.2442486733198166,0.5463332533836365,1.161852478981018
1782846842452993300,1.7119931640625,-0.24287928640842438,0.44820964336395264,1.2329145669937134
1782846842462998300,1.721998291015625,-0.22744742035865784,0.36086714267730713,1.0485856533050537
1782846842473003300,1.732003173828125,-0.16221141815185547,0.3476663827896118,0.6177431344985962
1782846842483008500,1.742008544921875,-0.04641464725136757,0.34392789006233215,0.10624804347753525
1782846842493013500,1.752013427734375,0.11510953307151794,0.31858497858047485,-0.23093877732753754
1782846842503017500,1.762017578125,0.3542967736721039,0.29326754808425903,-0.193733811378479
1782846842513022500,1.7720224609375,0.6161214709281921,0.21596850454807281,0.17304712533950806
1782846842523027500,1.78202734375,0.8464732766151428,0.056045763194561005,0.6822236180305481
1782846842533032400,1.792032470703125,0.9914169311523438,-0.12782792747020721,1.0867867469787598
1782846842543037400,1.802037353515625,1.0318337678909302,-0.2113259732723236,1.2112624645233154
1782846842553041200,1.812041259765625,1.030275583267212,-0.23864121735095978,1.1019967794418335
1782846842563046100,1.822046142578125,0.9757187962532043,-0.25261837244033813,0.8368582129478455
1782846842573051100,1.832051025390625,0.8589253425598145,-0.2267361581325531,0.4575628340244293
1782846842583056100,1.84205615234375,0.6829507350921631,-0.22061197459697723,0.09473185241222382
1782846842593061000,1.85206103515625,0.48553353548049927,-0.29608169198036194,-0.17495155334472656
1782846842603066000,1.862066162109375,0.31050992012023926,-0.4708234667778015,-0.3526839017868042
1782846842613070300,1.8720703125,0.12944507598876953,-0.7236248850822449,-0.4668498933315277
1782846842623075300,1.882075439453125,-0.0676928460597992,-0.9654468894004822,-0.565057098865509
1782846842633080300,1.892080322265625,-0.23405785858631134,-1.1260544061660767,-0.67945396900177
1782846842643085300,1.902085205078125,-0.32994627952575684,-1.1521703004837036,-0.8236076235771179
1782846842653090300,1.91209033203125,-0.3576500713825226,-1.0476127862930298,-0.9610168933868408
1782846842663095300,1.92209521484375,-0.3426723778247833,-0.808910608291626,-1.0689892768859863
1782846842673099300,1.932099365234375,-0.3091205358505249,-0.5140510201454163,-1.1714693307876587
1782846842683104300,1.942104248046875,-0.26221516728401184,-0.24774350225925446,-1.2668449878692627
1782846842693109200,1.952109130859375,-0.2186564952135086,-0.039018791168928146,-1.3027923107147217
1782846842703114200,1.9621142578125,-0.18312504887580872,0.06767625361680984,-1.2271819114685059
1782846842713119200,1.972119140625,-0.13767100870609283,0.09032191336154938,-0.9799349904060364
1782846842723123200,1.982123291015625,-0.08648424595594406,0.0992523580789566,-0.5917308926582336
1782846842733128200,1.992128173828125,-0.06229555234313011,0.12310335785150528,-0.14691241085529327
1782846842743133200,2.00213330078125,-0.05931122228503227,0.13534919917583466,0.28601107001304626
1782846842753138200,2.01213818359375,-0.06405723839998245,0.16351214051246643,0.6502814888954163
1782846842763143400,2.022143310546875,-0.052443988621234894,0.22147227823734283,0.8984667062759399
1782846842773148400,2.0321484375,-0.01829933188855648,0.298885315656662,1.0279431343078613
1782846842783152400,2.04215234375,0.024133432656526566,0.37236231565475464,1.0281884670257568
1782846842793157400,2.052157470703125,0.07780438661575317,0.4220214784145355,0.950106680393219
1782846842803162400,2.062162353515625,0.13488182425498962,0.41216859221458435,0.8188101649284363
1782846842813167400,2.07216748046875,0.19046545028686523,0.3655507564544678,0.6375604867935181
1782846842823172400,2.08217236328125,0.22794972360134125,0.3130480647087097,0.43572798371315
1782846842833177300,2.09217724609375,0.239940345287323,0.25043660402297974,0.2235984206199646
1782846842843181300,2.102181396484375,0.22758042812347412,0.19575978815555573,0.015513014979660511
1782846842853186300,2.112186279296875,0.20833535492420197,0.1527060717344284,-0.1748012751340866
1782846842863191600,2.122191650390625,0.16660290956497192,0.12342013418674469,-0.3253993093967438
1782846842873196500,2.132196533203125,0.09707842767238617,0.12283876538276672,-0.4302594065666199
1782846842883201500,2.142201416015625,0.005587655119597912,0.13436466455459595,-0.4777499735355377
1782846842893206500,2.15220654296875,-0.10225806385278702,0.2275712937116623,-0.43779706954956055
1782846842903210800,2.162210693359375,-0.1925024688243866,0.4098324477672577,-0.30729979276657104
1782846842913215700,2.1722158203125,-0.27803707122802734,0.6506732702255249,-0.10220202058553696
1782846842923220700,2.182220703125,-0.3161427080631256,0.8067806363105774,0.13514593243598938
1782846842933225700,2.192225830078125,-0.27026015520095825,0.8136574625968933,0.3367549479007721
1782846842943230700,2.202230712890625,-0.18388110399246216,0.810263991355896,0.4037933647632599
1782846842953234700,2.212234619140625,-0.10410745441913605,0.9028543829917908,0.2886204421520233
1782846842963239700,2.22223974609375,-0.029900651425123215,0.9632760882377625,0.0798577144742012
1782846842973244700,2.23224462890625,0.025209737941622734,0.9068213105201721,-0.18883658945560455
1782846842983249700,2.242249755859375,0.04823797196149826,0.7456637024879456,-0.49338310956954956
1782846842993254700,2.252254638671875,0.00854328740388155,0.467306911945343,-0.7269348502159119
1782846843003259600,2.262259765625,-0.09507304430007935,0.10548929125070572,-0.6927582621574402
1782846843013263400,2.272263427734375,-0.2250046730041504,-0.1125064268708229,-0.5098670125007629
1782846843023268400,2.282268310546875,-0.34252509474754333,-0.16527098417282104,-0.3990340828895569
1782846843033273300,2.2922734375,-0.38119232654571533,-0.12595579028129578,-0.34397244453430176
1782846843043278300,2.3022783203125,-0.3275943398475647,-0.02119293063879013,-0.26421937346458435
1782846843053283300,2.312283447265625,-0.18469682335853577,0.0560869425535202,-0.12035247683525085
1782846843063288600,2.32228857421875,-0.019079867750406265,0.06896132230758667,0.06781239062547684
1782846843073292500,2.33229248046875,0.11183846741914749,0.08899521827697754,0.24453522264957428
1782846843083297500,2.342297607421875,0.19074925780296326,0.12430563569068909,0.33580100536346436
1782846843093302500,2.352302490234375,0.2198360413312912,0.11827065050601959,0.28485846519470215
1782846843103307500,2.3623076171875,0.24401439726352692,0.08319857716560364,0.09630332142114639
1782846843113312500,2.3723125,0.2529327869415283,0.03024907596409321,-0.20988963544368744
1782846843123316500,2.38231640625,0.2719229459762573,-0.03373832628130913,-0.5588192343711853
1782846843133321500,2.392321533203125,0.2829822599887848,-0.07606634497642517,-0.8395723700523376
1782846843143326500,2.402326416015625,0.29286953806877136,-0.06782042235136032,-0.9958840012550354
1782846843153331500,2.41233154296875,0.31408798694610596,-0.018983377143740654,-1.0119372606277466
1782846843163336400,2.42233642578125,0.33266782760620117,0.04194161668419838,-0.9239422082901001
1782846843173341400,2.432341552734375,0.3634188175201416,0.07180684059858322,-0.7576850056648254
1782846843183345700,2.442345703125,0.3993431627750397,0.07082118093967438,-0.5483638644218445
1782846843193350700,2.4523505859375,0.42474305629730225,0.04806046932935715,-0.3281649649143219
1782846843203355600,2.462355712890625,0.4174382984638214,-0.00004004407674074173,-0.12128372490406036
1782846843213360600,2.472360595703125,0.3722923994064331,-0.01890427991747856,0.02648256905376911
1782846843223365600,2.48236572265625,0.2954822778701782,-0.014757106080651283,0.1183033362030983
1782846843233370600,2.49237060546875,0.2059209793806076,-0.0022687441669404507,0.15944038331508636
1782846843243374600,2.50237451171875,0.11310114711523056,0.03618282452225685,0.17278055846691132
1782846843253379600,2.512379638671875,0.0221888218075037,0.06578998267650604,0.15970391035079956
1782846843263384600,2.522384521484375,-0.05148232728242874,0.04598204419016838,0.12014967203140259
1782846843273389600,2.5323896484375,-0.11208175867795944,-0.0053874049335718155,0.07335367053747177
1782846843283394600,2.54239453125,-0.1607775241136551,-0.051655784249305725,-0.004275195766240358
1782846843293399600,2.552399658203125,-0.18389244377613068,-0.0964360386133194,-0.11164426803588867
1782846843303403500,2.562403564453125,-0.19730140268802643,-0.13541333377361298,-0.24339354038238525
1782846843313408500,2.572408447265625,-0.21041561663150787,-0.16948342323303223,-0.4040292799472809
1782846843323413500,2.58241357421875,-0.2247871309518814,-0.19373846054077148,-0.5610862970352173
1782846843333418500,2.59241845703125,-0.24042600393295288,-0.22306333482265472,-0.6819674372673035
1782846843343423500,2.602423583984375,-0.24445700645446777,-0.2784245014190674,-0.7557784914970398
1782846843353428500,2.612428466796875,-0.2354251742362976,-0.3323553800582886,-0.7857449054718018
1782846843363432700,2.6224326171875,-0.21295005083084106,-0.3695375621318817,-0.7848840355873108
1782846843373437700,2.632437744140625,-0.19069188833236694,-0.3496245741844177,-0.7429312467575073
1782846843383442700,2.642442626953125,-0.16655233502388,-0.27274903655052185,-0.6315467953681946
1782846843393447700,2.65244775390625,-0.14881807565689087,-0.18565566837787628,-0.48051711916923523
1782846843403452700,2.66245263671875,-0.14331242442131042,-0.12161105126142502,-0.33004674315452576
1782846843413456600,2.67245654296875,-0.1541600227355957,-0.08670765906572342,-0.21519257128238678
1782846843423461600,2.682461669921875,-0.16817690432071686,-0.06781709939241409,-0.11626187711954117
1782846843433466600,2.692466552734375,-0.17646358907222748,-0.05904119089245796,-0.0008497986709699035
1782846843443471600,2.7024716796875,-0.14803923666477203,-0.049664489924907684,0.13906799256801605
1782846843453476600,2.7124765625,-0.08734259754419327,-0.01683064177632332,0.28897732496261597
1782846843463481600,2.722481689453125,-0.0035858266055583954,0.032480835914611816,0.40594780445098877
1782846843473485600,2.732485595703125,0.08047658950090408,0.11430219560861588,0.47881054878234863
1782846843483490600,2.742490478515625,0.15303592383861542,0.2535073757171631,0.4990605413913727
1782846843493495600,2.75249560546875,0.19691017270088196,0.4891955256462097,0.5004512667655945
1782846843503500500,2.76250048828125,0.23569835722446442,0.7684489488601685,0.5230185389518738
1782846843513505500,2.772505615234375,0.3256170451641083,0.9253512024879456,0.6161551475524902
1782846843523510500,2.782510498046875,0.4959082007408142,0.834670901298523,0.772799015045166
1782846843533514500,2.792514404296875,0.7001097798347473,0.5155940651893616,0.9994361400604248
1782846843543519500,2.80251953125,0.8507017493247986,0.10537503659725189,1.2694193124771118
1782846843553524500,2.8125244140625,0.8833680748939514,-0.24416270852088928,1.4988131523132324
1782846843563529500,2.822529541015625,0.806390643119812,-0.429342657327652,1.6262720823287964
1782846843573534500,2.832534423828125,0.6736323237419128,-0.5320301651954651,1.6770633459091187
1782846843583538400,2.842538330078125,0.541718065738678,-0.6019255518913269,1.6168262958526611
1782846843593543400,2.85254345703125,0.4323601722717285,-0.6501631736755371,1.4324101209640503
1782846843603548400,2.86254833984375,0.3279554545879364,-0.6866285800933838,1.146917462348938
1782846843613553400,2.872553466796875,0.21218064427375793,-0.7211554050445557,0.7978744506835938
1782846843623558400,2.882558349609375,0.07343395054340363,-0.7229828834533691,0.45112717151641846
1782846843633563400,2.8925634765625,-0.0878678560256958,-0.6895977258682251,0.15016014873981476
1782846843643567600,2.902567626953125,-0.2442018836736679,-0.689463198184967,-0.07347982376813889
1782846843653572600,2.912572509765625,-0.37183547019958496,-0.73997962474823,-0.20204871892929077
1782846843663577600,2.92257763671875,-0.46389123797416687,-0.8148722052574158,-0.2542894184589386
1782846843673582600,2.93258251953125,-0.5175755023956299,-0.8905879855155945,-0.2644730806350708
1782846843683587600,2.942587646484375,-0.5385615229606628,-0.9386525750160217,-0.254547655582428
1782846843693592600,2.952592529296875,-0.5227551460266113,-0.9557697772979736,-0.2436063289642334
1782846843703596500,2.962596435546875,-0.4661600589752197,-0.9398700594902039,-0.24265208840370178
1782846843713601500,2.9726015625,-0.40159302949905396,-0.8773605823516846,-0.2583399713039398
1782846843723606500,2.9826064453125,-0.34304195642471313,-0.7689291834831238,-0.28487005829811096
1782846843733611500,2.992611572265625,-0.326839804649353,-0.5880475640296936,-0.32811713218688965
1782846843743616500,3.002616455078125,-0.3277845084667206,-0.3724329471588135,-0.36674830317497253
1782846843753620700,3.012620849609375,-0.3254907429218292,-0.1714007705450058,-0.3692282438278198
1782846843763625700,3.022625732421875,-0.28216859698295593,-0.015515333972871304,-0.3106163442134857
1782846843773630700,3.032630615234375,-0.20100367069244385,0.09647645056247711,-0.17104405164718628
1782846843783635700,3.0426357421875,-0.09767100214958191,0.2042732834815979,0.017620546743273735
1782846843793640700,3.052640625,0.02105058543384075,0.28188422322273254,0.21640793979167938
1782846843803645700,3.062645751953125,0.13052137196063995,0.3365311920642853,0.3832523226737976
1782846843813649700,3.072649658203125,0.22559437155723572,0.39294812083244324,0.4624803066253662
1782846843823654700,3.082654541015625,0.3088979721069336,0.4403967261314392,0.4544472098350525
1782846843833659600,3.09265966796875,0.36160698533058167,0.4748779833316803,0.3621940016746521
1782846843843664600,3.10266455078125,0.36881938576698303,0.5202878713607788,0.19076897203922272
1782846843853669600,3.112669677734375,0.35576483607292175,0.5357850790023804,0.0020115713123232126
1782846843863674600,3.122674560546875,0.32226860523223877,0.5140745043754578,-0.15969419479370117
1782846843873679000,3.13267919921875,0.2705817222595215,0.4451409876346588,-0.26531702280044556
1782846843883684000,3.14268408203125,0.17068646848201752,0.3377648890018463,-0.31874313950538635
1782846843893689000,3.152689208984375,0.04621830955147743,0.27670472860336304,-0.33072230219841003
1782846843903694000,3.162694091796875,-0.07730850577354431,0.3037222623825073,-0.2918643653392792
1782846843913699000,3.172698974609375,-0.16801762580871582,0.4075562357902527,-0.24066880345344543
1782846843923704000,3.1827041015625,-0.20132921636104584,0.5404821634292603,-0.18898136913776398
1782846843933708300,3.192708251953125,-0.1828487366437912,0.6672507524490356,-0.12015462666749954
1782846843943713300,3.20271337890625,-0.11348730325698853,0.8354721665382385,-0.016490483656525612
1782846843953718300,3.21271826171875,-0.061124492436647415,1.0356072187423706,0.14683052897453308
1782846843963723300,3.22272314453125,-0.07153117656707764,1.051274061203003,0.24188999831676483
1782846843973728300,3.232728271484375,-0.12495791912078857,0.87346351146698,0.10258349776268005
1782846843983732200,3.242732177734375,-0.1650419533252716,0.6456735134124756,-0.275146484375
1782846843993737200,3.2527373046875,-0.19941003620624542,0.398770272731781,-0.6664626002311707
1782846844003742200,3.2627421875,-0.24815115332603455,0.10371550917625427,-0.7582276463508606
1782846844013747200,3.272747314453125,-0.26226454973220825,-0.20370036363601685,-0.5327063798904419
1782846844023752200,3.282752197265625,-0.21756158769130707,-0.4378795921802521,-0.1484663188457489
1782846844033757200,3.292757080078125,-0.1723664104938507,-0.46850115060806274,0.262894868850708
1782846844043761200,3.30276123046875,-0.1403575837612152,-0.28467419743537903,0.589522659778595
1782846844053766100,3.31276611328125,-0.08221864700317383,-0.05302845686674118,0.8008327484130859
1782846844063771100,3.322771240234375,0.0331353098154068,0.08663687109947205,0.8811727166175842
1782846844073776000,3.332776123046875,0.152290478348732,0.11494893580675125,0.8318235874176025
1782846844083781000,3.342781005859375,0.2329905927181244,0.05817210674285889,0.6689857244491577
1782846844093786000,3.3527861328125,0.269364595413208,-0.03253995254635811,0.3946785628795624
1782846844103790300,3.362790283203125,0.25376665592193604,-0.11552770435810089,0.02124827355146408
1782846844113795300,3.37279541015625,0.1968144327402115,-0.1523163616657257,-0.38379189372062683
1782846844123800300,3.38280029296875,0.12077168375253677,-0.13436049222946167,-0.7458996176719666
1782846844133805300,3.392805419921875,0.06578859686851501,-0.10283026099205017,-0.9874909520149231
1782846844143810300,3.402810302734375,0.04364082217216492,-0.07324978709220886,-1.0699821710586548
1782846844153814000,3.41281396484375,0.0565909743309021,-0.06818179041147232,-1.013043761253357
1782846844163819000,3.422819091796875,0.1043081060051918,-0.09044341742992401,-0.8769484758377075
1782846844173824000,3.432823974609375,0.17494232952594757,-0.1393425166606903,-0.6898353099822998
1782846844183829200,3.442829345703125,0.2567395269870758,-0.19927740097045898,-0.48222869634628296
1782846844193834200,3.452834228515625,0.32770103216171265,-0.25906482338905334,-0.29575201869010925
1782846844203839200,3.462839111328125,0.3564540147781372,-0.28451400995254517,-0.13990958034992218
1782846844213843200,3.47284326171875,0.3492219150066376,-0.25339123606681824,-0.030842743813991547
1782846844223848200,3.48284814453125,0.3070751130580902,-0.18435357511043549,0.06366661190986633
1782846844233853200,3.492853271484375,0.2547115087509155,-0.0914854109287262,0.14425306022167206
1782846844243858200,3.502858154296875,0.18938292562961578,0.02407672256231308,0.20056073367595673
1782846844253863200,3.51286328125,0.12657572329044342,0.1425117552280426,0.24860283732414246
1782846844263868200,3.5228681640625,0.073722243309021,0.22619780898094177,0.30464810132980347
1782846844273872100,3.5328720703125,0.01052356418222189,0.26743099093437195,0.3501599431037903
1782846844283877000,3.542877197265625,-0.05261549726128578,0.2560502290725708,0.34430044889450073
1782846844293882000,3.552882080078125,-0.1204395517706871,0.19372187554836273,0.28040510416030884
1782846844303887000,3.56288720703125,-0.19675496220588684,0.10285645723342896,0.14294005930423737
1782846844313892000,3.57289208984375,-0.2682877480983734,0.006882526911795139,-0.054160226136446
1782846844323897000,3.58289697265625,-0.32941901683807373,-0.06572243571281433,-0.2876369059085846
1782846844333901000,3.592901123046875,-0.3613535165786743,-0.09477965533733368,-0.5118165016174316
1782846844343906000,3.602906005859375,-0.3666591942310333,-0.12180902063846588,-0.6958693265914917
1782846844353911000,3.6129111328125,-0.3493049442768097,-0.16615252196788788,-0.8136218190193176
1782846844363916000,3.622916015625,-0.3210204839706421,-0.21425272524356842,-0.8521993160247803
1782846844373921300,3.63292138671875,-0.3087736964225769,-0.2802397310733795,-0.8489049673080444
1782846844383925200,3.64292529296875,-0.31046798825263977,-0.3488495647907257,-0.8360341787338257
1782846844393930200,3.65293017578125,-0.34650561213493347,-0.39227986335754395,-0.8233729600906372
1782846844403935200,3.662935302734375,-0.404409795999527,-0.39499980211257935,-0.820801317691803
1782846844413940200,3.672940185546875,-0.47184452414512634,-0.378106027841568,-0.8256114721298218
1782846844423945200,3.6829453125,-0.5224475264549255,-0.3161574602127075,-0.8181577324867249
1782846844433950200,3.6929501953125,-0.551917314529419,-0.1705605685710907,-0.7837861776351929
1782846844443954200,3.7029541015625,-0.544996976852417,0.0008682217448949814,-0.6892877221107483
1782846844453959200,3.712959228515625,-0.49897778034210205,0.1438477486371994,-0.524698793888092
1782846844463964200,3.722964111328125,-0.4108341932296753,0.21909116208553314,-0.31475207209587097
1782846844473969200,3.73296923828125,-0.30055510997772217,0.22578580677509308,-0.129691943526268
1782846844483974100,3.74297412109375,-0.16633443534374237,0.2813607156276703,-0.022344782948493958
1782846844493978400,3.752978271484375,-0.011346185579895973,0.3479309678077698,-0.038875289261341095
1782846844503983400,3.7629833984375,0.16151902079582214,0.365913063287735,-0.17237895727157593
1782846844513988400,3.77298828125,0.33267906308174133,0.3008568286895752,-0.27238011360168457
1782846844523993300,3.782993408203125,0.48587995767593384,0.1831846684217453,-0.14659520983695984
1782846844533998300,3.792998291015625,0.5780160427093506,0.06351445615291595,0.19406357407569885
1782846844544003300,3.80300341796875,0.6203818917274475,-0.07741789519786835,0.5953176617622375
1782846844554007300,3.81300732421875,0.6484662890434265,-0.2135147601366043,0.8882126808166504
1782846844564012300,3.82301220703125,0.6542474031448364,-0.24426093697547913,1.0141440629959106
1782846844574017300,3.833017333984375,0.6312201023101807,-0.2647142708301544,1.0323164463043213
1782846844584022300,3.843022216796875,0.5442561507225037,-0.32648375630378723,0.9417373538017273
1782846844594027300,3.85302734375,0.40203508734703064,-0.4139917492866516,0.8088330626487732
1782846844604032300,3.8630322265625,0.24764512479305267,-0.4711674451828003,0.670872151851654
1782846844614036000,3.873035888671875,0.13461843132972717,-0.5294020175933838,0.5437967777252197
1782846844624041000,3.883041015625,0.08910633623600006,-0.6245536208152771,0.4370036721229553
1782846844634046000,3.8930458984375,0.10880307853221893,-0.7454217076301575,0.33390551805496216
1782846844644051200,3.90305126953125,0.1526075154542923,-0.8723062872886658,0.2365630567073822
1782846844654056200,3.91305615234375,0.20479215681552887,-0.9707726836204529,0.13143131136894226
1782846844664060200,3.92306005859375,0.23539377748966217,-1.009108066558838,0.019728438928723335
1782846844674065200,3.933065185546875,0.22716142237186432,-0.9588167667388916,-0.08681371808052063
1782846844684070100,3.943070068359375,0.15518291294574738,-0.8172913193702698,-0.16641351580619812
1782846844694075100,3.9530751953125,0.035776082426309586,-0.5527907013893127,-0.2358381301164627
1782846844704080100,3.963080078125,-0.10113883763551712,-0.21780012547969818,-0.29608264565467834
1782846844714085000,3.973085205078125,-0.20713451504707336,0.029338818043470383,-0.3267875611782074
1782846844724089000,3.983089111328125,-0.2657325267791748,0.14128924906253815,-0.28842130303382874
1782846844734094000,3.993093994140625,-0.27782541513442993,0.1685062199831009,-0.16923418641090393
1782846844744099000,4.00309912109375,-0.2511584460735321,0.14376875758171082,-0.001645199372433126
1782846844754104000,4.01310400390625,-0.20981182157993317,0.08965998888015747,0.17919914424419403
1782846844764109000,4.023109130859375,-0.15315906703472137,0.03318947181105614,0.36279305815696716
1782846844774114000,4.033114013671875,-0.10322318226099014,-0.014399884268641472,0.5439865589141846
1782846844784118300,4.0431181640625,-0.07308372110128403,-0.03711121901869774,0.6953455805778503
1782846844794123300,4.053123291015625,-0.05539660528302193,-0.027044204995036125,0.7941432595252991
1782846844804128300,4.063128173828125,-0.03536733612418175,0.009086981415748596,0.8108611106872559
1782846844814133200,4.07313330078125,0.0029371760319918394,0.06193927675485611,0.7461090087890625
1782846844824138200,4.08313818359375,0.04628298059105873,0.1263701319694519,0.6131337285041809
1782846844834143200,4.093143310546875,0.08150967955589294,0.19123701751232147,0.4282192289829254
1782846844844147200,4.103147216796875,0.11048965156078339,0.2415197342634201,0.22092412412166595
1782846844854152200,4.113152099609375,0.12800846993923187,0.2606537640094757,0.0286090150475502
1782846844864157200,4.1231572265625,0.13667704164981842,0.2658608555793762,-0.11972476541996002
1782846844874162400,4.133162353515625,0.13307884335517883,0.2569864094257355,-0.20964694023132324
1782846844884167400,4.14316748046875,0.11451476812362671,0.25369107723236084,-0.24225500226020813
1782846844894171400,4.15317138671875,0.055746521800756454,0.25082817673683167,-0.24783779680728912
1782846844904176400,4.16317626953125,-0.04055820405483246,0.25699326395988464,-0.22698193788528442
1782846844914181400,4.173181396484375,-0.16140446066856384,0.25617432594299316,-0.16521044075489044
1782846844924186400,4.183186279296875,-0.27332910895347595,0.2316029816865921,-0.06121307611465454
1782846844934191400,4.19319140625,-0.36377137899398804,0.27396297454833984,0.09511660784482956
1782846844944196400,4.2031962890625,-0.4164116680622101,0.4121992588043213,0.3113032579421997
1782846844954200600,4.21320068359375,-0.3965333104133606,0.5788910388946533,0.5700610280036926
1782846844964205600,4.22320556640625,-0.3089897334575653,0.6776716113090515,0.7659409046173096
1782846844974210600,4.23321044921875,-0.15120728313922882,0.7298879623413086,0.7669776678085327
1782846844984215600,4.243215576171875,0.055464006960392,0.7915288805961609,0.5939679741859436
1782846844994220500,4.253220458984375,0.2833895981311798,0.8472030758857727,0.35563501715660095
1782846845004225500,4.2632255859375,0.4569336771965027,0.8106553554534912,0.10094814002513885
1782846845014229500,4.2732294921875,0.5388985872268677,0.5713050961494446,-0.3681165277957916
1782846845024234500,4.283234375,0.5067833662033081,0.06985488533973694,-1.3181458711624146
1782846845034239500,4.293239501953125,0.19444063305854797,-0.31114548444747925,-2.2580621242523193
1782846845044244500,4.303244384765625,-0.22667087614536285,-0.3031585216522217,-2.54441237449646
1782846845054249500,4.31324951171875,-0.3855300545692444,-0.15664075314998627,-2.320044755935669
1782846845064253700,4.323253662109375,-0.12025509029626846,-0.1632460206747055,-1.843865156173706
1782846845074258700,4.3332587890625,0.29432427883148193,-0.25343477725982666,-1.1444588899612427
1782846845084263700,4.343263671875,0.5167781710624695,-0.19614817202091217,-0.16234858334064484
1782846845094268700,4.3532685546875,0.48645442724227905,0.0486258901655674,0.9839060306549072
1782846845104273700,4.363273681640625,0.43282029032707214,0.40733009576797485,1.8847912549972534
1782846845114278700,4.373278564453125,0.5368391275405884,0.7127795219421387,2.1532142162323
1782846845124282600,4.38328271484375,0.7813988327980042,0.7635559439659119,1.5914416313171387
1782846845134287600,4.39328759765625,0.9482914209365845,0.6187803745269775,0.546413004398346
1782846845144292600,4.403292724609375,0.8367694020271301,0.6107345819473267,-0.34945785999298096
1782846845154297600,4.413297607421875,0.5155945420265198,0.687747061252594,-0.7622584700584412
1782846845164302600,4.423302490234375,0.18230371177196503,0.6005966067314148,-0.8076744675636292
1782846845174307600,4.4333076171875,-0.09504907578229904,0.36378270387649536,-0.6752557158470154
1782846845184311300,4.443311279296875,-0.29666808247566223,0.11226282268762589,-0.4753459393978119
1782846845194316300,4.45331640625,-0.4298221468925476,-0.044675663113594055,-0.25152587890625
1782846845204321300,4.4633212890625,-0.5121934413909912,-0.1040479987859726,-0.04587412625551224
1782846845214326300,4.473326171875,-0.5384042859077454,-0.1277807652950287,0.14128164947032928
1782846845224331300,4.483331298828125,-0.5158712863922119,-0.14704233407974243,0.2983168065547943
1782846845234335500,4.49333544921875,-0.46245044469833374,-0.19858036935329437,0.4314202666282654
1782846845244340500,4.503340576171875,-0.41496050357818604,-0.2623674273490906,0.5250759124755859
1782846845254345500,4.513345458984375,-0.39166051149368286,-0.31647008657455444,0.5767140984535217
1782846845264350500,4.5233505859375,-0.3981982469558716,-0.333757221698761,0.5965948104858398
1782846845274355500,4.53335546875,-0.43022143840789795,-0.28810158371925354,0.5797585844993591
1782846845284360400,4.5433603515625,-0.47043493390083313,-0.1957309991121292,0.5168875455856323
1782846845294364400,4.553364501953125,-0.5142484307289124,-0.10152514278888702,0.42260846495628357
1782846845304369400,4.563369384765625,-0.5357226133346558,-0.01954921893775463,0.29708331823349
1782846845314374400,4.57337451171875,-0.5132322311401367,0.04268858954310417,0.1504448652267456
1782846845324379400,4.58337939453125,-0.4526682496070862,0.07855867594480515,0.003915356006473303
1782846845334384400,4.59338427734375,-0.38244307041168213,0.09260179102420807,-0.12434461712837219
1782846845344388600,4.603388671875,-0.31347012519836426,0.053048357367515564,-0.24716851115226746
1782846845354393600,4.6133935546875,-0.23553219437599182,-0.0566035732626915,-0.3716755509376526
1782846845364398600,4.623398681640625,-0.15478967130184174,-0.20768703520298004,-0.47614341974258423
1782846845374403600,4.633403564453125,-0.08337167650461197,-0.3493134081363678,-0.5502594709396362
1782846845384408600,4.64340869140625,-0.02457229234278202,-0.3965406119823456,-0.5747594237327576
1782846845394413600,4.65341357421875,0.007585377898067236,-0.32570481300354004,-0.5587612390518188
1782846845404417500,4.66341748046875,-0.004148236475884914,-0.15018422901630402,-0.47575244307518005
1782846845414422500,4.673422607421875,-0.042444758117198944,0.0778910219669342,-0.3541221618652344
1782846845424427500,4.683427490234375,-0.0638178288936615,0.296068400144577,-0.21300455927848816
1782846845434432500,4.6934326171875,-0.04630967229604721,0.4175330698490143,-0.08760854601860046
1782846845444437500,4.7034375,0.0026291057001799345,0.4260924458503723,0.028067179024219513
1782846845454442500,4.7134423828125,0.05835859477519989,0.3276078402996063,0.14511345326900482
1782846845464446500,4.723446533203125,0.08079332858324051,0.17568355798721313,0.2855222225189209
1782846845474451500,4.733451416015625,0.08874978870153427,0.0922621637582779,0.4238708019256592
1782846845484456400,4.74345654296875,0.11066162586212158,0.1386422961950302,0.5376890301704407
1782846845494461400,4.75346142578125,0.1601354330778122,0.3017241656780243,0.6294610500335693
1782846845504466400,4.763466552734375,0.29197514057159424,0.5241774916648865,0.6468308568000793
1782846845514471400,4.773471435546875,0.5118004679679871,0.6705144643783569,0.5090436935424805
1782846845524475600,4.7834755859375,0.7303814888000488,0.668451189994812,0.2800142765045166
1782846845534480600,4.793480712890625,0.8873620629310608,0.5706559419631958,0.1362842619419098
1782846845544485600,4.803485595703125,0.9988444447517395,0.37170568108558655,0.12201576679944992
1782846845554490600,4.81349072265625,1.0804318189620972,0.11247251182794571,0.20638711750507355
1782846845564495600,4.82349560546875,1.119395136833191,-0.08419108390808105,0.28661587834358215
1782846845574499300,4.833499267578125,1.1197056770324707,-0.15359465777873993,0.3207661211490631
1782846845584504300,4.84350439453125,1.0834022760391235,-0.12375759333372116,0.31084176898002625
1782846845594509300,4.85350927734375,0.984819233417511,-0.030462011694908142,0.2911034822463989
1782846845604514600,4.8635146484375,0.8494829535484314,0.041983962059020996,0.2821456789970398
1782846845614519600,4.87351953125,0.6930592656135559,0.030765926465392113,0.2632915675640106
1782846845624524500,4.883524658203125,0.5405293703079224,-0.07283103466033936,0.24890783429145813
1782846845634528500,4.893528564453125,0.38736677169799805,-0.2412882298231125,0.2331717610359192
1782846845644533500,4.903533447265625,0.22845211625099182,-0.43583136796951294,0.19124624133110046
1782846845654538500,4.91353857421875,0.09715321660041809,-0.611784815788269,0.10394037514925003
1782846845664543500,4.92354345703125,-0.001197640667669475,-0.7233103513717651,-0.02557707205414772
1782846845674548500,4.933548583984375,-0.05610616132616997,-0.7271274924278259,-0.1845422238111496
1782846845684552400,4.943552490234375,-0.07505147159099579,-0.6155410408973694,-0.3597624599933624
1782846845694557400,4.953557373046875,-0.05723652243614197,-0.422620564699173,-0.5075244903564453
1782846845704562400,4.9635625,-0.009460530243813992,-0.2350635528564453,-0.5804593563079834
1782846845714567400,4.9735673828125,0.045617371797561646,-0.11726368218660355,-0.568697452545166
1782846845724572400,4.983572509765625,0.09666389226913452,-0.060303471982479095,-0.49847957491874695
1782846845734577400,4.993577392578125,0.11946268379688263,-0.04401344805955887,-0.36397236585617065
1782846845744581400,5.003581298828125,0.10964970290660858,-0.03075130097568035,-0.16747397184371948
1782846845754586400,5.01358642578125,0.08017677068710327,-0.011888131499290466,0.08110281825065613
1782846845764591400,5.02359130859375,0.04208578169345856,0.013007902540266514,0.3752293586730957
1782846845774596400,5.033596435546875,-0.009332402609288692,0.03468816727399826,0.6681986451148987
1782846845784601300,5.043601318359375,-0.07227306067943573,0.04909380525350571,0.9098914861679077
1782846845794606300,5.0536064453125,-0.137295201420784,0.10723940283060074,1.0805175304412842
1782846845804610600,5.063610595703125,-0.18177105486392975,0.17725902795791626,1.2048040628433228
1782846845814615600,5.073615478515625,-0.1927235722541809,0.2215183675289154,1.2481749057769775
1782846845824620500,5.08362060546875,-0.17382922768592834,0.22708746790885925,1.2121561765670776
1782846845834625500,5.09362548828125,-0.12905962765216827,0.1942128837108612,1.0665174722671509
1782846845844630500,5.103630615234375,-0.07677766680717468,0.12477876245975494,0.8221337795257568
1782846845854634500,5.113634521484375,-0.012632772326469421,0.05074528232216835,0.5078688263893127
1782846845864639500,5.123639404296875,0.051334600895643234,-0.01079575251787901,0.16796353459358215
1782846845874643700,5.133643798828125,0.09697479009628296,-0.05108591541647911,-0.14450515806674957
1782846845884648700,5.143648681640625,0.11294661462306976,-0.08581477403640747,-0.3819502592086792
1782846845894653700,5.15365380859375,0.09845848381519318,-0.1136394813656807,-0.5346580743789673
1782846845904658700,5.16365869140625,0.0596054382622242,-0.09992440789937973,-0.6153180003166199
1782846845914663000,5.173662841796875,0.001981820911169052,-0.0312058012932539,-0.6365532279014587
1782846845924668000,5.18366796875,-0.0693775862455368,0.08047661930322647,-0.5799256563186646
1782846845934673000,5.1936728515625,-0.16068752110004425,0.22923466563224792,-0.43171727657318115
1782846845944678000,5.203677978515625,-0.2586435377597809,0.3666294515132904,-0.18436141312122345
1782846845954683000,5.213682861328125,-0.3326525390148163,0.5107698440551758,0.19156506657600403
1782846845964688000,5.22368798828125,-0.3741212487220764,0.6301462650299072,0.6891602873802185
1782846845974691800,5.23369189453125,-0.41083401441574097,0.7216772437095642,1.2221547365188599
1782846845984696800,5.24369677734375,-0.45193204283714294,0.7814443707466125,1.6914888620376587
1782846845994701800,5.253701904296875,-0.4136600196361542,0.8112049102783203,1.9553731679916382
1782846846004706800,5.263706787109375,-0.2553866505622864,0.8447914719581604,1.8920655250549316
1782846846014711800,5.2737119140625,-0.050438567996025085,0.877312183380127,1.424534797668457
1782846846024715800,5.2837158203125,0.10822699964046478,0.8167175054550171,0.5244129300117493
1782846846034721000,5.293720947265625,0.14387154579162598,0.4936606287956238,-0.4038638472557068
1782846846044726000,5.30372607421875,0.08301592618227005,0.06243613734841347,-1.1470516920089722
1782846846054731000,5.31373095703125,-0.05633903667330742,-0.3323151767253876,-1.6195486783981323
1782846846064736000,5.323736083984375,-0.127160906791687,-0.5896487236022949,-1.7923740148544312
1782846846074741000,5.333740966796875,-0.06131637096405029,-0.672659695148468,-1.7692742347717285
1782846846084745000,5.343744873046875,0.09028994292020798,-0.7249149084091187,-1.5559849739074707
1782846846094750000,5.35375,0.1957910805940628,-0.7206024527549744,-1.056325078010559
1782846846104755000,5.3637548828125,0.15664614737033844,-0.5435293912887573,-0.307976633310318
1782846846114760000,5.373760009765625,0.006605515256524086,-0.24210430681705475,0.37753379344940186
1782846846124765000,5.383764892578125,-0.11274053156375885,-0.013219639658927917,0.7302321195602417
1782846846134770000,5.39377001953125,-0.1185065433382988,0.09305007755756378,0.672454833984375
1782846846144773600,5.403773681640625,-0.0666242241859436,0.07782788574695587,0.27727776765823364
1782846846154778600,5.413778564453125,-0.01491202786564827,0.0025989096611738205,-0.2466706782579422
1782846846164783600,5.42378369140625,0.02960030734539032,-0.034916408360004425,-0.6861377358436584
1782846846174788600,5.43378857421875,0.05816483870148659,-0.022954020649194717,-0.9162409901618958
1782846846184793600,5.443793701171875,0.09086989611387253,-0.01020218338817358,-0.9169924855232239
1782846846194797800,5.4537978515625,0.18290075659751892,-0.05097571387887001,-0.7665478587150574
1782846846204802800,5.463802734375,0.3135846257209778,-0.1401970237493515,-0.5006989240646362
1782846846214807800,5.473807861328125,0.4460105895996094,-0.23384788632392883,-0.19617179036140442
1782846846224812800,5.483812744140625,0.5345285534858704,-0.29919207096099854,0.0659952387213707
1782846846234817800,5.49381787109375,0.5766621828079224,-0.3101392686367035,0.2867659628391266
1782846846244822800,5.50382275390625,0.5778005123138428,-0.23984891176223755,0.4522368013858795
1782846846254826800,5.51382666015625,0.5309321284294128,-0.1267724186182022,0.5634485483169556
1782846846264831700,5.523831787109375,0.4358038008213043,-0.04253758117556572,0.6356310248374939
1782846846274836700,5.533836669921875,0.28799542784690857,-0.01956195756793022,0.6806789636611938
1782846846284841700,5.543841796875,0.10709962993860245,-0.03135666251182556,0.69887775182724
1782846846294846700,5.5538466796875,-0.07370983064174652,-0.1090645045042038,0.662408173084259
1782846846304851700,5.563851806640625,-0.24364550411701202,-0.22830736637115479,0.5548809766769409
1782846846314856000,5.57385595703125,-0.4138135313987732,-0.31189385056495667,0.3881239891052246
1782846846324861000,5.58386083984375,-0.5655834078788757,-0.30526208877563477,0.16353118419647217
1782846846334866000,5.593865966796875,-0.680709719657898,-0.27108705043792725,-0.12066137790679932
1782846846344871000,5.603870849609375,-0.7502856850624084,-0.24240145087242126,-0.42084723711013794
1782846846354876000,5.6138759765625,-0.7882146835327148,-0.2052154690027237,-0.6900520324707031
1782846846364880000,5.6238798828125,-0.7947064638137817,-0.16361354291439056,-0.9335455894470215
1782846846374884900,5.633884765625,-0.7750678062438965,-0.15136326849460602,-1.1517813205718994
1782846846384889900,5.643889892578125,-0.7367134690284729,-0.18274161219596863,-1.325548768043518
1782846846394894800,5.653894775390625,-0.651150107383728,-0.2726600468158722,-1.4083912372589111
1782846846404899800,5.66389990234375,-0.5315754413604736,-0.39103540778160095,-1.3725295066833496
1782846846414904800,5.67390478515625,-0.44065192341804504,-0.46822312474250793,-1.1920057535171509
1782846846424908800,5.68390869140625,-0.4403708279132843,-0.4514307677745819,-0.9109438061714172
1782846846434913800,5.693913818359375,-0.5381040573120117,-0.39097702503204346,-0.6008216142654419
1782846846444918800,5.703918701171875,-0.6671013236045837,-0.3482688367366791,-0.30140069127082825
1782846846454923800,5.713923828125,-0.751733124256134,-0.27713313698768616,-0.019322913140058517
1782846846464928800,5.7239287109375,-0.7414867877960205,-0.20250631868839264,0.29264354705810547
1782846846474933800,5.733933837890625,-0.6160377860069275,0.0728757306933403,0.49567896127700806
1782846846484938000,5.74393798828125,-0.4277017116546631,0.5232714414596558,0.4794614315032959
1782846846494943000,5.75394287109375,-0.20029892027378082,0.9607670307159424,0.18114663660526276
1782846846504948000,5.763947998046875,0.04567744582891464,1.1545813083648682,-0.35186219215393066
1782846846514953000,5.773952880859375,0.2614206373691559,0.8998025059700012,-0.8846870064735413
1782846846524958000,5.7839580078125,0.40978333353996277,0.5025904774665833,-1.0372116565704346
1782846846534961700,5.793961669921875,0.4696493446826935,0.39541128277778625,-0.6582427620887756
1782846846544966700,5.803966552734375,0.5702196359634399,0.2110259085893631,0.005571941379457712
1782846846554971600,5.8139716796875,0.7595594525337219,0.030441489070653915,0.648902177810669
1782846846564977000,5.823976806640625,1.004431128501892,0.00038896873593330383,1.0837656259536743
1782846846574982000,5.83398193359375,1.230023741722107,0.05444687604904175,1.290236473083496
1782846846584987000,5.84398681640625,1.3591927289962769,0.06099116429686546,1.3468782901763916
1782846846594990800,5.853990966796875,1.3282108306884766,-0.016935858875513077,1.2902849912643433
1782846846604995800,5.863995849609375,1.1379669904708862,-0.1861259788274765,1.138953685760498
1782846846615000800,5.874000732421875,0.8927928805351257,-0.3181210160255432,0.9705997705459595
1782846846625005800,5.884005859375,0.6636881232261658,-0.49254512786865234,0.8627422451972961
1782846846635010800,5.8940107421875,0.4625067710876465,-0.6620992422103882,0.8120420575141907
1782846846645015800,5.904015869140625,0.3137805759906769,-0.8085949420928955,0.767693281173706
1782846846655019800,5.914019775390625,0.22084370255470276,-0.8971306681632996,0.7062152624130249
1782846846665024800,5.924024658203125,0.17001689970493317,-0.9077379703521729,0.624117910861969
1782846846675029800,5.93402978515625,0.15859965980052948,-0.853943943977356,0.5158697366714478
1782846846685034800,5.94403466796875,0.14240622520446777,-0.7387521266937256,0.3937559127807617
1782846846695039700,5.954039794921875,0.10071603953838348,-0.5403826236724854,0.2648935317993164
1782846846705043700,5.964043701171875,0.006936359219253063,-0.2849501073360443,0.12561973929405212
1782846846715048700,5.974048583984375,-0.1254722774028778,-0.07455290853977203,-0.01579277589917183
1782846846725053700,5.9840537109375,-0.28189292550086975,0.045838065445423126,-0.16852471232414246
1782846846735058700,5.99405859375,-0.41925451159477234,0.05781083554029465,-0.3143026828765869
1782846846745063700,6.004063720703125,-0.5230647325515747,-0.020039990544319153,-0.40653514862060547
1782846846755068700,6.014068603515625,-0.5860407948493958,-0.08061039447784424,-0.4147789478302002
1782846846765073000,6.024072998046875,-0.6243458986282349,-0.07605437934398651,-0.3176930546760559
1782846846775078000,6.034077880859375,-0.6437914967536926,-0.019338900223374367,-0.14313006401062012
1782846846785083000,6.044082763671875,-0.6552301049232483,0.05915864184498787,0.07619353383779526
1782846846795088000,6.054087890625,-0.6373386979103088,0.14825710654258728,0.28823575377464294
1782846846805092900,6.0640927734375,-0.6044148802757263,0.2367042601108551,0.43354499340057373
1782846846815097900,6.074097900390625,-0.5547415614128113,0.30752357840538025,0.4686318635940552
1782846846825101800,6.084101806640625,-0.48961660265922546,0.35862088203430176,0.391384482383728
1782846846835106800,6.09410693359375,-0.4171442687511444,0.38666024804115295,0.22093312442302704
1782846846845111800,6.10411181640625,-0.3493148982524872,0.3800123631954193,0.009496205486357212
1782846846855116800,6.11411669921875,-0.2938724160194397,0.3410950303077698,-0.20855623483657837
1782846846865121800,6.124121826171875,-0.230535089969635,0.28561291098594666,-0.4005100131034851
1782846846875125800,6.134125732421875,-0.1668301522731781,0.216422900557518,-0.5361698865890503
1782846846885130800,6.144130859375,-0.10875830799341202,0.1192324161529541,-0.5889679193496704
1782846846895135700,6.1541357421875,-0.09243179857730865,0.04736700654029846,-0.6074947118759155
1782846846905140700,6.164140625,-0.13013076782226562,0.034982047975063324,-0.6058160662651062
1782846846915145700,6.174145751953125,-0.19897401332855225,0.08811504393815994,-0.5666585564613342
1782846846925150700,6.184150634765625,-0.2751239836215973,0.15921849012374878,-0.4934111535549164
1782846846935154700,6.19415478515625,-0.347394198179245,0.3138298988342285,-0.37756073474884033
1782846846945159700,6.20415966796875,-0.40155360102653503,0.5482030510902405,-0.17167115211486816
1782846846955164700,6.21416455078125,-0.4445047974586487,0.7538214325904846,0.14273658394813538
1782846846965169700,6.224169677734375,-0.4938567578792572,0.8320322036743164,0.5291440486907959
1782846846975174700,6.234174560546875,-0.5514140725135803,0.8045222759246826,0.8462674021720886
1782846846985179600,6.2441796875,-0.5565270185470581,0.7689664959907532,0.9353269934654236
1782846846995183600,6.25418359375,-0.476858526468277,0.7514141201972961,0.7085145711898804
1782846847005188600,6.264188720703125,-0.34339404106140137,0.6855127811431885,0.20852667093276978
1782846847015193600,6.274193603515625,-0.23224487900733948,0.5029578804969788,-0.5182039141654968
1782846847025198600,6.284198486328125,-0.26488038897514343,0.08025116473436356,-1.147530436515808
1782846847035203600,6.29420361328125,-0.3981172740459442,-0.33751624822616577,-1.4883370399475098
1782846847045208600,6.30420849609375,-0.5549260377883911,-0.6333035230636597,-1.6215531826019287
1782846847055212800,6.314212890625,-0.5826937556266785,-0.78323894739151,-1.5995203256607056
1782846847065217800,6.3242177734375,-0.42470625042915344,-0.7934678196907043,-1.466206669807434
1782846847075222800,6.334222900390625,-0.14740194380283356,-0.733578085899353,-1.2054001092910767
1782846847085227800,6.344227783203125,0.13704785704612732,-0.5877196192741394,-0.8278810381889343
1782846847095232800,6.354232666015625,0.3366842567920685,-0.33659446239471436,-0.418609082698822
1782846847105236700,6.36423681640625,0.45183125138282776,-0.021933168172836304,-0.0741746723651886
1782846847115241700,6.37424169921875,0.5115579962730408,0.23247221112251282,0.09889990091323853
1782846847125246700,6.384246826171875,0.5440347194671631,0.3571089804172516,0.03217199444770813
1782846847135251700,6.394251708984375,0.5479378700256348,0.3339000642299652,-0.24886420369148254
1782846847145256700,6.404256591796875,0.4936884343624115,0.2535144090652466,-0.6186881065368652
1782846847155261700,6.41426171875,0.3910432755947113,0.16777446866035461,-0.9702631831169128
1782846847165266000,6.424265869140625,0.2956448197364807,0.10814746469259262,-1.2286537885665894
1782846847175271000,6.43427099609375,0.24634304642677307,0.0962308868765831,-1.3435190916061401
1782846847185276000,6.44427587890625,0.25645962357521057,0.10601700842380524,-1.3065917491912842
1782846847195281000,6.454281005859375,0.295581191778183,0.1102871224284172,-1.1264190673828125
1782846847205286000,6.464285888671875,0.35435664653778076,0.0795389860868454,-0.8560566306114197
1782846847215289600,6.47428955078125,0.42282307147979736,0.0267772376537323,-0.5475528240203857
1782846847225294600,6.484294677734375,0.46280381083488464,-0.018143702298402786,-0.25493326783180237
1782846847235299600,6.494299560546875,0.4615441560745239,-0.01985345408320427,-0.009347224608063698
1782846847245304600,6.5043046875,0.4384225606918335,0.0010556576307862997,0.19270603358745575
1782846847255309600,6.5143095703125,0.3874933421611786,0.05439531058073044,0.3579905927181244
1782846847265314600,6.524314453125,0.3117345869541168,0.13313889503479004,0.49757543206214905
1782846847275318500,6.534318603515625,0.2046150416135788,0.2261229008436203,0.5904028415679932
1782846847285323500,6.544323486328125,0.08361667394638062,0.31741687655448914,0.6150784492492676
1782846847295328500,6.55432861328125,-0.03575313463807106,0.3856995105743408,0.5807290077209473
1782846847305333500,6.56433349609375,-0.13052654266357422,0.39331257343292236,0.4781304597854614
1782846847315338500,6.57433837890625,-0.19354970753192902,0.34901514649391174,0.3234522044658661
1782846847325343500,6.584343505859375,-0.23139208555221558,0.2753290832042694,0.1207277700304985
1782846847335347700,6.59434765625,-0.2551266849040985,0.17293664813041687,-0.0907093808054924
1782846847345352700,6.604352783203125,-0.2617398798465729,0.04413716122508049,-0.2764730155467987
1782846847355357700,6.614357666015625,-0.25933319330215454,-0.04864177852869034,-0.4066981375217438
1782846847365362700,6.62436279296875,-0.24518051743507385,-0.08257053047418594,-0.4691312909126282
1782846847375367700,6.63436767578125,-0.21672676503658295,-0.09113605320453644,-0.4630078971385956
1782846847385371600,6.64437158203125,-0.180958092212677,-0.09514525532722473,-0.3761920630931854
1782846847395376600,6.654376708984375,-0.1491018831729889,-0.0998542532324791,-0.24325746297836304
1782846847405381600,6.664381591796875,-0.12838514149188995,-0.09017322957515717,-0.06695090234279633
1782846847415386600,6.67438671875,-0.13879065215587616,-0.06583593040704727,0.1269405335187912
1782846847425391600,6.6843916015625,-0.1963990330696106,-0.009420130401849747,0.30918487906455994
1782846847435396600,6.694396728515625,-0.28191128373146057,0.09799554198980331,0.49273258447647095
1782846847445400800,6.70440087890625,-0.3706502616405487,0.19148489832878113,0.6669934391975403
1782846847455405800,6.71440576171875,-0.45702749490737915,0.27416327595710754,0.7893339991569519
1782846847465410800,6.724410888671875,-0.4900648593902588,0.3127570152282715,0.8428153991699219
1782846847475415800,6.734415771484375,-0.4453607499599457,0.283875048160553,0.8813766241073608
1782846847485420800,6.7444208984375,-0.31992828845977783,0.14083050191402435,0.912050724029541
1782846847495425800,6.75442578125,-0.14398550987243652,-0.022881992161273956,0.8770517110824585
1782846847505429800,6.7644296875,0.06173631176352501,-0.08810056000947952,0.7002890706062317
1782846847515434800,6.774434814453125,0.243938609957695,-0.07291894406080246,0.41573911905288696
1782846847525439700,6.784439697265625,0.3446536362171173,-0.029367249459028244,0.17257237434387207
1782846847535444700,6.79444482421875,0.3763793408870697,-0.009065440855920315,0.0991080179810524
1782846847545449700,6.80444970703125,0.39179590344429016,-0.027987206354737282,0.18478500843048096
1782846847555453700,6.81445361328125,0.43226128816604614,-0.08918531239032745,0.35623905062675476
1782846847565458700,6.824458740234375,0.483801007270813,-0.187095507979393,0.545689046382904
1782846847575463700,6.834463623046875,0.4825133681297302,-0.3157341778278351,0.6704778671264648
1782846847585468700,6.84446875,0.39076441526412964,-0.43071407079696655,0.6620445251464844
1782846847595473700,6.8544736328125,0.29482537508010864,-0.5456315875053406,0.5931999683380127
1782846847605478700,6.864478759765625,0.21388676762580872,-0.6126539707183838,0.44860902428627014
1782846847615483000,6.87448291015625,0.16634215414524078,-0.6070951819419861,0.2505297362804413
1782846847625488000,6.88448779296875,0.16632623970508575,-0.5047407150268555,0.10018713027238846
1782846847635492900,6.894492919921875,0.17253220081329346,-0.3981367349624634,0.09261123090982437
1782846847645497900,6.904497802734375,0.13428857922554016,-0.25547295808792114,0.21079599857330322
1782846847655502800,6.9145029296875,0.04244682192802429,-0.09772326052188873,0.3594760298728943
1782846847665507800,6.9245078125,-0.05416440963745117,0.023798109963536263,0.4862065315246582
1782846847675511600,6.934511474609375,-0.11162823438644409,0.09439531713724136,0.5787349343299866
1782846847685516500,6.9445166015625,-0.10669630020856857,0.09491236507892609,0.6380611062049866
1782846847695521500,6.954521484375,-0.02682596631348133,0.05557481199502945,0.6490370035171509
1782846847705526500,6.964526611328125,0.10182129591703415,0.026817359030246735,0.6177745461463928
1782846847715531500,6.974531494140625,0.24329639971256256,0.027973704040050507,0.5760558843612671
1782846847725535700,6.98453564453125,0.36022424697875977,0.06976204365491867,0.5297167301177979
1782846847735540700,6.994540771484375,0.4224223792552948,0.12280981242656708,0.4985012710094452
1782846847745545700,7.004545654296875,0.41307786107063293,0.1945813000202179,0.4690890610218048
1782846847755550700,7.01455078125,0.36342695355415344,0.2542789876461029,0.47705885767936707
1782846847765555700,7.0245556640625,0.31030362844467163,0.272707998752594,0.5548793077468872
1782846847775560700,7.034560791015625,0.2553311884403229,0.2609195113182068,0.6777578592300415
1782846847785564700,7.044564697265625,0.1953379213809967,0.2414671778678894,0.802071750164032
1782846847795569700,7.054569580078125,0.14634054899215698,0.25333982706069946,0.9100821018218994
1782846847805574700,7.06457470703125,0.12362004816532135,0.2681081295013428,0.9676343202590942
1782846847815579600,7.07457958984375,0.12466800212860107,0.26276129484176636,0.9728477597236633
1782846847825584600,7.084584716796875,0.14231033623218536,0.22874613106250763,0.9120417237281799
1782846847835588600,7.094588623046875,0.14073242247104645,0.15567751228809357,0.7773906588554382
1782846847845593600,7.104593505859375,0.09004838019609451,0.03334694728255272,0.5609854459762573
1782846847855598600,7.1145986328125,0.0013768370263278484,-0.10749512910842896,0.2687605619430542
1782846847865603600,7.124603515625,-0.11257560551166534,-0.24728712439537048,-0.061686865985393524
1782846847875608600,7.134608642578125,-0.21419836580753326,-0.36287978291511536,-0.37846773862838745
1782846847885613600,7.144613525390625,-0.2918434739112854,-0.39921385049819946,-0.6039053201675415
1782846847895617800,7.15461767578125,-0.3505419194698334,-0.3814343214035034,-0.6879839301109314
1782846847905622800,7.164622802734375,-0.39592960476875305,-0.2846282124519348,-0.6623374223709106
1782846847915627800,7.174627685546875,-0.42497721314430237,-0.12183796614408493,-0.5630545616149902
1782846847925632800,7.1846328125,-0.462786465883255,0.05650485306978226,-0.4584159255027771
1782846847935637800,7.1946376953125,-0.51333087682724,0.2865135371685028,-0.3336188495159149
1782846847945642800,7.204642822265625,-0.5448386073112488,0.5559946298599243,-0.12156590819358826
1782846847955646700,7.214646728515625,-0.5409367680549622,0.7616109251976013,0.1659841239452362
1782846847965651700,7.224651611328125,-0.5386373400688171,0.8806083798408508,0.41931405663490295
1782846847975656700,7.23465673828125,-0.526980996131897,0.9279521703720093,0.6042876243591309
1782846847985661700,7.24466162109375,-0.47804903984069824,0.8777093887329102,0.7095721960067749
1782846847995666700,7.254666748046875,-0.37977227568626404,0.7412692308425903,0.7133352160453796
1782846848005671000,7.2646708984375,-0.2872162461280823,0.5833970904350281,0.5112205147743225
1782846848015676000,7.274676025390625,-0.21541130542755127,0.48684096336364746,-0.08591828495264053
1782846848025681000,7.284680908203125,-0.2255876511335373,0.27287954092025757,-1.0048232078552246
1782846848035686000,7.294685791015625,-0.32143667340278625,-0.10756685584783554,-1.7101565599441528
1782846848045691000,7.30469091796875,-0.4462445080280304,-0.43929558992385864,-2.024352550506592
1782846848055696000,7.31469580078125,-0.5320084691047668,-0.5170137882232666,-2.019437074661255
1782846848065699600,7.324699462890625,-0.5374691486358643,-0.406895250082016,-1.7705798149108887
1782846848075704600,7.33470458984375,-0.44936805963516235,-0.2771846652030945,-1.334154486656189
1782846848085709600,7.34470947265625,-0.2182248830795288,-0.15700574219226837,-0.7712602019309998
1782846848095714800,7.35471484375,0.20196840167045593,0.0615023672580719,-0.24231591820716858
1782846848105719800,7.3647197265625,0.43849512934684753,0.2184242457151413,0.21836920082569122
1782846848115724800,7.374724853515625,0.5528398156166077,0.3342283368110657,0.346989244222641
1782846848125728500,7.384728515625,0.7091652154922485,0.4596613645553589,0.4224483072757721
1782846848135733500,7.3947333984375,0.7339909672737122,0.4272474944591522,0.36667293310165405
1782846848145738500,7.404738525390625,0.6542841792106628,0.2544114589691162,0.24745967984199524
1782846848155743500,7.414743408203125,0.49752649664878845,0.11770632117986679,0.10976333171129227
1782846848165748500,7.42474853515625,0.343266099691391,0.05039103329181671,-0.02541496232151985
1782846848175752700,7.434752685546875,0.24279727041721344,0.06462403386831284,-0.13052965700626373
1782846848185757700,7.4447578125,0.22082076966762543,0.1578710377216339,-0.22323395311832428
1782846848195762700,7.4547626953125,0.24662280082702637,0.27085191011428833,-0.28281736373901367
1782846848205767700,7.464767578125,0.26973825693130493,0.34487980604171753,-0.28691917657852173
1782846848215772700,7.474772705078125,0.25456783175468445,0.3858530819416046,-0.25571173429489136
1782846848225777700,7.484777587890625,0.1897978037595749,0.36745890974998474,-0.20728769898414612
1782846848235781600,7.49478173828125,0.09285208582878113,0.2551771104335785,-0.1682436317205429
1782846848245786600,7.50478662109375,0.00028187502175569534,0.06193976104259491,-0.16607704758644104
1782846848255791600,7.51479150390625,-0.017747193574905396,-0.09136591106653214,-0.16469806432724
1782846848265796600,7.524796630859375,-0.0320543572306633,-0.15026068687438965,-0.17791122198104858
1782846848275801600,7.534801513671875,-0.11192575097084045,-0.2727525234222412,-0.18555901944637299
1782846848285805800,7.544805908203125,-0.19446972012519836,-0.29114994406700134,-0.22698092460632324
1782846848295810800,7.554810791015625,-0.2595885396003723,-0.3315165340900421,-0.2856820523738861
1782846848305815800,7.56481591796875,-0.2905307114124298,-0.36583542823791504,-0.33028045296669006
1782846848315820800,7.57482080078125,-0.3124200105667114,-0.3779757022857666,-0.3632658123970032
1782846848325825800,7.58482568359375,-0.3301379382610321,-0.39505302906036377,-0.4048314392566681
1782846848335830800,7.594830810546875,-0.309337317943573,-0.42941445112228394,-0.44880926609039307
1782846848345834800,7.604834716796875,-0.24175067245960236,-0.43918901681900024,-0.4755218029022217
1782846848355839700,7.61483984375,-0.12885688245296478,-0.40233486890792847,-0.4715539515018463
1782846848365844700,7.6248447265625,0.037658680230379105,-0.30422255396842957,-0.42984092235565186
1782846848375849700,7.634849609375,0.1737920045852661,-0.24435123801231384,-0.3315124809741974
1782846848385854700,7.644854736328125,0.22002430260181427,-0.2545427680015564,-0.2058185487985611
1782846848395858700,7.654858642578125,0.182832732796669,-0.28160181641578674,-0.06585693359375
1782846848405863700,7.66486376953125,0.07802598923444748,-0.325789213180542,0.034280214458703995
1782846848415868700,7.67486865234375,-0.021227361634373665,-0.31982266902923584,0.13608060777187347
1782846848425873700,7.684873779296875,-0.04198311269283295,-0.26131194829940796,0.24406714737415314
1782846848435878700,7.694878662109375,0.020564690232276917,-0.1679084748029709,0.32691702246665955
1782846848445883600,7.704883544921875,0.11263660341501236,-0.10768169164657593,0.3510739803314209
1782846848455888000,7.714887939453125,0.2243032157421112,-0.11905871331691742,0.2726561427116394
1782846848465892900,7.724892822265625,0.33569392561912537,-0.15395064651966095,0.12823505699634552
1782846848475897900,7.73489794921875,0.4071769118309021,-0.20770256221294403,-0.020281720906496048
1782846848485902800,7.74490283203125,0.45695534348487854,-0.18123623728752136,-0.118094801902771
1782846848495907800,7.754907958984375,0.49842771887779236,-0.009563546627759933,-0.147142693400383
1782846848505912800,7.764912841796875,0.5408676266670227,0.2202267348766327,-0.10902842879295349
1782846848515916500,7.77491650390625,0.5679075121879578,0.4252110421657562,-0.015882503241300583
1782846848525921500,7.784921630859375,0.588424563407898,0.5554320216178894,0.1762082874774933
1782846848535926500,7.794926513671875,0.543281078338623,0.506522536277771,0.42623358964920044
1782846848545931500,7.804931640625,0.5069159269332886,0.3529084622859955,0.6315901875495911
1782846848555936500,7.8149365234375,0.5211678743362427,0.08281279355287552,0.7413110733032227
1782846848565940700,7.824940673828125,0.5024387240409851,-0.25806698203086853,0.7266310453414917
1782846848575945700,7.83494580078125,0.4043899476528168,-0.5672821402549744,0.6002443432807922
1782846848585950700,7.84495068359375,0.2565283179283142,-0.7650656700134277,0.44221562147140503
1782846848595955700,7.854955810546875,0.10876653343439102,-0.8409724235534668,0.29871731996536255
1782846848605960700,7.864960693359375,-0.0314871110022068,-0.8242126107215881,0.18877093493938446
1782846848615964700,7.874964599609375,-0.1146581619977951,-0.7468296885490417,0.14427563548088074
1782846848625969700,7.8849697265625,-0.12372281402349472,-0.6669765114784241,0.12900541722774506
1782846848635974700,7.894974609375,-0.07247347384691238,-0.5655401349067688,0.1109425276517868
1782846848645979600,7.904979736328125,0.016512330621480942,-0.4703863263130188,0.0798620730638504
1782846848655984600,7.914984619140625,0.12787267565727234,-0.42702552676200867,0.022995593026280403
1782846848665989600,7.92498974609375,0.23344215750694275,-0.411981999874115,-0.06221909075975418
1782846848675993600,7.93499365234375,0.30511048436164856,-0.4108909070491791,-0.15460814535617828
1782846848685998600,7.94499853515625,0.3403241038322449,-0.42417994141578674,-0.24065357446670532
1782846848696003600,7.955003662109375,0.34286290407180786,-0.43314093351364136,-0.2855336666107178
1782846848706008600,7.965008544921875,0.3202824294567108,-0.42098623514175415,-0.28609105944633484
1782846848716013600,7.975013671875,0.27535489201545715,-0.3582320511341095,-0.24266234040260315
1782846848726018600,7.9850185546875,0.229940265417099,-0.23421278595924377,-0.1562959849834442
1782846848736022800,7.995022705078125,0.17937907576560974,-0.10991320759057999,-0.05151951685547829
1782846848746027800,8.00502783203125,0.13068261742591858,0.03419462963938713,0.0717148631811142
1782846848756032800,8.01503271484375,0.07907935231924057,0.2198031097650528,0.2298584282398224
1782846848766037800,8.025037841796875,0.036847472190856934,0.3858259916305542,0.40263503789901733
1782846848776042800,8.035042724609376,0.013554666191339493,0.5014740228652954,0.5651972889900208
1782846848786046700,8.045046630859375,0.021937936544418335,0.5585591197013855,0.67473965883255
1782846848796051700,8.0550517578125,0.0447218157351017,0.5483767986297607,0.7013142704963684
1782846848806056700,8.065056640625,0.059875018894672394,0.49859365820884705,0.6269254088401794
1782846848816061700,8.075061767578125,0.06686927378177643,0.42602092027664185,0.477816104888916
1782846848826066700,8.085066650390624,0.07088590413331985,0.3611385226249695,0.2762499153614044
1782846848836071700,8.09507177734375,0.07150508463382721,0.31585144996643066,0.06059431657195091
1782846848846075600,8.10507568359375,0.07353110611438751,0.2890539765357971,-0.13386671245098114
1782846848856081000,8.115080810546875,0.06503535062074661,0.2583881914615631,-0.2787725031375885
1782846848866086000,8.1250859375,0.05072138458490372,0.23019003868103027,-0.34766897559165955
1782846848876091000,8.1350908203125,0.046618785709142685,0.24388082325458527,-0.3580845892429352
1782846848886096100,8.14509619140625,0.05544770136475563,0.2801814675331116,-0.3327302634716034
1782846848896100000,8.15510009765625,0.08100472390651703,0.3331663906574249,-0.2788201570510864
1782846848906105000,8.16510498046875,0.10160928964614868,0.3494861423969269,-0.21722808480262756
1782846848916110000,8.175110107421874,0.11419671773910522,0.3193226456642151,-0.15911178290843964
1782846848926115000,8.185114990234375,0.11518032103776932,0.2665151357650757,-0.10517489165067673
1782846848936120000,8.1951201171875,0.11101166903972626,0.21419547498226166,-0.03968429937958717
1782846848946125000,8.205125,0.0857175961136818,0.16794782876968384,0.03895208239555359
1782846848956129000,8.21512890625,0.010303796268999577,0.20229275524616241,0.1353294849395752
1782846848966134000,8.225134033203124,-0.11550037562847137,0.33263134956359863,0.2400597780942917
1782846848976139000,8.235138916015625,-0.26939380168914795,0.5031218528747559,0.3313257694244385
1782846848986144000,8.24514404296875,-0.3546772301197052,0.6128644943237305,0.36011555790901184
1782846848996149000,8.25514892578125,-0.32751351594924927,0.623126745223999,0.31078290939331055
1782846849006153200,8.2651533203125,-0.21729229390621185,0.57720947265625,0.1887524276971817
1782846849016158200,8.275158203125,-0.05722885951399803,0.4933665096759796,0.04522135853767395
1782846849026163200,8.2851630859375,0.166138157248497,0.4182712435722351,-0.10601440817117691
1782846849036168200,8.295168212890625,0.4264429807662964,0.4429640769958496,-0.24528920650482178
1782846849046173200,8.305173095703125,0.6286057233810425,0.5737026929855347,-0.3506048917770386
1782846849056178200,8.31517822265625,0.675918698310852,0.67289799451828,-0.32768625020980835
1782846849066182100,8.32518212890625,0.5619550943374634,0.7874171137809753,-0.33206263184547424
1782846849076187100,8.335187255859376,0.3938246965408325,0.8210728168487549,-0.5770792961120605
1782846849086192000,8.345192138671875,0.24518993496894836,0.6497299671173096,-0.9482248425483704
1782846849096197000,8.355197021484376,0.14092904329299927,0.3510015904903412,-1.1768271923065186
1782846849106202000,8.3652021484375,0.09385500848293304,0.05363179370760918,-1.1767419576644897
1782846849116206000,8.3752060546875,0.057376354932785034,-0.19229835271835327,-0.9297571182250977
1782846849126211000,8.385211181640624,0.02509925328195095,-0.3380812704563141,-0.4980650246143341
1782846849136216000,8.395216064453125,0.0413980633020401,-0.329454243183136,-0.11004112660884857
1782846849146221000,8.405220947265626,0.09897725284099579,-0.2837158441543579,0.06303899735212326
1782846849156226000,8.41522607421875,0.1551036387681961,-0.2956606447696686,0.02085799351334572
1782846849166231000,8.42523095703125,0.16180521249771118,-0.3165690004825592,-0.14324861764907837
1782846849176235300,8.4352353515625,0.12149346619844437,-0.306794136762619,-0.3273297846317291
1782846849186240300,8.445240234375,0.05815994367003441,-0.22691746056079865,-0.47606161236763
1782846849196245200,8.455245361328124,0.004937469027936459,-0.08219808340072632,-0.5358014106750488
1782846849206250200,8.465250244140625,-0.01047959178686142,0.07385226339101791,-0.5133592486381531
1782846849216255200,8.475255126953124,-0.04327801614999771,0.1414257287979126,-0.3371032476425171
1782846849226260200,8.48526025390625,-0.045726191252470016,0.2719273269176483,-0.11324701458215714
1782846849236264000,8.495263916015626,0.00850588921457529,0.30849945545196533,0.10443258285522461
1782846849246269000,8.50526904296875,0.04942157864570618,0.21319760382175446,0.25755855441093445
1782846849256274200,8.515274169921875,0.028853721916675568,0.015001962892711163,0.33702781796455383
1782846849266279200,8.525279052734374,-0.030848348513245583,-0.21052239835262299,0.367734432220459
1782846849276284200,8.5352841796875,-0.08414699137210846,-0.368719220161438,0.40236297249794006
1782846849286288100,8.5452880859375,-0.11772295832633972,-0.4097769856452942,0.4207463562488556
1782846849296293000,8.555293212890625,-0.15539470314979553,-0.3579936623573303,0.41966646909713745
1782846849306298000,8.565298095703126,-0.1923544704914093,-0.2264697551727295,0.41113388538360596
1782846849316303000,8.57530322265625,-0.2191392034292221,0.03791742026805878,0.5263441205024719
1782846849326308000,8.58530810546875,-0.23861095309257507,0.17910301685333252,0.5926730632781982
1782846849336313000,8.59531298828125,-0.2532269060611725,0.20629975199699402,0.5645990967750549
1782846849346317000,8.605317138671875,-0.23718872666358948,0.13067877292633057,0.44633036851882935
1782846849356322000,8.615322021484374,-0.218995600938797,-0.046289075165987015,0.2560887932777405
1782846849366327000,8.6253271484375,-0.2107984572649002,-0.33356568217277527,0.014866413548588753
1782846849376332000,8.63533203125,-0.1946687549352646,-0.6181656718254089,-0.2230049967765808
1782846849386337000,8.6453369140625,-0.14023523032665253,-0.7368886470794678,-0.31725919246673584
1782846849396341000,8.655341064453125,-0.06709498912096024,-0.717522382736206,-0.25753912329673767
