time,seconds_elapsed,z,y,x
1782845798217601000,0.06460107421875,-0.9816436767578125,-0.1068267822265625,0.1765899658203125
1782845798227606000,0.07460595703125,-0.98126220703125,-0.1077728271484375,0.17913818359375
1782845798237611000,0.084611083984375,-0.9764862060546875,-0.10809326171875,0.1763763427734375
1782845798247616000,0.094615966796875,-0.9731903076171875,-0.106689453125,0.1754302978515625
1782845798257621000,0.10462109375,-0.9711761474609375,-0.1071319580078125,0.178436279296875
1782845798267626000,0.1146259765625,-0.967681884765625,-0.10906982421875,0.180633544921875
1782845798277631000,0.124630859375,-0.964141845703125,-0.11187744140625,0.1809539794921875
1782845798287636000,0.134635986328125,-0.9645843505859375,-0.1106109619140625,0.1796722412109375
1782845798297641000,0.144640869140625,-0.9627532958984375,-0.1092987060546875,0.1760406494140625
1782845798307646000,0.15464599609375,-0.9625244140625,-0.1103668212890625,0.1737518310546875
1782845798317652000,0.16465185546875,-0.9638214111328125,-0.108734130859375,0.171722412109375
1782845798327657000,0.174656982421875,-0.9639739990234375,-0.1082000732421875,0.168670654296875
1782845798337662000,0.184661865234375,-0.9664306640625,-0.1069793701171875,0.1700592041015625
1782845798347667000,0.1946669921875,-0.9689788818359375,-0.10479736328125,0.1707763671875
1782845798357672000,0.204671875,-0.9743804931640625,-0.1073760986328125,0.1745452880859375
1782845798367677000,0.214677001953125,-0.9831695556640625,-0.1083831787109375,0.1787872314453125
1782845798377682000,0.224681884765625,-0.989105224609375,-0.107879638671875,0.1826019287109375
1782845798387687000,0.23468701171875,-0.9882049560546875,-0.106903076171875,0.1849822998046875
1782845798397692000,0.24469189453125,-0.9828948974609375,-0.105560302734375,0.18658447265625
1782845798407697000,0.25469677734375,-0.976470947265625,-0.1053466796875,0.184814453125
1782845798417702000,0.264701904296875,-0.97149658203125,-0.1054840087890625,0.1803436279296875
1782845798427707000,0.274706787109375,-0.9632415771484375,-0.107940673828125,0.1836090087890625
1782845798437712000,0.2847119140625,-0.9596710205078125,-0.108673095703125,0.18743896484375
1782845798447716900,0.294716796875,-0.9547119140625,-0.1121673583984375,0.1888275146484375
1782845798457721900,0.304721923828125,-0.954315185546875,-0.113067626953125,0.18902587890625
1782845798467726800,0.314726806640625,-0.9614105224609375,-0.11114501953125,0.190673828125
1782845798477731800,0.32473193359375,-0.96319580078125,-0.1104583740234375,0.193603515625
1782845798487737900,0.33473779296875,-0.9647979736328125,-0.11041259765625,0.195953369140625
1782845798497742800,0.344742919921875,-0.967193603515625,-0.1105804443359375,0.1967010498046875
1782845798507747800,0.354747802734375,-0.9700927734375,-0.1071929931640625,0.1948394775390625
1782845798517752800,0.3647529296875,-0.9659576416015625,-0.106201171875,0.1917877197265625
1782845798527757800,0.3747578125,-0.9638671875,-0.10986328125,0.1890869140625
1782845798537762800,0.3847626953125,-0.9602813720703125,-0.1093902587890625,0.1867523193359375
1782845798547767800,0.394767822265625,-0.9601593017578125,-0.1110076904296875,0.18194580078125
1782845798557772800,0.404772705078125,-0.961151123046875,-0.108856201171875,0.1775054931640625
1782845798567778000,0.414778076171875,-0.961700439453125,-0.1070556640625,0.1751861572265625
1782845798577783000,0.424782958984375,-0.965179443359375,-0.10833740234375,0.1743927001953125
1782845798587788000,0.4347880859375,-0.9680938720703125,-0.1088714599609375,0.1759490966796875
1782845798597793000,0.44479296875,-0.9722442626953125,-0.110443115234375,0.178680419921875
1782845798607798000,0.454798095703125,-0.9791259765625,-0.1126861572265625,0.1785888671875
1782845798617803000,0.464802978515625,-0.987457275390625,-0.1134185791015625,0.181427001953125
1782845798627808000,0.47480810546875,-0.9918212890625,-0.114227294921875,0.18255615234375
1782845798637813000,0.48481298828125,-0.992919921875,-0.1110687255859375,0.1803436279296875
1782845798647818000,0.49481787109375,-0.98980712890625,-0.1070098876953125,0.177337646484375
1782845798657824000,0.504823974609375,-0.98419189453125,-0.1054534912109375,0.1757049560546875
1782845798667829000,0.5148291015625,-0.975982666015625,-0.1072540283203125,0.1727294921875
1782845798677834000,0.524833984375,-0.96783447265625,-0.1103668212890625,0.173004150390625
1782845798687839000,0.5348388671875,-0.959716796875,-0.111968994140625,0.1734619140625
1782845798697844000,0.544843994140625,-0.953216552734375,-0.112396240234375,0.1753692626953125
1782845798707849000,0.554848876953125,-0.948028564453125,-0.1121826171875,0.1798248291015625
1782845798717854000,0.56485400390625,-0.950653076171875,-0.1119537353515625,0.1781005859375
1782845798727859000,0.57485888671875,-0.9525146484375,-0.1106414794921875,0.180755615234375
1782845798737864000,0.584864013671875,-0.9549102783203125,-0.1107635498046875,0.1832122802734375
1782845798747869000,0.594868896484375,-0.9612579345703125,-0.1136932373046875,0.18212890625
1782845798757874000,0.6048740234375,-0.9677276611328125,-0.112152099609375,0.178375244140625
1782845798767879000,0.61487890625,-0.9724884033203125,-0.1103515625,0.180206298828125
1782845798777884000,0.6248837890625,-0.972412109375,-0.11309814453125,0.180511474609375
1782845798787889000,0.634888916015625,-0.9697418212890625,-0.1122283935546875,0.178955078125
1782845798797894000,0.644893798828125,-0.9646759033203125,-0.1128387451171875,0.1785888671875
1782845798807899000,0.65489892578125,-0.961181640625,-0.1139373779296875,0.1821136474609375
1782845798817903900,0.66490380859375,-0.959136962890625,-0.1157684326171875,0.181884765625
1782845798827909000,0.6749091796875,-0.9654083251953125,-0.11468505859375,0.183135986328125
1782845798837915000,0.684914794921875,-0.9744873046875,-0.1129608154296875,0.18017578125
1782845798847919900,0.694919921875,-0.9786529541015625,-0.109771728515625,0.1762237548828125
1782845798857924900,0.7049248046875,-0.9805450439453125,-0.1071319580078125,0.176910400390625
1782845798867929900,0.714929931640625,-0.978851318359375,-0.1091461181640625,0.1750030517578125
1782845798877934800,0.724934814453125,-0.974334716796875,-0.1122283935546875,0.1754608154296875
1782845798887939800,0.73493994140625,-0.9699859619140625,-0.113372802734375,0.1761932373046875
1782845798897944800,0.74494482421875,-0.9673309326171875,-0.11456298828125,0.17974853515625
1782845798907949800,0.75494970703125,-0.963653564453125,-0.1156463623046875,0.1795501708984375
1782845798917954800,0.764954833984375,-0.9632568359375,-0.1152191162109375,0.183135986328125
1782845798927959800,0.774959716796875,-0.9614410400390625,-0.1173858642578125,0.1826019287109375
1782845798937964800,0.78496484375,-0.96319580078125,-0.11712646484375,0.176666259765625
1782845798947969800,0.7949697265625,-0.9661865234375,-0.1147613525390625,0.17120361328125
1782845798957974800,0.804974853515625,-0.9676361083984375,-0.1121826171875,0.1710357666015625
1782845798967980000,0.81497998046875,-0.9725799560546875,-0.1151885986328125,0.175323486328125
1782845798977985000,0.824985107421875,-0.9761505126953125,-0.1158599853515625,0.1750030517578125
1782845798987990000,0.834989990234375,-0.9779815673828125,-0.11309814453125,0.174163818359375
1782845798997995000,0.8449951171875,-0.9818115234375,-0.1129302978515625,0.17449951171875
1782845799008001000,0.8550009765625,-0.979583740234375,-0.1121826171875,0.1730499267578125
1782845799018006000,0.865006103515625,-0.9754638671875,-0.1092376708984375,0.1697845458984375
1782845799028011000,0.875010986328125,-0.9722442626953125,-0.1111602783203125,0.1664581298828125
1782845799038016000,0.88501611328125,-0.9749298095703125,-0.108642578125,0.1671905517578125
1782845799048021000,0.89502099609375,-0.9708099365234375,-0.105621337890625,0.1688995361328125
1782845799058026000,0.90502587890625,-0.972320556640625,-0.10595703125,0.1719818115234375
1782845799068031000,0.915031005859375,-0.974151611328125,-0.1083526611328125,0.175933837890625
1782845799078036000,0.925035888671875,-0.9766845703125,-0.11090087890625,0.1781463623046875
1782845799088041000,0.935041015625,-0.9803314208984375,-0.113922119140625,0.18206787109375
1782845799098046000,0.9450458984375,-0.980224609375,-0.1150360107421875,0.185089111328125
1782845799108051000,0.955051025390625,-0.980560302734375,-0.11090087890625,0.1811676025390625
1782845799118056000,0.965055908203125,-0.9806671142578125,-0.104705810546875,0.1803131103515625
1782845799128061000,0.97506103515625,-0.974456787109375,-0.1048126220703125,0.1796722412109375
1782845799138066000,0.98506591796875,-0.969512939453125,-0.1069488525390625,0.1824798583984375
1782845799148071000,0.99507080078125,-0.9633026123046875,-0.108856201171875,0.1830291748046875
1782845799158076000,1.005075927734375,-0.9618072509765625,-0.1075592041015625,0.1802978515625
1782845799168081000,1.015080810546875,-0.9608001708984375,-0.1052093505859375,0.175750732421875
1782845799178086700,1.025086669921875,-0.958282470703125,-0.1094818115234375,0.1697235107421875
1782845799188091600,1.035091552734375,-0.95904541015625,-0.1056976318359375,0.1740264892578125
1782845799198096600,1.0450966796875,-0.96075439453125,-0.1064300537109375,0.172119140625
1782845799208101600,1.0551015625,-0.962310791015625,-0.1080322265625,0.170806884765625
1782845799218107000,1.06510693359375,-0.9642181396484375,-0.1062774658203125,0.1717529296875
1782845799228112000,1.07511181640625,-0.966339111328125,-0.1108245849609375,0.1734466552734375
1782845799238116900,1.085116943359375,-0.9658966064453125,-0.1130828857421875,0.17657470703125
1782845799248121900,1.095121826171875,-0.9649658203125,-0.114227294921875,0.17950439453125
1782845799258126800,1.105126953125,-0.9694976806640625,-0.1161651611328125,0.1769866943359375
1782845799268132000,1.115132080078125,-0.9779205322265625,-0.1129913330078125,0.17706298828125
1782845799278137000,1.12513720703125,-0.982757568359375,-0.1122894287109375,0.1778106689453125
1782845799288142000,1.13514208984375,-0.98699951171875,-0.1135406494140625,0.1778717041015625
1782845799298147000,1.14514697265625,-0.9871978759765625,-0.112060546875,0.1777801513671875
1782845799308152000,1.155152099609375,-0.98486328125,-0.1100311279296875,0.17633056640625
1782845799318157000,1.165156982421875,-0.97503662109375,-0.111480712890625,0.175567626953125
1782845799328162000,1.175162109375,-0.963134765625,-0.1156005859375,0.171173095703125
1782845799338167000,1.1851669921875,-0.9567108154296875,-0.11676025390625,0.170623779296875
1782845799348172000,1.195172119140625,-0.9546661376953125,-0.117156982421875,0.1718292236328125
1782845799358177800,1.205177734375,-0.9542694091796875,-0.118194580078125,0.1754913330078125
1782845799368182800,1.215182861328125,-0.9565582275390625,-0.117279052734375,0.1751708984375
1782845799378187800,1.225187744140625,-0.9640350341796875,-0.1143951416015625,0.1783294677734375
1782845799388192800,1.23519287109375,-0.9673004150390625,-0.1131591796875,0.17626953125
1782845799398198000,1.245197998046875,-0.9725189208984375,-0.1150360107421875,0.175323486328125
1782845799408203000,1.255203125,-0.97454833984375,-0.1175384521484375,0.174285888671875
1782845799418208000,1.2652080078125,-0.9744110107421875,-0.1192169189453125,0.1769561767578125
1782845799428213000,1.275212890625,-0.9712066650390625,-0.12054443359375,0.1784820556640625
1782845799438218000,1.285218017578125,-0.9680633544921875,-0.1197662353515625,0.1776123046875
1782845799448223000,1.295222900390625,-0.96630859375,-0.119110107421875,0.176666259765625
1782845799458228000,1.30522802734375,-0.9674072265625,-0.1197052001953125,0.1756591796875
1782845799468233000,1.31523291015625,-0.96990966796875,-0.117919921875,0.1710205078125
1782845799478238000,1.325238037109375,-0.97601318359375,-0.11444091796875,0.1685791015625
1782845799488243000,1.335242919921875,-0.98138427734375,-0.1152191162109375,0.169036865234375
1782845799498248000,1.345248046875,-0.985137939453125,-0.1150360107421875,0.168853759765625
1782845799508253000,1.3552529296875,-0.984527587890625,-0.1165313720703125,0.164337158203125
1782845799518258700,1.3652587890625,-0.9792327880859375,-0.116607666015625,0.1659088134765625
1782845799528263700,1.375263671875,-0.9723663330078125,-0.1154632568359375,0.1674957275390625
1782845799538269000,1.38526904296875,-0.969482421875,-0.116790771484375,0.16986083984375
1782845799548274000,1.39527392578125,-0.9681854248046875,-0.1187286376953125,0.175048828125
1782845799558279000,1.40527880859375,-0.965850830078125,-0.119873046875,0.178070068359375
1782845799568284000,1.415283935546875,-0.967010498046875,-0.12213134765625,0.1789093017578125
1782845799578289000,1.425288818359375,-0.9689483642578125,-0.1190338134765625,0.175811767578125
1782845799588294000,1.4352939453125,-0.9686126708984375,-0.1171417236328125,0.1752471923828125
1782845799598299000,1.445298828125,-0.96929931640625,-0.1151885986328125,0.176422119140625
1782845799608303900,1.455303955078125,-0.9701995849609375,-0.1198883056640625,0.177001953125
1782845799618308900,1.465308837890625,-0.9683074951171875,-0.122039794921875,0.178863525390625
1782845799628313900,1.47531396484375,-0.9682159423828125,-0.122344970703125,0.1790771484375
1782845799638318800,1.48531884765625,-0.9673004150390625,-0.1206817626953125,0.177337646484375
1782845799648323800,1.49532373046875,-0.9665985107421875,-0.1192474365234375,0.178131103515625
1782845799658328800,1.505328857421875,-0.9683837890625,-0.11871337890625,0.1775054931640625
1782845799668333800,1.515333740234375,-0.971435546875,-0.119964599609375,0.1762542724609375
1782845799678338800,1.5253388671875,-0.971954345703125,-0.1204376220703125,0.1786346435546875
1782845799688343800,1.53534375,-0.9693450927734375,-0.1214447021484375,0.1790771484375
1782845799698350000,1.54535009765625,-0.9657440185546875,-0.1245574951171875,0.1765594482421875
1782845799708355000,1.55535498046875,-0.9623565673828125,-0.1240234375,0.172882080078125
1782845799718360000,1.565360107421875,-0.9606170654296875,-0.1233367919921875,0.1720733642578125
1782845799728365000,1.575364990234375,-0.960205078125,-0.123504638671875,0.1727294921875
1782845799738370000,1.5853701171875,-0.9579315185546875,-0.1234893798828125,0.174041748046875
1782845799748375000,1.595375,-0.9585113525390625,-0.12371826171875,0.1749267578125
1782845799758380000,1.605380126953125,-0.9642181396484375,-0.1240234375,0.178924560546875
1782845799768385000,1.615385009765625,-0.971893310546875,-0.1240386962890625,0.1831817626953125
1782845799778390000,1.62539013671875,-0.9734344482421875,-0.125579833984375,0.1843414306640625
1782845799788395000,1.63539501953125,-0.973358154296875,-0.125946044921875,0.181884765625
1782845799798400000,1.64539990234375,-0.9703521728515625,-0.124114990234375,0.181060791015625
1782845799808405000,1.655405029296875,-0.9654541015625,-0.1224517822265625,0.177276611328125
1782845799818410000,1.665409912109375,-0.960418701171875,-0.1276702880859375,0.176116943359375
1782845799828415000,1.6754150390625,-0.9578704833984375,-0.13165283203125,0.178253173828125
1782845799838420000,1.685419921875,-0.9577178955078125,-0.131195068359375,0.1781463623046875
1782845799848425000,1.695425048828125,-0.9593505859375,-0.130523681640625,0.177337646484375
1782845799858430000,1.705429931640625,-0.966094970703125,-0.130096435546875,0.176849365234375
1782845799868436000,1.71543603515625,-0.96826171875,-0.1275787353515625,0.1750030517578125
1782845799878441000,1.72544091796875,-0.97088623046875,-0.126556396484375,0.1728973388671875
1782845799888446000,1.735446044921875,-0.9710845947265625,-0.1270599365234375,0.1724853515625
1782845799898451000,1.745450927734375,-0.97308349609375,-0.124969482421875,0.170166015625
1782845799908456000,1.7554560546875,-0.9681854248046875,-0.1260528564453125,0.1681976318359375
1782845799918461000,1.7654609375,-0.967132568359375,-0.1255035400390625,0.1694488525390625
1782845799928466000,1.7754658203125,-0.961669921875,-0.1313018798828125,0.1723480224609375
1782845799938471000,1.785470947265625,-0.959075927734375,-0.133880615234375,0.1769256591796875
1782845799948476000,1.795475830078125,-0.95880126953125,-0.1317138671875,0.1789398193359375
1782845799958481000,1.80548095703125,-0.9570159912109375,-0.1304473876953125,0.178253173828125
1782845799968486000,1.81548583984375,-0.95892333984375,-0.127655029296875,0.1785125732421875
1782845799978491000,1.825490966796875,-0.9650726318359375,-0.1270294189453125,0.1754913330078125
1782845799988496000,1.835495849609375,-0.969482421875,-0.1257171630859375,0.173187255859375
1782845799998500900,1.8455009765625,-0.9725189208984375,-0.1267547607421875,0.1733856201171875
1782845800008505900,1.855505859375,-0.97589111328125,-0.127349853515625,0.174285888671875
1782845800018510800,1.8655107421875,-0.9786529541015625,-0.126312255859375,0.1739654541015625
1782845800028515800,1.875515869140625,-0.97772216796875,-0.126251220703125,0.1739654541015625
1782845800038520800,1.885520751953125,-0.9781951904296875,-0.1274871826171875,0.172393798828125
1782845800048526800,1.89552685546875,-0.9798583984375,-0.12481689453125,0.175537109375
1782845800058531800,1.90553173828125,-0.97332763671875,-0.124420166015625,0.177398681640625
1782845800068536800,1.915536865234375,-0.968231201171875,-0.128509521484375,0.176544189453125
1782845800078541800,1.925541748046875,-0.964813232421875,-0.12933349609375,0.17327880859375
1782845800088546800,1.935546875,-0.964691162109375,-0.1284637451171875,0.169647216796875
1782845800098551800,1.9455517578125,-0.96246337890625,-0.1266326904296875,0.1687469482421875
1782845800108556800,1.955556884765625,-0.959716796875,-0.12457275390625,0.1682891845703125
1782845800118561800,1.965561767578125,-0.9621124267578125,-0.1217193603515625,0.168121337890625
1782845800128566800,1.97556689453125,-0.964447021484375,-0.12115478515625,0.16888427734375
1782845800138571800,1.98557177734375,-0.966888427734375,-0.1219024658203125,0.1709136962890625
1782845800148576800,1.99557666015625,-0.9630584716796875,-0.12213134765625,0.17523193359375
1782845800158581800,2.005581787109375,-0.9579010009765625,-0.1249542236328125,0.1771240234375
1782845800168586800,2.015586669921875,-0.955657958984375,-0.12652587890625,0.17315673828125
1782845800178591700,2.025591796875,-0.9552459716796875,-0.127685546875,0.17169189453125
1782845800188596700,2.0355966796875,-0.95733642578125,-0.1280364990234375,0.1748809814453125
1782845800198601700,2.045601806640625,-0.96295166015625,-0.1304168701171875,0.1774749755859375
1782845800208606700,2.055606689453125,-0.970672607421875,-0.129364013671875,0.17718505859375
1782845800218612700,2.06561279296875,-0.974456787109375,-0.124359130859375,0.1783599853515625
1782845800228617700,2.07561767578125,-0.9790191650390625,-0.1197662353515625,0.176544189453125
1782845800238622700,2.085622802734375,-0.9784698486328125,-0.117706298828125,0.1742095947265625
1782845800248627700,2.095627685546875,-0.9763336181640625,-0.12078857421875,0.1754608154296875
1782845800258632700,2.1056328125,-0.972808837890625,-0.1214141845703125,0.173583984375
1782845800268637700,2.1156376953125,-0.96832275390625,-0.123687744140625,0.1761016845703125
1782845800278642700,2.125642578125,-0.9691009521484375,-0.12506103515625,0.1777801513671875
1782845800288647700,2.135647705078125,-0.967926025390625,-0.125885009765625,0.1779022216796875
1782845800298652700,2.145652587890625,-0.9664764404296875,-0.12750244140625,0.178436279296875
1782845800308657700,2.15565771484375,-0.965362548828125,-0.1273040771484375,0.1759185791015625
1782845800318662700,2.16566259765625,-0.9620819091796875,-0.1281585693359375,0.1730194091796875
1782845800328667600,2.175667724609375,-0.9604034423828125,-0.126678466796875,0.170928955078125
1782845800338672600,2.185672607421875,-0.9618072509765625,-0.1240081787109375,0.1699981689453125
1782845800348677600,2.195677734375,-0.9642181396484375,-0.122833251953125,0.1679840087890625
1782845800358682600,2.2056826171875,-0.97021484375,-0.12567138671875,0.17108154296875
1782845800368687600,2.2156875,-0.973876953125,-0.1268157958984375,0.1741485595703125
1782845800378692600,2.225692626953125,-0.97503662109375,-0.128265380859375,0.17584228515625
1782845800388697600,2.235697509765625,-0.976287841796875,-0.1273345947265625,0.174591064453125
1782845800398703900,2.245703857421875,-0.9732513427734375,-0.1255950927734375,0.1732025146484375
1782845800408708900,2.255708984375,-0.9709930419921875,-0.1243438720703125,0.1734771728515625
1782845800418713900,2.2657138671875,-0.9704742431640625,-0.1224822998046875,0.170501708984375
1782845800428718800,2.27571875,-0.9691162109375,-0.1207122802734375,0.1691436767578125
1782845800438723800,2.285723876953125,-0.967559814453125,-0.121551513671875,0.16937255859375
1782845800448728800,2.295728759765625,-0.969085693359375,-0.12127685546875,0.167938232421875
1782845800458733800,2.30573388671875,-0.9734954833984375,-0.1220245361328125,0.169525146484375
1782845800468738800,2.31573876953125,-0.9758148193359375,-0.122802734375,0.169647216796875
1782845800478743800,2.325743896484375,-0.9754486083984375,-0.122772216796875,0.1716766357421875
1782845800488748800,2.335748779296875,-0.9727325439453125,-0.1229705810546875,0.175628662109375
1782845800498753800,2.34575390625,-0.96856689453125,-0.122772216796875,0.177001953125
1782845800508758800,2.3557587890625,-0.964752197265625,-0.1248321533203125,0.17376708984375
1782845800518763800,2.365763671875,-0.9592437744140625,-0.1264801025390625,0.17486572265625
1782845800528768800,2.375768798828125,-0.9593048095703125,-0.1272735595703125,0.176666259765625
1782845800538773800,2.385773681640625,-0.9625091552734375,-0.1254119873046875,0.1737213134765625
1782845800548778800,2.39577880859375,-0.965545654296875,-0.1211395263671875,0.1717376708984375
1782845800558783700,2.40578369140625,-0.968597412109375,-0.1203155517578125,0.1700286865234375
1782845800568788700,2.415788818359375,-0.9725189208984375,-0.11907958984375,0.1691131591796875
1782845800578794800,2.425794677734375,-0.975677490234375,-0.1153106689453125,0.1691436767578125
1782845800588799700,2.4357998046875,-0.9740753173828125,-0.1155242919921875,0.169281005859375
1782845800598804700,2.4458046875,-0.970977783203125,-0.1195526123046875,0.1719818115234375
1782845800608809700,2.455809814453125,-0.967559814453125,-0.1217193603515625,0.1716461181640625
1782845800618814700,2.465814697265625,-0.9680328369140625,-0.123748779296875,0.1720428466796875
1782845800628819700,2.47581982421875,-0.970947265625,-0.1251373291015625,0.170867919921875
1782845800638824700,2.48582470703125,-0.9749603271484375,-0.1249237060546875,0.17340087890625
1782845800648829700,2.49582958984375,-0.9796905517578125,-0.1221160888671875,0.1741790771484375
1782845800658834700,2.505834716796875,-0.98040771484375,-0.12164306640625,0.1778717041015625
1782845800668839700,2.515839599609375,-0.9801177978515625,-0.12261962890625,0.1749420166015625
1782845800678844700,2.5258447265625,-0.9747161865234375,-0.1249237060546875,0.1747589111328125
1782845800688849700,2.535849609375,-0.9643402099609375,-0.1240997314453125,0.1757049560546875
1782845800698854700,2.545854736328125,-0.9583587646484375,-0.1259307861328125,0.1749420166015625
1782845800708859600,2.555859619140625,-0.9544525146484375,-0.126617431640625,0.17486572265625
1782845800718864600,2.56586474609375,-0.954193115234375,-0.1254730224609375,0.1728973388671875
1782845800728869600,2.57586962890625,-0.9611663818359375,-0.122894287109375,0.169158935546875
1782845800738874600,2.58587451171875,-0.9623260498046875,-0.1195831298828125,0.169342041015625
1782845800748879600,2.595879638671875,-0.9632720947265625,-0.11846923828125,0.1704254150390625
1782845800758886000,2.605885986328125,-0.9643096923828125,-0.117706298828125,0.17193603515625
1782845800768891000,2.615890869140625,-0.9654693603515625,-0.1199798583984375,0.17041015625
1782845800778896000,2.625895751953125,-0.9668426513671875,-0.121124267578125,0.17352294921875
1782845800788900900,2.63590087890625,-0.9673614501953125,-0.12213134765625,0.1770782470703125
1782845800798905900,2.64590576171875,-0.9700469970703125,-0.12640380859375,0.1775665283203125
1782845800808910800,2.655910888671875,-0.972900390625,-0.1234283447265625,0.179840087890625
1782845800818915800,2.665915771484375,-0.97564697265625,-0.1214752197265625,0.17742919921875
1782845800828920800,2.6759208984375,-0.97613525390625,-0.1210174560546875,0.177459716796875
1782845800838925800,2.68592578125,-0.9729461669921875,-0.121002197265625,0.174652099609375
1782845800848930800,2.695930908203125,-0.971771240234375,-0.1202239990234375,0.1727752685546875
1782845800858935800,2.705935791015625,-0.9701080322265625,-0.1194610595703125,0.1741485595703125
1782845800868940800,2.71594091796875,-0.969879150390625,-0.121246337890625,0.17510986328125
1782845800878945800,2.72594580078125,-0.9701385498046875,-0.12091064453125,0.1749420166015625
1782845800888950800,2.73595068359375,-0.9675140380859375,-0.123016357421875,0.1754608154296875
1782845800898955800,2.745955810546875,-0.9669952392578125,-0.1243743896484375,0.1754302978515625
1782845800908960800,2.755960693359375,-0.96466064453125,-0.1253204345703125,0.1763458251953125
1782845800918965800,2.7659658203125,-0.9657745361328125,-0.1252288818359375,0.1736602783203125
1782845800928970800,2.775970703125,-0.9671783447265625,-0.123291015625,0.1728057861328125
1782845800938975700,2.785975830078125,-0.966217041015625,-0.1249847412109375,0.1732025146484375
1782845800948981800,2.795981689453125,-0.963348388671875,-0.1261138916015625,0.174072265625
1782845800958986800,2.80598681640625,-0.962860107421875,-0.1248931884765625,0.171539306640625
1782845800968991700,2.81599169921875,-0.961334228515625,-0.121429443359375,0.168914794921875
1782845800978996700,2.825996826171875,-0.961578369140625,-0.123443603515625,0.167236328125
1782845800989001700,2.836001708984375,-0.961700439453125,-0.123382568359375,0.1675262451171875
1782845800999006700,2.8460068359375,-0.9639434814453125,-0.1208953857421875,0.1701507568359375
1782845801009011700,2.85601171875,-0.9694061279296875,-0.1230316162109375,0.1715850830078125
1782845801019016700,2.8660166015625,-0.9747314453125,-0.1237945556640625,0.1720428466796875
1782845801029021700,2.876021728515625,-0.9775543212890625,-0.1233978271484375,0.1729736328125
1782845801039026700,2.886026611328125,-0.9824371337890625,-0.12152099609375,0.172271728515625
1782845801049031700,2.89603173828125,-0.9808502197265625,-0.121368408203125,0.1722564697265625
1782845801059036700,2.90603662109375,-0.980926513671875,-0.1233062744140625,0.17449951171875
1782845801069041700,2.916041748046875,-0.9790496826171875,-0.12518310546875,0.1750640869140625
1782845801079046700,2.926046630859375,-0.9756317138671875,-0.1254730224609375,0.176971435546875
1782845801089051600,2.9360517578125,-0.969085693359375,-0.125823974609375,0.178558349609375
1782845801099056600,2.946056640625,-0.96820068359375,-0.12811279296875,0.1783599853515625
1782845801109061400,2.956061279296875,-0.9644927978515625,-0.1252288818359375,0.1767578125
1782845801119066400,2.96606640625,-0.9621124267578125,-0.1231536865234375,0.173095703125
1782845801129072400,2.976072265625,-0.962493896484375,-0.125213623046875,0.17120361328125
1782845801139077400,2.986077392578125,-0.9593963623046875,-0.123199462890625,0.1708221435546875
1782845801149082400,2.996082275390625,-0.9636077880859375,-0.122222900390625,0.16766357421875
1782845801159087400,3.00608740234375,-0.9671783447265625,-0.1197967529296875,0.1666107177734375
1782845801169092400,3.01609228515625,-0.9681854248046875,-0.117919921875,0.1687774658203125
1782845801179097600,3.02609765625,-0.969329833984375,-0.11846923828125,0.16607666015625
1782845801189102600,3.0361025390625,-0.9716644287109375,-0.1206512451171875,0.1650238037109375
1782845801199107600,3.046107666015625,-0.9700164794921875,-0.1223297119140625,0.1670684814453125
1782845801209112600,3.056112548828125,-0.9677734375,-0.1253509521484375,0.1728363037109375
1782845801219117600,3.06611767578125,-0.964691162109375,-0.1269989013671875,0.17803955078125
1782845801229122600,3.07612255859375,-0.9649200439453125,-0.1265716552734375,0.1792755126953125
1782845801239127600,3.08612744140625,-0.9636688232421875,-0.12933349609375,0.1804046630859375
1782845801249132500,3.096132568359375,-0.9644927978515625,-0.1298675537109375,0.1805877685546875
1782845801259137500,3.106137451171875,-0.9647979736328125,-0.1285247802734375,0.1780242919921875
1782845801269142500,3.116142578125,-0.9718017578125,-0.124359130859375,0.171905517578125
1782845801279147500,3.1261474609375,-0.9739227294921875,-0.12237548828125,0.170867919921875
1782845801289152500,3.136152587890625,-0.9748382568359375,-0.1207275390625,0.1709136962890625
1782845801299157500,3.146157470703125,-0.975616455078125,-0.1209564208984375,0.171234130859375
1782845801309163500,3.15616357421875,-0.9766387939453125,-0.12127685546875,0.1700286865234375
1782845801319168500,3.16616845703125,-0.9744873046875,-0.1239013671875,0.171234130859375
1782845801329173500,3.176173583984375,-0.9701080322265625,-0.1250762939453125,0.1746368408203125
1782845801339178500,3.186178466796875,-0.964263916015625,-0.12799072265625,0.176116943359375
1782845801349183500,3.19618359375,-0.960205078125,-0.1298370361328125,0.177825927734375
1782845801359188500,3.2061884765625,-0.9553985595703125,-0.130645751953125,0.1798553466796875
1782845801369193500,3.216193359375,-0.95086669921875,-0.128204345703125,0.1754913330078125
1782845801379198500,3.226198486328125,-0.9519195556640625,-0.1246795654296875,0.1759796142578125
1782845801389203500,3.236203369140625,-0.9561614990234375,-0.1242523193359375,0.172332763671875
1782845801399208400,3.24620849609375,-0.963165283203125,-0.1240386962890625,0.1745147705078125
1782845801409213400,3.25621337890625,-0.9726715087890625,-0.1222076416015625,0.1756134033203125
1782845801419218400,3.266218505859375,-0.980194091796875,-0.123504638671875,0.17877197265625
1782845801429223400,3.276223388671875,-0.98126220703125,-0.12420654296875,0.1797027587890625
1782845801439228400,3.286228515625,-0.9781494140625,-0.126129150390625,0.1794586181640625
1782845801449233400,3.2962333984375,-0.9721527099609375,-0.1270599365234375,0.17889404296875
1782845801459238700,3.30623876953125,-0.966888427734375,-0.12628173828125,0.1772613525390625
1782845801469243600,3.31624365234375,-0.9638671875,-0.1254730224609375,0.1745452880859375
1782845801479248600,3.32624853515625,-0.9643707275390625,-0.1260528564453125,0.17431640625
1782845801489254400,3.33625439453125,-0.9645843505859375,-0.1231689453125,0.1749420166015625
1782845801499259400,3.34625927734375,-0.967132568359375,-0.1227264404296875,0.1722564697265625
1782845801509264400,3.356264404296875,-0.9680633544921875,-0.1215057373046875,0.1707305908203125
1782845801519269400,3.366269287109375,-0.9734039306640625,-0.120330810546875,0.1669464111328125
1782845801529274400,3.3762744140625,-0.97235107421875,-0.121490478515625,0.1726531982421875
1782845801539279400,3.386279296875,-0.9689178466796875,-0.12677001953125,0.1750335693359375
1782845801549284400,3.396284423828125,-0.9646453857421875,-0.130279541015625,0.1753997802734375
1782845801559289300,3.406289306640625,-0.9625091552734375,-0.1305694580078125,0.175750732421875
1782845801569294300,3.41629443359375,-0.9611663818359375,-0.1302490234375,0.1762847900390625
1782845801579299300,3.42629931640625,-0.96331787109375,-0.1303863525390625,0.1746978759765625
1782845801589304300,3.43630419921875,-0.9667510986328125,-0.1277313232421875,0.17425537109375
1782845801599309600,3.4463095703125,-0.9700164794921875,-0.1244049072265625,0.169403076171875
1782845801609314600,3.456314453125,-0.9730987548828125,-0.1200714111328125,0.1683197021484375
1782845801619319600,3.466319580078125,-0.975677490234375,-0.1187286376953125,0.1663055419921875
1782845801629324500,3.476324462890625,-0.977020263671875,-0.11846923828125,0.1666717529296875
1782845801639329500,3.48632958984375,-0.97564697265625,-0.122314453125,0.171356201171875
1782845801649334500,3.49633447265625,-0.9737091064453125,-0.127227783203125,0.1748046875
1782845801659339500,3.506339599609375,-0.9704742431640625,-0.1316375732421875,0.1785430908203125
1782845801669344500,3.516344482421875,-0.9668731689453125,-0.131683349609375,0.1796417236328125
1782845801679350500,3.5263505859375,-0.96392822265625,-0.1298828125,0.17877197265625
1782845801689355500,3.53635546875,-0.95953369140625,-0.1285858154296875,0.175750732421875
1782845801699360500,3.546360595703125,-0.9585418701171875,-0.126434326171875,0.174652099609375
1782845801709365500,3.556365478515625,-0.9604034423828125,-0.125335693359375,0.1750946044921875
1782845801719370500,3.56637060546875,-0.9673614501953125,-0.12493896484375,0.1739959716796875
1782845801729375500,3.57637548828125,-0.975982666015625,-0.12384033203125,0.173431396484375
1782845801739380500,3.58638037109375,-0.979736328125,-0.1239013671875,0.1776275634765625
1782845801749385500,3.596385498046875,-0.978790283203125,-0.12762451171875,0.1803131103515625
1782845801759390700,3.606390625,-0.976593017578125,-0.127166748046875,0.177490234375
1782845801769395700,3.616395751953125,-0.9700775146484375,-0.126068115234375,0.174072265625
1782845801779400700,3.626400634765625,-0.9654388427734375,-0.1243896484375,0.1725311279296875
1782845801789405700,3.63640576171875,-0.95843505859375,-0.12451171875,0.1703033447265625
1782845801799410700,3.64641064453125,-0.956451416015625,-0.12451171875,0.168060302734375
1782845801809415700,3.656415771484375,-0.9569244384765625,-0.124542236328125,0.166961669921875
1782845801819420700,3.666420654296875,-0.9566192626953125,-0.1219024658203125,0.16510009765625
1782845801829425700,3.67642578125,-0.9604644775390625,-0.12237548828125,0.16754150390625
1782845801839430700,3.6864306640625,-0.9687042236328125,-0.1238555908203125,0.1678924560546875
1782845801849435600,3.696435546875,-0.9731292724609375,-0.1271820068359375,0.173828125
1782845801859440600,3.706440673828125,-0.9755859375,-0.1306304931640625,0.175018310546875
1782845801869445600,3.716445556640625,-0.97564697265625,-0.128570556640625,0.176971435546875
1782845801879451400,3.726451416015625,-0.9727325439453125,-0.1258392333984375,0.1763916015625
1782845801889456400,3.736456298828125,-0.966644287109375,-0.124176025390625,0.1726837158203125
1782845801899461600,3.746461669921875,-0.9636688232421875,-0.1225738525390625,0.167236328125
1782845801909466600,3.756466552734375,-0.9655303955078125,-0.1249847412109375,0.1670989990234375
1782845801919471600,3.7664716796875,-0.9707489013671875,-0.1248016357421875,0.172454833984375
1782845801929476600,3.7764765625,-0.97552490234375,-0.124664306640625,0.176605224609375
1782845801939481600,3.786481689453125,-0.9797821044921875,-0.12750244140625,0.18206787109375
1782845801949486600,3.796486572265625,-0.9800567626953125,-0.127685546875,0.1856231689453125
1782845801959491600,3.80649169921875,-0.9770660400390625,-0.12744140625,0.1836090087890625
1782845801969496600,3.81649658203125,-0.9730377197265625,-0.124908447265625,0.181671142578125
1782845801979501600,3.82650146484375,-0.96502685546875,-0.1245574951171875,0.17828369140625
1782845801989506600,3.836506591796875,-0.955078125,-0.1267242431640625,0.1715240478515625
1782845801999511600,3.846511474609375,-0.95123291015625,-0.1275482177734375,0.1700286865234375
1782845802009516500,3.8565166015625,-0.947601318359375,-0.126434326171875,0.16754150390625
1782845802019521500,3.866521484375,-0.9471588134765625,-0.1264801025390625,0.1669464111328125
1782845802029526500,3.876526611328125,-0.952178955078125,-0.12664794921875,0.1642608642578125
1782845802039531500,3.886531494140625,-0.9572296142578125,-0.1230926513671875,0.1616058349609375
1782845802049536500,3.89653662109375,-0.962188720703125,-0.122955322265625,0.161163330078125
1782845802059541500,3.90654150390625,-0.965667724609375,-0.1236572265625,0.1635894775390625
1782845802069547800,3.9165478515625,-0.969757080078125,-0.1257171630859375,0.162109375
1782845802079552800,3.926552734375,-0.9727325439453125,-0.127197265625,0.163604736328125
1782845802089557800,3.936557861328125,-0.9765625,-0.128692626953125,0.16644287109375
1782845802099562800,3.946562744140625,-0.97979736328125,-0.1284332275390625,0.1717987060546875
1782845802109568000,3.956568115234375,-0.9794464111328125,-0.129058837890625,0.1764678955078125
1782845802119573000,3.966572998046875,-0.978668212890625,-0.1287994384765625,0.1748199462890625
1782845802129578200,3.976578125,-0.9801788330078125,-0.1297760009765625,0.174468994140625
1782845802139583200,3.986583251953125,-0.9767913818359375,-0.1297760009765625,0.1778411865234375
1782845802149588200,3.996588134765625,-0.9762420654296875,-0.1302642822265625,0.18109130859375
1782845802159593200,4.00659326171875,-0.968597412109375,-0.1289520263671875,0.17510986328125
1782845802169598200,4.01659814453125,-0.9644317626953125,-0.125335693359375,0.1686553955078125
1782845802179603200,4.026603271484375,-0.9647216796875,-0.120086669921875,0.1612548828125
1782845802189608200,4.036608154296875,-0.9647674560546875,-0.119476318359375,0.1602325439453125
1782845802199613200,4.04661328125,-0.96502685546875,-0.11895751953125,0.159698486328125
1782845802209618200,4.0566181640625,-0.9664306640625,-0.1189727783203125,0.1638641357421875
1782845802219623200,4.066623046875,-0.9677581787109375,-0.1203460693359375,0.1658172607421875
1782845802229628200,4.076628173828125,-0.9701385498046875,-0.124176025390625,0.1703643798828125
1782845802239633200,4.086633056640625,-0.9694061279296875,-0.1270751953125,0.17620849609375
1782845802249638100,4.09663818359375,-0.969635009765625,-0.1286163330078125,0.1766815185546875
1782845802259643100,4.10664306640625,-0.96856689453125,-0.1289215087890625,0.17559814453125
1782845802269649200,4.116649169921875,-0.96905517578125,-0.1286468505859375,0.175506591796875
1782845802279654100,4.126654052734375,-0.9747314453125,-0.1256866455078125,0.1727752685546875
1782845802289659100,4.1366591796875,-0.978363037109375,-0.1220550537109375,0.173095703125
1782845802299664100,4.1466640625,-0.974761962890625,-0.1228790283203125,0.1734161376953125
1782845802309669000,4.156669189453125,-0.9774627685546875,-0.12420654296875,0.170867919921875
1782845802319674000,4.166674072265625,-0.9766845703125,-0.1220245361328125,0.169189453125
1782845802329679000,4.17667919921875,-0.97442626953125,-0.1239166259765625,0.168487548828125
1782845802339684000,4.18668408203125,-0.970489501953125,-0.1247406005859375,0.1654052734375
1782845802349689000,4.196689208984375,-0.9633636474609375,-0.1235198974609375,0.1644134521484375
1782845802359694000,4.206694091796875,-0.956390380859375,-0.122283935546875,0.1655426025390625
1782845802369699000,4.216698974609375,-0.9559326171875,-0.1229400634765625,0.1652374267578125
1782845802379704000,4.2267041015625,-0.9563751220703125,-0.1222686767578125,0.1658477783203125
1782845802389709300,4.236709228515625,-0.960357666015625,-0.12420654296875,0.1684417724609375
1782845802399714300,4.24671435546875,-0.9661865234375,-0.127227783203125,0.1708984375
1782845802409719300,4.25671923828125,-0.968231201171875,-0.1284637451171875,0.173675537109375
1782845802419724300,4.266724365234375,-0.9695281982421875,-0.1295623779296875,0.175750732421875
1782845802429729300,4.276729248046875,-0.974151611328125,-0.1267547607421875,0.1754150390625
1782845802439734300,4.286734375,-0.9757843017578125,-0.120849609375,0.1761627197265625
1782845802449739300,4.2967392578125,-0.9766998291015625,-0.12261962890625,0.1762847900390625
1782845802459744300,4.306744140625,-0.9769439697265625,-0.125518798828125,0.1766815185546875
1782845802469749200,4.316749267578125,-0.9749603271484375,-0.127410888671875,0.174835205078125
1782845802479755300,4.32675537109375,-0.973876953125,-0.1257476806640625,0.170989990234375
1782845802489760300,4.33676025390625,-0.973602294921875,-0.1248016357421875,0.165557861328125
1782845802499765200,4.34676513671875,-0.97412109375,-0.123046875,0.162872314453125
1782845802509770200,4.356770263671875,-0.97125244140625,-0.122528076171875,0.1610260009765625
1782845802519775200,4.366775146484375,-0.9687347412109375,-0.12078857421875,0.1617431640625
1782845802529780200,4.3767802734375,-0.9676666259765625,-0.1222076416015625,0.1655426025390625
1782845802539785200,4.38678515625,-0.9634246826171875,-0.1236724853515625,0.1663360595703125
1782845802549790200,4.396790283203125,-0.9599761962890625,-0.12646484375,0.1696014404296875
1782845802559795200,4.406795166015625,-0.9554901123046875,-0.1291961669921875,0.1692352294921875
1782845802569800200,4.41680029296875,-0.956329345703125,-0.1295318603515625,0.1689605712890625
1782845802579805200,4.42680517578125,-0.9617156982421875,-0.125274658203125,0.1701812744140625
1782845802589810200,4.43681005859375,-0.966949462890625,-0.1212005615234375,0.1711273193359375
1782845802599815200,4.446815185546875,-0.97796630859375,-0.1206207275390625,0.1709747314453125
1782845802609820200,4.456820068359375,-0.979248046875,-0.1202545166015625,0.173004150390625
1782845802619825200,4.4668251953125,-0.9759674072265625,-0.12347412109375,0.1717071533203125
1782845802629830100,4.476830078125,-0.972137451171875,-0.127655029296875,0.17047119140625
1782845802639835100,4.486835205078125,-0.968414306640625,-0.126800537109375,0.170074462890625
1782845802649840000,4.496840087890625,-0.9674072265625,-0.1278839111328125,0.167633056640625
1782845802659845000,4.50684521484375,-0.96728515625,-0.1253204345703125,0.16619873046875
1782845802669850000,4.51685009765625,-0.9658203125,-0.12506103515625,0.16650390625
1782845802679856000,4.526856201171875,-0.9640960693359375,-0.1227264404296875,0.1648712158203125
1782845802689861000,4.536861083984375,-0.958709716796875,-0.1214447021484375,0.1636962890625
1782845802699866000,4.5468662109375,-0.960113525390625,-0.121429443359375,0.1626129150390625
1782845802709871000,4.55687109375,-0.96435546875,-0.12091064453125,0.1631927490234375
1782845802719876000,4.5668759765625,-0.9695281982421875,-0.1211395263671875,0.1651763916015625
1782845802729881000,4.576881103515625,-0.97210693359375,-0.12286376953125,0.1656494140625
1782845802739886000,4.586885986328125,-0.9731597900390625,-0.1212158203125,0.16558837890625
1782845802749891000,4.59689111328125,-0.9715118408203125,-0.1219635009765625,0.1662445068359375
1782845802759896000,4.60689599609375,-0.9683685302734375,-0.1212615966796875,0.16436767578125
1782845802769901000,4.616901123046875,-0.9641571044921875,-0.120208740234375,0.1634368896484375
1782845802779906000,4.626906005859375,-0.961761474609375,-0.1198577880859375,0.162445068359375
1782845802789911000,4.6369111328125,-0.960113525390625,-0.1187286376953125,0.16424560546875
1782845802799916000,4.646916015625,-0.958251953125,-0.118255615234375,0.16656494140625
1782845802809921000,4.656921142578125,-0.9615631103515625,-0.12042236328125,0.162872314453125
1782845802819926000,4.666926025390625,-0.9654541015625,-0.1180267333984375,0.1671600341796875
1782845802829931000,4.676930908203125,-0.9664459228515625,-0.1196441650390625,0.17352294921875
1782845802839936000,4.68693603515625,-0.968719482421875,-0.1232147216796875,0.1732025146484375
1782845802849941000,4.69694091796875,-0.9675750732421875,-0.1260986328125,0.17181396484375
1782845802859946000,4.706946044921875,-0.9647979736328125,-0.1278228759765625,0.1714324951171875
1782845802869951000,4.716950927734375,-0.96685791015625,-0.127838134765625,0.1710205078125
1782845802879956000,4.7269560546875,-0.9681243896484375,-0.12713623046875,0.165802001953125
1782845802889961000,4.7369609375,-0.9722900390625,-0.12396240234375,0.1611328125
1782845802899966000,4.746966064453125,-0.982147216796875,-0.1205596923828125,0.159576416015625
1782845802909972200,4.75697216796875,-0.981353759765625,-0.1177825927734375,0.1551971435546875
1782845802919977200,4.766977294921875,-0.9845123291015625,-0.120849609375,0.15521240234375
1782845802929982200,4.776982177734375,-0.988037109375,-0.121612548828125,0.15643310546875
1782845802939987200,4.7869873046875,-0.9841156005859375,-0.1239471435546875,0.1590118408203125
1782845802949992200,4.7969921875,-0.9818878173828125,-0.124267578125,0.1612091064453125
1782845802959997200,4.8069970703125,-0.9775543212890625,-0.12530517578125,0.1617431640625
1782845802970002200,4.817002197265625,-0.9732208251953125,-0.1260528564453125,0.1630096435546875
1782845802980007200,4.827007080078125,-0.9696502685546875,-0.1242523193359375,0.167510986328125
1782845802990012200,4.83701220703125,-0.9701385498046875,-0.1232147216796875,0.16766357421875
1782845803000017200,4.84701708984375,-0.9704437255859375,-0.1212615966796875,0.165130615234375
1782845803010022100,4.857022216796875,-0.9706268310546875,-0.1202392578125,0.165069580078125
1782845803020027100,4.867027099609375,-0.9717864990234375,-0.1189422607421875,0.1656951904296875
1782845803030032100,4.8770322265625,-0.9742889404296875,-0.121551513671875,0.1684417724609375
1782845803040037000,4.887037109375,-0.975433349609375,-0.122039794921875,0.1731414794921875
1782845803050042000,4.8970419921875,-0.9727325439453125,-0.119842529296875,0.17694091796875
1782845803060047000,4.907047119140625,-0.9707794189453125,-0.1199493408203125,0.174774169921875
1782845803070052000,4.917052001953125,-0.9655609130859375,-0.121673583984375,0.1724700927734375
1782845803080057000,4.92705712890625,-0.9633941650390625,-0.1217041015625,0.16949462890625
1782845803090062000,4.93706201171875,-0.9619140625,-0.1198272705078125,0.1678924560546875
1782845803100067000,4.947067138671875,-0.9628753662109375,-0.12200927734375,0.16680908203125
1782845803110072000,4.957072021484375,-0.9647216796875,-0.1230621337890625,0.167266845703125
1782845803120077000,4.9670771484375,-0.9634246826171875,-0.1221466064453125,0.164031982421875
1782845803130083300,4.977083251953125,-0.96795654296875,-0.1212921142578125,0.1596527099609375
1782845803140088300,4.98708837890625,-0.9716644287109375,-0.1204833984375,0.1587677001953125
1782845803150093300,4.99709326171875,-0.9735565185546875,-0.1199493408203125,0.160491943359375
1782845803160098300,5.007098388671875,-0.97119140625,-0.123138427734375,0.1593017578125
1782845803170103300,5.017103271484375,-0.9759521484375,-0.1226806640625,0.1618499755859375
1782845803180108300,5.0271083984375,-0.9750823974609375,-0.1211090087890625,0.1611480712890625
1782845803190113300,5.03711328125,-0.976837158203125,-0.1210784912109375,0.1579742431640625
1782845803200118300,5.0471181640625,-0.9767303466796875,-0.1234588623046875,0.1557769775390625
1782845803210123300,5.057123291015625,-0.9738006591796875,-0.123748779296875,0.1527862548828125
1782845803220128300,5.067128173828125,-0.9700469970703125,-0.1256256103515625,0.1526641845703125
1782845803230133200,5.07713330078125,-0.970306396484375,-0.1258544921875,0.1515960693359375
1782845803240138200,5.08713818359375,-0.9724884033203125,-0.1244964599609375,0.1528472900390625
1782845803250143200,5.097143310546875,-0.9755859375,-0.1267852783203125,0.154327392578125
1782845803260148200,5.107148193359375,-0.977264404296875,-0.127655029296875,0.1567535400390625
1782845803270153200,5.1171533203125,-0.9818267822265625,-0.1280670166015625,0.157928466796875
1782845803280158200,5.127158203125,-0.984100341796875,-0.12701416015625,0.158782958984375
1782845803290163200,5.1371630859375,-0.984832763671875,-0.12445068359375,0.1603851318359375
1782845803300168200,5.147168212890625,-0.9823760986328125,-0.1255645751953125,0.158416748046875
1782845803310173200,5.157173095703125,-0.974334716796875,-0.1265716552734375,0.15936279296875
1782845803320178200,5.16717822265625,-0.9669952392578125,-0.12774658203125,0.1627960205078125
1782845803330183200,5.17718310546875,-0.9630279541015625,-0.127227783203125,0.16412353515625
1782845803340188200,5.187188232421875,-0.9668121337890625,-0.1233673095703125,0.1644287109375
1782845803350193200,5.197193115234375,-0.968353271484375,-0.11920166015625,0.1651458740234375
1782845803360199200,5.20719921875,-0.9667510986328125,-0.11968994140625,0.1714630126953125
1782845803370204200,5.2172041015625,-0.9671173095703125,-0.120452880859375,0.172119140625
1782845803380209200,5.227209228515625,-0.9642486572265625,-0.119873046875,0.169677734375
1782845803390214100,5.237214111328125,-0.96209716796875,-0.11846923828125,0.1699066162109375
1782845803400219100,5.24721923828125,-0.9622802734375,-0.11895751953125,0.1722869873046875
1782845803410224000,5.25722412109375,-0.9617919921875,-0.1200714111328125,0.17303466796875
1782845803420229000,5.26722900390625,-0.9600372314453125,-0.123870849609375,0.1765594482421875
1782845803430234000,5.277234130859375,-0.957977294921875,-0.1253662109375,0.182159423828125
1782845803440239000,5.287239013671875,-0.9563751220703125,-0.1283721923828125,0.18060302734375
1782845803450244000,5.297244140625,-0.954437255859375,-0.1255035400390625,0.1826019287109375
1782845803460249000,5.3072490234375,-0.9556427001953125,-0.123687744140625,0.1770782470703125
1782845803470254000,5.317254150390625,-0.9576873779296875,-0.1212158203125,0.1738433837890625
1782845803480259000,5.327259033203125,-0.95953369140625,-0.11932373046875,0.1718292236328125
1782845803490264000,5.33726416015625,-0.9646148681640625,-0.12261962890625,0.168914794921875
1782845803500269000,5.34726904296875,-0.96209716796875,-0.1262664794921875,0.169403076171875
1782845803510274000,5.357274169921875,-0.9608001708984375,-0.128631591796875,0.1704559326171875
1782845803520279300,5.367279296875,-0.9586639404296875,-0.12799072265625,0.1650390625
1782845803530284300,5.3772841796875,-0.96160888671875,-0.1271820068359375,0.1653900146484375
1782845803540289300,5.387289306640625,-0.9648895263671875,-0.1270751953125,0.1634979248046875
1782845803550294300,5.397294189453125,-0.9723663330078125,-0.1288299560546875,0.1627044677734375
1782845803560299300,5.40729931640625,-0.9813232421875,-0.128509521484375,0.1612548828125
1782845803570304300,5.41730419921875,-0.9853057861328125,-0.128662109375,0.1595458984375
1782845803580309200,5.427309326171875,-0.9799652099609375,-0.1286773681640625,0.158447265625
1782845803590314200,5.437314208984375,-0.9753875732421875,-0.128448486328125,0.158477783203125
1782845803600320300,5.4473203125,-0.97369384765625,-0.129241943359375,0.1576995849609375
1782845803610325200,5.4573251953125,-0.9742431640625,-0.128387451171875,0.159698486328125
1782845803620330200,5.467330322265625,-0.9765472412109375,-0.1303558349609375,0.1633148193359375
1782845803630335200,5.477335205078125,-0.978424072265625,-0.130645751953125,0.1619720458984375
1782845803640340200,5.48734033203125,-0.9785614013671875,-0.12725830078125,0.1613006591796875
1782845803650345200,5.49734521484375,-0.97515869140625,-0.1266021728515625,0.1617584228515625
1782845803660350200,5.50735009765625,-0.9711151123046875,-0.1245880126953125,0.161834716796875
1782845803670355200,5.517355224609375,-0.9637603759765625,-0.1262054443359375,0.1613006591796875
1782845803680360200,5.527360107421875,-0.959381103515625,-0.1242828369140625,0.161041259765625
1782845803690365400,5.537365478515625,-0.9585723876953125,-0.121368408203125,0.158203125
1782845803700370400,5.547370361328125,-0.957275390625,-0.1217803955078125,0.1595001220703125
1782845803710375400,5.55737548828125,-0.9570159912109375,-0.1230621337890625,0.1577606201171875
1782845803720380400,5.56738037109375,-0.9582366943359375,-0.125274658203125,0.1614837646484375
1782845803730385400,5.577385498046875,-0.9635009765625,-0.127655029296875,0.1618499755859375
1782845803740390400,5.587390380859375,-0.966888427734375,-0.1278839111328125,0.1642913818359375
1782845803750395400,5.5973955078125,-0.969696044921875,-0.12713623046875,0.168182373046875
1782845803760400400,5.607400390625,-0.9697418212890625,-0.1291046142578125,0.1692352294921875
1782845803770405400,5.6174052734375,-0.9723052978515625,-0.12872314453125,0.1711578369140625
1782845803780410400,5.627410400390625,-0.974151611328125,-0.12744140625,0.1694488525390625
1782845803790415400,5.637415283203125,-0.9759521484375,-0.1284332275390625,0.1653900146484375
1782845803800420400,5.64742041015625,-0.980621337890625,-0.1280670166015625,0.1619110107421875
1782845803810425300,5.65742529296875,-0.9829254150390625,-0.123291015625,0.161773681640625
1782845803820430300,5.667430419921875,-0.9824676513671875,-0.1196441650390625,0.1601104736328125
1782845803830435300,5.677435302734375,-0.980987548828125,-0.12176513671875,0.15966796875
1782845803840441300,5.68744140625,-0.9750213623046875,-0.1219329833984375,0.1610565185546875
1782845803850446300,5.6974462890625,-0.96661376953125,-0.1233062744140625,0.1635894775390625
1782845803860451300,5.707451416015625,-0.961669921875,-0.1263580322265625,0.161376953125
1782845803870456300,5.717456298828125,-0.9622650146484375,-0.1251373291015625,0.1622772216796875
1782845803880461300,5.72746142578125,-0.9669342041015625,-0.1242828369140625,0.162994384765625
1782845803890466300,5.73746630859375,-0.9708099365234375,-0.1261444091796875,0.1651458740234375
1782845803900471300,5.74747119140625,-0.9737548828125,-0.1287994384765625,0.1667938232421875
1782845803910476300,5.757476318359375,-0.975311279296875,-0.1265869140625,0.1674346923828125
1782845803920481300,5.767481201171875,-0.9768829345703125,-0.123626708984375,0.1633758544921875
1782845803930486300,5.777486328125,-0.97393798828125,-0.123748779296875,0.162200927734375
1782845803940491300,5.7874912109375,-0.9701690673828125,-0.1224212646484375,0.1608734130859375
1782845803950496300,5.797496337890625,-0.9683837890625,-0.1257476806640625,0.1593475341796875
1782845803960501200,5.807501220703125,-0.96484375,-0.1255340576171875,0.1569671630859375
1782845803970506200,5.81750634765625,-0.9617462158203125,-0.123992919921875,0.157928466796875
1782845803980511200,5.82751123046875,-0.9585723876953125,-0.126953125,0.15997314453125
1782845803990516200,5.83751611328125,-0.9606781005859375,-0.127197265625,0.1588592529296875
1782845804000521200,5.847521240234375,-0.96380615234375,-0.122650146484375,0.15911865234375
1782845804010526200,5.857526123046875,-0.9688568115234375,-0.1221771240234375,0.1611480712890625
1782845804020531200,5.86753125,-0.97369384765625,-0.1232147216796875,0.16204833984375
1782845804030536200,5.8775361328125,-0.9771881103515625,-0.1227569580078125,0.1644287109375
1782845804040541200,5.887541259765625,-0.9755859375,-0.1246337890625,0.1649169921875
1782845804050546200,5.897546142578125,-0.9775238037109375,-0.1250762939453125,0.1625213623046875
1782845804060551200,5.90755126953125,-0.9756927490234375,-0.1235504150390625,0.1601104736328125
1782845804070556200,5.91755615234375,-0.9761199951171875,-0.122314453125,0.1611480712890625
1782845804080561200,5.92756103515625,-0.9736480712890625,-0.1221771240234375,0.1618194580078125
1782845804090567400,5.9375673828125,-0.9681243896484375,-0.1217193603515625,0.1611175537109375
1782845804100572400,5.947572509765625,-0.96514892578125,-0.12359619140625,0.16107177734375
1782845804110577000,5.957576904296875,-0.958221435546875,-0.1237030029296875,0.1594390869140625
1782845804120582000,5.967581787109375,-0.9579010009765625,-0.122955322265625,0.159942626953125
1782845804130587000,5.9775869140625,-0.96002197265625,-0.1251068115234375,0.1586761474609375
1782845804140591900,5.987591796875,-0.9666748046875,-0.122802734375,0.1588287353515625
1782845804150596900,5.997596923828125,-0.9747467041015625,-0.12091064453125,0.163665771484375
1782845804160601900,6.007601806640625,-0.9805450439453125,-0.1200103759765625,0.166259765625
1782845804170606800,6.01760693359375,-0.982086181640625,-0.11883544921875,0.16851806640625
1782845804180611800,6.02761181640625,-0.981719970703125,-0.118560791015625,0.1663055419921875
1782845804190616800,6.037616943359375,-0.982452392578125,-0.1179962158203125,0.165252685546875
1782845804200621800,6.047621826171875,-0.9787445068359375,-0.1165924072265625,0.1590423583984375
1782845804210626800,6.057626708984375,-0.9767913818359375,-0.116180419921875,0.1633453369140625
1782845804220631800,6.0676318359375,-0.97552490234375,-0.1178436279296875,0.164398193359375
1782845804230636800,6.07763671875,-0.973358154296875,-0.118804931640625,0.1641998291015625
1782845804240641800,6.087641845703125,-0.97247314453125,-0.1175537109375,0.1637420654296875
1782845804250646800,6.097646728515625,-0.9710693359375,-0.1157989501953125,0.1630859375
1782845804260651800,6.10765185546875,-0.9707794189453125,-0.1192474365234375,0.1628570556640625
1782845804270656800,6.11765673828125,-0.9701995849609375,-0.1206512451171875,0.1636810302734375
1782845804280661800,6.127661865234375,-0.9680023193359375,-0.1221771240234375,0.1651611328125
1782845804290666800,6.137666748046875,-0.9651031494140625,-0.122589111328125,0.16253662109375
1782845804300671700,6.147671630859375,-0.9626312255859375,-0.12237548828125,0.1607666015625
1782845804310676700,6.1576767578125,-0.96453857421875,-0.121429443359375,0.1610260009765625
1782845804320681700,6.167681640625,-0.9648895263671875,-0.12091064453125,0.162384033203125
1782845804330686700,6.177686767578125,-0.964385986328125,-0.1196746826171875,0.1582489013671875
1782845804340691700,6.187691650390625,-0.965087890625,-0.117584228515625,0.1552276611328125
1782845804350696700,6.19769677734375,-0.9691619873046875,-0.117095947265625,0.1506805419921875
1782845804360703000,6.207702880859375,-0.9747467041015625,-0.1173553466796875,0.1483612060546875
1782845804370708000,6.2177080078125,-0.97784423828125,-0.1203460693359375,0.1517333984375
1782845804380713000,6.227712890625,-0.97540283203125,-0.123199462890625,0.1579132080078125
1782845804390718000,6.237718017578125,-0.9738311767578125,-0.1247406005859375,0.1620025634765625
1782845804400723000,6.247722900390625,-0.973907470703125,-0.12591552734375,0.1596832275390625
1782845804410728000,6.25772802734375,-0.9778900146484375,-0.1244049072265625,0.1574859619140625
1782845804420733000,6.26773291015625,-0.979034423828125,-0.1226654052734375,0.159576416015625
1782845804430738000,6.277738037109375,-0.976776123046875,-0.1216583251953125,0.1581268310546875
1782845804440743000,6.287742919921875,-0.9768524169921875,-0.1200408935546875,0.1549072265625
1782845804450748000,6.297747802734375,-0.978057861328125,-0.11907958984375,0.1505889892578125
1782845804460753000,6.3077529296875,-0.975921630859375,-0.1175384521484375,0.149566650390625
1782845804470758000,6.3177578125,-0.97222900390625,-0.1209869384765625,0.1509857177734375
1782845804480763000,6.327762939453125,-0.97064208984375,-0.12384033203125,0.151641845703125
1782845804490768000,6.337767822265625,-0.9665374755859375,-0.12579345703125,0.156982421875
1782845804500772900,6.34777294921875,-0.9670257568359375,-0.126800537109375,0.16107177734375
1782845804510777900,6.35777783203125,-0.96832275390625,-0.12408447265625,0.159210205078125
1782845804520782800,6.367782958984375,-0.968658447265625,-0.12213134765625,0.1597137451171875
1782845804530787800,6.377787841796875,-0.9657440185546875,-0.123443603515625,0.16015625
1782845804540792800,6.387792724609375,-0.964447021484375,-0.124267578125,0.1591796875
1782845804550797800,6.3977978515625,-0.964874267578125,-0.1242523193359375,0.1571807861328125
1782845804560802800,6.407802734375,-0.9675445556640625,-0.1215057373046875,0.15606689453125
1782845804570807800,6.417807861328125,-0.970977783203125,-0.121551513671875,0.15643310546875
1782845804580813000,6.42781298828125,-0.97357177734375,-0.1234283447265625,0.15350341796875
1782845804590818000,6.437818115234375,-0.9727783203125,-0.12554931640625,0.15240478515625
1782845804600823000,6.447822998046875,-0.9748077392578125,-0.1239471435546875,0.149658203125
1782845804610828000,6.457828125,-0.973663330078125,-0.12579345703125,0.154144287109375
1782845804620833000,6.4678330078125,-0.9721221923828125,-0.126373291015625,0.156951904296875
1782845804630838800,6.4778388671875,-0.97320556640625,-0.125,0.1560821533203125
1782845804640843800,6.48784375,-0.97607421875,-0.12261962890625,0.154205322265625
1782845804650848800,6.497848876953125,-0.97857666015625,-0.123626708984375,0.15399169921875
1782845804660853800,6.507853759765625,-0.977081298828125,-0.123779296875,0.156005859375
1782845804670858800,6.517858642578125,-0.9735260009765625,-0.1244964599609375,0.1569061279296875
1782845804680863700,6.52786376953125,-0.973114013671875,-0.1237335205078125,0.157989501953125
1782845804690868700,6.53786865234375,-0.9728240966796875,-0.12347412109375,0.157562255859375
1782845804700873700,6.547873779296875,-0.975341796875,-0.124359130859375,0.159759521484375
1782845804710879000,6.55787890625,-0.9746551513671875,-0.125152587890625,0.1650390625
1782845804720884000,6.567884033203125,-0.9709320068359375,-0.1248931884765625,0.1637725830078125
1782845804730889000,6.577888916015625,-0.966278076171875,-0.1255035400390625,0.1594390869140625
1782845804740894000,6.58789404296875,-0.9609527587890625,-0.1254730224609375,0.15911865234375
1782845804750899000,6.59789892578125,-0.9560546875,-0.1262054443359375,0.1544036865234375
1782845804760904000,6.607904052734375,-0.9603118896484375,-0.12603759765625,0.1528778076171875
1782845804770909000,6.617908935546875,-0.96539306640625,-0.1262969970703125,0.1551513671875
1782845804780914000,6.627913818359375,-0.9707489013671875,-0.1276092529296875,0.157196044921875
1782845804790919000,6.6379189453125,-0.972259521484375,-0.1271209716796875,0.158416748046875
1782845804800924000,6.647923828125,-0.973236083984375,-0.1275177001953125,0.160430908203125
1782845804810929000,6.657928955078125,-0.9702911376953125,-0.1263275146484375,0.15814208984375
1782845804820934000,6.667933837890625,-0.966827392578125,-0.12750244140625,0.1601104736328125
1782845804830939000,6.67793896484375,-0.96661376953125,-0.128265380859375,0.1566619873046875
1782845804840943900,6.68794384765625,-0.9705657958984375,-0.12359619140625,0.15283203125
1782845804850948900,6.697948974609375,-0.973846435546875,-0.1181182861328125,0.148956298828125
1782845804860953900,6.707953857421875,-0.98095703125,-0.119384765625,0.1474761962890625
1782845804870958800,6.717958740234375,-0.9827728271484375,-0.11749267578125,0.1509857177734375
1782845804880963800,6.7279638671875,-0.9796600341796875,-0.1199493408203125,0.1544952392578125
1782845804890968800,6.73796875,-0.97406005859375,-0.1214141845703125,0.1588134765625
1782845804900973800,6.747973876953125,-0.966796875,-0.1214752197265625,0.1588134765625
1782845804910978800,6.757978759765625,-0.95880126953125,-0.1240386962890625,0.16015625
1782845804920985000,6.767985107421875,-0.9529571533203125,-0.124267578125,0.16094970703125
1782845804930990000,6.777989990234375,-0.953369140625,-0.1229705810546875,0.1585693359375
1782845804940995000,6.7879951171875,-0.9541168212890625,-0.123199462890625,0.1562957763671875
1782845804951000000,6.798,-0.95751953125,-0.1218719482421875,0.1519927978515625
1782845804961005000,6.808005126953125,-0.96630859375,-0.1198883056640625,0.149810791015625
1782845804971010000,6.818010009765625,-0.9724273681640625,-0.1216888427734375,0.1511077880859375
1782845804981015000,6.82801513671875,-0.97869873046875,-0.1212310791015625,0.15618896484375
1782845804991020000,6.83802001953125,-0.9846038818359375,-0.1219635009765625,0.1599884033203125
1782845805001025000,6.84802490234375,-0.986541748046875,-0.1253509521484375,0.1603851318359375
1782845805011030000,6.858030029296875,-0.9856414794921875,-0.1257171630859375,0.1602325439453125
1782845805021035000,6.868034912109375,-0.9811859130859375,-0.1279754638671875,0.1612396240234375
1782845805031040000,6.8780400390625,-0.97503662109375,-0.1277008056640625,0.1596832275390625
1782845805041045000,6.888044921875,-0.9660186767578125,-0.1258392333984375,0.160308837890625
1782845805051050000,6.898050048828125,-0.9613494873046875,-0.1238861083984375,0.157470703125
1782845805061055000,6.908054931640625,-0.9639892578125,-0.1219329833984375,0.15533447265625
1782845805071060000,6.91806005859375,-0.968658447265625,-0.1204071044921875,0.151214599609375
1782845805081065000,6.92806494140625,-0.9736175537109375,-0.11474609375,0.1540985107421875
1782845805091070000,6.938070068359375,-0.982086181640625,-0.1117401123046875,0.1576385498046875
1782845805101075000,6.948074951171875,-0.982330322265625,-0.1164093017578125,0.158050537109375
1782845805111080000,6.958079833984375,-0.9864654541015625,-0.1195220947265625,0.1637420654296875
1782845805121085000,6.9680849609375,-0.9827117919921875,-0.1188507080078125,0.17059326171875
1782845805131090000,6.97808984375,-0.9705047607421875,-0.12677001953125,0.168487548828125
1782845805141095000,6.988094970703125,-0.962860107421875,-0.1298675537109375,0.163177490234375
1782845805151100000,6.998099853515625,-0.952362060546875,-0.1297149658203125,0.1607513427734375
1782845805161105000,7.00810498046875,-0.94708251953125,-0.1274871826171875,0.1560516357421875
1782845805171110000,7.01810986328125,-0.950164794921875,-0.1262359619140625,0.1540679931640625
1782845805181115000,7.028114990234375,-0.9498748779296875,-0.12127685546875,0.1522216796875
1782845805191120000,7.038119873046875,-0.9554290771484375,-0.1189727783203125,0.14544677734375
1782845805201124900,7.048124755859375,-0.9640045166015625,-0.1165008544921875,0.1465301513671875
1782845805211129900,7.0581298828125,-0.9761505126953125,-0.11578369140625,0.148773193359375
1782845805221136100,7.06813623046875,-0.9863739013671875,-0.1182708740234375,0.154815673828125
1782845805231141000,7.07814111328125,-0.9873504638671875,-0.121337890625,0.161407470703125
1782845805241146000,7.08814599609375,-0.9839324951171875,-0.1260986328125,0.1651611328125
1782845805251151000,7.098151123046875,-0.9752960205078125,-0.131561279296875,0.1625823974609375
1782845805261156000,7.108156005859375,-0.9679107666015625,-0.131103515625,0.1624298095703125
1782845805271161000,7.1181611328125,-0.9678802490234375,-0.12774658203125,0.1602325439453125
1782845805281166000,7.128166015625,-0.969635009765625,-0.126495361328125,0.15740966796875
1782845805291171000,7.138171142578125,-0.9766387939453125,-0.1213836669921875,0.1544036865234375
1782845805301176000,7.148176025390625,-0.9814300537109375,-0.1181640625,0.1501617431640625
1782845805311181000,7.15818115234375,-0.9890594482421875,-0.115875244140625,0.149932861328125
1782845805321186000,7.16818603515625,-0.986236572265625,-0.1169586181640625,0.150604248046875
1782845805331191000,7.17819091796875,-0.978759765625,-0.121856689453125,0.155242919921875
1782845805341196000,7.188196044921875,-0.97265625,-0.1242828369140625,0.1593475341796875
1782845805351201000,7.198200927734375,-0.9655303955078125,-0.12359619140625,0.159759521484375
1782845805361206000,7.2082060546875,-0.9613037109375,-0.1243896484375,0.1569061279296875
1782845805371211000,7.2182109375,-0.9576416015625,-0.1248931884765625,0.153717041015625
1782845805381216000,7.228216064453125,-0.9580078125,-0.1245574951171875,0.151123046875
1782845805391221000,7.238220947265625,-0.9620361328125,-0.1236114501953125,0.1545867919921875
1782845805401226000,7.24822607421875,-0.966064453125,-0.1223907470703125,0.1534881591796875
1782845805411231000,7.25823095703125,-0.972320556640625,-0.120513916015625,0.1508026123046875
1782845805421236000,7.268236083984375,-0.975616455078125,-0.1189422607421875,0.1516265869140625
1782845805431241000,7.278240966796875,-0.977020263671875,-0.1207733154296875,0.149200439453125
1782845805441246000,7.288245849609375,-0.9789276123046875,-0.122955322265625,0.1523895263671875
1782845805451251000,7.2982509765625,-0.9755706787109375,-0.1241607666015625,0.157562255859375
1782845805461256000,7.308255859375,-0.9700469970703125,-0.1248321533203125,0.1601715087890625
1782845805471261000,7.318260986328125,-0.9675445556640625,-0.123870849609375,0.15997314453125
1782845805481266000,7.328265869140625,-0.96893310546875,-0.1263427734375,0.1573028564453125
1782845805491271000,7.33827099609375,-0.974639892578125,-0.1246490478515625,0.1548004150390625
1782845805501276000,7.34827587890625,-0.980560302734375,-0.1231536865234375,0.1554718017578125
1782845805511281000,7.358281005859375,-0.986663818359375,-0.122100830078125,0.158721923828125
1782845805521286000,7.368285888671875,-0.988800048828125,-0.122314453125,0.158447265625
1782845805531291000,7.378290771484375,-0.9884796142578125,-0.12322998046875,0.1564788818359375
1782845805541296000,7.388296142578125,-0.9800567626953125,-0.122711181640625,0.1571197509765625
1782845805551302000,7.398302001953125,-0.9753265380859375,-0.1241607666015625,0.1559906005859375
1782845805561307000,7.408306884765625,-0.969390869140625,-0.1247100830078125,0.1579132080078125
1782845805571311900,7.418311767578125,-0.9640655517578125,-0.1284027099609375,0.157928466796875
1782845805581316900,7.42831689453125,-0.961822509765625,-0.1275177001953125,0.156158447265625
1782845805591321900,7.43832177734375,-0.95947265625,-0.124725341796875,0.1586151123046875
1782845805601326800,7.448326904296875,-0.9595489501953125,-0.1198577880859375,0.155670166015625
1782845805611331800,7.458331787109375,-0.962310791015625,-0.118743896484375,0.152313232421875
1782845805621336800,7.4683369140625,-0.9655303955078125,-0.118865966796875,0.1522216796875
1782845805631341800,7.478341796875,-0.9654693603515625,-0.1180877685546875,0.1571197509765625
1782845805641346800,7.488346923828125,-0.9661102294921875,-0.1202392578125,0.1588134765625
1782845805651351800,7.498351806640625,-0.9640350341796875,-0.12237548828125,0.1630401611328125
1782845805661356800,7.508356689453125,-0.9643096923828125,-0.1249237060546875,0.1644134521484375
1782845805671362000,7.518362060546875,-0.96746826171875,-0.125946044921875,0.162322998046875
1782845805681367000,7.528366943359375,-0.9726409912109375,-0.1236114501953125,0.1635589599609375
1782845805691372000,7.5383720703125,-0.97650146484375,-0.1228790283203125,0.1631011962890625
1782845805701377000,7.548376953125,-0.978546142578125,-0.1217193603515625,0.1611480712890625
1782845805711382000,7.558382080078125,-0.9791717529296875,-0.1187286376953125,0.16094970703125
1782845805721387000,7.568386962890625,-0.97930908203125,-0.1176910400390625,0.1585540771484375
1782845805731392000,7.57839208984375,-0.9776458740234375,-0.118316650390625,0.1554107666015625
1782845805741397000,7.58839697265625,-0.973541259765625,-0.1194610595703125,0.1549530029296875
1782845805751402000,7.598402099609375,-0.970367431640625,-0.1199798583984375,0.1555633544921875
1782845805761407000,7.608406982421875,-0.9665374755859375,-0.12200927734375,0.156585693359375
1782845805771412000,7.618411865234375,-0.9655609130859375,-0.1230010986328125,0.160247802734375
1782845805781417000,7.6284169921875,-0.9641571044921875,-0.124542236328125,0.1607513427734375
1782845805791422000,7.638421875,-0.961334228515625,-0.123138427734375,0.16082763671875
1782845805801427000,7.648427001953125,-0.9597930908203125,-0.121429443359375,0.16021728515625
1782845805811432000,7.658431884765625,-0.95947265625,-0.1204833984375,0.156829833984375
1782845805821437000,7.66843701171875,-0.9637908935546875,-0.119720458984375,0.155303955078125
1782845805831442000,7.67844189453125,-0.969970703125,-0.1182861328125,0.156097412109375
1782845805841447000,7.688447021484375,-0.9788665771484375,-0.1176910400390625,0.1559600830078125
1782845805851452000,7.698451904296875,-0.98565673828125,-0.115386962890625,0.1605987548828125
1782845805861457200,7.70845703125,-0.9827728271484375,-0.1178131103515625,0.1654052734375
1782845805871462100,7.718462158203125,-0.9801177978515625,-0.119293212890625,0.1663360595703125
1782845805881468200,7.72846826171875,-0.975189208984375,-0.1201324462890625,0.1670379638671875
1782845805891473200,7.73847314453125,-0.9681549072265625,-0.120025634765625,0.1650848388671875
1782845805901478100,7.74847802734375,-0.96148681640625,-0.1204833984375,0.16485595703125
1782845805911483100,7.758483154296875,-0.958709716796875,-0.1209564208984375,0.1639556884765625
1782845805921488100,7.768488037109375,-0.9576263427734375,-0.12042236328125,0.1622314453125
1782845805931493000,7.7784931640625,-0.9605560302734375,-0.1213226318359375,0.1579132080078125
1782845805941498000,7.788498046875,-0.9665374755859375,-0.118255615234375,0.15557861328125
1782845805951503000,7.798503173828125,-0.969818115234375,-0.116607666015625,0.15814208984375
1782845805961508000,7.808508056640625,-0.97064208984375,-0.117645263671875,0.1574554443359375
1782845805971513000,7.81851318359375,-0.971099853515625,-0.1183929443359375,0.158660888671875
1782845805981518000,7.82851806640625,-0.9708709716796875,-0.119476318359375,0.1598663330078125
1782845805991523000,7.838523193359375,-0.969390869140625,-0.1201171875,0.1638641357421875
1782845806001528000,7.848528076171875,-0.9670562744140625,-0.12298583984375,0.161590576171875
1782845806011533000,7.858532958984375,-0.965789794921875,-0.1242523193359375,0.1613311767578125
1782845806021538000,7.8685380859375,-0.96868896484375,-0.1225738525390625,0.1573638916015625
1782845806031543000,7.87854296875,-0.9706573486328125,-0.12115478515625,0.1533966064453125
1782845806041548000,7.888548095703125,-0.9758453369140625,-0.1194610595703125,0.153594970703125
1782845806051553000,7.898552978515625,-0.981536865234375,-0.11932373046875,0.155059814453125
1782845806061558000,7.90855810546875,-0.9869842529296875,-0.118988037109375,0.1546478271484375
1782845806071563000,7.91856298828125,-0.9869384765625,-0.118804931640625,0.157958984375
1782845806081568000,7.928568115234375,-0.98291015625,-0.1197662353515625,0.1589508056640625
1782845806091573000,7.938572998046875,-0.9756011962890625,-0.1214599609375,0.15716552734375
1782845806101578000,7.948577880859375,-0.965179443359375,-0.124053955078125,0.15869140625
1782845806111582500,7.95858251953125,-0.9643096923828125,-0.12481689453125,0.157257080078125
1782845806121587500,7.96858740234375,-0.965850830078125,-0.121337890625,0.15777587890625
1782845806131592400,7.978592529296875,-0.9706573486328125,-0.1196441650390625,0.158447265625
1782845806141597400,7.988597412109375,-0.9737548828125,-0.1219635009765625,0.158966064453125
1782845806151602400,7.9986025390625,-0.973968505859375,-0.1214752197265625,0.1604766845703125
1782845806161607400,8.008607421875,-0.97381591796875,-0.1205596923828125,0.160125732421875
1782845806171612400,8.0186123046875,-0.97039794921875,-0.1217193603515625,0.1612701416015625
1782845806181617700,8.02861767578125,-0.9673309326171875,-0.12188720703125,0.159454345703125
1782845806191622700,8.03862255859375,-0.9661865234375,-0.124420166015625,0.158050537109375
1782845806201627600,8.048627685546874,-0.964996337890625,-0.1220245361328125,0.1578369140625
1782845806211632600,8.058632568359375,-0.9651031494140625,-0.1225433349609375,0.15484619140625
1782845806221637600,8.0686376953125,-0.970367431640625,-0.1240692138671875,0.1554718017578125
1782845806231642600,8.078642578125,-0.9749298095703125,-0.125091552734375,0.1579132080078125
1782845806241647600,8.088647705078126,-0.986358642578125,-0.1225738525390625,0.15899658203125
1782845806251652600,8.098652587890625,-0.9886322021484375,-0.121734619140625,0.1597137451171875
1782845806261658600,8.10865869140625,-0.98541259765625,-0.120574951171875,0.157623291015625
1782845806271663600,8.11866357421875,-0.977935791015625,-0.11920166015625,0.1553192138671875
1782845806281668600,8.128668701171875,-0.9715728759765625,-0.1204986572265625,0.1539306640625
1782845806291673600,8.138673583984374,-0.9666595458984375,-0.12164306640625,0.1527099609375
1782845806301678600,8.1486787109375,-0.96466064453125,-0.1217193603515625,0.15472412109375
1782845806311683600,8.15868359375,-0.964874267578125,-0.1219482421875,0.1550750732421875
1782845806321688600,8.1686884765625,-0.966766357421875,-0.121063232421875,0.155914306640625
1782845806331693600,8.178693603515624,-0.9694366455078125,-0.1231231689453125,0.157012939453125
1782845806341698600,8.188698486328125,-0.97259521484375,-0.12408447265625,0.158203125
1782845806351703600,8.19870361328125,-0.97088623046875,-0.1223602294921875,0.159332275390625
1782845806361708500,8.20870849609375,-0.9684906005859375,-0.12298583984375,0.1575164794921875
1782845806371713500,8.218713623046876,-0.96343994140625,-0.12445068359375,0.1533203125
1782845806381718500,8.228718505859375,-0.9595794677734375,-0.12347412109375,0.1512908935546875
1782845806391723500,8.2387236328125,-0.96044921875,-0.122528076171875,0.15081787109375
1782845806401728500,8.248728515625,-0.964752197265625,-0.120697021484375,0.148956298828125
1782845806411733500,8.2587333984375,-0.968353271484375,-0.1181640625,0.1522216796875
1782845806421738800,8.26873876953125,-0.973358154296875,-0.1193695068359375,0.155670166015625
1782845806431743700,8.27874365234375,-0.9738922119140625,-0.1217041015625,0.1572723388671875
1782845806441748700,8.288748779296874,-0.972442626953125,-0.1241912841796875,0.1641845703125
1782845806451753700,8.298753662109375,-0.9746246337890625,-0.12530517578125,0.1673126220703125
1782845806461758700,8.3087587890625,-0.97650146484375,-0.124786376953125,0.1670379638671875
1782845806471763700,8.318763671875,-0.97772216796875,-0.123504638671875,0.1674041748046875
1782845806481768700,8.328768798828126,-0.978668212890625,-0.1193695068359375,0.1660614013671875
1782845806491773700,8.338773681640625,-0.977630615234375,-0.1175079345703125,0.162384033203125
1782845806501778700,8.34877880859375,-0.97418212890625,-0.1150360107421875,0.158966064453125
1782845806511783700,8.35878369140625,-0.9736785888671875,-0.1136627197265625,0.15826416015625
1782845806521788700,8.36878857421875,-0.96990966796875,-0.1177520751953125,0.159271240234375
1782845806531793700,8.378793701171874,-0.966064453125,-0.121002197265625,0.1652984619140625
1782845806541798700,8.388798583984375,-0.966339111328125,-0.1238861083984375,0.1688690185546875
1782845806551803600,8.3988037109375,-0.9672698974609375,-0.1207733154296875,0.1678924560546875
1782845806561808600,8.40880859375,-0.9692535400390625,-0.118896484375,0.16741943359375
1782845806571813600,8.418813720703126,-0.9671783447265625,-0.120025634765625,0.1651763916015625
1782845806581818600,8.428818603515625,-0.9636688232421875,-0.1221771240234375,0.1630401611328125
1782845806591823600,8.43882373046875,-0.9601593017578125,-0.12060546875,0.1596221923828125
1782845806601828600,8.44882861328125,-0.95953369140625,-0.119354248046875,0.1573944091796875
1782845806611833600,8.45883349609375,-0.9634246826171875,-0.117645263671875,0.153961181640625
1782845806621838600,8.468838623046874,-0.9667816162109375,-0.11962890625,0.15447998046875
1782845806631843600,8.478843505859375,-0.9681243896484375,-0.1228485107421875,0.156158447265625
1782845806641848600,8.4888486328125,-0.972015380859375,-0.1234283447265625,0.1545867919921875
1782845806651853600,8.498853515625,-0.976715087890625,-0.12164306640625,0.1561431884765625
1782845806661859600,8.508859619140624,-0.9828033447265625,-0.1201324462890625,0.1571807861328125
1782845806671864600,8.518864501953125,-0.9842681884765625,-0.121612548828125,0.157257080078125
1782845806681869600,8.52886962890625,-0.98260498046875,-0.1220703125,0.1576690673828125
1782845806691874600,8.53887451171875,-0.982330322265625,-0.1208343505859375,0.15478515625
1782845806701879600,8.548879638671876,-0.9793243408203125,-0.1190032958984375,0.1524810791015625
1782845806711884500,8.558884521484375,-0.9787445068359375,-0.1208038330078125,0.154632568359375
1782845806721889800,8.568889892578126,-0.9769439697265625,-0.123779296875,0.1558837890625
1782845806731894800,8.578894775390625,-0.973541259765625,-0.122283935546875,0.1551055908203125
1782845806741899800,8.588899658203125,-0.9684906005859375,-0.120941162109375,0.154388427734375
1782845806751904800,8.59890478515625,-0.9637451171875,-0.121917724609375,0.156005859375
1782845806761909800,8.60890966796875,-0.9614715576171875,-0.123260498046875,0.150665283203125
1782845806771914800,8.618914794921874,-0.96221923828125,-0.11981201171875,0.1519012451171875
1782845806781919700,8.628919677734375,-0.9676666259765625,-0.121307373046875,0.1550445556640625
1782845806791924700,8.6389248046875,-0.982513427734375,-0.1161346435546875,0.1570892333984375
1782845806801929700,8.6489296875,-0.9650115966796875,-0.1069793701171875,0.15277099609375
1782845806811934700,8.658934814453126,-0.9455718994140625,-0.12322998046875,0.1553497314453125
1782845806821939700,8.668939697265625,-0.9276275634765625,-0.145751953125,0.171966552734375
1782845806831944700,8.67894482421875,-0.9322052001953125,-0.1366424560546875,0.194793701171875
1782845806841949700,8.68894970703125,-0.9682464599609375,-0.1271820068359375,0.1869049072265625
1782845806851954700,8.69895458984375,-0.994171142578125,-0.1248931884765625,0.16766357421875
1782845806861959700,8.708959716796874,-1.000396728515625,-0.1028900146484375,0.1593780517578125
1782845806871964700,8.718964599609375,-1.003570556640625,-0.111328125,0.14581298828125
1782845806881969700,8.7289697265625,-1.0005950927734375,-0.1258392333984375,0.1468505859375
