time,seconds_elapsed,z,y,x
1782845798217601000,0.06460107421875,0.013765080831944942,-0.01890631392598152,-0.004805674310773611
1782845798227606000,0.07460595703125,0.009050752967596054,-0.02022084966301918,0.009890713728964329
1782845798237611000,0.084611083984375,0.005130313336849213,-0.02251356467604637,0.009064601734280586
1782845798247616000,0.094615966796875,0.004393416922539473,-0.018202438950538635,0.008098140358924866
1782845798257621000,0.10462109375,0.0008210525847971439,-0.015387744642794132,0.013059875927865505
1782845798267626000,0.1146259765625,0.0013869742397218943,-0.016041284427046776,0.008100003935396671
1782845798277631000,0.124630859375,-0.0014700648607686162,-0.01799497939646244,0.0070674968883395195
1782845798287636000,0.134635986328125,-0.003634415799751878,-0.011410846374928951,0.001582716591656208
1782845798297641000,0.144640869140625,-0.009019593708217144,-0.01581917703151703,-0.003817108692601323
1782845798307646000,0.15464599609375,-0.010641459375619888,-0.01571664586663246,-0.003989148885011673
1782845798317652000,0.16465185546875,-0.019303124397993088,-0.014561365358531475,-0.003591539105400443
1782845798327657000,0.174656982421875,-0.029204225167632103,-0.009617207571864128,-0.008364190347492695
1782845798337662000,0.184661865234375,-0.03327859565615654,-0.002767557045444846,-0.009553025476634502
1782845798347667000,0.1946669921875,-0.039838757365942,0.006858705077320337,-0.0099623529240489
1782845798357672000,0.204671875,-0.042690739035606384,0.009078183211386204,0.000185888638952747
1782845798367677000,0.214677001953125,-0.04298501834273338,0.004433097783476114,0.008723982609808445
1782845798377682000,0.224681884765625,-0.04133811965584755,-0.005306348204612732,0.018212027847766876
1782845798387687000,0.23468701171875,-0.03960227221250534,-0.013740046881139278,0.029878269881010056
1782845798397692000,0.24469189453125,-0.041244909167289734,-0.019461315125226974,0.03755110502243042
1782845798407697000,0.25469677734375,-0.042567167431116104,-0.012269715778529644,0.04303455352783203
1782845798417702000,0.264701904296875,-0.04261510446667671,-0.011685417965054512,0.03951438516378403
1782845798427707000,0.274706787109375,-0.04093358293175697,-0.012568788602948189,0.0342881977558136
1782845798437712000,0.2847119140625,-0.03353798761963844,-0.009467803873121738,0.028497422114014626
1782845798447716900,0.294716796875,-0.029820479452610016,-0.003032008884474635,0.019999807700514793
1782845798457721900,0.304721923828125,-0.024623854085803032,0.008142881095409393,0.011573032476007938
1782845798467726800,0.314726806640625,-0.013710752129554749,0.008588162250816822,0.006366286426782608
1782845798477731800,0.32473193359375,-0.005347094964236021,0.00390312890522182,0.004929244983941317
1782845798487737900,0.33473779296875,0.007812915369868279,-0.0022173479665070772,0.0008862999966368079
1782845798497742800,0.344742919921875,0.02033909410238266,-0.006927414797246456,0.0002069276088150218
1782845798507747800,0.354747802734375,0.029219403862953186,-0.01720135658979416,0.001894839107990265
1782845798517752800,0.3647529296875,0.03518195450305939,-0.020174777135252953,-0.001273257308639586
1782845798527757800,0.3747578125,0.04054742678999901,-0.0200384221971035,-0.006932741031050682
1782845798537762800,0.3847626953125,0.04296104982495308,-0.012032161466777325,-0.015738217160105705
1782845798547767800,0.394767822265625,0.03876230865716934,-0.006136988289654255,-0.019153455272316933
1782845798557772800,0.404772705078125,0.03389431908726692,-0.01155945099890232,-0.024407604709267616
1782845798567778000,0.414778076171875,0.02737489901483059,-0.01326840091496706,-0.026017218828201294
1782845798577783000,0.424782958984375,0.024203339591622353,-0.014404239133000374,-0.028568262234330177
1782845798587788000,0.4347880859375,0.01774597354233265,-0.008964466862380505,-0.034572090953588486
1782845798597793000,0.44479296875,0.01461755856871605,-0.00475347600877285,-0.030675355345010757
1782845798607798000,0.454798095703125,0.014011156745254993,-0.002900714986026287,-0.021977471187710762
1782845798617803000,0.464802978515625,0.015622369013726711,0.002228533150628209,-0.010331733152270317
1782845798627808000,0.47480810546875,0.01338824350386858,0.0022897860035300255,0.008505604229867458
1782845798637813000,0.48481298828125,0.015932360664010048,0.0025063008069992065,0.02033643051981926
1782845798647818000,0.49481787109375,0.010762100107967854,0.0021262678783386946,0.03633590415120125
1782845798657824000,0.504823974609375,0.00817936658859253,0.0034874093253165483,0.046957388520240784
1782845798667829000,0.5148291015625,0.002323608146980405,0.001910019083879888,0.05188104137778282
1782845798677834000,0.524833984375,0.00004740426811622456,0.002243713242933154,0.05001549795269966
1782845798687839000,0.5348388671875,-0.0007470166892744601,-0.0006649913266301155,0.043719250708818436
1782845798697844000,0.544843994140625,-0.002347576431930065,-0.004677576012909412,0.027904335409402847
1782845798707849000,0.554848876953125,-0.0031190942972898483,0.000009054747351910919,0.013307017274200916
1782845798717854000,0.56485400390625,-0.00401657959446311,0.001894839107990265,0.00031185615807771683
1782845798727859000,0.57485888671875,-0.004402471706271172,-0.0016314524691551924,-0.009093896485865116
1782845798737864000,0.584864013671875,-0.001674595638178289,-0.008323444053530693,-0.01679602451622486
1782845798747869000,0.594868896484375,-0.002127066720277071,-0.007819839753210545,-0.020085826516151428
1782845798757874000,0.6048740234375,-0.0036075180396437645,-0.013456420041620731,-0.014700649306178093
1782845798767879000,0.61487890625,-0.004353735595941544,-0.020830979570746422,-0.010759969241917133
1782845798777884000,0.6248837890625,-0.004145210143178701,-0.023086143657565117,-0.008828645572066307
1782845798787889000,0.634888916015625,-0.0017891116440296173,-0.0231186356395483,-0.00908457487821579
1782845798797894000,0.644893798828125,-0.0025270734913647175,-0.01986345276236534,-0.008678176440298557
1782845798807899000,0.65489892578125,-0.0018402442801743746,-0.018863169476389885,-0.020778514444828033
1782845798817903900,0.66490380859375,0.002091646660119295,-0.016215987503528595,-0.03098934143781662
1782845798827909000,0.6749091796875,0.0052264537662267685,-0.01509852521121502,-0.033434923738241196
1782845798837915000,0.684914794921875,0.005380384158343077,-0.015390141867101192,-0.02478231117129326
1782845798847919900,0.694919921875,0.002237055217847228,-0.021755628287792206,-0.00941960047930479
1782845798857924900,0.7049248046875,-0.0010780475568026304,-0.021024059504270554,-0.0018700717482715845
1782845798867929900,0.714929931640625,-0.005437642335891724,-0.018691662698984146,0.0030104373581707478
1782845798877934800,0.724934814453125,-0.0025425199419260025,-0.018095912411808968,0.00914343073964119
1782845798887939800,0.73493994140625,-0.0016010924009606242,-0.013919011689722538,0.006680007092654705
1782845798897944800,0.74494482421875,-0.0010341054294258356,-0.013407152146100998,0.002758502261713147
1782845798907949800,0.75494970703125,0.003816842334344983,-0.013962686993181705,-0.0008298410102725029
1782845798917954800,0.764954833984375,0.006739927921444178,-0.019948408007621765,-0.002317216480150819
1782845798927959800,0.774959716796875,0.009454754181206226,-0.02118304930627346,-0.004086354281753302
1782845798937964800,0.78496484375,0.005250688176602125,-0.015915850177407265,-0.008176969364285469
1782845798947969800,0.7949697265625,0.0024549018125981092,-0.014545653015375137,-0.019721506163477898
1782845798957974800,0.804974853515625,-0.0005997438565827906,-0.02209385111927986,-0.01666419766843319
1782845798967980000,0.81497998046875,-0.00024288028362207115,-0.018667161464691162,-0.014357367530465126
1782845798977985000,0.824985107421875,-0.002718554809689522,-0.018486332148313522,-0.009727195836603642
1782845798987990000,0.834989990234375,-0.006942062173038721,-0.01429212000221014,0.0002287655370309949
1782845798997995000,0.8449951171875,-0.010132795199751854,-0.013683588244020939,0.007533550262451172
1782845799008001000,0.8550009765625,-0.011108843609690666,-0.014197844080626965,0.008886702358722687
1782845799018006000,0.865006103515625,-0.015899337828159332,-0.021146031096577644,0.008697617799043655
1782845799028011000,0.875010986328125,-0.02424195595085621,-0.023811856284737587,0.00833569373935461
1782845799038016000,0.88501611328125,-0.029699038714170456,-0.02546115219593048,0.011068097315728664
1782845799048021000,0.89502099609375,-0.037581462413072586,-0.02261609584093094,0.008139153011143208
1782845799058026000,0.90502587890625,-0.04334214702248573,-0.017770741134881973,0.008977249264717102
1782845799068031000,0.915031005859375,-0.04393656551837921,-0.011412976309657097,0.00885074958205223
1782845799078036000,0.925035888671875,-0.04103025794029236,-0.008389756083488464,0.014060957357287407
1782845799088041000,0.935041015625,-0.033851440995931625,-0.006299174856394529,0.020329507067799568
1782845799098046000,0.9450458984375,-0.030120085924863815,-0.00512844929471612,0.026765834540128708
1782845799108051000,0.955051025390625,-0.02346963994204998,-0.0023393207229673862,0.03922463580965996
1782845799118056000,0.965055908203125,-0.023000657558441162,-0.003766508772969246,0.04644659534096718
1782845799128061000,0.97506103515625,-0.015807192772626877,-0.0007896272582001984,0.048292431980371475
1782845799138066000,0.98506591796875,-0.011599131859838963,-0.004797684494405985,0.044369861483573914
1782845799148071000,0.99507080078125,-0.0025121597573161125,-0.0025981799699366093,0.03600087761878967
1782845799158076000,1.005075927734375,-0.004523379262536764,0.0016711335629224777,0.026826022192835808
1782845799168081000,1.015080810546875,-0.004731105640530586,0.00016351809608750045,0.026866234838962555
1782845799178086700,1.025086669921875,-0.006964965257793665,-0.0027768779546022415,0.022652048617601395
1782845799188091600,1.035091552734375,-0.010890997014939785,-0.0008005462004803121,0.017372865229845047
1782845799198096600,1.0450966796875,-0.011806592345237732,0.0007917577750049531,0.011444135569036007
1782845799208101600,1.0551015625,-0.00995995569974184,0.002013616031035781,0.008590558543801308
1782845799218107000,1.06510693359375,-0.014727014116942883,-0.0037286917213350534,0.011272627860307693
1782845799228112000,1.07511181640625,-0.014697719365358353,-0.007048321887850761,0.0051508196629583836
1782845799238116900,1.085116943359375,-0.015109177678823471,-0.014256433583796024,-0.0006804376607760787
1782845799248121900,1.095121826171875,-0.012834838591516018,-0.011856659315526485,-0.012567989528179169
1782845799258126800,1.105126953125,-0.013034575618803501,-0.005874400492757559,-0.00811891257762909
1782845799268132000,1.115132080078125,-0.008655806072056293,-0.0014125406742095947,-0.00006657902849838138
1782845799278137000,1.12513720703125,-0.005628058221191168,0.002108957152813673,0.013516341336071491
1782845799288142000,1.13514208984375,-0.0032264196779578924,0.0024583640042692423,0.02815067768096924
1782845799298147000,1.14514697265625,0.0008612662786617875,-0.007523696403950453,0.0432065911591053
1782845799308152000,1.155152099609375,0.0035364115610718727,-0.019272763282060623,0.05143709108233452
1782845799318157000,1.165156982421875,0.0032506543211638927,-0.023431822657585144,0.04951748624444008
1782845799328162000,1.175162109375,-0.0019856528379023075,-0.013765080831944942,0.038485072553157806
1782845799338167000,1.1851669921875,-0.003560912562534213,-0.009792976081371307,0.02635064721107483
1782845799348172000,1.195172119140625,-0.0018852517241612077,-0.01062308344990015,0.008081362582743168
1782845799358177800,1.205177734375,-0.002656236756592989,-0.010999388061463833,-0.003102049930021167
1782845799368182800,1.215182861328125,-0.002118278294801712,-0.00950748473405838,-0.010180732235312462
1782845799378187800,1.225187744140625,-0.0017299894243478775,-0.013611416332423687,-0.010471283458173275
1782845799388192800,1.23519287109375,-0.0033665020018815994,-0.013738715089857578,-0.0027571707032620907
1782845799398198000,1.245197998046875,0.00018136126163881272,-0.01565086469054222,0.0049100699834525585
1782845799408203000,1.255203125,0.0014564828015863895,-0.015397331677377224,0.01044465135782957
1782845799418208000,1.2652080078125,0.004834169987589121,-0.017116403207182884,0.014176805503666401
1782845799428213000,1.275212890625,0.009240636602044106,-0.020901286974549294,0.010127468965947628
1782845799438218000,1.285218017578125,0.014097975566983223,-0.020664531737565994,0.00965795386582613
1782845799448223000,1.295222900390625,0.013620470650494099,-0.01848020777106285,0.005766009911894798
1782845799458228000,1.30522802734375,0.011247328482568264,-0.009187373332679272,0.0034011229872703552
1782845799468233000,1.31523291015625,0.010220413096249104,-0.002439455594867468,0.0012783173006027937
1782845799478238000,1.325238037109375,0.00395639194175601,-0.006155097857117653,0.015452992171049118
1782845799488243000,1.335242919921875,0.00022130868455860764,-0.01224335003644228,0.025499233976006508
1782845799498248000,1.345248046875,-0.00845633540302515,-0.01829724758863449,0.04044969007372856
1782845799508253000,1.3552529296875,-0.015498531982302666,-0.020612068474292755,0.04795607551932335
1782845799518258700,1.3652587890625,-0.019084211438894272,-0.017063938081264496,0.05186213180422783
1782845799528263700,1.375263671875,-0.02341477759182453,-0.006843258626759052,0.04308009147644043
1782845799538269000,1.38526904296875,-0.02418096922338009,-0.0054573495872318745,0.0408044196665287
1782845799548274000,1.39527392578125,-0.024277642369270325,-0.009461944922804832,0.03513535112142563
1782845799558279000,1.40527880859375,-0.02002910152077675,-0.01242045033723116,0.031849540770053864
1782845799568284000,1.415283935546875,-0.019808059558272362,-0.008353536948561668,0.029162678867578506
1782845799578289000,1.425288818359375,-0.02075561136007309,-0.005107410252094269,0.0341944545507431
1782845799588294000,1.4352939453125,-0.021192369982600212,-0.008153267204761505,0.04027019068598747
1782845799598299000,1.445298828125,-0.020316457375884056,-0.008832107298076153,0.04169178754091263
1782845799608303900,1.455303955078125,-0.018498316407203674,-0.009580455720424652,0.04325665906071663
1782845799618308900,1.465308837890625,-0.01672917976975441,-0.003165965899825096,0.04062678664922714
1782845799628313900,1.47531396484375,-0.014393320307135582,0.002947852946817875,0.03738492354750633
1782845799638318800,1.48531884765625,-0.014347247779369354,0.004037085920572281,0.036801159381866455
1782845799648323800,1.49532373046875,-0.014087056741118431,0.00401684595271945,0.03580726683139801
1782845799658328800,1.505328857421875,-0.010556770488619804,0.003421895671635866,0.03641153872013092
1782845799668333800,1.515333740234375,-0.005799033213406801,0.0019829897210001945,0.042162101715803146
1782845799678338800,1.5253388671875,-0.005891711451113224,-0.003817108692601323,0.04336238652467728
1782845799688343800,1.53534375,-0.003867442486807704,-0.005275988485664129,0.04373869299888611
1782845799698350000,1.54535009765625,-0.0049036783166229725,-0.007152451667934656,0.041188184171915054
1782845799708355000,1.55535498046875,-0.009815612807869911,-0.004502340219914913,0.03424452245235443
1782845799718360000,1.565360107421875,-0.01182150561362505,0.0022000374738126993,0.030675621703267097
1782845799728365000,1.575364990234375,-0.012967996299266815,0.002927080262452364,0.027217771857976913
1782845799738370000,1.5853701171875,-0.011551461182534695,0.007685882970690727,0.01534753106534481
1782845799748375000,1.595375,-0.009278985671699047,0.009413208812475204,0.0060235378332436085
1782845799758380000,1.605380126953125,-0.0035276231355965137,0.011513111181557178,0.007358846720308065
1782845799768385000,1.615385009765625,-0.002183259464800358,-0.00006338323146337643,0.014025538228452206
1782845799778390000,1.62539013671875,0.004210191313177347,-0.010268616490066051,0.020786771550774574
1782845799788395000,1.63539501953125,0.009843309409916401,-0.008763664402067661,0.023078421130776405
1782845799798400000,1.64539990234375,0.0081527354195714,-0.006217682268470526,0.022233134135603905
1782845799808405000,1.655405029296875,0.012859073467552662,0.0031103058718144894,0.01655607298016548
1782845799818410000,1.665409912109375,0.011263040825724602,0.004860002547502518,0.011362376622855663
1782845799828415000,1.6754150390625,0.013190103694796562,0.008413191884756088,-0.00020905814017169178
1782845799838420000,1.685419921875,0.014156565070152283,0.006776413414627314,-0.0040972731076180935
1782845799848425000,1.695425048828125,0.017472200095653534,0.0017270599491894245,-0.010175672359764576
1782845799858430000,1.705429931640625,0.01540292426943779,-0.002767290687188506,-0.00782649777829647
1782845799868436000,1.71543603515625,0.015912920236587524,-0.005620335228741169,-0.008555671200156212
1782845799878441000,1.72544091796875,0.014502775855362415,-0.005097290500998497,-0.003946272190660238
1782845799888446000,1.735446044921875,0.008107461035251617,-0.005607818253338337,0.0013347762869670987
1782845799898451000,1.745450927734375,0.007339938078075647,-0.004549211822450161,0.0035598473623394966
1782845799908456000,1.7554560546875,0.0017707358347252011,-0.003519633784890175,0.003781422507017851
1782845799918461000,1.7654609375,0.001184574095532298,-0.003650128608569503,0.003734018187969923
1782845799928466000,1.7754658203125,0.0005555353709496558,0.0007113303290680051,-0.0009126652730628848
1782845799938471000,1.785470947265625,0.005151618737727404,0.003129480639472604,-0.008799084462225437
1782845799948476000,1.795475830078125,0.007949535734951496,-0.0025188177824020386,-0.013599698431789875
1782845799958481000,1.80548095703125,0.012653211131691933,-0.0073292856104671955,-0.01630706712603569
1782845799968486000,1.81548583984375,0.009299226105213165,-0.011394601315259933,-0.015614645555615425
1782845799978491000,1.825490966796875,0.007384412921965122,-0.011817244812846184,-0.018764100968837738
1782845799988496000,1.835495849609375,0.0048890309408307076,-0.007417968939989805,-0.018396317958831787
1782845799998500900,1.8455009765625,0.004429901950061321,-0.003951065707951784,-0.013189039193093777
1782845800008505900,1.855505859375,0.0016327840276062489,-0.0014343785587698221,-0.010518421418964863
1782845800018510800,1.8655107421875,0.006195577792823315,0.0002769687562249601,-0.0038362834602594376
1782845800028515800,1.875515869140625,0.0054182009771466255,0.000300404557492584,0.0020386497490108013
1782845800038520800,1.885520751953125,0.007178816944360733,-0.001347293145954609,0.010096576064825058
1782845800048526800,1.89552685546875,0.008469651453197002,-0.010393518954515457,0.016928916797041893
1782845800058531800,1.90553173828125,0.0070672305300831795,-0.019181150943040848,0.022414227947592735
1782845800068536800,1.915536865234375,0.008613195270299911,-0.02243633382022381,0.016535034403204918
1782845800078541800,1.925541748046875,0.007493602577596903,-0.020777184516191483,0.01173362135887146
1782845800088546800,1.935546875,0.004877046681940556,-0.016113189980387688,0.0029622339643538
1782845800098551800,1.9455517578125,-0.00007456851017195731,-0.012765330262482166,0.002110022585839033
1782845800108556800,1.955556884765625,-0.0029968551825731993,-0.009893110953271389,0.0020298613235354424
1782845800118561800,1.965561767578125,-0.005905293393880129,-0.0037294907961040735,0.0005808354471810162
1782845800128566800,1.97556689453125,-0.010032660327851772,-0.008382299914956093,0.0038892803713679314
1782845800138571800,1.98557177734375,-0.013018330559134483,-0.019513513892889023,0.004102333448827267
1782845800148576800,1.99557666015625,-0.010992996394634247,-0.02640870399773121,0.0036879454273730516
1782845800158581800,2.005581787109375,-0.009031045250594616,-0.030492128804326057,-0.004627774935215712
1782845800168586800,2.015586669921875,-0.010663829743862152,-0.02575756050646305,-0.013230318203568459
1782845800178591700,2.025591796875,-0.00700837466865778,-0.020717795938253403,-0.02280704490840435
1782845800188596700,2.0355966796875,-0.007843541912734509,-0.009924003854393959,-0.029458289965987206
1782845800198601700,2.045601806640625,0.0007307713967747986,-0.005308745428919792,-0.03572257608175278
1782845800208606700,2.055606689453125,0.004097007215023041,-0.0080296965315938,-0.03242425248026848
1782845800218612700,2.06561279296875,0.008011587895452976,-0.012402074411511421,-0.024710938334465027
1782845800228617700,2.07561767578125,0.013406086713075638,-0.01715341955423355,-0.013430854305624962
1782845800238622700,2.085622802734375,0.008229433558881283,-0.01986505091190338,-0.00455826660618186
1782845800248627700,2.095627685546875,0.01284735556691885,-0.009008408524096012,-0.0038088529836386442
1782845800258632700,2.1056328125,0.010211891494691372,-0.005680788774043322,-0.0033955303952097893
1782845800268637700,2.1156376953125,0.009789247065782547,-0.0036575854755938053,-0.002907373011112213
1782845800278642700,2.125642578125,0.010844391770660877,-0.003293797606602311,-0.009041432291269302
1782845800288647700,2.135647705078125,0.016463661566376686,-0.008186024613678455,-0.007728759665042162
1782845800298652700,2.145652587890625,0.0167962908744812,-0.011272361502051353,-0.011238006874918938
1782845800308657700,2.15565771484375,0.015322497114539146,-0.01287425309419632,-0.014641793444752693
1782845800318662700,2.16566259765625,0.019391007721424103,-0.015398929826915264,-0.0149813462048769
1782845800328667600,2.175667724609375,0.017258083447813988,-0.012006329372525215,-0.02599697932600975
1782845800338672600,2.185672607421875,0.018253572285175323,-0.006129265297204256,-0.023868847638368607
1782845800348677600,2.195677734375,0.017294567078351974,-0.00009933590627042577,-0.023392140865325928
1782845800358682600,2.2056826171875,0.014831410720944405,0.004441353492438793,-0.01667751371860504
1782845800368687600,2.2156875,0.013410081155598164,0.0034727619495242834,-0.012958675622940063
1782845800378692600,2.225692626953125,0.01540691964328289,0.0010157296201214194,-0.00956953689455986
1782845800388697600,2.235697509765625,0.010263822972774506,-0.005626460537314415,-0.010262224823236465
1782845800398703900,2.245703857421875,0.01324283517897129,-0.010816428810358047,-0.009434781037271023
1782845800408708900,2.255708984375,0.008897088468074799,-0.01284389290958643,-0.009118663147091866
1782845800418713900,2.2657138671875,0.0070698936469852924,-0.009168997406959534,-0.009953298605978489
1782845800428718800,2.27571875,0.0006993460701778531,-0.008503207005560398,-0.012974121607840061
1782845800438723800,2.285723876953125,0.005681587848812342,-0.004395014606416225,-0.012954148463904858
1782845800448728800,2.295728759765625,0.003868241561576724,0.00065460498444736,-0.008611331693828106
1782845800458733800,2.30573388671875,-0.00029294771957211196,0.0049737198278307915,-0.0034674357157200575
1782845800468738800,2.31573876953125,0.0020903151016682386,0.006338057108223438,0.004042678512632847
1782845800478743800,2.325743896484375,0.002555303042754531,0.0030093719251453876,0.005931392312049866
1782845800488748800,2.335748779296875,0.004603007808327675,-0.0028639633674174547,0.007949269376695156
1782845800498753800,2.34575390625,0.005892776418477297,-0.008219846524298191,0.0065351310186088085
1782845800508758800,2.3557587890625,0.006176136899739504,-0.004453870467841625,0.000027164242055732757
1782845800518763800,2.365763671875,0.00980469398200512,-0.0021076255943626165,-0.005568669643253088
1782845800528768800,2.375768798828125,0.007984955795109272,0.007668572477996349,-0.009240636602044106
1782845800538773800,2.385773681640625,0.009542904794216156,0.01131284236907959,-0.014538728632032871
1782845800548778800,2.39577880859375,0.008264588192105293,0.012582637369632721,-0.013755492866039276
1782845800558783700,2.40578369140625,0.006268282420933247,0.01025556679815054,-0.008837167173624039
1782845800568788700,2.415788818359375,0.0038274950347840786,0.014125406742095947,-0.008795888163149357
1782845800578794800,2.425794677734375,0.002522812457755208,0.005392368417233229,-0.0006926882197149098
1782845800588799700,2.4357998046875,0.00008415588672505692,-0.004835235420614481,0.0004183826094958931
1782845800598804700,2.4458046875,0.001329982653260231,-0.0107093695551157,-0.0009773800848051906
1782845800608809700,2.455809814453125,0.003695935010910034,-0.004614192992448807,-0.004845355171710253
1782845800618814700,2.465814697265625,-0.0032021848019212484,0.0018141453620046377,-0.007668306119740009
1782845800628819700,2.47581982421875,-0.0004721784498542547,0.01629588194191456,-0.006585198454558849
1782845800638824700,2.48582470703125,-0.002287122653797269,0.022395320236682892,0.0013880395563319325
1782845800648829700,2.49582958984375,0.001130511867813766,0.019538547843694687,0.012644422240555286
1782845800658834700,2.505834716796875,0.0006266417913138866,0.011330419220030308,0.021168934181332588
1782845800668839700,2.515839599609375,0.004869590047746897,0.009546633809804916,0.027694478631019592
1782845800678844700,2.5258447265625,0.0030863373540341854,0.005283445119857788,0.030675621703267097
1782845800688849700,2.535849609375,0.0070334081538021564,0.0035902075469493866,0.03159121423959732
1782845800698854700,2.545854736328125,0.008668589405715466,0.003756921272724867,0.01780110038816929
1782845800708859600,2.555859619140625,0.00902518630027771,0.011110708117485046,0.009063003584742546
1782845800718864600,2.56586474609375,0.008780175819993019,0.014049505814909935,-0.0009603358921594918
1782845800728869600,2.57586962890625,0.0018053569365292788,0.012972789816558361,-0.008435562252998352
1782845800738874600,2.58587451171875,0.0032232238445430994,0.006050968077033758,-0.010351174511015415
1782845800748879600,2.595879638671875,-0.00041252365917898715,0.00024474450037814677,-0.012981312349438667
1782845800758886000,2.605885986328125,-0.0055060856975615025,-0.0013171994360163808,-0.011326690204441547
1782845800768891000,2.615890869140625,-0.005726861767470837,-0.002644785214215517,-0.012499013915657997
1782845800778896000,2.625895751953125,-0.001882854849100113,-0.002847185591235757,-0.013674000278115273
1782845800788900900,2.63590087890625,-0.0006988134700804949,-0.003665308468043804,-0.01677658222615719
1782845800798905900,2.64590576171875,0.005658152047544718,0.0003680488734971732,-0.017485249787569046
1782845800808910800,2.655910888671875,0.004731105640530586,-0.0006998787284828722,-0.014943529851734638
1782845800818915800,2.665915771484375,0.013232714496552944,-0.004515389446169138,-0.0062584285624325275
1782845800828920800,2.6759208984375,0.011130149476230145,-0.0039087217301130295,-0.001478587044402957
1782845800838925800,2.68592578125,0.00936047825962305,0.0004340952436905354,0.0007789746159687638
1782845800848930800,2.695930908203125,0.011949869804084301,-0.00044288369826972485,0.0024261397775262594
1782845800858935800,2.705935791015625,0.008885370567440987,-0.00037257623625919223,0.0016607472207397223
1782845800868940800,2.71594091796875,0.011025220155715942,-0.0010189254535362124,0.0026101642288267612
1782845800878945800,2.72594580078125,0.015843411907553673,-0.002520415699109435,0.006040049251168966
1782845800888950800,2.73595068359375,0.01776275224983692,0.0004146541759837419,0.004634965676814318
1782845800898955800,2.745955810546875,0.022168418392539024,0.003721767570823431,0.0020474381744861603
1782845800908960800,2.755960693359375,0.024631842970848083,0.007168963085860014,0.003468234557658434
1782845800918965800,2.7659658203125,0.027003655210137367,0.006336725316941738,0.003442401997745037
1782845800928970800,2.775970703125,0.02508591115474701,0.004767058417201042,0.0018359832465648651
1782845800938975700,2.785975830078125,0.027905933558940887,0.00045593318645842373,-0.002659166231751442
1782845800948981800,2.795981689453125,0.023505060002207756,-0.006511428859084845,-0.00361763802357018
1782845800958986800,2.80598681640625,0.020007530227303505,-0.012584767304360867,-0.010890197940170765
1782845800968991700,2.81599169921875,0.015841813758015633,-0.012917662970721722,-0.008795621804893017
1782845800978996700,2.825996826171875,0.009521599858999252,-0.008492288179695606,-0.015001053921878338
1782845800989001700,2.836001708984375,0.004118045791983604,-0.0012024171883240342,-0.018193118274211884
1782845800999006700,2.8460068359375,0.0026996464002877474,-0.002239984693005681,-0.02160489372909069
1782845801009011700,2.85601171875,0.002755306428298354,0.00018269284919369966,-0.020353209227323532
1782845801019016700,2.8660166015625,0.004605404566973448,-0.0017888452857732773,-0.01537762489169836
1782845801029021700,2.876021728515625,0.004726844374090433,-0.007819839753210545,-0.008728244341909885
1782845801039026700,2.886026611328125,0.0054693338461220264,-0.008498147130012512,0.0026908579748123884
1782845801049031700,2.89603173828125,0.0031992553267627954,-0.011955995112657547,0.011024422012269497
1782845801059036700,2.90603662109375,0.0012122709304094315,-0.00993438996374607,0.017075389623641968
1782845801069041700,2.916041748046875,0.0032027175184339285,-0.004335360135883093,0.019892215728759766
1782845801079046700,2.926046630859375,0.007169229444116354,-0.0031992553267627954,0.029215410351753235
1782845801089051600,2.9360517578125,0.01133734267205,-0.0033388049341738224,0.03239202871918678
1782845801099056600,2.946056640625,0.014631673693656921,0.000020506340661086142,0.02768515795469284
1782845801109061400,2.956061279296875,0.01263882964849472,-0.00041678472189232707,0.0243679229170084
1782845801119066400,2.96606640625,0.011658254079520702,-0.002508697798475623,0.021735388785600662
1782845801129072400,2.976072265625,0.00899482611566782,-0.003472495824098587,0.012353072874248028
1782845801139077400,2.986077392578125,0.007727161981165409,-0.006388124544173479,0.006331665441393852
1782845801149082400,2.996082275390625,0.0019859191961586475,-0.0068419273011386395,0.00035952674807049334
1782845801159087400,3.00608740234375,-0.002953978255391121,-0.013857225887477398,-0.0025329324416816235
1782845801169092400,3.01609228515625,-0.009311476722359657,-0.022670159116387367,0.0013638047967106104
1782845801179097600,3.02609765625,-0.01798352785408497,-0.021348698064684868,0.0018530274974182248
1782845801189102600,3.0361025390625,-0.025407621636986732,-0.02015080861747265,0.0056978329084813595
1782845801199107600,3.046107666015625,-0.029256422072649002,-0.014163755811750889,0.007297594100236893
1782845801209112600,3.056112548828125,-0.028842832893133163,-0.007201453670859337,0.012348279356956482
1782845801219117600,3.06611767578125,-0.02569391205906868,-0.007613444700837135,0.013124590739607811
1782845801229122600,3.07612255859375,-0.021944180130958557,-0.007113835774362087,0.009454221464693546
1782845801239127600,3.08612744140625,-0.013835388235747814,-0.008342884480953217,0.0021315941121429205
1782845801249132500,3.096132568359375,-0.01293577253818512,-0.006740993354469538,-0.0018218684708699584
1782845801259137500,3.106137451171875,-0.013215137645602226,0.00006418218254111707,0.0014183996245265007
1782845801269142500,3.116142578125,-0.011975702829658985,0.0025334651581943035,0.00221947836689651
1782845801279147500,3.1261474609375,-0.016053801402449608,0.005544168874621391,0.003139334265142679
1782845801289152500,3.136152587890625,-0.016765929758548737,0.0033041839487850666,0.010366354137659073
1782845801299157500,3.146157470703125,-0.018380871042609215,0.0016399745363742113,0.016635170206427574
1782845801309163500,3.15616357421875,-0.017714815214276314,0.0015550197567790747,0.02143232151865959
1782845801319168500,3.16616845703125,-0.01955106481909752,-0.0010950918076559901,0.029686789959669113
1782845801329173500,3.176173583984375,-0.01798406057059765,-0.007470166776329279,0.03351668268442154
1782845801339178500,3.186178466796875,-0.017853565514087677,-0.00959856528788805,0.027087010443210602
1782845801349183500,3.19618359375,-0.011113637126982212,-0.012737632729113102,0.013562680222094059
1782845801359188500,3.2061884765625,-0.009576194919645786,-0.01607563905417919,0.004938299767673016
1782845801369193500,3.216193359375,-0.008949019946157932,-0.011469435878098011,-0.005914348177611828
1782845801379198500,3.226198486328125,-0.006988667417317629,-0.005375057924538851,-0.02027624286711216
1782845801389203500,3.236203369140625,-0.0055228634737432,0.0018287927377969027,-0.02520815096795559
1782845801399208400,3.24620849609375,-0.005599828902631998,0.006050701718777418,-0.02448883093893528
1782845801409213400,3.25621337890625,0.00023302659974433482,0.001969940261915326,-0.018935341387987137
1782845801419218400,3.266218505859375,0.00003728425508597866,-0.010270214639604092,-0.0016359798610210419
1782845801429223400,3.276223388671875,0.003281546989455819,-0.02226482518017292,0.0051870387978851795
1782845801439228400,3.286228515625,0.005006742663681507,-0.02581029199063778,0.008436627686023712
1782845801449233400,3.2962333984375,0.010174606926739216,-0.025617478415369987,0.00555269094184041
1782845801459238700,3.30623876953125,0.008531436324119568,-0.014732340350747108,-0.0024916534312069416
1782845801469243600,3.31624365234375,0.009759685955941677,-0.006705306936055422,-0.0006825681775808334
1782845801479248600,3.32624853515625,0.010038785636425018,-0.0033750240691006184,-0.0015331818722188473
1782845801489254400,3.33625439453125,0.012093148194253445,-0.003909253980964422,-0.006661364808678627
1782845801499259400,3.34625927734375,0.010341587476432323,-0.0028751487843692303,-0.005618204362690449
1782845801509264400,3.356264404296875,0.009577792137861252,-0.0002745719102676958,-0.0031854070257395506
1782845801519269400,3.366269287109375,0.006609433330595493,-0.0032887374982237816,0.005644037388265133
1782845801529274400,3.3762744140625,0.006877613253891468,-0.015419170260429382,0.012165852822363377
1782845801539279400,3.386279296875,0.007756456732749939,-0.01618802547454834,0.008912268094718456
1782845801549284400,3.396284423828125,0.01079618837684393,-0.011301123537123203,0.003976366017013788
1782845801559289300,3.406289306640625,0.0061535001732409,-0.012093414552509785,-0.003774764481931925
1782845801569294300,3.41629443359375,0.007273891940712929,-0.0070275492034852505,-0.007846738211810589
1782845801579299300,3.42629931640625,0.007308512926101685,-0.006600112188607454,-0.01053306832909584
1782845801589304300,3.43630419921875,0.0038304245099425316,-0.009894176386296749,-0.008890164084732533
1782845801599309600,3.4463095703125,0.0009736517095007002,-0.008806274272501469,-0.009754626080393791
1782845801609314600,3.456314453125,-0.0023121563717722893,-0.0019683423452079296,-0.005880259443074465
1782845801619319600,3.466319580078125,-0.007547132205218077,0.00007057376933516935,0.003198190126568079
1782845801629324500,3.476324462890625,-0.011886220425367355,0.0012101404136046767,0.008784170262515545
1782845801639329500,3.48632958984375,-0.010224142111837864,-0.0019212043844163418,0.013757890090346336
1782845801649334500,3.49633447265625,-0.008056062273681164,-0.009288573637604713,0.0194860827177763
1782845801659339500,3.506339599609375,-0.007932225242257118,-0.014572551473975182,0.019353458657860756
1782845801669344500,3.516344482421875,-0.0038072550669312477,-0.013481720350682735,0.016562199220061302
1782845801679350500,3.5263505859375,-0.004188353195786476,-0.010718956589698792,0.007918642833828926
1782845801689355500,3.53635546875,0.00018029600323643535,-0.00526533555239439,0.0010998855577781796
1782845801699360500,3.546360595703125,-0.0037316211964935064,0.002816559048369527,-0.004433364141732454
1782845801709365500,3.556365478515625,-0.0007326356135308743,0.009675264358520508,-0.010567422956228256
1782845801719370500,3.56637060546875,0.0005273058777675033,0.016047941520810127,-0.0062736086547374725
1782845801729375500,3.57637548828125,0.002867958042770624,0.004049869254231453,0.0008245146600529552
1782845801739380500,3.58638037109375,0.010845457203686237,-0.008745288476347923,0.009311476722359657
1782845801749385500,3.596385498046875,0.012797021307051182,-0.015684420242905617,0.014826882630586624
1782845801759390700,3.606390625,0.016175508499145508,-0.015533419325947762,0.019153188914060593
1782845801769395700,3.616395751953125,0.015739016234874725,-0.008894159458577633,0.01649242453277111
1782845801779400700,3.626400634765625,0.014628211036324501,-0.00449754623696208,0.012002866715192795
1782845801789405700,3.63640576171875,0.014391988515853882,-0.0043747746385633945,0.009429986588656902
1782845801799410700,3.64641064453125,0.011727762408554554,0.0001323590986430645,-0.0021523667965084314
1782845801809415700,3.656415771484375,0.007851798087358475,0.0011400992516428232,-0.004899151157587767
1782845801819420700,3.666420654296875,0.0021518340799957514,0.003931092098355293,-0.012975986115634441
1782845801829425700,3.67642578125,-0.0024767396971583366,0.0052232579328119755,-0.012966664507985115
1782845801839430700,3.6864306640625,-0.010083260014653206,0.007835552096366882,-0.010031328536570072
1782845801849435600,3.696435546875,-0.006412625312805176,0.003913515247404575,-0.0030213561840355396
1782845801859440600,3.706440673828125,-0.004511395003646612,-0.0006511429091915488,-0.0020245350897312164
1782845801869445600,3.716445556640625,-0.0015225291717797518,-0.012648151256144047,0.004638161510229111
1782845801879451400,3.726451416015625,0.0007246461464092135,-0.017039170488715172,0.0029795446898788214
1782845801889456400,3.736456298828125,-0.0014239922165870667,-0.00968778133392334,0.0017092167399823666
1782845801899461600,3.746461669921875,-0.003531617810949683,0.009542105719447136,-0.0028815402183681726
1782845801909466600,3.756466552734375,-0.006334861274808645,0.020487964153289795,-0.006487193983048201
1782845801919471600,3.7664716796875,-0.0019742012955248356,0.023729031905531883,-0.003225354477763176
1782845801929476600,3.7764765625,0.0017592841759324074,0.018218152225017548,0.0009257147903554142
1782845801939481600,3.786481689453125,0.010372479446232319,0.008841427974402905,0.01179087907075882
1782845801949486600,3.796486572265625,0.013850301504135132,-0.003061037277802825,0.017102288082242012
1782845801959491600,3.80649169921875,0.023417707532644272,-0.005294364411383867,0.02202886901795864
1782845801969496600,3.81649658203125,0.0332663431763649,-0.0030919299460947514,0.020054934546351433
1782845801979501600,3.82650146484375,0.03297153115272522,-0.00447011599317193,0.01588122919201851
1782845801989506600,3.836506591796875,0.03256619721651077,0.0014237258583307266,0.007496265694499016
1782845801999511600,3.846511474609375,0.03206898644566536,0.003310841741040349,-0.0036962011363357306
1782845802009516500,3.8565166015625,0.028190892189741135,0.0024794030468910933,-0.016292154788970947
1782845802019521500,3.866521484375,0.024288294836878777,-0.0011470235185697675,-0.02900315634906292
1782845802029526500,3.876526611328125,0.019457854330539703,-0.002487658755853772,-0.040467265993356705
1782845802039531500,3.886531494140625,0.01155678741633892,-0.017648234963417053,-0.044956024736166
1782845802049536500,3.89653662109375,0.006882140878587961,-0.023444073274731636,-0.04820214956998825
1782845802059541500,3.90654150390625,-0.0016314524691551924,-0.022344186902046204,-0.05297000706195831
1782845802069547800,3.9165478515625,-0.008057394064962864,-0.018932411447167397,-0.04868258535861969
1782845802079552800,3.926552734375,-0.013748569414019585,-0.019392339512705803,-0.044992510229349136
1782845802089557800,3.936557861328125,-0.016639696434140205,-0.0163054708391428,-0.03958096355199814
1782845802099562800,3.946562744140625,-0.015120895579457283,-0.023870978504419327,-0.031024761497974396
1782845802109568000,3.956568115234375,-0.015472699888050556,-0.025241706520318985,-0.018036257475614548
1782845802119573000,3.966572998046875,-0.011804195120930672,-0.00785632524639368,-0.00938870757818222
1782845802129578200,3.976578125,-0.011322163045406342,-0.002433863002806902,0.0013054815353825688
1782845802139583200,3.986583251953125,-0.005648830905556679,-0.01110218558460474,0.005676794331520796
1782845802149588200,3.996588134765625,0.003177683800458908,-0.021131649613380432,0.00905368197709322
1782845802159593200,4.00659326171875,0.004207261838018894,-0.025065138936042786,0.0037358824629336596
1782845802169598200,4.01659814453125,0.003019758267328143,-0.020961474627256393,0.0008964200387708843
1782845802179603200,4.026603271484375,-0.0018871158827096224,-0.016289224848151207,0.0010921623324975371
1782845802189608200,4.036608154296875,-0.006278135813772678,-0.010290986858308315,-0.00006524744821945205
1782845802199613200,4.04661328125,-0.010583136230707169,-0.01028645969927311,-0.00765898497775197
1782845802209618200,4.0566181640625,-0.01323750801384449,-0.013089170679450035,-0.006966030225157738
1782845802219623200,4.066623046875,-0.01092615071684122,-0.011894210241734982,-0.007048321887850761
1782845802229628200,4.076628173828125,-0.005596899427473545,-0.013727263547480106,-0.007998804561793804
1782845802239633200,4.086633056640625,-0.0013904364313930273,-0.01967197097837925,-0.005093029234558344
1782845802249638100,4.09663818359375,0.0031345405150204897,-0.020133763551712036,-0.005844040773808956
1782845802259643100,4.10664306640625,0.008012119680643082,-0.020297814160585403,-0.0014452975010499358
1782845802269649200,4.116649169921875,0.010838532820343971,-0.012292086146771908,-0.0005422196118161082
1782845802279654100,4.126654052734375,0.014238057658076286,-0.005000883713364601,-0.0005054679932072759
1782845802289659100,4.1366591796875,0.01248143706470728,-0.00863157119601965,0.010708037763834
1782845802299664100,4.1466640625,0.011931760236620903,-0.005062669049948454,0.013588513247668743
1782845802309669000,4.156669189453125,0.0076299565844237804,-0.008520251139998436,0.018274877220392227
1782845802319674000,4.166674072265625,0.004144677426666021,-0.01031655352562666,0.023612651973962784
1782845802329679000,4.17667919921875,-0.0015371765475720167,-0.015350193716585636,0.028068386018276215
1782845802339684000,4.18668408203125,-0.006638461723923683,-0.01721201092004776,0.024457938969135284
1782845802349689000,4.196689208984375,-0.007439274340867996,-0.017225058749318123,0.014039918780326843
1782845802359694000,4.206694091796875,-0.01104492787271738,-0.01924746483564377,0.009922672063112259
1782845802369699000,4.216698974609375,-0.01739976368844509,-0.012190086767077446,0.001324123702943325
1782845802379704000,4.2267041015625,-0.016774186864495277,-0.004954811185598373,-0.006924218963831663
1782845802389709300,4.236709228515625,-0.018990468233823776,-0.0028517129831016064,-0.004733768757432699
1782845802399714300,4.24671435546875,-0.01822640746831894,-0.006360161118209362,-0.010690727271139622
1782845802409719300,4.25671923828125,-0.015851667150855064,-0.009881925769150257,-0.010757839307188988
1782845802419724300,4.266724365234375,-0.011172492988407612,-0.011268633417785168,-0.00833675917237997
1782845802429729300,4.276729248046875,-0.008961536921560764,-0.009005479514598846,-0.006298642139881849
1782845802439734300,4.286734375,-0.004066913388669491,-0.011766377836465836,0.0025987126864492893
1782845802449739300,4.2967392578125,0.00013981595111545175,-0.014242852106690407,0.0052376389503479
1782845802459744300,4.306744140625,0.004948419518768787,-0.010237989947199821,0.009088569320738316
1782845802469749200,4.316749267578125,0.006959639023989439,-0.008639028295874596,0.010431335307657719
1782845802479755300,4.32675537109375,0.010145844891667366,-0.006076268386095762,0.010883806273341179
1782845802489760300,4.33676025390625,0.0026730147656053305,-0.004150536376982927,0.01762506552040577
1782845802499765200,4.34676513671875,0.0014961638953536749,0.0007262440049089491,0.01967516727745533
1782845802509770200,4.356770263671875,-0.00529489666223526,0.0007480819476768374,0.026188194751739502
1782845802519775200,4.366775146484375,-0.00612207455560565,-0.0015475628897547722,0.028793297708034515
1782845802529780200,4.3767802734375,-0.011541874147951603,-0.007151652593165636,0.025490179657936096
1782845802539785200,4.38678515625,-0.012772520072758198,-0.014404505491256714,0.01853826455771923
1782845802549790200,4.396790283203125,-0.009319731965661049,-0.01441329438239336,0.004336691461503506
1782845802559795200,4.406795166015625,-0.008173507638275623,-0.012318984605371952,-0.007247260306030512
1782845802569800200,4.41680029296875,-0.011048922315239906,-0.00464615086093545,-0.018681809306144714
1782845802579805200,4.42680517578125,-0.005052549298852682,0.002948652021586895,-0.023441676050424576
1782845802589810200,4.43681005859375,-0.00498117646202445,0.007246727589517832,-0.015630625188350677
1782845802599815200,4.446815185546875,-0.004026699345558882,-0.004679972771555185,-0.005358812864869833
1782845802609820200,4.456820068359375,-0.0008860336965881288,-0.01341753825545311,0.00959989707916975
1782845802619825200,4.4668251953125,-0.00018216021999251097,-0.016226373612880707,0.010245713405311108
1782845802629830100,4.476830078125,0.001603222917765379,-0.006354834884405136,0.007202252745628357
1782845802639835100,4.486835205078125,0.0011478224769234657,-0.00564110791310668,0.006608900614082813
1782845802649840000,4.496840087890625,0.002871153876185417,-0.006644853390753269,0.008360461331903934
1782845802659845000,4.50684521484375,-0.001987783471122384,-0.00965395849198103,0.0034384073223918676
1782845802669850000,4.51685009765625,-0.0015582155901938677,-0.011229485273361206,0.002043976215645671
1782845802679856000,4.526856201171875,-0.0049007488414645195,-0.01381195243448019,-0.0014210627414286137
1782845802689861000,4.536861083984375,-0.008038219064474106,-0.011230017989873886,-0.005166532471776009
1782845802699866000,4.5468662109375,-0.00911386962980032,-0.00691969133913517,-0.013685984537005424
1782845802709871000,4.55687109375,-0.01053573191165924,-0.005537777207791805,-0.012686500325798988
1782845802719876000,4.5668759765625,-0.01079778652638197,-0.006600112188607454,-0.013372530229389668
1782845802729881000,4.576881103515625,-0.008674714714288712,-0.01543514896184206,-0.01116263959556818
1782845802739886000,4.586885986328125,-0.008713330142199993,-0.02647341974079609,-0.007669637445360422
1782845802749891000,4.59689111328125,-0.010529073886573315,-0.03489406779408455,-0.005636313930153847
1782845802759896000,4.60689599609375,-0.012264389544725418,-0.03748825192451477,-0.009299492463469505
1782845802769901000,4.616901123046875,-0.01607670448720455,-0.035950277000665665,-0.013728595338761806
1782845802779906000,4.626906005859375,-0.023013973608613014,-0.03464825823903084,-0.01991511881351471
1782845802789911000,4.6369111328125,-0.028652682900428772,-0.03392734006047249,-0.025741582736372948
1782845802799916000,4.646916015625,-0.031445808708667755,-0.029760291799902916,-0.0320572704076767
1782845802809921000,4.656921142578125,-0.033118538558483124,-0.0247277170419693,-0.037283722311258316
1782845802819926000,4.666926025390625,-0.02930808812379837,-0.02678367681801319,-0.03876843303442001
1782845802829931000,4.676930908203125,-0.018305238336324692,-0.03718225657939911,-0.039506398141384125
1782845802839936000,4.68693603515625,-0.013553093187510967,-0.04477173089981079,-0.035051193088293076
1782845802849941000,4.69694091796875,-0.00592633243650198,-0.03879985958337784,-0.039031822234392166
1782845802859946000,4.706946044921875,0.00044048685231246054,-0.0357273705303669,-0.046422094106674194
1782845802869951000,4.716950927734375,0.008400408551096916,-0.02930063009262085,-0.05161259323358536
1782845802879956000,4.7269560546875,0.006866960786283016,-0.0235868189483881,-0.05320729315280914
1782845802889961000,4.7369609375,0.0035931370221078396,-0.016586966812610626,-0.04984106123447418
1782845802899966000,4.746966064453125,-0.0018048242200165987,-0.012173575349152088,-0.03984062373638153
1782845802909972200,4.75697216796875,-0.005275455769151449,-0.01203908585011959,-0.032889239490032196
1782845802919977200,4.766977294921875,-0.011832424439489841,-0.009517871774733067,-0.023085078224539757
1782845802929982200,4.776982177734375,-0.01546337828040123,-0.014659370295703411,-0.008101868443191051
1782845802939987200,4.7869873046875,-0.01787380501627922,-0.02220756746828556,0.0009438242996111512
1782845802949992200,4.7969921875,-0.02269199676811695,-0.02209438383579254,0.007616640534251928
1782845802959997200,4.8069970703125,-0.020688766613602638,-0.014196512289345264,0.0060384515672922134
1782845802970002200,4.817002197265625,-0.02033057250082493,-0.007763114292174578,0.004595284350216389
1782845802980007200,4.827007080078125,-0.020969463512301445,-0.0076097166165709496,0.00583764910697937
1782845802990012200,4.83701220703125,-0.015598400495946407,-0.003775030840188265,0.006176669616252184
1782845803000017200,4.84701708984375,-0.019402725622057915,-0.003947869874536991,0.00791384931653738
1782845803010022100,4.857022216796875,-0.0169073436409235,0.0024567660875618458,0.01227237842977047
1782845803020027100,4.867027099609375,-0.014390656724572182,0.00282002124004066,0.016199210658669472
1782845803030032100,4.8770322265625,-0.006110090296715498,0.004412591457366943,0.018687933683395386
1782845803040037000,4.887037109375,0.0008972189389169216,-0.003772367723286152,0.01996651664376259
1782845803050042000,4.8970419921875,0.007299990858882666,-0.011893411166965961,0.0210642721503973
1782845803060047000,4.907047119140625,0.017644241452217102,-0.012662265449762344,0.01888633891940117
1782845803070052000,4.917052001953125,0.023928502574563026,-0.005169195588678122,0.011347463354468346
1782845803080057000,4.92705712890625,0.025969015434384346,-0.0044077979400753975,0.010548247955739498
1782845803090062000,4.93706201171875,0.03122822754085064,-0.0034762241411954165,0.004728176165372133
1782845803100067000,4.947067138671875,0.03504160791635513,-0.004547081422060728,0.0006980145117267966
1782845803110072000,4.957072021484375,0.03556784614920616,-0.00373108871281147,-0.0024557008873671293
1782845803120077000,4.9670771484375,0.03230041638016701,-0.0009629990672692657,-0.004054130055010319
1782845803130083300,4.977083251953125,0.025952238589525223,0.002123604528605938,-0.004211523104459047
1782845803140088300,4.98708837890625,0.020975057035684586,-0.001785116852261126,-0.004470914602279663
1782845803150093300,4.99709326171875,0.01882695034146309,-0.008855809457600117,-0.004314321093261242
1782845803160098300,5.007098388671875,0.015454856678843498,-0.004876514431089163,-0.007938350550830364
1782845803170103300,5.017103271484375,0.013559484854340553,-0.0018767296569421887,-0.00717588746920228
1782845803180108300,5.0271083984375,0.010839331895112991,0.00021491710504051298,0.003652791725471616
1782845803190113300,5.03711328125,0.0027593011036515236,0.0035230957437306643,0.014446050859987736
1782845803200118300,5.0471181640625,-0.006866960786283016,0.000568318588193506,0.023268038406968117
1782845803210123300,5.057123291015625,-0.014645255170762539,0.007136472500860691,0.028190625831484795
1782845803220128300,5.067128173828125,-0.020129503682255745,0.011806592345237732,0.023960193619132042
1782845803230133200,5.07713330078125,-0.03081650286912918,0.013820207677781582,0.023203589022159576
1782845803240138200,5.08713818359375,-0.03725842386484146,0.018604842945933342,0.024383103474974632
1782845803250143200,5.097143310546875,-0.039146069437265396,0.018811238929629326,0.02496473863720894
1782845803260148200,5.107148193359375,-0.04062146320939064,0.0202149897813797,0.02652934566140175
1782845803270153200,5.1171533203125,-0.03933488950133324,0.012478507123887539,0.030044984072446823
1782845803280158200,5.127158203125,-0.04490755498409271,0.0026008430868387222,0.0451299287378788
1782845803290163200,5.1371630859375,-0.04496214911341667,0.0014687333023175597,0.05489547178149223
1782845803300168200,5.147168212890625,-0.049849048256874084,0.003043460426852107,0.06581123918294907
1782845803310173200,5.157173095703125,-0.049858637154102325,0.002463157754391432,0.06629779934883118
1782845803320178200,5.16717822265625,-0.044620998203754425,0.009493370540440083,0.057671550661325455
1782845803330183200,5.17718310546875,-0.04463990405201912,0.013948572799563408,0.05234496295452118
1782845803340188200,5.187188232421875,-0.042511507868766785,0.01793878711760044,0.053711164742708206
1782845803350193200,5.197193115234375,-0.03828240931034088,0.012665461748838425,0.05120406672358513
1782845803360199200,5.20719921875,-0.031857531517744064,0.002171008847653866,0.05077476426959038
1782845803370204200,5.2172041015625,-0.023155121132731438,0.006058691535145044,0.04846074432134628
1782845803380209200,5.227209228515625,-0.018444254994392395,0.008597482927143574,0.04116607829928398
1782845803390214100,5.237214111328125,-0.016713466495275497,0.008736765943467617,0.03452841565012932
1782845803400219100,5.24721923828125,-0.012524580582976341,0.008245945908129215,0.033972613513469696
1782845803410224000,5.25722412109375,-0.011094995774328709,0.005515939090400934,0.03446929529309273
1782845803420229000,5.26722900390625,-0.004342816770076752,-0.00007217166421469301,0.030283071100711823
1782845803430234000,5.277234130859375,0.00788695178925991,-0.006677077617496252,0.024261929094791412
1782845803440239000,5.287239013671875,0.018332934007048607,-0.01287718303501606,0.015103585086762905
1782845803450244000,5.297244140625,0.026454776525497437,-0.009583651088178158,0.0032977922819554806
1782845803460249000,5.3072490234375,0.03847149387001991,-0.003494866192340851,-0.007173490710556507
1782845803470254000,5.317254150390625,0.04439649358391762,-0.004584631882607937,-0.014876950532197952
1782845803480259000,5.327259033203125,0.04712330177426338,-0.0056861150078475475,-0.018918031826615334
1782845803490264000,5.33726416015625,0.048475392162799835,-0.012822587974369526,-0.02232794277369976
1782845803500269000,5.34726904296875,0.04627322405576706,-0.024403609335422516,-0.020264791324734688
1782845803510274000,5.357274169921875,0.044986382126808167,-0.02913311868906021,-0.029410885646939278
1782845803520279300,5.367279296875,0.04153386130928993,-0.024535169824957848,-0.0361713208258152
1782845803530284300,5.3772841796875,0.03917643055319786,-0.018882611766457558,-0.04274160414934158
1782845803540289300,5.387289306640625,0.035897281020879745,-0.013624732382595539,-0.044617801904678345
1782845803550294300,5.397294189453125,0.03742646798491478,-0.01392833236604929,-0.04224998503923416
1782845803560299300,5.40729931640625,0.033371537923812866,-0.014524880796670914,-0.029080653563141823
1782845803570304300,5.41730419921875,0.03500565513968468,-0.022374814376235008,-0.016045013442635536
1782845803580309200,5.427309326171875,0.031805332750082016,-0.022493325173854828,-0.011721104383468628
1782845803590314200,5.437314208984375,0.03206738829612732,-0.01441116351634264,-0.007098655682057142
1782845803600320300,5.4473203125,0.02479589357972145,-0.011885421350598335,-0.0028999161440879107
1782845803610325200,5.4573251953125,0.02087865024805069,-0.011366104707121849,0.0015941682504490018
1782845803620330200,5.467330322265625,0.01890338398516178,-0.0055004931055009365,0.004430168308317661
1782845803630335200,5.477335205078125,0.012584234587848186,-0.004430434666574001,0.01369477342814207
1782845803640340200,5.48734033203125,0.010843059979379177,-0.010212689638137817,0.01763092540204525
1782845803650345200,5.49734521484375,0.005056810099631548,-0.01805330254137516,0.020988905802369118
1782845803660350200,5.50735009765625,0.005535912699997425,-0.01937795802950859,0.01877528615295887
1782845803670355200,5.517355224609375,0.0049223206005990505,-0.02033643051981926,0.009247560054063797
1782845803680360200,5.527360107421875,0.0034373418893665075,-0.0169126708060503,0.0004577973741106689
1782845803690365400,5.537365478515625,0.0009414274245500565,-0.01787087693810463,-0.0037947380915284157
1782845803700370400,5.547370361328125,0.0001637844106880948,-0.01918967254459858,-0.010884072631597519
1782845803710375400,5.55737548828125,-0.004041080828756094,-0.01642238348722458,-0.021453892812132835
1782845803720380400,5.56738037109375,-0.002656769473105669,-0.010546118021011353,-0.02605636790394783
1782845803730385400,5.577385498046875,-0.005332979839295149,-0.008165251463651657,-0.027657194063067436
1782845803740390400,5.587390380859375,-0.007156712934374809,-0.014039119705557823,-0.03110465593636036
1782845803750395400,5.5973955078125,-0.004505536053329706,-0.019521502777934074,-0.03033100813627243
1782845803760400400,5.607400390625,0.0019052254501730204,-0.015633288770914078,-0.030417293310165405
1782845803770405400,5.6174052734375,0.003966778516769409,-0.021145232021808624,-0.02658900059759617
1782845803780410400,5.627410400390625,0.005031510256230831,-0.018158230930566788,-0.025563949719071388
1782845803790415400,5.637415283203125,0.007778827100992203,-0.0073383403941988945,-0.02460840716958046
1782845803800420400,5.64742041015625,0.008439823985099792,-0.002888997085392475,-0.013705692254006863
1782845803810425300,5.65742529296875,0.007715976797044277,-0.003335076617076993,-0.0052024852484464645
1782845803820430300,5.667430419921875,0.004727110732346773,-0.006874950136989355,0.0035198999103158712
1782845803830435300,5.677435302734375,0.001802960061468184,-0.005219529382884502,0.010496050119400024
1782845803840441300,5.68744140625,0.003510579001158476,-0.007996407337486744,0.011142665520310402
1782845803850446300,5.6974462890625,0.002600576728582382,-0.0008697884040884674,0.004247209057211876
1782845803860451300,5.707451416015625,-0.0003486077766865492,0.00216568261384964,-0.005824333056807518
1782845803870456300,5.717456298828125,-0.0032288164366036654,0.003680222202092409,-0.013288907706737518
1782845803880461300,5.72746142578125,-0.001820803270675242,-0.000030360035452758893,-0.010308563709259033
1782845803890466300,5.73746630859375,-0.0038983351550996304,0.0015012238873168826,-0.007829959504306316
1782845803900471300,5.74747119140625,-0.0024807346053421497,0.0026841999497264624,-0.008076302707195282
1782845803910476300,5.757476318359375,-0.0002463423879817128,-0.006203567609190941,-0.004638161510229111
1782845803920481300,5.767481201171875,0.0022540995851159096,-0.00652687530964613,0.003144926857203245
1782845803930486300,5.777486328125,0.0025747441686689854,-0.005218463949859142,0.005504221189767122
1782845803940491300,5.7874912109375,-0.001336107961833477,-0.0028567728586494923,0.008794822730123997
1782845803950496300,5.797496337890625,-0.0031819448340684175,-0.000494016392622143,0.004626443609595299
1782845803960501200,5.807501220703125,-0.006714894436299801,0.0008159925346262753,0.003204581793397665
1782845803970506200,5.81750634765625,-0.00782489962875843,-0.003561977995559573,-0.00541314110159874
1782845803980511200,5.82751123046875,-0.008924518711864948,-0.0030101709999144077,-0.017947042360901833
1782845803990516200,5.83751611328125,-0.01798832230269909,-0.0057377805933356285,-0.024204405024647713
1782845804000521200,5.847521240234375,-0.020267721265554428,-0.012574114836752415,-0.027404725551605225
1782845804010526200,5.857526123046875,-0.020252807065844536,-0.012179700657725334,-0.0296108890324831
1782845804020531200,5.86753125,-0.02221156284213066,-0.010154100134968758,-0.02309919334948063
1782845804030536200,5.8775361328125,-0.02022324688732624,-0.021212344989180565,-0.021767878904938698
1782845804040541200,5.887541259765625,-0.020480507984757423,-0.0236978717148304,-0.009542105719447136
1782845804050546200,5.897546142578125,-0.015112906694412231,-0.01540425606071949,-0.005605421494692564
1782845804060551200,5.90755126953125,-0.015630625188350677,-0.007673099637031555,-0.0031675638165324926
1782845804070556200,5.91755615234375,-0.015052452683448792,-0.006740993354469538,0.0008556736283935606
1782845804080561200,5.92756103515625,-0.011261975392699242,-0.01750975102186203,0.0011592740193009377
1782845804090567400,5.9375673828125,-0.015233547426760197,-0.025679264217615128,0.0026972496416419744
1782845804100572400,5.947572509765625,-0.009751697070896626,-0.02869396284222603,-0.002229332225397229
1782845804110577000,5.957576904296875,-0.008855543099343777,-0.02822418138384819,-0.010982610285282135
1782845804120582000,5.967581787109375,-0.010357566177845001,-0.023095732554793358,-0.021387847140431404
1782845804130587000,5.9775869140625,-0.011107511818408966,-0.011663580313324928,-0.028199147433042526
1782845804140591900,5.987591796875,-0.008255000226199627,-0.004957207944244146,-0.03160719573497772
1782845804150596900,5.997596923828125,-0.0028011128306388855,-0.005548163317143917,-0.02545848861336708
1782845804160601900,6.007601806640625,0.0054368432611227036,-0.007120493799448013,-0.017346765846014023
1782845804170606800,6.01760693359375,0.005950300954282284,-0.015062039718031883,-0.009156214073300362
1782845804180611800,6.02761181640625,0.009502158500254154,-0.01757153682410717,-0.0006799050024710596
1782845804190616800,6.037616943359375,0.013277456164360046,-0.02099796012043953,0.00138058268930763
1782845804200621800,6.047621826171875,0.012488361448049545,-0.020898090675473213,0.0025742114521563053
1782845804210626800,6.057626708984375,0.013501694425940514,-0.020718328654766083,0.0019600866362452507
1782845804220631800,6.0676318359375,0.012409797869622707,-0.021341774612665176,0.0014860439114272594
1782845804230636800,6.07763671875,0.017890583723783493,-0.017349962145090103,-0.00004314320904086344
1782845804240641800,6.087641845703125,0.01926131173968315,-0.012836436741054058,0.003180080559104681
1782845804250646800,6.097646728515625,0.021526331081986427,-0.010639328509569168,0.007978830486536026
1782845804260651800,6.10765185546875,0.02274525910615921,-0.00953651312738657,0.010098973289132118
1782845804270656800,6.11765673828125,0.025974608957767487,-0.013012471608817577,0.014245781116187572
1782845804280661800,6.127661865234375,0.03190360590815544,-0.013612748123705387,0.012370649725198746
1782845804290666800,6.137666748046875,0.03272945061326027,-0.013971209526062012,0.0073077138513326645
1782845804300671700,6.147671630859375,0.0368829183280468,-0.013306484557688236,0.00010253170330543071
1782845804310676700,6.1576767578125,0.037033386528491974,-0.014155765995383263,-0.01107342354953289
1782845804320681700,6.167681640625,0.03972237929701805,-0.014391722157597542,-0.015305452980101109
1782845804330686700,6.177686767578125,0.03923981264233589,-0.02040460705757141,-0.015993347391486168
1782845804340691700,6.187691650390625,0.037513818591833115,-0.019107380881905556,-0.020841632038354874
1782845804350696700,6.19769677734375,0.02858716994524002,-0.01333045307546854,-0.01642158441245556
1782845804360703000,6.207702880859375,0.024321850389242172,-0.009078715927898884,-0.005101551301777363
1782845804370708000,6.2177080078125,0.02093883790075779,-0.012111257761716843,-0.0033393376506865025
1782845804380713000,6.227712890625,0.02153405360877514,-0.015108378604054451,-0.003447994589805603
1782845804390718000,6.237718017578125,0.02190769650042057,-0.01332992035895586,-0.009439041838049889
1782845804400723000,6.247722900390625,0.022579077631235123,-0.0025864620693027973,-0.012118448503315449
1782845804410728000,6.25772802734375,0.020906614139676094,0.0005813680472783744,-0.0032562471460551023
1782845804420733000,6.26773291015625,0.017956363037228584,-0.0046179210767149925,-0.003576092654839158
1782845804430738000,6.277738037109375,0.01648816280066967,-0.0026434536557644606,-0.0004386226355563849
1782845804440743000,6.287742919921875,0.01173095777630806,-0.005316734779626131,0.006514624692499638
1782845804450748000,6.297747802734375,0.007802795618772507,-0.0021222729701548815,0.01152482908219099
1782845804460753000,6.3077529296875,-0.00033182985498569906,-0.00887738075107336,0.020010193809866905
1782845804470758000,6.3177578125,-0.0007813714328221977,-0.0028221518732607365,0.01649002730846405
1782845804480763000,6.327762939453125,-0.0016706009628251195,0.0019342538435012102,0.01139806304126978
1782845804490768000,6.337767822265625,0.0013022858183830976,0.005108209326863289,0.00980362854897976
1782845804500772900,6.34777294921875,0.0007789746159687638,0.005404086317867041,0.005520200356841087
1782845804510777900,6.35777783203125,0.002814162289723754,0.003346261801198125,0.0034727619495242834
1782845804520782800,6.367782958984375,0.005360410548746586,0.000931307440623641,0.005802229046821594
1782845804530787800,6.377787841796875,0.005426190793514252,-0.0017441042000427842,0.0025188177824020386
1782845804540792800,6.387792724609375,0.0065684206783771515,-0.00006338323146337643,-0.004610730800777674
1782845804550797800,6.3977978515625,0.006249640136957169,0.002597647253423929,-0.0051987566985189915
1782845804560802800,6.407802734375,0.00782596506178379,0.001609081868082285,-0.0038637141697108746
1782845804570807800,6.417807861328125,0.005791576579213142,-0.005048288032412529,-0.0025683525018393993
1782845804580813000,6.42781298828125,0.0012772521004080772,-0.004156661685556173,-0.0025031049735844135
1782845804590818000,6.437818115234375,-0.0021350563038140535,-0.0010452907299622893,-0.003052515210583806
1782845804600823000,6.447822998046875,-0.005215002223849297,-0.00007057376933516935,-0.0005174521938897669
1782845804610828000,6.457828125,-0.008595618419349194,-0.005081311333924532,-0.0033949976786971092
1782845804620833000,6.4678330078125,-0.009188704192638397,-0.008364456705749035,0.0013821806060150266
1782845804630838800,6.4778388671875,-0.011872105300426483,-0.004010720644146204,0.00145222176797688
1782845804640843800,6.48784375,-0.01347373053431511,-0.006309827324002981,0.005351888481527567
1782845804650848800,6.497848876953125,-0.013875335454940796,-0.0075876121409237385,0.012819391675293446
1782845804660853800,6.507853759765625,-0.014655109494924545,-0.0036629117093980312,0.018908975645899773
1782845804670858800,6.517858642578125,-0.014453507959842682,0.00006178533658385277,0.020652813836932182
1782845804680863700,6.52786376953125,-0.012325375340878963,0.005053614266216755,0.018859706819057465
1782845804690868700,6.53786865234375,-0.011577027849853039,0.008299209177494049,0.018816830590367317
1782845804700873700,6.547873779296875,-0.0060323262587189674,0.004993160720914602,0.020383302122354507
1782845804710879000,6.55787890625,-0.001859685406088829,-0.0059540290385484695,0.020076239481568336
1782845804720884000,6.567884033203125,-0.00042450788896530867,-0.009724000468850136,0.02226882055401802
1782845804730889000,6.577888916015625,0.004729773849248886,-0.01287638396024704,0.020715665072202682
1782845804740894000,6.58789404296875,0.0026519757229834795,-0.007072556763887405,0.012339224107563496
1782845804750899000,6.59789892578125,0.002704173792153597,0.007203318178653717,0.0018181400373578072
1782845804760904000,6.607904052734375,-0.0011065434664487839,0.012565593235194683,-0.002573146251961589
1782845804770909000,6.617908935546875,-0.001659948262386024,0.0054552191868424416,-0.0023299995809793472
1782845804780914000,6.627913818359375,-0.001121989800594747,-0.00333267985843122,-0.0011797803454101086
1782845804790919000,6.6379189453125,0.0019646140281111,-0.008025968447327614,-0.0011518171522766352
1782845804800924000,6.647923828125,0.0031457259319722652,-0.015586682595312595,-0.004293548408895731
1782845804810929000,6.657928955078125,0.00788482092320919,-0.020860806107521057,-0.00971654336899519
1782845804820934000,6.667933837890625,0.009943177923560143,-0.023265374824404716,-0.014999722130596638
1782845804830939000,6.67793896484375,0.007334345486015081,-0.017976870760321617,-0.014916365034878254
1782845804840943900,6.68794384765625,0.001609081868082285,-0.006310892757028341,-0.014310229569673538
1782845804850948900,6.697948974609375,-0.008550078608095646,0.006368417292833328,-0.004226702731102705
1782845804860953900,6.707953857421875,-0.015281484462320805,0.00726536987349391,0.009957825765013695
1782845804870958800,6.717958740234375,-0.014619954861700535,0.0019771307706832886,0.024270186200737953
1782845804880963800,6.7279638671875,-0.012460132129490376,-0.0000010652644277797663,0.033370740711688995
1782845804890968800,6.73796875,-0.012509400025010109,-0.007603857666254044,0.03341148793697357
1782845804900973800,6.747973876953125,-0.010820423252880573,-0.0121264373883605,0.024264059960842133
1782845804910978800,6.757978759765625,-0.006588927004486322,-0.01912522502243519,0.00914582796394825
1782845804920985000,6.767985107421875,-0.0021614215802401304,-0.021517809480428696,-0.007758054416626692
1782845804930990000,6.777989990234375,0.00021145498612895608,-0.021191038191318512,-0.01992443948984146
1782845804940995000,6.7879951171875,-0.001085770782083273,-0.023273363709449768,-0.03398752957582474
1782845804951000000,6.798,-0.0051899682730436325,-0.015166169963777065,-0.04128299281001091
1782845804961005000,6.808005126953125,-0.008655539713799953,-0.004826446995139122,-0.042822033166885376
1782845804971010000,6.818010009765625,-0.009081912226974964,-0.004424842074513435,-0.03693511337041855
1782845804981015000,6.82801513671875,-0.007620102725923061,-0.006640059407800436,-0.026259301230311394
1782845804991020000,6.83802001953125,-0.005409945268183947,-0.0051596080884337425,-0.01444285549223423
1782845805001025000,6.84802490234375,-0.001466602785512805,-0.007227020338177681,-0.002557699801400304
1782845805011030000,6.858030029296875,0.004280232358723879,-0.012540292926132679,0.0039278962649405
1782845805021035000,6.868034912109375,0.008261125534772873,-0.014907577075064182,0.008724515326321125
1782845805031040000,6.8780400390625,0.008857673965394497,-0.017534518614411354,0.007499195169657469
1782845805041045000,6.888044921875,0.008194812573492527,-0.02010340429842472,0.0001280980504816398
1782845805051050000,6.898050048828125,0.005227252375334501,-0.013307283632457256,-0.008791893720626831
1782845805061055000,6.908054931640625,0.0012309130979701877,-0.002653839997947216,-0.015175490640103817
1782845805071060000,6.91806005859375,-0.0031334753148257732,0.01095544546842575,-0.0154956029728055
1782845805081065000,6.92806494140625,-0.00643686018884182,0.015742477029561996,-0.008882441557943821
1782845805091070000,6.938070068359375,-0.0039867521263659,0.017300959676504135,0.00749227125197649
1782845805101075000,6.948074951171875,-0.0032519858796149492,0.01095677725970745,0.0237005352973938
1782845805111080000,6.958079833984375,0.005402222275733948,-0.0030567762441933155,0.038966573774814606
1782845805121085000,6.9680849609375,0.013931794092059135,-0.016282035037875175,0.044496361166238785
1782845805131090000,6.97808984375,0.016227439045906067,-0.015284680761396885,0.0369364470243454
1782845805141095000,6.988094970703125,0.01968049444258213,-0.006356166675686836,0.0219710785895586
1782845805151100000,6.998099853515625,0.018643459305167198,-0.008100803010165691,-0.0010120011866092682
1782845805161105000,7.00810498046875,0.022774022072553635,-0.004639759194105864,-0.018808308988809586
1782845805171110000,7.01810986328125,0.019474364817142487,-0.007526093162596226,-0.029198365285992622
1782845805181115000,7.028114990234375,0.015385613776743412,0.0033933997619897127,-0.04204998165369034
1782845805191120000,7.038119873046875,0.009392969310283661,0.011767176911234856,-0.04908232390880585
1782845805201124900,7.048124755859375,0.0038245655596256256,0.011957593262195587,-0.047502271831035614
1782845805211129900,7.0581298828125,0.003462375607341528,0.005280782002955675,-0.039270441979169846
1782845805221136100,7.06813623046875,0.0032264196779578924,0.00009241169027518481,-0.02780712954699993
1782845805231141000,7.07814111328125,0.007987619377672672,-0.01278903242200613,-0.01503780484199524
1782845805241146000,7.08814599609375,0.013647369109094143,-0.015291870571672916,-0.01335575245320797
1782845805251151000,7.098151123046875,0.01895797811448574,-0.01600666344165802,-0.017641844227910042
1782845805261156000,7.108156005859375,0.022821426391601562,-0.012745356187224388,-0.030406108126044273
1782845805271161000,7.1181611328125,0.02407204732298851,-0.00634817685931921,-0.03612018749117851
1782845805281166000,7.128166015625,0.0244936253875494,-0.0018343853298574686,-0.037036050111055374
1782845805291171000,7.138171142578125,0.019714849069714546,-0.0002924150903709233,-0.023517044261097908
1782845805301176000,7.148176025390625,0.01720322109758854,0.006721286103129387,-0.010062754154205322
1782845805311181000,7.15818115234375,0.013608486391603947,0.014115818776190281,0.008617723360657692
1782845805321186000,7.16818603515625,0.016404272988438606,0.004048004746437073,0.018221881240606308
1782845805331191000,7.17819091796875,0.019176091998815536,-0.0040852888487279415,0.022552447393536568
1782845805341196000,7.188196044921875,0.021634988486766815,-0.010439857840538025,0.01888607256114483
1782845805351201000,7.198200927734375,0.01733797788619995,-0.016750218346714973,0.014630075544118881
1782845805361206000,7.2082060546875,0.012616991996765137,-0.016759006306529045,0.009051552042365074
1782845805371211000,7.2182109375,0.008874718099832535,-0.009326922707259655,-0.0027196200098842382
1782845805381216000,7.228216064453125,0.0057441722601652145,-0.0033076461404561996,-0.011774101294577122
1782845805391221000,7.238220947265625,-0.0006170544074848294,-0.00415319949388504,-0.017122793942689896
1782845805401226000,7.24822607421875,-0.0035475967451930046,0.0025771409273147583,-0.017459949478507042
1782845805411231000,7.25823095703125,-0.005489573813974857,0.005775597412139177,-0.01375229749828577
1782845805421236000,7.268236083984375,-0.00711703160777688,0.012016182765364647,-0.007843541912734509
1782845805431241000,7.278240966796875,-0.011924836784601212,0.014634069986641407,-0.004561196081340313
1782845805441246000,7.288245849609375,-0.00936021190136671,0.007839547470211983,-0.002813629573211074
1782845805451251000,7.2982509765625,-0.010847321711480618,-0.004032824654132128,-0.003891411004588008
1782845805461256000,7.308255859375,-0.0073439329862594604,-0.010645187459886074,-0.010319748893380165
1782845805471261000,7.318260986328125,-0.004972654394805431,-0.00227833422832191,-0.016146479174494743
1782845805481266000,7.328265869140625,-0.004878911189734936,0.008822253905236721,-0.02021472342312336
1782845805491271000,7.33827099609375,-0.006941529456526041,0.020412065088748932,-0.016084427013993263
1782845805501276000,7.34827587890625,-0.006913832388818264,0.02082778327167034,-0.00475320965051651
1782845805511281000,7.358281005859375,-0.0029816750902682543,0.01255067903548479,0.008143946528434753
1782845805521286000,7.368285888671875,-0.001936917076818645,0.008153267204761505,0.023990554735064507
1782845805531291000,7.378290771484375,-0.0009693906176835299,0.0052107409574091434,0.03495239093899727
1782845805541296000,7.388296142578125,-0.0017632789677008986,0.004540956113487482,0.038770563900470734
1782845805551302000,7.398302001953125,-0.0029284118209034204,0.0070858728140592575,0.04174318537116051
1782845805561307000,7.408306884765625,-0.0033843449782580137,0.004855475388467312,0.03778546303510666
1782845805571311900,7.418311767578125,-0.004523911513388157,0.00737216230481863,0.02732589654624462
1782845805581316900,7.42831689453125,-0.001273257308639586,0.0043619913049042225,0.020624052733182907
1782845805591321900,7.43832177734375,-0.003352653468027711,0.007616374175995588,0.010497115552425385
1782845805601326800,7.448326904296875,-0.005224056541919708,0.0057404437102377415,0.005764412228018045
1782845805611331800,7.458331787109375,-0.007213171571493149,0.005319397896528244,0.004535363521426916
1782845805621336800,7.4683369140625,-0.0064837317913770676,0.004278901033103466,0.0054429685696959496
1782845805631341800,7.478341796875,-0.008450742810964584,0.0010125337867066264,0.0031212246976792812
1782845805641346800,7.488346923828125,-0.010998588986694813,-0.005617405753582716,-0.0027174896094948053
1782845805651351800,7.498351806640625,-0.009445167146623135,-0.0028035095892846584,-0.012487828731536865
1782845805661356800,7.508356689453125,-0.005320729687809944,-0.0019473034190014005,-0.017073791474103928
1782845805671362000,7.518362060546875,-0.0031792817171663046,0.0018109495285898447,-0.01937423087656498
1782845805681367000,7.528366943359375,-0.00010519486386328936,0.0016431703697890043,-0.015560850501060486
1782845805691372000,7.5383720703125,-0.00011185276525793597,0.002008289797231555,-0.012176505289971828
1782845805701377000,7.548376953125,0.0049188584089279175,0.007842476479709148,-0.008476043120026588
1782845805711382000,7.558382080078125,0.004197141621261835,0.006375873927026987,0.005838980432599783
1782845805721387000,7.568386962890625,0.0017696705181151628,0.004245877731591463,0.015303854830563068
1782845805731392000,7.57839208984375,0.00045140579459257424,-0.0037832865491509438,0.018851717934012413
1782845805741397000,7.58839697265625,-0.0036424053832888603,0.00016005597717594355,0.019455190747976303
1782845805751402000,7.598402099609375,-0.003906590864062309,0.004984372295439243,0.01263856329023838
1782845805761407000,7.608406982421875,-0.006416886579245329,0.0052325790748000145,0.014179734513163567
1782845805771412000,7.618411865234375,-0.004206196404993534,-0.0026141589041799307,0.005920207127928734
1782845805781417000,7.6284169921875,-0.0037145770620554686,-0.005254150368273258,0.004221376497298479
1782845805791422000,7.638421875,-0.0035326832439750433,-0.004827245604246855,-0.004095409065485001
1782845805801427000,7.648427001953125,-0.002223206916823983,-0.0028003137558698654,-0.011924304068088531
1782845805811432000,7.658431884765625,-0.0035635759122669697,0.00022370553051587194,-0.019334549084305763
1782845805821437000,7.66843701171875,-0.004477838985621929,0.0020634171087294817,-0.0190727598965168
1782845805831442000,7.67844189453125,-0.005456284619867802,-0.0009408948244526982,-0.016394685953855515
1782845805841447000,7.688447021484375,-0.004444282967597246,-0.003690076060593128,-0.007396663539111614
1782845805851452000,7.698451904296875,-0.0010964233661070466,-0.009109076112508774,0.0026114957872778177
1782845805861457200,7.70845703125,0.0033401367254555225,-0.015066834166646004,0.007582552265375853
1782845805871462100,7.718462158203125,0.005798500496894121,-0.012833506800234318,0.008164985105395317
1782845805881468200,7.72846826171875,0.010040383785963058,-0.013253754004836082,0.008627310395240784
1782845805891473200,7.73847314453125,0.013093697838485241,-0.01495151873677969,0.005330583080649376
1782845805901478100,7.74847802734375,0.016476977616548538,-0.011012437753379345,-0.002575543010607362
1782845805911483100,7.758483154296875,0.017229853197932243,-0.00703820213675499,-0.010202569887042046
1782845805921488100,7.768488037109375,0.01763651706278324,-0.004093012306839228,-0.018186727538704872
1782845805931493000,7.7784931640625,0.016170714050531387,0.0006596649764105678,-0.021096229553222656
1782845805941498000,7.788498046875,0.01537602674216032,-0.0016884441720321774,-0.02425793558359146
1782845805951503000,7.798503173828125,0.013333115726709366,-0.006527673918753862,-0.02033643051981926
1782845805961508000,7.808508056640625,0.010265421122312546,-0.010694722644984722,-0.02003016695380211
1782845805971513000,7.81851318359375,0.009601227939128876,-0.01577390357851982,-0.020910341292619705
1782845805981518000,7.82851806640625,0.015175224281847477,-0.019448265433311462,-0.023184148594737053
1782845805991523000,7.838523193359375,0.01552329957485199,-0.019031215459108353,-0.02604598179459572
1782845806001528000,7.848528076171875,0.01654195785522461,-0.017473265528678894,-0.026201244443655014
1782845806011533000,7.858532958984375,0.014903315342962742,-0.008276306092739105,-0.02888544462621212
1782845806021538000,7.8685380859375,0.01191072165966034,-0.0006921555614098907,-0.029017535969614983
1782845806031543000,7.87854296875,0.008042213506996632,0.0015867113834246993,-0.029695311561226845
1782845806041548000,7.888548095703125,0.008505071513354778,0.0011342403013259172,-0.025665149092674255
1782845806051553000,7.898552978515625,-0.0009797769598662853,-0.003471164032816887,-0.015254054218530655
1782845806061558000,7.90855810546875,0.001169127761386335,-0.011688081547617912,0.0013677994720637798
1782845806071563000,7.91856298828125,-0.000979244359768927,-0.018335863947868347,0.008171643130481243
1782845806081568000,7.928568115234375,-0.00166580721270293,-0.020295152440667152,0.014397581107914448
1782845806091573000,7.938572998046875,-0.0051596080884337425,-0.013394368812441826,0.012300342321395874
1782845806101578000,7.948577880859375,-0.001520665013231337,-0.003059173235669732,0.006595584563910961
1782845806111582500,7.95858251953125,-0.0025856629945337772,0.005287972744554281,0.0004719121498055756
1782845806121587500,7.96858740234375,-0.000075101139373146,0.006877613253891468,0.0006767092272639275
1782845806131592400,7.978592529296875,0.0010351707460358739,0.0014591459184885025,0.0030663637444376945
1782845806141597400,7.988597412109375,-0.00041278995922766626,-0.003347327234223485,0.00652714166790247
1782845806151602400,7.9986025390625,0.0020471718162298203,-0.00708747049793601,0.012021508999168873
1782845806161607400,8.008607421875,0.004137753508985043,-0.008025702089071274,0.014215687289834023
1782845806171612400,8.0186123046875,0.006358030717819929,-0.008462194353342056,0.010676613077521324
1782845806181617700,8.02861767578125,0.013107280246913433,-0.011952533386647701,0.00640942994505167
1782845806191622700,8.03862255859375,0.01155705377459526,-0.006402239203453064,0.0067724185064435005
1782845806201627600,8.048627685546874,0.010463293641805649,-0.000645550258923322,-0.002460494404658675
1782845806211632600,8.058632568359375,0.009604157879948616,0.009890980087220669,-0.012646819464862347
1782845806221637600,8.0686376953125,0.010894193314015865,0.010790595784783363,-0.01601278781890869
1782845806231642600,8.078642578125,0.01471742708235979,0.006881874520331621,-0.014358965680003166
1782845806241647600,8.088647705078126,0.012191684916615486,-0.0020003002136945724,0.00019627496658358723
1782845806251652600,8.098652587890625,0.014975220896303654,-0.010734137147665024,0.014348579570651054
1782845806261658600,8.10865869140625,0.01341913640499115,-0.013832724653184414,0.027844946831464767
1782845806271663600,8.11866357421875,0.01372033916413784,-0.008389489725232124,0.031621843576431274
1782845806281668600,8.128668701171875,0.014577078633010387,-0.0008554073283448815,0.02955416403710842
1782845806291673600,8.138673583984374,0.01116290595382452,0.0057380469515919685,0.028205271810293198
1782845806301678600,8.1486787109375,0.007044327445328236,0.011743208393454552,0.023874972015619278
1782845806311683600,8.15868359375,0.005361742340028286,0.013085175305604935,0.019595539197325706
1782845806321688600,8.1686884765625,0.005200620740652084,0.0142343295738101,0.019402459263801575
1782845806331693600,8.178693603515624,0.004028830211609602,0.009430252946913242,0.013831659220159054
1782845806341698600,8.188698486328125,0.005812349263578653,-0.0024490428622812033,0.013683854602277279
1782845806351703600,8.19870361328125,0.006421413738280535,-0.014128335751593113,0.012308863922953606
1782845806361708500,8.20870849609375,0.007802529260516167,-0.019823506474494934,0.00971787516027689
1782845806371713500,8.218713623046876,0.0023734092246741056,-0.014395717531442642,0.0035859462805092335
1782845806381718500,8.228718505859375,-0.001722798915579915,-0.011951201595366001,-0.0009025452891364694
1782845806391723500,8.2387236328125,-0.008527175523340702,-0.0027116306591778994,-0.009523730725049973
1782845806401728500,8.248728515625,-0.013715812005102634,-0.0004396878939587623,-0.006390521302819252
1782845806411733500,8.2587333984375,-0.019954798743128777,-0.0019060244085267186,-0.007280283607542515
1782845806421738800,8.26873876953125,-0.021264275535941124,-0.0068051754496991634,-0.0034562505315989256
1782845806431743700,8.27874365234375,-0.02040167711675167,-0.009640643373131752,-0.0032024511601775885
1782845806441748700,8.288748779296874,-0.01703011617064476,-0.010871555656194687,-0.005835518706589937
1782845806451753700,8.298753662109375,-0.012172243557870388,-0.0057646785862743855,-0.008333031088113785
1782845806461758700,8.3087587890625,-0.004412058740854263,-0.00899695698171854,-0.0007925567333586514
1782845806471763700,8.318763671875,-0.0006434197421185672,-0.014341655187308788,0.0038836877793073654
1782845806481768700,8.328768798828126,0.004572381265461445,-0.010313090868294239,0.01014131773263216
1782845806491773700,8.338773681640625,0.005794506054371595,-0.0039047268219292164,0.01429345179349184
1782845806501778700,8.34877880859375,0.0046693203039467335,0.00029640982393175364,0.014301707968115807
1782845806511783700,8.35878369140625,0.0057375142350792885,0.0034381409641355276,0.017961690202355385
1782845806521788700,8.36878857421875,0.008743423968553543,-0.0002069276088150218,0.015967780724167824
1782845806531793700,8.378793701171874,0.015340073965489864,-0.0000023968450477696024,0.008139153011143208
1782845806541798700,8.388798583984375,0.022550849243998528,0.0005217132274992764,0.00472657848149538
1782845806551803600,8.3988037109375,0.029102757573127747,-0.0002591255761217326,-0.0006346312584355474
1782845806561808600,8.40880859375,0.030377080664038658,-0.00015180018090177327,0.0004396878939587623
1782845806571813600,8.418813720703126,0.033782996237277985,-0.002606169320642948,-0.0008287757518701255
1782845806581818600,8.428818603515625,0.037159886211156845,-0.00018961707246489823,-0.004303401801735163
1782845806591823600,8.43882373046875,0.03588423132896423,-0.0008591357618570328,-0.011366104707121849
1782845806601828600,8.44882861328125,0.03136724233627319,0.0010940266074612737,-0.017783524468541145
1782845806611833600,8.45883349609375,0.03056456707417965,0.004591822158545256,-0.021625135093927383
1782845806621838600,8.468838623046874,0.02466406673192978,0.003968376200646162,-0.021798240020871162
1782845806631843600,8.478843505859375,0.029709160327911377,0.0031009847298264503,-0.025838786736130714
1782845806641848600,8.4888486328125,0.02767397277057171,0.00495188171043992,-0.026138126850128174
1782845806651853600,8.498853515625,0.0265921950340271,0.004593686666339636,-0.024687236174941063
1782845806661859600,8.508859619140624,0.02780872769653797,0.0011315771844238043,-0.018338527530431747
1782845806671864600,8.518864501953125,0.025767149403691292,-0.004297276493161917,-0.002980609890073538
1782845806681869600,8.52886962890625,0.023858461529016495,-0.002621615771204233,0.004639759194105864
1782845806691874600,8.53887451171875,0.016563797369599342,0.005684517323970795,0.012032960541546345
1782845806701879600,8.548879638671876,0.014547251164913177,0.0077458037994802,0.017774736508727074
1782845806711884500,8.558884521484375,0.012268916703760624,0.009779660031199455,0.020617660135030746
1782845806721889800,8.568889892578126,0.013373862020671368,0.005354018881917,0.023740483447909355
1782845806731894800,8.578894775390625,0.010262224823236465,0.004284227266907692,0.02100248634815216
1782845806741899800,8.588899658203125,0.010339456610381603,-0.0010833739070221782,0.02040114626288414
1782845806751904800,8.59890478515625,0.007407582364976406,-0.00026791400159709156,0.015361113473773003
1782845806761909800,8.60890966796875,0.0060091568157076836,0.004802744835615158,0.006373210810124874
1782845806771914800,8.618914794921874,0.0022082931827753782,0.010908307507634163,-0.0005707154050469398
1782845806781919700,8.628919677734375,0.0033361418172717094,0.013551228679716587,-0.0036634444259107113
1782845806791924700,8.6389248046875,-0.011987420730292797,0.031003989279270172,0.10070797055959702
1782845806801929700,8.6489296875,-0.015104117803275585,0.05550107732415199,0.11565069854259491
1782845806811934700,8.658934814453126,-0.0030085730832070112,0.09403408318758011,0.0449347160756588
1782845806821939700,8.668939697265625,0.016275642439723015,0.056106410920619965,-0.052086371928453445
1782845806831944700,8.67894482421875,0.0421847365796566,-0.007789745926856995,-0.11402883380651474
1782845806841949700,8.68894970703125,0.05589389055967331,-0.04214399307966232,-0.13139024376869202
1782845806851954700,8.69895458984375,0.03792527690529823,-0.06587834656238556,-0.08942335844039917
1782845806861959700,8.708959716796874,0.02726597525179386,-0.057143181562423706,-0.05059926211833954
1782845806871964700,8.718964599609375,0.020388629287481308,-0.01571371592581272,-0.022913837805390358
1782845806881969700,8.7289697265625,0.026386067271232605,-0.0016892430139705539,0.011995144188404083
