time,seconds_elapsed,z,y,x
1782845798230105900,0.07710595703125,0.0056810444220900536,-0.01895993947982788,0.008276551961898804
1782845798240110800,0.08711083984375,0.002535927575081587,-0.01713644713163376,0.011156061664223671
1782845798250116000,0.0971162109375,0.0012818449176847935,-0.01173209398984909,0.011010120622813702
1782845798260121000,0.10712109375,-0.0013652751222252846,-0.015104600228369236,0.011869534850120544
1782845798270126000,0.1171259765625,-0.0010893717408180237,-0.013793260790407658,0.006743482314050198
1782845798280131000,0.127131103515625,-0.0029828138649463654,-0.010635017417371273,0.004165951628237963
1782845798290136000,0.137135986328125,-0.007034014910459518,-0.01061211433261633,-0.0039907777681946754
1782845798300141000,0.14714111328125,-0.010303843766450882,-0.01179349236190319,-0.003781453240662813
1782845798310146000,0.15714599609375,-0.016951359808444977,-0.014272362925112247,-0.003412872087210417
1782845798320152000,0.167152099609375,-0.025154409930109978,-0.010310208424925804,-0.0036565023474395275
1782845798330157000,0.177156982421875,-0.03003358654677868,-0.0032062267418950796,-0.009364455007016659
1782845798340162000,0.187162109375,-0.037412919104099274,0.004809138365089893,-0.007715778890997171
1782845798350167000,0.1971669921875,-0.040313899517059326,0.011461181566119194,-0.005302421748638153
1782845798360172000,0.207172119140625,-0.04541756957769394,0.011265850625932217,0.0020999254193156958
1782845798370177000,0.217177001953125,-0.04584847018122673,0.0050657447427511215,0.013499852269887924
1782845798380182000,0.22718212890625,-0.044509340077638626,-0.007734011858701706,0.024947600439190865
1782845798390187000,0.23718701171875,-0.043968718498945236,-0.014977010898292065,0.03231896087527275
1782845798400192000,0.24719189453125,-0.04420944303274155,-0.016460075974464417,0.04108413681387901
1782845798410197000,0.257197021484375,-0.047932811081409454,-0.01043440867215395,0.04034457728266716
1782845798420202000,0.267201904296875,-0.04568011686205864,-0.008557703346014023,0.03897055238485336
1782845798430207000,0.27720703125,-0.04047204181551933,-0.007300158962607384,0.032773908227682114
1782845798440212000,0.2872119140625,-0.03728872910141945,-0.004495244473218918,0.02756277658045292
1782845798450217000,0.297217041015625,-0.030110178515315056,0.003419936168938875,0.020137617364525795
1782845798460222000,0.307221923828125,-0.023691140115261078,0.014185135252773762,0.014027307741343975
1782845798470227000,0.31722705078125,-0.015729887410998344,0.013730267062783241,0.010384635999798775
1782845798480232000,0.32723193359375,-0.004742121323943138,0.0037079202011227608,0.006206019315868616
1782845798490238000,0.337238037109375,0.008641328662633896,-0.0014474268537014723,0.0004325525078456849
1782845798500243000,0.347242919921875,0.018864266574382782,-0.007135285064578056,0.003209585091099143
1782845798510248000,0.357248046875,0.027444172650575638,-0.015515985898673534,0.001888124505057931
1782845798520253000,0.3672529296875,0.03260767087340355,-0.015856675803661346,-0.0017539889086037874
1782845798530258000,0.3772578125,0.037390973418951035,-0.01684204675257206,-0.005399856250733137
1782845798540263000,0.387262939453125,0.03877035155892372,-0.006240680813789368,-0.015606265515089035
1782845798550268000,0.397267822265625,0.03436095640063286,-0.004287252202630043,-0.020859351381659508
1782845798560273000,0.40727294921875,0.03381504863500595,-0.008175515569746494,-0.025321248918771744
1782845798570278000,0.41727783203125,0.025173360481858253,-0.009408826008439064,-0.02644084207713604
1782845798580283000,0.427282958984375,0.020108124241232872,-0.008479188196361065,-0.030195217579603195
1782845798590288000,0.437287841796875,0.013239831663668156,-0.006642673164606094,-0.03142320364713669
1782845798600292900,0.44729296875,0.014286442659795284,-0.001700402470305562,-0.028896084055304527
1782845798610297900,0.4572978515625,0.011485329829156399,0.002704732120037079,-0.020994484424591064
1782845798620302800,0.467302734375,0.0138845294713974,0.006129072979092598,-0.004581652581691742
1782845798630307800,0.477307861328125,0.011095933616161346,0.006649188697338104,0.011032193899154663
1782845798640312800,0.487312744140625,0.010184885002672672,0.006075978744775057,0.028985943645238876
1782845798650317800,0.49731787109375,0.011152678169310093,0.0064618708565831184,0.04151158779859543
1782845798660324000,0.507323974609375,0.006360489409416914,0.0056006768718361855,0.04916562885046005
1782845798670329000,0.5173291015625,0.0016810493543744087,0.006083508022129536,0.05601687729358673
1782845798680334000,0.527333984375,-0.0019301936263218522,0.0014433625619858503,0.051440898329019547
1782845798690339000,0.537339111328125,-0.006798984948545694,0.002730468288064003,0.04011048004031181
1782845798700344000,0.547343994140625,-0.005729354918003082,0.0023869923315942287,0.027852192521095276
1782845798710349000,0.55734912109375,-0.006607665214687586,0.006037919782102108,0.012586420401930809
1782845798720354000,0.56735400390625,-0.008703295141458511,0.0030767759308218956,-0.003212559036910534
1782845798730359000,0.577359130859375,-0.0067850202322006226,-0.0017227728385478258,-0.011390593834221363
1782845798740364000,0.587364013671875,-0.0047059133648872375,-0.002850404242053628,-0.017964521422982216
1782845798750369000,0.597369140625,-0.0019383564358577132,-0.0032975489739328623,-0.018489696085453033
1782845798760374000,0.6073740234375,-0.006260122638195753,-0.01206252072006464,-0.016508614644408226
1782845798770379000,0.61737890625,-0.004004425369203091,-0.02064588852226734,-0.0078964838758111
1782845798780384000,0.627384033203125,-0.005149020813405514,-0.019396673887968063,-0.007487949449568987
1782845798790389000,0.637388916015625,-0.006147173698991537,-0.01661073975265026,-0.009615815244615078
1782845798800394000,0.64739404296875,-0.005509589798748493,-0.020505297929048538,-0.009536271914839745
1782845798810399000,0.65739892578125,-0.0034174108877778053,-0.013270021416246891,-0.023575125262141228
1782845798820404000,0.667404052734375,0.004376511555165052,-0.01103766355663538,-0.030418843030929565
1782845798830409000,0.677408935546875,0.0022361292503774166,-0.012123433873057365,-0.0315493568778038
1782845798840415000,0.6874150390625,0.0011902942787855864,-0.014099524356424809,-0.019300634041428566
1782845798850420000,0.697419921875,-0.0009780515683814883,-0.017712902277708054,-0.006386167835444212
1782845798860425000,0.707425048828125,-0.005150711629539728,-0.017011858522892,0.0004642321146093309
1782845798870430000,0.717429931640625,-0.00764289777725935,-0.014747107401490211,0.0035481725353747606
1782845798880435000,0.72743505859375,-0.004438447766005993,-0.014567877165973186,0.008652366697788239
1782845798890440000,0.73743994140625,-0.005107167176902294,-0.011467425152659416,0.008724804036319256
1782845798900445000,0.74744482421875,-0.0011484823189675808,-0.00796570722013712,0.0032112891785800457
1782845798910450000,0.757449951171875,0.002133064903318882,-0.01064431481063366,0.00005411164602264762
1782845798920455000,0.767454833984375,0.00403038552030921,-0.01769539713859558,-0.00002053129719570279
1782845798930460000,0.7774599609375,0.0064775641076266766,-0.018141210079193115,-0.007044352125376463
1782845798940465000,0.78746484375,0.0023423044476658106,-0.012993126176297665,-0.0132893156260252
1782845798950470000,0.797469970703125,-0.0012337884400039911,-0.013979827053844929,-0.01911737769842148
1782845798960475000,0.807474853515625,-0.0019298536935821176,-0.018425270915031433,-0.018694275990128517
1782845798970479900,0.81747998046875,-0.002398836426436901,-0.0179152749478817,-0.012961821630597115
1782845798980484900,0.82748486328125,-0.007801741361618042,-0.015983590856194496,-0.004817944020032883
1782845798990489900,0.83748974609375,-0.01043720543384552,-0.013000315986573696,0.002496960572898388
1782845799000494800,0.847494873046875,-0.013660291209816933,-0.010295464657247066,0.008215145207941532
1782845799010500900,0.8575009765625,-0.014310101978480816,-0.01464733574539423,0.012012014165520668
1782845799020505900,0.867505859375,-0.020007263869047165,-0.017843782901763916,0.011966319754719734
1782845799030510800,0.8775107421875,-0.027790619060397148,-0.020371655002236366,0.009003019891679287
1782845799040515800,0.887515869140625,-0.03533017635345459,-0.022525791078805923,0.010969961993396282
1782845799050520800,0.897520751953125,-0.04169566556811333,-0.019299104809761047,0.007895874790847301
1782845799060525800,0.90752587890625,-0.045248374342918396,-0.012757291086018085,0.008799032308161259
1782845799070530800,0.91753076171875,-0.04569099098443985,-0.007531370036303997,0.014834287576377392
1782845799080535800,0.927535888671875,-0.04173853248357773,-0.004664210602641106,0.016879472881555557
1782845799090540800,0.937540771484375,-0.03538795933127403,-0.004690841771662235,0.025358445942401886
1782845799100545800,0.9475458984375,-0.031241392716765404,-0.0047720191068947315,0.03663258254528046
1782845799110550800,0.95755078125,-0.0242985300719738,0.001487207948230207,0.04544391855597496
1782845799120555800,0.9675556640625,-0.020781051367521286,-0.0005584154278039932,0.047857899218797684
1782845799130560800,0.977560791015625,-0.015481360256671906,0.0008221673779189587,0.0484272800385952
1782845799140565800,0.987565673828125,-0.010427063331007957,0.0011344598606228828,0.04701294004917145
1782845799150570800,0.99757080078125,-0.0028658160008490086,0.0004646747838705778,0.035334713757038116
1782845799160575700,1.00757568359375,-0.004018709994852543,0.0052727218717336655,0.029187917709350586
1782845799170580700,1.017580810546875,-0.009462211281061172,0.0016015541041269898,0.025467215105891228
1782845799180586800,1.027586669921875,-0.01089252158999443,0.00019448436796665192,0.021105723455548286
1782845799190591700,1.037591796875,-0.010251498781144619,0.0009739918168634176,0.014786042273044586
1782845799200596700,1.0475966796875,-0.0159025639295578,0.00269911577925086,0.014156496152281761
1782845799210601700,1.057601806640625,-0.01685251295566559,0.004359862767159939,0.009911151602864265
1782845799220606700,1.067606689453125,-0.017777973785996437,-0.00012945267371833324,0.009419575333595276
1782845799230611700,1.07761181640625,-0.016679154708981514,-0.007257669232785702,0.005252527538686991
1782845799240616700,1.08761669921875,-0.018867528066039085,-0.010448911227285862,-0.0035837609320878983
1782845799250621700,1.09762158203125,-0.014345480129122734,-0.00718787033110857,-0.009717819280922413
1782845799260626700,1.107626708984375,-0.011993110179901123,-0.0026591650675982237,-0.00826027151197195
1782845799270631700,1.117631591796875,-0.008857237175107002,0.004163587000221014,0.0018695942126214504
1782845799280636700,1.12763671875,-0.007371224462985992,0.005951440427452326,0.017115119844675064
1782845799290641700,1.1376416015625,-0.003480612300336361,0.005216673947870731,0.03145118057727814
1782845799300646700,1.147646728515625,0.0005987212061882019,-0.005280901677906513,0.04529920592904091
1782845799310652000,1.15765185546875,0.0003952556289732456,-0.02004546858370304,0.05458618327975273
1782845799320657000,1.167656982421875,0.002138209529221058,-0.016812292858958244,0.047255903482437134
1782845799330662000,1.177661865234375,-0.004387333989143372,-0.010992219671607018,0.0365942046046257
1782845799340667000,1.1876669921875,-0.004246803931891918,-0.006999778561294079,0.02142198383808136
1782845799350672000,1.197671875,-0.00886579044163227,-0.008824043907225132,0.005796153098344803
1782845799360678000,1.207677978515625,-0.00574516411870718,-0.009636574424803257,-0.004200697876513004
1782845799370683000,1.217682861328125,-0.005071916617453098,-0.007117756642401218,-0.00874405074864626
1782845799380688000,1.22768798828125,-0.005464710295200348,-0.010820567607879639,-0.009040279313921928
1782845799390692900,1.23769287109375,-0.002116583986207843,-0.009406428784132004,0.00010767835192382336
1782845799400697900,1.24769775390625,-0.0026779782492667437,-0.010851725935935974,0.006011107470840216
1782845799410702800,1.257702880859375,0.0014126370660960674,-0.014155643992125988,0.012316673994064331
1782845799420707800,1.267707763671875,0.003943620249629021,-0.015353702940046787,0.014916259795427322
1782845799430712800,1.277712890625,0.007751142140477896,-0.015802977606654167,0.014045938849449158
1782845799440717800,1.2877177734375,0.01288053672760725,-0.016692982986569405,0.009829293005168438
1782845799450722800,1.297722900390625,0.01216174941509962,-0.013377613388001919,0.003871534951031208
1782845799460727800,1.307727783203125,0.008852740749716759,-0.005018144845962524,0.0031564710661768913
1782845799470732800,1.31773291015625,0.007715305313467979,0.001349206897430122,0.003689901903271675
1782845799480738000,1.327738037109375,0.0002183367032557726,-0.003157466882839799,0.017709730193018913
1782845799490743000,1.337742919921875,-0.005598805844783783,-0.010284352116286755,0.029022838920354843
1782845799500748000,1.347748046875,-0.012989035807549953,-0.016679979860782623,0.04352344945073128
1782845799510753000,1.3577529296875,-0.01853293739259243,-0.01709064096212387,0.051389094442129135
1782845799520758800,1.3677587890625,-0.024346714839339256,-0.01325961109250784,0.05015217512845993
1782845799530763800,1.377763671875,-0.02605087123811245,-0.004324972629547119,0.047112707048654556
1782845799540768800,1.387768798828125,-0.025773465633392334,0.0012834510998800397,0.03590277582406998
1782845799550773800,1.397773681640625,-0.026205163449048996,-0.007073282264173031,0.03550143912434578
1782845799560778800,1.40777880859375,-0.023559410125017166,-0.007410365156829357,0.03448369726538658
1782845799570783700,1.41778369140625,-0.02509871870279312,-0.003643324365839362,0.03175129368901253
1782845799580788700,1.427788818359375,-0.02552875317633152,-0.0035988495219498873,0.03561888262629509
1782845799590793700,1.437793701171875,-0.022436557337641716,-0.00408674031496048,0.04132816568017006
1782845799600798700,1.447798828125,-0.023972081020474434,-0.005385055206716061,0.04335368424654007
1782845799610804000,1.457803955078125,-0.02046256698668003,-0.004338166676461697,0.04466076195240021
1782845799620809000,1.46780908203125,-0.01953566074371338,-0.0006447744090110064,0.04307474195957184
1782845799630814000,1.47781396484375,-0.016153711825609207,0.006907683797180653,0.03923632949590683
1782845799640819000,1.48781884765625,-0.018421852961182594,0.007961641997098923,0.036356620490550995
1782845799650824000,1.497823974609375,-0.01387903280556202,0.009426646865904331,0.034198127686977386
1782845799660829000,1.507828857421875,-0.012865263968706131,0.00576540594920516,0.03757486492395401
1782845799670834000,1.517833984375,-0.00865001231431961,0.004960598424077034,0.04077918082475662
1782845799680839000,1.5278388671875,-0.008613601326942444,-0.000330981332808733,0.046055205166339874
1782845799690844000,1.537843994140625,-0.0056822593323886395,-0.006975567899644375,0.041355255991220474
1782845799700849700,1.547849609375,-0.005573004484176636,-0.004341701045632362,0.03698008880019188
1782845799710854700,1.557854736328125,-0.014239463023841381,-0.0005328485276550055,0.034060731530189514
1782845799720859600,1.567859619140625,-0.015107506886124611,0.008323517628014088,0.03184385597705841
1782845799730864600,1.57786474609375,-0.01619594171643257,0.007971181534230709,0.023914827033877373
1782845799740870000,1.587869873046875,-0.015264749526977539,0.012926694937050343,0.013543481007218361
1782845799750875000,1.597875,-0.011469744145870209,0.014864143915474415,0.006371321622282267
1782845799760879900,1.6078798828125,-0.004327945411205292,0.01282229833304882,0.006958814803510904
1782845799770884900,1.617884765625,0.00209107156842947,0.0009975971188396215,0.013614321127533913
1782845799780889900,1.627889892578125,0.0042128777131438255,-0.010389812290668488,0.01852426677942276
1782845799790895000,1.63789501953125,0.007577781565487385,-0.0057364716194570065,0.021555209532380104
1782845799800900000,1.647900146484375,0.009901385754346848,0.0010981191881000996,0.021118320524692535
1782845799810905000,1.657905029296875,0.008649167604744434,0.007203149609267712,0.014365875162184238
1782845799820910000,1.66791015625,0.009138541296124458,0.010088321752846241,0.012286548502743244
1782845799830915000,1.6779150390625,0.012328475713729858,0.012993031181395054,0.00039526826003566384
1782845799840920000,1.687920166015625,0.013131490908563137,0.00857792142778635,-0.004896997474133968
1782845799850925000,1.697925048828125,0.017428502440452576,0.007684697397053242,-0.010128778405487537
1782845799860930000,1.707929931640625,0.016161948442459106,-0.0012064343318343163,-0.006897203624248505
1782845799870935800,1.717935791015625,0.012993319891393185,-0.004628063645213842,-0.0068900128826498985
1782845799880940800,1.72794091796875,0.009618005715310574,-0.001736452104523778,-0.00372049817815423
1782845799890945800,1.73794580078125,0.007191333919763565,-0.0014099485706537962,0.003145929891616106
1782845799900950800,1.74795068359375,0.0048059518449008465,-0.002224052557721734,0.006747012957930565
1782845799910956000,1.7579560546875,0.0021723518148064613,0.0007411108817905188,0.008631199598312378
1782845799920961000,1.7679609375,-0.002524259965866804,0.0002546969335526228,0.003138541476801038
1782845799930966000,1.777966064453125,0.0033767723944038153,0.0058049908839166164,-0.00331749371252954
1782845799940971000,1.787970947265625,0.003515735501423478,0.005154671147465706,-0.007650376297533512
1782845799950976000,1.79797607421875,0.008018608205020428,-0.000007334165275096893,-0.012216632254421711
1782845799960981000,1.80798095703125,0.008119607344269753,-0.007614652626216412,-0.013500932604074478
1782845799970986000,1.817986083984375,0.0075773876160383224,-0.007906002923846245,-0.015909496694803238
1782845799980991000,1.827990966796875,0.008379466831684113,-0.007380295544862747,-0.018420998007059097
1782845799990996000,1.837995849609375,0.004490186460316181,-0.004120053723454475,-0.017810335382819176
1782845800001001000,1.8480009765625,-0.00002113543450832367,-0.0005731112323701382,-0.011601739563047886
1782845800011006000,1.858005859375,-0.00022912840358912945,0.004270912613719702,-0.008353748358786106
1782845800021011000,1.868010986328125,0.00486224889755249,0.0017148347105830908,-0.0012590077240020037
1782845800031016000,1.878015869140625,0.007441253867000341,0.00457427091896534,0.004927249625325203
1782845800041021000,1.88802099609375,0.005126681178808212,-0.0021746146958321333,0.010753931477665901
1782845800051027000,1.89802685546875,0.00532428827136755,-0.009574740193784237,0.01887151226401329
1782845800061032000,1.908031982421875,0.006441066972911358,-0.01624027080833912,0.019040554761886597
1782845800071037000,1.918036865234375,0.006973166950047016,-0.017846688628196716,0.015839435160160065
1782845800081042000,1.9280419921875,0.003562414087355137,-0.01666313223540783,0.008340809494256973
1782845800091047000,1.938046875,0.0017879498191177845,-0.012265719473361969,0.0025220687966793776
1782845800101052000,1.948052001953125,-0.003351194318383932,-0.008547898381948471,0.004333854652941227
1782845800111057000,1.958056884765625,-0.004961607977747917,-0.0052897874265909195,0.004522672388702631
1782845800121062000,1.968061767578125,-0.011873001232743263,-0.002926280489191413,0.005482438486069441
1782845800131067000,1.97806689453125,-0.01534230075776577,-0.006642455235123634,0.006086976267397404
1782845800141072000,1.98807177734375,-0.011436710134148598,-0.01690387912094593,0.005138501059263945
1782845800151076900,1.998076904296875,-0.011906757950782776,-0.024587366729974747,0.003066295525059104
1782845800161081900,2.008081787109375,-0.010462602600455284,-0.025234807282686234,-0.0045658922754228115
1782845800171086800,2.0180869140625,-0.011475402861833572,-0.01967945322394371,-0.014093883335590363
1782845800181091800,2.028091796875,-0.011069907806813717,-0.013331080786883831,-0.0207565538585186
1782845800191096800,2.038096923828125,-0.005895918235182762,-0.004691786132752895,-0.029151368886232376
1782845800201101800,2.048101806640625,-0.001272639725357294,-0.0032236583065241575,-0.03485345467925072
1782845800211106800,2.05810693359375,0.004037437029182911,-0.007368335500359535,-0.028880786150693893
1782845800221112800,2.06811279296875,0.007352879270911217,-0.011469458229839802,-0.02021782286465168
1782845800231117800,2.078117919921875,0.007784311659634113,-0.015807749703526497,-0.008779012598097324
1782845800241122800,2.088122802734375,0.008317839354276657,-0.012709232978522778,-0.0013164200354367495
1782845800251127800,2.0981279296875,0.007507173344492912,-0.007495828904211521,-0.001915364759042859
1782845800261132800,2.1081328125,0.00791110098361969,-0.0023483496624976397,-0.0010423489147797227
1782845800271137800,2.1181376953125,0.006785117089748383,-0.0002934546209871769,-0.003497783560305834
1782845800281142800,2.128142822265625,0.007968433201313019,-0.0006930502131581306,-0.007910673506557941
1782845800291147800,2.138147705078125,0.012181820347905159,-0.005667568184435368,-0.006620637606829405
1782845800301152800,2.14815283203125,0.013950498774647713,-0.009933008812367916,-0.008997009135782719
1782845800311157800,2.15815771484375,0.015150785446166992,-0.013078735210001469,-0.015787003561854362
1782845800321162800,2.168162841796875,0.014821164309978485,-0.00965921115130186,-0.020526530221104622
1782845800331167700,2.178167724609375,0.014402247965335846,-0.007408573292195797,-0.022768646478652954
1782845800341172700,2.1881728515625,0.013184171169996262,-0.0020993195939809084,-0.02131037972867489
1782845800351177700,2.198177734375,0.012737559154629707,0.004552723839879036,-0.01945761777460575
1782845800361182700,2.2081826171875,0.014856263063848019,0.006455333903431892,-0.016434503719210625
1782845800371187700,2.218187744140625,0.011945960111916065,0.0072998227551579475,-0.012467991560697556
1782845800381192700,2.228192626953125,0.012612911872565746,0.0017249552765861154,-0.010242771357297897
1782845800391197700,2.23819775390625,0.011149505153298378,-0.001477229641750455,-0.00637879129499197
1782845800401203700,2.24820361328125,0.010622678324580193,-0.00890050083398819,-0.010079439729452133
1782845800411208700,2.258208740234375,0.0071861352771520615,-0.009879745543003082,-0.009840021841228008
1782845800421213700,2.268213623046875,0.004183100536465645,-0.004665251821279526,-0.010874579660594463
1782845800431218700,2.27821875,-0.00013841083273291588,-0.0052410271018743515,-0.011195756494998932
1782845800441224000,2.288223876953125,0.0031402609311044216,0.0005795534234493971,-0.00996439065784216
1782845800451229000,2.29822900390625,0.00025152997113764286,0.006082975771278143,-0.005196533631533384
1782845800461234000,2.30823388671875,-0.0017257516738027334,0.010009370744228363,-0.002543562324717641
1782845800471239000,2.318239013671875,-0.00019869511015713215,0.011022970080375671,0.00533726392313838
1782845800481244000,2.328243896484375,0.00018544099293649197,0.008562427014112473,0.008630103431642056
1782845800491249000,2.338248779296875,0.002578557236120105,-0.0004417204763740301,0.006948050577193499
1782845800501254000,2.34825390625,0.0037585305981338024,-0.005221440456807613,0.005385338794440031
1782845800511259000,2.3582587890625,0.00523392204195261,-0.001158255385234952,0.0026156515814363956
1782845800521263900,2.368263916015625,0.004828863311558962,0.005721100606024265,-0.0066238283179700375
1782845800531268900,2.378268798828125,0.005108495242893696,0.01299925334751606,-0.011404735967516899
1782845800541273900,2.38827392578125,0.006174720823764801,0.013557646423578262,-0.014258552342653275
1782845800551278800,2.39827880859375,0.0054125236347317696,0.014703604392707348,-0.012769046239554882
1782845800561283800,2.408283935546875,0.0039058963302522898,0.0150508563965559,-0.010921712964773178
1782845800571288800,2.418288818359375,0.00009837513789534569,0.01365962065756321,-0.004742380231618881
1782845800581294800,2.428294921875,-0.000610438990406692,0.004303378984332085,0.0015272980090230703
1782845800591299800,2.4382998046875,0.0009440481662750244,-0.002794211497530341,0.00022953952429816127
1782845800601304800,2.448304931640625,-0.0008704483043402433,-0.004840753972530365,-0.003927846904844046
1782845800611309800,2.458309814453125,-0.0025988398119807243,-0.0004265641327947378,-0.0022244888823479414
1782845800621314800,2.468314697265625,-0.006451603956520557,0.008544220589101315,-0.006899929139763117
1782845800631319800,2.47831982421875,-0.004836130887269974,0.02299373224377632,-0.003369908779859543
1782845800641324800,2.48832470703125,-0.0030127065256237984,0.024520039558410645,0.0025551291182637215
1782845800651329800,2.498329833984375,-0.0021977792493999004,0.019397981464862823,0.01478835940361023
1782845800661334800,2.508334716796875,-0.00027805729769170284,0.01372128538787365,0.023669932037591934
1782845800671339800,2.51833984375,0.003112412989139557,0.009744119830429554,0.030420247465372086
1782845800681344800,2.5283447265625,0.0020906971767544746,0.004119402728974819,0.032009996473789215
1782845800691349800,2.538349853515625,0.003407097887247801,0.00400382187217474,0.0290999636054039
1782845800701354800,2.548354736328125,0.006416736636310816,0.010557594709098339,0.015000922605395317
1782845800711359700,2.55835986328125,0.006109940353780985,0.01302954088896513,0.0064931875094771385
1782845800721364700,2.56836474609375,0.0032234785612672567,0.017787156626582146,-0.0020546482410281897
1782845800731369700,2.57836962890625,0.002889518393203616,0.014738104306161404,-0.004258946515619755
1782845800741374700,2.588374755859375,-0.000012030592188239098,0.008680405095219612,-0.011456812731921673
1782845800751379700,2.598379638671875,-0.0010120474034920335,0.004668086767196655,-0.01056971400976181
1782845800761385700,2.6083857421875,-0.006734867580235004,0.0021126146893948317,-0.014542785473167896
1782845800771390700,2.618390625,-0.008480037562549114,-0.0008898333180695772,-0.014879675582051277
1782845800781395700,2.628395751953125,-0.0032141804695129395,0.0004246784374117851,-0.015730513259768486
1782845800791400700,2.638400634765625,-0.001395507832057774,0.002211925806477666,-0.0189481433480978
1782845800801405700,2.64840576171875,0.0027615707367658615,0.0021806706208735704,-0.01470699068158865
1782845800811410700,2.65841064453125,0.006122479680925608,0.001325263176113367,-0.011848886497318745
1782845800821415700,2.668415771484375,0.010708782821893692,0.000044161221012473106,-0.006387041416019201
1782845800831420700,2.678420654296875,0.008234972134232521,0.00023777293972671032,-0.00047269323840737343
1782845800841425700,2.68842578125,0.0052027516067028046,0.002768018515780568,0.0012710646260529757
1782845800851430700,2.6984306640625,0.006399042904376984,0.0025531016290187836,0.004858608823269606
1782845800861435600,2.708435546875,0.006782314740121365,0.003428699914366007,0.003557351417839527
1782845800871440600,2.718440673828125,0.010179176926612854,0.0038058036006987095,0.007721469737589359
1782845800881445600,2.728445556640625,0.012875924818217754,0.002253906801342964,0.007287113927304745
1782845800891450600,2.73845068359375,0.019241411238908768,0.005317074712365866,0.007399765308946371
1782845800901455600,2.74845556640625,0.023089613765478134,0.006452646572142839,0.0014194921823218465
1782845800911460600,2.758460693359375,0.021644050255417824,0.010695062577724457,0.002695146482437849
1782845800921465600,2.768465576171875,0.021564839407801628,0.0075827958062291145,0.003927727695554495
1782845800931470600,2.778470703125,0.02248070016503334,0.006595827639102936,0.0003503032785374671
1782845800941475600,2.7884755859375,0.023786351084709167,-0.0008822556119412184,-0.00011696468573063612
1782845800951481900,2.79848193359375,0.01970798522233963,-0.0016657577361911535,-0.004250190686434507
1782845800961486800,2.80848681640625,0.01592842862010002,-0.00721525214612484,-0.009175441227853298
1782845800971491800,2.818491943359375,0.011756053194403648,-0.006421363912522793,-0.012704928405582905
1782845800981496800,2.828496826171875,0.00474261911585927,-0.0008098178077489138,-0.018624601885676384
1782845800991501800,2.838501708984375,0.0016802502796053886,0.0012416151585057378,-0.015914302319288254
1782845801001506800,2.8485068359375,0.003160053165629506,0.0016910600243136287,-0.0201790202409029
1782845801011511800,2.85851171875,0.0038266421761363745,0.0007496324833482504,-0.018447699025273323
1782845801021516800,2.868516845703125,0.002138719195500016,-0.000230701407417655,-0.010408904403448105
1782845801031521800,2.878521728515625,0.0019368517678231,-0.002827549586072564,-0.006504710763692856
1782845801041526800,2.88852685546875,0.0004067921545356512,-0.008166533894836903,0.0033399625681340694
1782845801051531800,2.89853173828125,0.00031118467450141907,-0.010114636272192001,0.015098351053893566
1782845801061536800,2.908536865234375,0.0006950194947421551,-0.00462891161441803,0.020289620384573936
1782845801071541800,2.918541748046875,0.0009855704847723246,-0.004078703001141548,0.024473711848258972
1782845801081546800,2.928546630859375,0.004918762017041445,0.0005488786846399307,0.03210686147212982
1782845801091551700,2.9385517578125,0.009737752377986908,0.0006069354712963104,0.027439935132861137
1782845801101556700,2.948556640625,0.010395691730082035,0.0022292123176157475,0.02796868421137333
1782845801111561500,2.9585615234375,0.011972815729677677,0.00391525961458683,0.02165406383574009
1782845801121566500,2.96856640625,0.00959892850369215,0.0032451844308525324,0.02025582268834114
1782845801131572500,2.978572509765625,0.00635093729943037,-0.000863540219143033,0.012107616290450096
1782845801141577500,2.988577392578125,-0.0005694687133654952,-0.0028327784966677427,0.00445148628205061
1782845801151582500,2.99858251953125,-0.0036403597332537174,-0.006380375474691391,-0.00002954876981675625
1782845801161587500,3.00858740234375,-0.008161800913512707,-0.012201900593936443,-0.0008322572102770209
1782845801171592400,3.018592529296875,-0.013680403120815754,-0.019542904570698738,-0.0010474406881257892
1782845801181597400,3.028597412109375,-0.024899331852793694,-0.01846824772655964,0.0015255562029778957
1782845801191602400,3.0386025390625,-0.02813027985394001,-0.014957134611904621,0.005973035003989935
1782845801201607400,3.048607421875,-0.02734225057065487,-0.007386033423244953,0.00800848938524723
1782845801211612400,3.0586123046875,-0.029071973636746407,-0.0021896741818636656,0.010194412432610989
1782845801221617400,3.068617431640625,-0.02521754801273346,-0.0038251939695328474,0.013641346246004105
1782845801231622400,3.078622314453125,-0.021921619772911072,-0.0051096361130476,0.010222912766039371
1782845801241627400,3.08862744140625,-0.01703585870563984,-0.004506309516727924,0.003087004879489541
1782845801251632400,3.09863232421875,-0.016663815826177597,-0.0011920055840164423,-0.00014527369057759643
1782845801261637400,3.108637451171875,-0.01848401129245758,0.0026324389036744833,0.002052334137260914
1782845801271642400,3.118642333984375,-0.01763552986085415,0.008877284824848175,0.004169014282524586
1782845801281647400,3.1286474609375,-0.017516644671559334,0.009570457972586155,0.005482859443873167
1782845801291652400,3.13865234375,-0.017099060118198395,0.005913937464356422,0.01069146953523159
1782845801301657300,3.1486572265625,-0.02037101984024048,0.003639864269644022,0.021571282297372818
1782845801311663600,3.15866357421875,-0.022035496309399605,0.0053970180451869965,0.025567887350916862
1782845801321668600,3.168668701171875,-0.021307943388819695,0.002578279934823513,0.03201868012547493
1782845801331673600,3.178673583984375,-0.02169623225927353,-0.0030441859271377325,0.028240719810128212
1782845801341678600,3.1886787109375,-0.014475496485829353,-0.008080271072685719,0.02471506968140602
1782845801351683600,3.19868359375,-0.014880562201142311,-0.011528000235557556,0.010583271272480488
1782845801361688600,3.2086884765625,-0.01208900660276413,-0.013191750273108482,0.0041458820924162865
1782845801371693600,3.218693603515625,-0.007283598184585571,-0.007284592371433973,-0.010318277403712273
1782845801381698600,3.228698486328125,-0.009144253097474575,0.00008510123006999493,-0.021805141121149063
1782845801391703600,3.23870361328125,-0.007382572162896395,0.008113466203212738,-0.02762574516236782
1782845801401708500,3.24870849609375,-0.006116524338722229,0.009622776880860329,-0.023121856153011322
1782845801411713500,3.258713623046875,-0.004784411285072565,0.00030091404914855957,-0.012782399542629719
1782845801421718500,3.268718505859375,0.0009427901823073626,-0.008257274515926838,-0.0015185910742729902
1782845801431723500,3.2787236328125,0.005388671066612005,-0.021823950111865997,0.009042439982295036
1782845801441728500,3.288728515625,0.004542723763734102,-0.022581741213798523,0.011933413334190845
1782845801451733500,3.2987333984375,0.007874604314565659,-0.02052178606390953,0.005812670569866896
1782845801461738500,3.308738525390625,0.004896635189652443,-0.008457448333501816,0.0005570065113715827
1782845801471743500,3.318743408203125,0.007646082900464535,-0.002542833797633648,-0.001658743480220437
1782845801481748500,3.32874853515625,0.005639699287712574,-0.0009039726573973894,-0.003925131168216467
1782845801491754500,3.33875439453125,0.0070373257622122765,-0.0001255306415259838,-0.004524874966591597
1782845801501759500,3.348759521484375,0.005885103717446327,0.00007086503319442272,-0.003418177366256714
1782845801511764500,3.358764404296875,0.004777761176228523,0.0016533153830096126,0.00039200703031383455
1782845801521769500,3.36876953125,0.004099319223314524,-0.005663452669978142,0.009965561330318451
1782845801531774500,3.3787744140625,0.0033227410167455673,-0.012839074246585369,0.009858768433332443
1782845801541779500,3.388779541015625,0.002625853754580021,-0.014078388921916485,0.008138909004628658
1782845801551784400,3.398784423828125,0.005790754221379757,-0.009341956116259098,0.0017947270534932613
1782845801561789400,3.40878955078125,0.004042964428663254,-0.00790709350258112,-0.00620331522077322
1782845801571794400,3.41879443359375,0.005490126088261604,-0.0041451118886470795,-0.010366102680563927
1782845801581799400,3.42879931640625,0.004091040231287479,-0.0026884840335696936,-0.008461297489702702
1782845801591804400,3.438804443359375,0.0018225598614662886,-0.003926055505871773,-0.009380620904266834
1782845801601809400,3.448809326171875,-0.0025574141182005405,-0.0027866337914019823,-0.008128780871629715
1782845801611814400,3.458814453125,-0.004779555834829807,0.0026789717376232147,-0.0055985115468502045
1782845801621819400,3.4688193359375,-0.011410197243094444,0.0029167192988097668,0.004318184219300747
1782845801631824400,3.478824462890625,-0.015101339668035507,0.0033177912700921297,0.013995845802128315
1782845801641829400,3.488829345703125,-0.013760237023234367,-0.0008018529042601585,0.013789571821689606
1782845801651834400,3.49883447265625,-0.012051818892359734,-0.010501351207494736,0.0203220397233963
1782845801661839400,3.50883935546875,-0.008001170121133327,-0.015531699173152447,0.021547580137848854
1782845801671844600,3.5188447265625,-0.007558019831776619,-0.010970503091812134,0.015412721782922745
1782845801681850400,3.528850341796875,-0.005255439318716526,-0.006113139912486076,0.00874279160052538
1782845801691855400,3.53885546875,-0.004514814354479313,0.0002845718991011381,-0.0023239734582602978
1782845801701860400,3.5488603515625,-0.0020310459658503532,0.005517222918570042,-0.006893186829984188
1782845801711865300,3.558865234375,-0.004229219164699316,0.012233182787895203,-0.008778970688581467
1782845801721870300,3.568870361328125,-0.002677939599379897,0.015926163643598557,-0.0030832267366349697
1782845801731875300,3.578875244140625,0.001951166894286871,0.006225067190825939,0.0053696464747190475
1782845801741880300,3.58888037109375,0.0096806101500988,-0.005352056585252285,0.011909374967217445
1782845801751885600,3.598885498046875,0.013815700076520443,-0.013346866704523563,0.01716938614845276
1782845801761890600,3.608890625,0.013181837275624275,-0.01214917004108429,0.017965398728847504
1782845801771895600,3.6188955078125,0.013853220269083977,-0.006353865377604961,0.0165102481842041
1782845801781900500,3.628900634765625,0.01226571761071682,-0.003588560502976179,0.011115836910903454
1782845801791905500,3.638905517578125,0.012889962643384933,-0.0003853102680295706,0.004787899553775787
1782845801801910500,3.64891064453125,0.009534051641821861,0.001128575997427106,-0.0029688316863030195
1782845801811915500,3.65891552734375,0.0047981515526771545,0.0031091689597815275,-0.004976056050509214
1782845801821920500,3.66892041015625,-0.0009485214250162244,0.007377078756690025,-0.010732985101640224
1782845801831925500,3.678925537109375,-0.005815448239445686,0.010104156099259853,-0.012015030719339848
1782845801841930800,3.6889306640625,-0.009162362664937973,0.010424824431538582,-0.008212367072701454
1782845801851935700,3.698935791015625,-0.006977505516260862,0.006802658550441265,-0.0008087790920399129
1782845801861940700,3.708940673828125,-0.006836731918156147,-0.001785188913345337,0.002052679192274809
1782845801871945700,3.71894580078125,-0.0019053566502407193,-0.009363213554024696,0.004190665204077959
1782845801881951500,3.728951416015625,-0.000047789886593818665,-0.010668670758605003,0.005088108591735363
1782845801891956500,3.73895654296875,-0.003459565807133913,0.0002604094333946705,-0.00022303336299955845
1782845801901961500,3.74896142578125,-0.00655160378664732,0.015330221503973007,-0.004747586324810982
1782845801911966500,3.758966552734375,-0.006965991575270891,0.025712819769978523,-0.0059294975362718105
1782845801921971500,3.768971435546875,-0.004529253579676151,0.023130111396312714,-0.001619891612790525
1782845801931976400,3.7789765625,0.0028530291747301817,0.019797433167696,0.002420656383037567
1782845801941981400,3.7889814453125,0.008232885040342808,0.007536649703979492,0.010926397517323494
1782845801951986400,3.798986328125,0.014553098008036613,0.0027339053340256214,0.017539026215672493
1782845801961991400,3.808991455078125,0.02358740195631981,0.0001265250612050295,0.023344460874795914
1782845801971996700,3.81899658203125,0.029878586530685425,0.0011534399818629026,0.022346841171383858
1782845801982001700,3.829001708984375,0.026454808190464973,0.003060626797378063,0.017885999754071236
1782845801992006700,3.839006591796875,0.031200028955936432,0.007085728459060192,0.005393643397837877
1782845802002011600,3.84901171875,0.02890508621931076,0.0085526704788208,-0.007004852406680584
1782845802012016600,3.8590166015625,0.026513833552598953,0.006202963180840015,-0.018423954024910927
1782845802022021600,3.869021728515625,0.021674035117030144,0.005946161691099405,-0.031467992812395096
1782845802032026600,3.879026611328125,0.014262991026043892,-0.004283838905394077,-0.03894108906388283
1782845802042031600,3.889031494140625,0.0077619412913918495,-0.016475936397910118,-0.043171610683202744
1782845802052036600,3.89903662109375,-0.000857912003993988,-0.024087782949209213,-0.04384565353393555
1782845802062041600,3.90904150390625,-0.004247711040079594,-0.01684011146426201,-0.05323318392038345
1782845802072047400,3.91904736328125,-0.012167418375611305,-0.016445163637399673,-0.04504422843456268
1782845802082052400,3.92905224609375,-0.0173193272203207,-0.015663309022784233,-0.04174342378973961
1782845802092057300,3.939057373046875,-0.021000083535909653,-0.01344675850123167,-0.03295339643955231
1782845802102062300,3.949062255859375,-0.017746178433299065,-0.023785708472132683,-0.025785841047763824
1782845802112068000,3.959068115234375,-0.014789802953600883,-0.017888937145471573,-0.014948640950024128
1782845802122073000,3.969072998046875,-0.013676123693585396,-0.004789088852703571,-0.004028270021080971
1782845802132078000,3.979078125,-0.010439317673444748,-0.0017166000325232744,0.0026328284293413162
1782845802142083000,3.9890830078125,-0.005797608755528927,-0.009891802445054054,0.006140935234725475
1782845802152088000,3.999088134765625,0.0018962635658681393,-0.013406110927462578,0.0077124666422605515
1782845802162093000,4.009093017578125,0.004516122862696648,-0.019288815557956696,0.00437829690054059
1782845802172098000,4.01909814453125,0.0007900944910943508,-0.01374251488596201,0.001530578825622797
1782845802182103000,4.02910302734375,-0.006295268423855305,-0.008083347231149673,-0.0017868374707177281
1782845802192108000,4.03910791015625,-0.008932330645620823,-0.005499015096575022,-0.005998626817017794
1782845802202113000,4.049113037109375,-0.011117551475763321,-0.008278217166662216,-0.006145783234387636
1782845802212118300,4.0591181640625,-0.014298963360488415,-0.008830023929476738,-0.006618228275328875
1782845802222123300,4.069123291015625,-0.011123599484562874,-0.008234783075749874,-0.007456221152096987
1782845802232128300,4.079128173828125,-0.008739803917706013,-0.013092122040688992,-0.002024970017373562
1782845802242133200,4.08913330078125,-0.0013566375710070133,-0.0173809751868248,-0.005645878612995148
1782845802252138200,4.09913818359375,-0.0001885751262307167,-0.015514365397393703,-0.00059226417215541
1782845802262143200,4.109143310546875,0.007483011577278376,-0.014196730218827724,-0.0011713101994246244
1782845802272149000,4.11914892578125,0.007735479157418013,-0.007346013560891151,-0.0020890356972813606
1782845802282154000,4.129154052734375,0.008180057629942894,-0.0029478759970515966,0.00362679036334157
1782845802292159000,4.139158935546875,0.009433074854314327,-0.007949026301503181,0.010156062431633472
1782845802302164000,4.1491640625,0.00923112966120243,-0.004122354555875063,0.01593954488635063
1782845802312169000,4.1591689453125,0.005005758721381426,-0.007539988961070776,0.021603023633360863
1782845802322174000,4.169174072265625,0.0026781675405800343,-0.007811340969055891,0.030106721445918083
1782845802332179000,4.179178955078125,-0.005250062793493271,-0.012460155412554741,0.027173517271876335
1782845802342184200,4.18918408203125,-0.008826869539916515,-0.014809692278504372,0.026461312547326088
1782845802352189200,4.199189208984375,-0.011224246583878994,-0.014945514500141144,0.018364770337939262
1782845802362194200,4.209194091796875,-0.014616678468883038,-0.014447962865233421,0.0061572217382490635
1782845802372199200,4.21919921875,-0.018963757902383804,-0.007305897306650877,0.0017845776164904237
1782845802382204200,4.2292041015625,-0.02109861932694912,0.00022590975277125835,-0.005987024866044521
1782845802392209200,4.239209228515625,-0.018771016970276833,-0.0016071440186351538,-0.008800654672086239
1782845802402214100,4.249214111328125,-0.01886628568172455,-0.004323956090956926,-0.007411316968500614
1782845802412219100,4.25921923828125,-0.019095048308372498,-0.004882420878857374,-0.00910135917365551
1782845802422224100,4.26922412109375,-0.014241323806345463,-0.005131862126290798,-0.0068641104735434055
1782845802432229000,4.27922900390625,-0.010690264403820038,-0.006536146625876427,-0.002553784055635333
1782845802442234000,4.289234130859375,-0.004145711660385132,-0.011960400268435478,0.002973362570628524
1782845802452239000,4.299239013671875,-0.0014974642544984818,-0.00775633379817009,0.006259437184780836
1782845802462244000,4.309244140625,0.004061274230480194,-0.008100705221295357,0.0096202427521348
1782845802472249000,4.3192490234375,0.006258382461965084,-0.004092914052307606,0.009771776385605335
1782845802482255000,4.329255126953125,0.005155300721526146,-0.002946423599496484,0.012881017290055752
1782845802492260000,4.339260009765625,-0.0004123036051169038,0.003225718392059207,0.017745813354849815
1782845802502265000,4.34926513671875,-0.0026452369056642056,0.004625597037374973,0.021629389375448227
1782845802512270300,4.359270263671875,-0.006496966816484928,0.005945459473878145,0.02627873606979847
1782845802522275300,4.369275390625,-0.008772711269557476,0.0003984824288636446,0.02906416915357113
1782845802532280300,4.3792802734375,-0.012405263260006905,-0.0060418397188186646,0.024058757349848747
1782845802542285300,4.389285400390625,-0.012836736626923084,-0.010660246014595032,0.014896722510457039
1782845802552290300,4.399290283203125,-0.013241537846624851,-0.010496461763978004,0.0016464309301227331
1782845802562295300,4.40929541015625,-0.010127291083335876,-0.00491844629868865,-0.009315860457718372
1782845802572300300,4.41930029296875,-0.008713951334357262,0.00322736450470984,-0.018617216497659683
1782845802582305300,4.42930517578125,-0.008987585082650185,0.007876057177782059,-0.01964055746793747
1782845802592310300,4.439310302734375,-0.010368967428803444,0.008507492952048779,-0.009518946520984173
1782845802602315300,4.449315185546875,-0.006789956707507372,-0.00260670087300241,0.00009324157144874334
1782845802612320300,4.4593203125,-0.0019451341358944774,-0.011473695747554302,0.012112886644899845
1782845802622325200,4.4693251953125,-0.001643035328015685,-0.00986948050558567,0.00971858762204647
1782845802632330200,4.479330322265625,0.00015832693316042423,0.0012385643785819411,0.008723365142941475
1782845802642335200,4.489335205078125,-0.00009292480535805225,-0.003594903042539954,0.008424895815551281
1782845802652340200,4.49934033203125,-0.0015118569135665894,-0.004672951065003872,0.006248028017580509
1782845802662345200,4.50934521484375,-0.002115553244948387,-0.0052599599584937096,0.0030186413787305355
1782845802672350200,4.51935009765625,-0.006653313525021076,-0.01230588462203741,0.003127564210444689
1782845802682356200,4.529356201171875,-0.008467694744467735,-0.008428128436207771,-0.0016075316816568375
1782845802692361200,4.539361328125,-0.00970393419265747,-0.006134881172329187,-0.007664891425520182
1782845802702366200,4.5493662109375,-0.015587111003696918,-0.004479169845581055,-0.010161646641790867
1782845802712371200,4.55937109375,-0.010129228234291077,-0.0008013444021344185,-0.01156433392316103
1782845802722376200,4.569376220703125,-0.011603226885199547,-0.004189562983810902,-0.012659951113164425
1782845802732381200,4.579381103515625,-0.012567291036248207,-0.014464304782450199,-0.009893459267914295
1782845802742386200,4.58938623046875,-0.01256990060210228,-0.025894351303577423,-0.007686309516429901
1782845802752391200,4.59939111328125,-0.013714793138206005,-0.034681979566812515,-0.004406892694532871
1782845802762396200,4.609396240234375,-0.014645258896052837,-0.0343046598136425,-0.010609964840114117
1782845802772401200,4.619401123046875,-0.021479196846485138,-0.03333473578095436,-0.012688562273979187
1782845802782406100,4.62940625,-0.027098912745714188,-0.032393407076597214,-0.02233434095978737
1782845802792411100,4.6394111328125,-0.03252936527132988,-0.02913130261003971,-0.024412671104073524
1782845802802416000,4.649416015625,-0.03437056764960289,-0.02551557682454586,-0.03569238260388374
1782845802812421000,4.659421142578125,-0.03285842388868332,-0.021641476079821587,-0.03759201616048813
1782845802822426000,4.669426025390625,-0.029341477900743484,-0.02761685848236084,-0.03897464647889137
1782845802832431000,4.67943115234375,-0.020237460732460022,-0.03593630716204643,-0.03696902096271515
1782845802842436000,4.68943603515625,-0.013946222141385078,-0.03903145715594292,-0.036654841154813766
1782845802852441000,4.699441162109375,-0.005225700791925192,-0.03653714060783386,-0.03646362945437431
1782845802862446000,4.709446044921875,0.0017206526827067137,-0.030231647193431854,-0.04686034098267555
1782845802872451000,4.719451171875,0.006621135398745537,-0.0228581540286541,-0.05075335130095482
1782845802882456000,4.7294560546875,0.005414607934653759,-0.01890372298657894,-0.05308647081255913
1782845802892461000,4.7394609375,0.0006598001345992088,-0.013135049492120743,-0.046274371445178986
1782845802902466000,4.749466064453125,-0.005673686973750591,-0.008253788575530052,-0.039568036794662476
1782845802912472000,4.75947216796875,-0.010248730890452862,-0.009153405204415321,-0.028370510786771774
1782845802922477000,4.76947705078125,-0.01571032963693142,-0.005030274391174316,-0.017214305698871613
1782845802932482000,4.77948193359375,-0.01801130175590515,-0.014423509128391743,-0.006251668557524681
1782845802942487000,4.789487060546875,-0.024226972833275795,-0.020671527832746506,0.0032490903977304697
1782845802952492000,4.799491943359375,-0.023975305259227753,-0.018780682235956192,0.009583419188857079
1782845802962497300,4.809497314453125,-0.025758938863873482,-0.008836803026497364,0.009663386270403862
1782845802972502300,4.819502197265625,-0.02448408491909504,-0.00203615496866405,0.008077207021415234
1782845802982507300,4.82950732421875,-0.021035727113485336,-0.0025864369235932827,0.006821410730481148
1782845802992512300,4.83951220703125,-0.02022186480462551,-0.0006793474312871695,0.01050243154168129
1782845803002517200,4.849517333984375,-0.02131214365363121,-0.0025809407234191895,0.011352024972438812
1782845803012522200,4.859522216796875,-0.022678878158330917,0.0016617410583421588,0.016958778724074364
1782845803022527200,4.86952734375,-0.015727471560239792,0.0037470441311597824,0.01655043289065361
1782845803032532200,4.8795322265625,-0.006249813828617334,0.004534807056188583,0.020713752135634422
1782845803042537200,4.889537109375,-0.0017184567404910922,-0.00201366376131773,0.02255030907690525
1782845803052542200,4.899542236328125,0.008171724155545235,-0.0074347942136228085,0.022742856293916702
1782845803062547200,4.909547119140625,0.015778807923197746,-0.007387728430330753,0.017837850376963615
1782845803072552200,4.91955224609375,0.02482796274125576,-0.0010339589789509773,0.009843572042882442
1782845803082557200,4.92955712890625,0.02642812952399254,0.0006897840648889542,0.009328363463282585
1782845803092562200,4.939562255859375,0.028287548571825027,-0.001675901934504509,0.0033660787157714367
1782845803102567200,4.949567138671875,0.03129369765520096,-0.002936037490144372,0.00009624619269743562
1782845803112572200,4.959572265625,0.03309665620326996,0.0012762845726683736,-0.004288914613425732
1782845803122577200,4.9695771484375,0.029264366254210472,0.002286687958985567,-0.0073158638551831245
1782845803132583200,4.979583251953125,0.024905303493142128,0.0038323865737766027,-0.0008784707169979811
1782845803142588200,4.989588134765625,0.019055169075727463,-0.0004910614807158709,0.00001342513132840395
1782845803152593200,4.99959326171875,0.01503113191574812,-0.004682610742747784,-0.006969116628170013
1782845803162598100,5.00959814453125,0.013418909162282944,-0.003666905453428626,-0.006996626034379005
1782845803172603100,5.01960302734375,0.009492076933383942,0.0013869752874597907,-0.003025586251169443
1782845803182608100,5.029608154296875,0.005451977252960205,0.004987665917724371,0.004479809198528528
1782845803192613000,5.039613037109375,-0.0007587808649986982,0.00542042963206768,0.021163713186979294
1782845803202618400,5.049618408203125,-0.008861054666340351,0.004844508599489927,0.02399906888604164
1782845803212623400,5.059623291015625,-0.019149910658597946,0.011951420456171036,0.0249042771756649
1782845803222628400,5.06962841796875,-0.02587096206843853,0.018206458538770676,0.023850994184613228
1782845803232633300,5.07963330078125,-0.03367775306105614,0.0190738495439291,0.024981772527098656
1782845803242638300,5.089638427734375,-0.03934810310602188,0.023493729531764984,0.02597198262810707
1782845803252643300,5.099643310546875,-0.04272738844156265,0.026575807482004166,0.026301948353648186
1782845803262648300,5.1096484375,-0.0419590137898922,0.019778596237301826,0.030197542160749435
1782845803272653300,5.1196533203125,-0.0414293110370636,0.012128133326768875,0.03467565029859543
1782845803282658300,5.129658203125,-0.04450206458568573,0.005200452171266079,0.04783592373132706
1782845803292663300,5.139663330078125,-0.04990562051534653,0.004553570412099361,0.05743715539574623
1782845803302668300,5.149668212890625,-0.050184834748506546,0.006802513264119625,0.06712900102138519
1782845803312673300,5.15967333984375,-0.05268660932779312,0.008909340016543865,0.06661979854106903
1782845803322678300,5.16967822265625,-0.047437094151973724,0.01092486921697855,0.05913567915558815
1782845803332683300,5.179683349609375,-0.04652709141373634,0.020256053656339645,0.0519573949277401
1782845803342688300,5.189688232421875,-0.044757939875125885,0.020006537437438965,0.05103084072470665
1782845803352693200,5.199693359375,-0.03961777314543724,0.01233903132379055,0.0549858994781971
1782845803362699300,5.20969921875,-0.028644496574997902,0.0082177659496665,0.0527464896440506
1782845803372704300,5.219704345703125,-0.02592168003320694,0.007973553612828255,0.046898454427719116
1782845803382709200,5.229709228515625,-0.021114271134138107,0.013523460365831852,0.043255362659692764
1782845803392714200,5.23971435546875,-0.019376559183001518,0.013742638751864433,0.03653407841920853
1782845803402719200,5.24971923828125,-0.016938572749495506,0.013920392841100693,0.03710334748029709
1782845803412724200,5.25972412109375,-0.00980423018336296,0.008075819350779057,0.03513500839471817
1782845803422729200,5.269729248046875,-0.0018380985129624605,0.0009845234453678131,0.031360432505607605
1782845803432734200,5.279734130859375,0.006762846373021603,-0.00580280926078558,0.022978665307164192
1782845803442739200,5.2897392578125,0.018078599125146866,-0.005747052375227213,0.009108878672122955
1782845803452744200,5.299744140625,0.02887345664203167,-0.004194429609924555,-0.0026380589697510004
1782845803462749200,5.309749267578125,0.03899110481142998,0.002381908008828759,-0.011370561085641384
1782845803472754200,5.319754150390625,0.042273715138435364,-0.002700202399864793,-0.017056142911314964
1782845803482759200,5.32975927734375,0.04735111445188522,-0.004588213749229908,-0.021179324015975
1782845803492764200,5.33976416015625,0.04667813330888748,-0.011200309731066227,-0.020717531442642212
1782845803502769200,5.34976904296875,0.045344360172748566,-0.02478722482919693,-0.02185911126434803
1782845803512774100,5.359774169921875,0.04012296348810196,-0.025168588384985924,-0.028920749202370644
1782845803522779100,5.369779052734375,0.03781425207853317,-0.018758531659841537,-0.04038223996758461
1782845803532784000,5.3797841796875,0.03636416047811508,-0.01128383632749319,-0.04556874558329582
1782845803542789000,5.3897890625,0.0362335667014122,-0.010689612478017807,-0.047393959015607834
1782845803552794000,5.399794189453125,0.03106836788356304,-0.011626512743532658,-0.03724411875009537
1782845803562799000,5.409799072265625,0.0286699365824461,-0.013163131661713123,-0.023910513147711754
1782845803572804000,5.41980419921875,0.030796736478805542,-0.023034673184156418,-0.011712169274687767
1782845803582809000,5.42980908203125,0.028741158545017242,-0.019576724618673325,-0.010597442276775837
1782845803592814000,5.43981396484375,0.025942975655198097,-0.008191446773707867,-0.006671677343547344
1782845803602820000,5.449820068359375,0.02202613838016987,-0.009571883827447891,-0.0020176898688077927
1782845803612825000,5.4598251953125,0.018022341653704643,-0.005315885879099369,0.002208746736869216
1782845803622830000,5.469830078125,0.017125483602285385,-0.0011260078754276037,0.008722989819943905
1782845803632835000,5.4798349609375,0.012158156372606754,-0.0017691610846668482,0.01824086159467697
1782845803642840000,5.489840087890625,0.00489487498998642,-0.00770157016813755,0.01893012411892414
1782845803652845000,5.499844970703125,0.004336142912507057,-0.014034033752977848,0.021124836057424545
1782845803662850000,5.50985009765625,0.0014518196694552898,-0.015922723338007927,0.014605079777538776
1782845803672855000,5.51985498046875,0.0028702192939817905,-0.018369102850556374,0.007202024571597576
1782845803682860000,5.529860107421875,0.0002107985783368349,-0.01399137545377016,0.0008812387241050601
1782845803692865000,5.539864990234375,-0.002123994752764702,-0.014275002293288708,-0.005596634466201067
1782845803702870000,5.5498701171875,-0.00570838525891304,-0.01678977534174919,-0.011991378851234913
1782845803712875000,5.559875,-0.006308129522949457,-0.013971620239317417,-0.01832916960120201
1782845803722880000,5.5698798828125,-0.007617690600454807,-0.004066428169608116,-0.025608845055103302
1782845803732885200,5.57988525390625,-0.009601213037967682,-0.0036933186929672956,-0.026991024613380432
1782845803742890200,5.58989013671875,-0.006177997682243586,-0.012046881020069122,-0.02785171940922737
1782845803752895200,5.599895263671875,-0.004766788333654404,-0.015063709579408169,-0.029850687831640244
1782845803762900500,5.609900390625,-0.00045600265730172396,-0.015743225812911987,-0.028157148510217667
1782845803772905500,5.619905517578125,0.003664440242573619,-0.017638863995671272,-0.026515841484069824
1782845803782910500,5.629910400390625,0.005125383846461773,-0.012327456846833229,-0.026779910549521446
1782845803792915500,5.63991552734375,0.004548010881990194,-0.003194145392626524,-0.0220477394759655
1782845803802920400,5.64992041015625,0.005060928408056498,0.0013565183617174625,-0.009654268622398376
1782845803812925400,5.659925537109375,0.003827618435025215,-0.002886429661884904,-0.0016812977846711874
1782845803822930400,5.669930419921875,0.004121534526348114,-0.0030906216707080603,0.005893913563340902
1782845803832935400,5.679935302734375,0.001520159188657999,-0.003126574447378516,0.01203596219420433
1782845803842941200,5.689941162109375,0.0016582077369093895,-0.0033745875116437674,0.00879291445016861
1782845803852946200,5.6999462890625,0.0012816365342587233,0.0006728849839419127,0.003972593229264021
1782845803862951200,5.709951171875,-0.002477674512192607,0.008951732888817787,-0.007077312096953392
1782845803872956200,5.7199560546875,-0.003940016031265259,0.0028490996919572353,-0.013280080631375313
1782845803882961200,5.729961181640625,-0.005217063240706921,0.0037824162282049656,-0.011492304503917694
1782845803892966100,5.739966064453125,-0.004353932570666075,0.0007751747034490108,-0.007657619658857584
1782845803902971400,5.749971435546875,-0.004598356783390045,0.00020177173428237438,-0.0066108088940382
1782845803912976400,5.759976318359375,-0.0024387994781136513,-0.00372026558034122,-0.0005638353759422898
1782845803922981400,5.7699814453125,0.0006328364834189415,0.0003919457085430622,0.0032035503536462784
1782845803932986400,5.779986328125,-0.0017443010583519936,-0.002918895799666643,0.004817958455532789
1782845803942991400,5.789991455078125,-0.002562647918239236,0.0005647365469485521,0.007781752850860357
1782845803952996400,5.799996337890625,-0.006704662460833788,0.0023738218005746603,0.006003826390951872
1782845803963001300,5.81000146484375,-0.007574825547635555,0.002275067148730159,-0.0032579596154391766
1782845803973006300,5.82000634765625,-0.011108839884400368,0.0012473532697185874,-0.007801578380167484
1782845803983011300,5.83001123046875,-0.017771705985069275,0.001566859777085483,-0.01849295385181904
1782845803993016300,5.840016357421875,-0.018014851957559586,-0.0028462642803788185,-0.022502874955534935
1782845804003021300,5.850021240234375,-0.02244611829519272,-0.00899276789277792,-0.02807128056883812
1782845804013026300,5.8600263671875,-0.02571248449385166,-0.009643377736210823,-0.028042253106832504
1782845804023031300,5.87003125,-0.024096809327602386,-0.012912142090499401,-0.02158663235604763
1782845804033036300,5.880036376953125,-0.021023789420723915,-0.019042205065488815,-0.01646590605378151
1782845804043041300,5.890041259765625,-0.019466767087578773,-0.017517399042844772,-0.00992773286998272
1782845804053046300,5.90004638671875,-0.01944466307759285,-0.009843502193689346,-0.001957424683496356
1782845804063051300,5.91005126953125,-0.021803198382258415,-0.004081704653799534,-0.002870052121579647
1782845804073056300,5.92005615234375,-0.016802048310637474,-0.006831152364611626,0.004199042450636625
1782845804083061200,5.930061279296875,-0.01264115795493126,-0.016877055168151855,0.004936202894896269
1782845804093067300,5.9400673828125,-0.012295212596654892,-0.02383243292570114,0.0006607642862945795
1782845804103072300,5.950072265625,-0.013649271801114082,-0.026304597035050392,-0.004311202093958855
1782845804113077000,5.960076904296875,-0.011880134232342243,-0.024211619049310684,-0.0112074576318264
1782845804123082000,5.97008203125,-0.014169866219162941,-0.018323659896850586,-0.02301306091248989
1782845804133087000,5.9800869140625,-0.015542193315923214,-0.008336007595062256,-0.027065860107541084
1782845804143092000,5.990092041015625,-0.010086537338793278,-0.00001302408054471016,-0.028230611234903336
1782845804153097000,6.000096923828125,-0.005496313329786062,-0.0011214318219572306,-0.023895783349871635
1782845804163102000,6.01010205078125,-0.00007394328713417053,-0.008717615157365799,-0.013519052416086197
1782845804173107000,6.02010693359375,0.006255059037357569,-0.014051128178834915,-0.009406065568327904
1782845804183112000,6.03011181640625,0.006803550291806459,-0.014578142203390598,0.0010622182162478566
1782845804193117000,6.040116943359375,0.009824907407164574,-0.01798778772354126,0.002901663538068533
1782845804203122000,6.050121826171875,0.012118220329284668,-0.018688999116420746,0.004038714803755283
1782845804213127000,6.060126953125,0.01315765269100666,-0.018006963655352592,-0.00002100801793858409
1782845804223132000,6.0701318359375,0.013717235997319221,-0.016572609543800354,0.0003123410861007869
1782845804233137000,6.080136962890625,0.016207559034228325,-0.011389831081032753,0.0019539135973900557
1782845804243142000,6.090141845703125,0.014876838773488998,-0.011411281302571297,0.006464782170951366
1782845804253147000,6.10014697265625,0.014754865318536758,-0.0073960330337285995,0.012045170180499554
1782845804263151900,6.11015185546875,0.02224406786262989,-0.008194593712687492,0.011923883110284805
1782845804273156900,6.120156982421875,0.02482706867158413,-0.010752294212579727,0.014953228645026684
1782845804283161900,6.130161865234375,0.0291343554854393,-0.013024453073740005,0.014460165984928608
1782845804293166800,6.140166748046875,0.031504835933446884,-0.01316773146390915,0.004631237126886845
1782845804303171800,6.150171875,0.035192109644412994,-0.012022185139358044,-0.005957338027656078
1782845804313176800,6.1601767578125,0.037904273718595505,-0.011935899034142494,-0.01087193563580513
1782845804323181800,6.170181884765625,0.03705058991909027,-0.013288130983710289,-0.017023684456944466
1782845804333186800,6.180186767578125,0.03473630174994469,-0.015358472242951393,-0.019678855314850807
1782845804343191800,6.19019189453125,0.032158344984054565,-0.015103246085345745,-0.015542209148406982
1782845804353196800,6.20019677734375,0.02412678301334381,-0.01049517747014761,-0.0106558408588171
1782845804363202800,6.210202880859375,0.020702140405774117,-0.008315550163388252,-0.0037781524006277323
1782845804373207800,6.220207763671875,0.017786512151360512,-0.008499573916196823,-0.0021331177558749914
1782845804383212800,6.230212890625,0.017486445605754852,-0.01287287101149559,-0.0008553691441193223
1782845804393217800,6.2402177734375,0.022299310192465782,-0.004951565060764551,-0.006977177690714598
1782845804403222800,6.250222900390625,0.01775786466896534,0.001506818225607276,-0.007834753952920437
1782845804413227800,6.260227783203125,0.017357857897877693,0.0018663449445739388,-0.004776911810040474
1782845804423232800,6.270232666015625,0.01694597490131855,0.0006116810254752636,-0.00038551376201212406
1782845804433237800,6.28023779296875,0.014137938618659973,-0.001745482673868537,0.002547425450757146
1782845804443243000,6.290242919921875,0.009414470754563808,-0.00019143149256706238,0.0072045703418552876
1782845804453248000,6.300248046875,0.0029291415121406317,-0.003101733746007085,0.015587935224175453
1782845804463253000,6.3102529296875,-0.0005962664727121592,-0.0046206312254071236,0.020545335486531258
1782845804473258000,6.320258056640625,-0.004464774392545223,0.002912119496613741,0.02477044053375721
1782845804483263000,6.330262939453125,-0.0046134633012115955,0.005577242001891136,0.015141855925321579
1782845804493268000,6.34026806640625,-0.004033693112432957,0.008090467192232609,0.008551863953471184
1782845804503273000,6.35027294921875,-0.0009552063420414925,0.005691369995474815,0.0036677394527941942
1782845804513278000,6.36027783203125,-0.0004374878481030464,0.005206940695643425,0.00470104580745101
1782845804523283000,6.370282958984375,0.004775583744049072,0.0016873074928298593,0.005607170984148979
1782845804533288000,6.380287841796875,0.003960922826081514,-0.0003814359661191702,0.0021131038665771484
1782845804543293000,6.39029296875,0.004505477845668793,0.003075225744396448,-0.002782589988783002
1782845804553298000,6.4002978515625,0.0041566044092178345,0.0029180990532040596,-0.007034060079604387
1782845804563303000,6.410302978515625,0.006273454055190086,0.002120555378496647,-0.003329753875732422
1782845804573308000,6.420307861328125,0.003690187819302082,-0.002717875875532627,-0.0012040188303217292
1782845804583313000,6.43031298828125,-0.0035344050265848637,0.0004368324298411608,-0.00007856450974941254
1782845804593318000,6.44031787109375,-0.006587984971702099,0.003662985749542713,-0.002932674251496792
1782845804603323000,6.450322998046875,-0.008963300846517086,0.002729862229898572,-0.0005064968136139214
1782845804613328000,6.460327880859375,-0.010836301371455193,-0.0039666565135121346,-0.0029044069815427065
1782845804623332900,6.470332763671875,-0.010251067578792572,-0.003160372143611312,-0.00005337991751730442
1782845804633339000,6.4803388671875,-0.015452221035957336,-0.0007041390053927898,0.003054529195651412
1782845804643344000,6.49034375,-0.015594488009810448,-0.0026048121508210897,0.010915725491940975
1782845804653348900,6.500348876953125,-0.016372662037611008,-0.0037552977446466684,0.013120556250214577
1782845804663353900,6.510353759765625,-0.01628127321600914,-0.0006650141440331936,0.019086798653006554
1782845804673358800,6.52035888671875,-0.016271419823169708,0.00468421122059226,0.018775740638375282
1782845804683363800,6.53036376953125,-0.012413086369633675,0.010391656309366226,0.02136041596531868
1782845804693368800,6.540368896484375,-0.012357160449028015,0.011569039896130562,0.021438714116811752
1782845804703373800,6.550373779296875,-0.008759550750255585,0.005504247732460499,0.024587977677583694
1782845804713378800,6.56037890625,-0.004553886130452156,-0.00456729531288147,0.02636830136179924
1782845804723383800,6.5703837890625,-0.0003382295835763216,-0.00931769609451294,0.023241598159074783
1782845804733388800,6.580388916015625,0.000984828919172287,-0.007379181683063507,0.018359756097197533
1782845804743393800,6.590393798828125,-0.0011047723237425089,-0.0005347609985619783,0.011020959354937077
1782845804753398800,6.600398681640625,-0.00008877646178007126,0.012777050025761127,0.0035486624110490084
1782845804763403800,6.61040380859375,-0.0025896967854350805,0.01432006061077118,-0.0009151389822363853
1782845804773408800,6.62040869140625,-0.0041015734896063805,0.009421974420547485,0.002069199224933982
1782845804783413800,6.630413818359375,-0.0017881820676848292,-0.00521734869107604,0.0035774623975157738
1782845804793419000,6.6404189453125,-0.0009484874317422509,-0.009897587820887566,-0.00504851620644331
1782845804803424000,6.650424072265625,0.0021044944878667593,-0.015055865049362183,-0.0035575630608946085
1782845804813429000,6.660428955078125,0.003832886228337884,-0.02123493142426014,-0.0074369898065924644
1782845804823434000,6.67043408203125,0.004894712008535862,-0.01774933747947216,-0.009649621322751045
1782845804833439000,6.68043896484375,0.002676831791177392,-0.013463512994349003,-0.013350083492696285
1782845804843444000,6.69044384765625,-0.00337548041716218,-0.0021357808727771044,-0.006201853975653648
1782845804853449000,6.700448974609375,-0.01009916327893734,0.01062262523919344,0.0010965386172756553
1782845804863454000,6.710453857421875,-0.015790719538927078,0.011423872783780098,0.013324251398444176
1782845804873459000,6.720458984375,-0.018609410151839256,0.0038234773091971874,0.027269892394542694
1782845804883464000,6.7304638671875,-0.015939844772219658,-0.0028386625926941633,0.0322992317378521
1782845804893469000,6.740468994140625,-0.014554735273122787,-0.005854958668351173,0.03226647526025772
1782845804903474000,6.750473876953125,-0.010657435283064842,-0.0104117002338171,0.02204127237200737
1782845804913479000,6.76047900390625,-0.006316482089459896,-0.018122615292668343,0.008272196166217327
1782845804923485000,6.77048486328125,-0.00489841029047966,-0.02076139859855175,-0.008249526843428612
1782845804933490000,6.780489990234375,-0.0002557213883846998,-0.01701965741813183,-0.026385389268398285
1782845804943495000,6.790494873046875,-0.003991415258497,-0.016611415892839432,-0.03578485548496246
1782845804953500000,6.8005,-0.008186426013708115,-0.010269898921251297,-0.041025690734386444
1782845804963505000,6.8105048828125,-0.009206259623169899,-0.0019823580514639616,-0.04207908734679222
1782845804973510100,6.82051025390625,-0.010038763284683228,0.00022833188995718956,-0.034397728741168976
1782845804983515100,6.83051513671875,-0.009164925664663315,-0.002267607254907489,-0.020304357632994652
1782845804993520000,6.84052001953125,-0.0059097446501255035,-0.002437516814097762,-0.008728927932679653
1782845805003525000,6.850525146484375,-0.0018467832123860717,-0.005718845874071121,0.0007598770898766816
1782845805013530000,6.860530029296875,0.002246228978037834,-0.01154770702123642,0.008408475667238235
1782845805023535000,6.87053515625,0.004604875110089779,-0.013582459650933743,0.009511897340416908
1782845805033540000,6.8805400390625,0.0065915933810174465,-0.017160149291157722,0.003316053654998541
1782845805043545000,6.890545166015625,0.003273827489465475,-0.01555479597300291,-0.00046563521027565
1782845805053550000,6.900550048828125,-0.0016666026785969734,-0.007164773531258106,-0.012672234326601028
1782845805063555000,6.91055517578125,-0.0017679112497717142,0.006482910364866257,-0.015028712339699268
1782845805073560000,6.92056005859375,-0.005333617329597473,0.017176300287246704,-0.011689906939864159
1782845805083565000,6.93056494140625,-0.00910225696861744,0.017676709219813347,-0.00001034705201163888
1782845805093570000,6.940570068359375,-0.007546172011643648,0.015430333092808723,0.011774939484894276
1782845805103575000,6.950574951171875,-0.003635786473751068,0.007992389611899853,0.026235254481434822
1782845805113580000,6.960580078125,0.00532122328877449,-0.004076257348060608,0.04137452691793442
1782845805123585000,6.9705849609375,0.011007381603121758,-0.014694594778120518,0.043316468596458435
1782845805133590000,6.980590087890625,0.014622356742620468,-0.010608240962028503,0.033561043441295624
1782845805143595000,6.990594970703125,0.017328158020973206,-0.003214312484487891,0.01571733132004738
1782845805153600000,7.00060009765625,0.016527878120541573,-0.003755999496206641,-0.003942656796425581
1782845805163605000,7.01060498046875,0.019006354734301567,-0.002684997161850333,-0.02088264375925064
1782845805173610000,7.02060986328125,0.016154374927282333,-0.0024330622982233763,-0.03351880982518196
1782845805183615000,7.030614990234375,0.010176250711083412,0.007172306068241596,-0.04496949166059494
1782845805193620000,7.040619873046875,0.0042757513001561165,0.014365237206220627,-0.05069715157151222
1782845805203625000,7.050625,0.0004904798697680235,0.011822210624814034,-0.047653768211603165
1782845805213630000,7.0606298828125,0.0031616303604096174,0.00939660333096981,-0.03617900609970093
1782845805223636000,7.070635986328125,0.002206463133916259,-0.0015114874113351107,-0.025931311771273613
1782845805233641000,7.080640869140625,0.006346080452203751,-0.008404014632105827,-0.014321794733405113
1782845805243646000,7.09064599609375,0.013136064633727074,-0.014864867553114891,-0.01249376218765974
1782845805253651000,7.10065087890625,0.018724175170063972,-0.011615544557571411,-0.017423272132873535
1782845805263656000,7.110656005859375,0.021149007603526115,-0.007812236435711384,-0.029217159375548363
1782845805273661000,7.120660888671875,0.0221431665122509,-0.00027762120589613914,-0.038505200296640396
1782845805283666000,7.130666015625,0.01942734606564045,0.0031923572532832623,-0.03216398507356644
1782845805293671000,7.1406708984375,0.021034831181168556,0.0052424585446715355,-0.015612704679369926
1782845805303676000,7.150676025390625,0.016217952594161034,0.012510587461292744,-0.0017432686872780323
1782845805313681000,7.160680908203125,0.012412028387188911,0.014292242005467415,0.01347616408020258
1782845805323686000,7.170685791015625,0.013694402761757374,0.0051811570301651955,0.021833432838320732
1782845805333691000,7.18069091796875,0.017813246697187424,-0.001654910622164607,0.02327420376241207
1782845805343696000,7.19069580078125,0.020487327128648758,-0.00875063706189394,0.018847763538360596
1782845805353700900,7.200700927734375,0.015132774598896503,-0.01498270034790039,0.014479645527899265
1782845805363706000,7.2107060546875,0.010015510953962803,-0.011234301142394543,0.0046797459945082664
1782845805373711000,7.220711181640625,0.0037235268391668797,-0.005053902976214886,-0.005077277310192585
1782845805383716000,7.230716064453125,0.0004349281080067158,-0.000857414910569787,-0.012463441118597984
1782845805393721000,7.24072119140625,-0.0037044230848550797,0.0009077279828488827,-0.016745271161198616
1782845805403726000,7.25072607421875,-0.00558734405785799,0.003903518430888653,-0.01581917330622673
1782845805413731000,7.26073095703125,-0.009678225964307785,0.009135564789175987,-0.009785783477127552
1782845805423736000,7.270736083984375,-0.012353655882179737,0.014529360458254814,-0.004856843966990709
1782845805433741000,7.280740966796875,-0.012544338591396809,0.01823621429502964,0.0015962612815201283
1782845805443746000,7.29074609375,-0.01167651079595089,0.00713703129440546,0.002165227197110653
1782845805453751000,7.3007509765625,-0.011237354949116707,-0.0002247446682304144,-0.004715315997600555
1782845805463756000,7.310756103515625,-0.010819632560014725,-0.006290215067565441,-0.011518780142068863
1782845805473761000,7.320760986328125,-0.008138628676533699,0.002973590511828661,-0.017236586660146713
1782845805483766000,7.33076611328125,-0.007993752136826515,0.01570829376578331,-0.018071487545967102
1782845805493771000,7.34077099609375,-0.010191126726567745,0.025802474468946457,-0.0136383892968297
1782845805503776000,7.35077587890625,-0.008344290778040886,0.02479020692408085,-0.0024809609167277813
1782845805513781000,7.360781005859375,-0.004325314424932003,0.015456626191735268,0.011078257113695145
1782845805523786000,7.370785888671875,-0.003238103585317731,0.010526533238589764,0.027500754222273827
1782845805533791000,7.380791015625,-0.0023970771580934525,0.008460985496640205,0.03661249205470085
1782845805543796000,7.3907958984375,-0.005428970791399479,0.007549749221652746,0.040530726313591
1782845805553802000,7.400802001953125,-0.004079280886799097,0.006976104341447353,0.039396218955516815
1782845805563807000,7.410806884765625,-0.006138703320175409,0.011635571718215942,0.03486431762576103
1782845805573812000,7.42081201171875,-0.006718207150697708,0.008601165376603603,0.027724383398890495
1782845805583817000,7.43081689453125,-0.0062343222089111805,0.008114581927657127,0.018792446702718735
1782845805593822000,7.440822021484375,-0.003977559506893158,0.00854814425110817,0.010834387503564358
1782845805603827000,7.450826904296875,-0.009687704965472221,0.00887772161513567,0.004731487482786179
1782845805613832000,7.46083203125,-0.014199898578226566,0.0129449013620615,0.0032148167956620455
1782845805623837000,7.4708369140625,-0.010534207336604595,0.0074218688532710075,0.005193470045924187
1782845805633842000,7.480842041015625,-0.013110550120472908,0.0035759981255978346,0.003306354396045208
1782845805643847000,7.490846923828125,-0.011976606212556362,-0.002797939581796527,-0.004709494765847921
1782845805653852000,7.500851806640625,-0.011075126938521862,0.0025022835470736027,-0.01247473992407322
1782845805663857000,7.51085693359375,-0.008935023099184036,0.0035795087460428476,-0.018656430765986443
1782845805673862000,7.52086181640625,-0.0046976665034890175,0.0058575766161084175,-0.018176795914769173
1782845805683867000,7.530866943359375,-0.0022620668169111013,0.0052792830392718315,-0.01649036630988121
1782845805693871900,7.540871826171875,0.00009829271584749222,0.008001034148037434,-0.010301980189979076
1782845805703876900,7.550876953125,0.0015215829480439425,0.010586357675492764,-0.003668959718197584
1782845805713881900,7.5608818359375,-0.00008190632797777653,0.008954105898737907,0.0059775421395897865
1782845805723886800,7.570886962890625,-0.002700380515307188,0.004277086816728115,0.015931183472275734
1782845805733891800,7.580891845703125,-0.0025571025907993317,0.0024935679975897074,0.020620742812752724
1782845805743897000,7.59089697265625,-0.00564379058778286,0.005643119104206562,0.021467970684170723
1782845805753902000,7.600902099609375,-0.006717843934893608,0.0066154394298791885,0.018423978239297867
1782845805763907000,7.610906982421875,-0.00879168976098299,0.006200833711773157,0.013685986399650574
1782845805773912000,7.620912109375,-0.0060494327917695045,0.0018492285162210464,0.008012654259800911
1782845805783917000,7.6309169921875,-0.006019980181008577,-0.002908460097387433,0.0017567748436704278
1782845805793922000,7.640922119140625,-0.004853249527513981,0.0012748334556818008,-0.008246857672929764
1782845805803927000,7.650927001953125,-0.00668477825820446,0.0015865439781919122,-0.01441203709691763
1782845805813932000,7.66093212890625,-0.00378113379701972,0.0029871005099266768,-0.019822247326374054
1782845805823937000,7.67093701171875,-0.008810652419924736,0.003264456754550338,-0.015784477815032005
1782845805833942000,7.68094189453125,-0.008525428362190723,0.001058027846738696,-0.01511895377188921
1782845805843947000,7.690947021484375,-0.007106665521860123,-0.0005061198025941849,-0.006668325513601303
1782845805853952000,7.700951904296875,-0.004480522125959396,-0.010238908231258392,0.0028354311361908913
1782845805863957000,7.71095703125,-0.0003064649645239115,-0.01437409594655037,0.01006663590669632
1782845805873962000,7.7209619140625,0.0025982449296861887,-0.010470700450241566,0.008976870216429234
1782845805883968000,7.730968017578125,0.007997803390026093,-0.00991915911436081,0.007936639711260796
1782845805893973000,7.740972900390625,0.009505951777100563,-0.010923437774181366,0.005956313572824001
1782845805903978000,7.75097802734375,0.012163592502474785,-0.005363410338759422,-0.0025826178025454283
1782845805913983200,7.760983154296875,0.016996698454022408,-0.004153269808739424,-0.01051724050194025
1782845805923988200,7.77098828125,0.014668096788227558,0.00043082889169454575,-0.01818140037357807
1782845805933993200,7.7809931640625,0.012873392552137375,0.004354996606707573,-0.021550564095377922
1782845805943998200,7.790998291015625,0.011776593513786793,0.0005890694446861744,-0.023719023913145065
1782845805954003200,7.801003173828125,0.009450854733586311,-0.00523020327091217,-0.020786084234714508
1782845805964008200,7.81100830078125,0.00912716519087553,-0.008805328980088234,-0.021907998248934746
1782845805974013200,7.82101318359375,0.009196407161653042,-0.011149442754685879,-0.022975658997893333
1782845805984018200,7.83101806640625,0.011959788389503956,-0.016863351687788963,-0.023159760981798172
1782845805994023200,7.841023193359375,0.01337419357150793,-0.017471883445978165,-0.02374618873000145
1782845806004028200,7.851028076171875,0.01476594153791666,-0.009421585127711296,-0.028130855411291122
1782845806014033200,7.861033203125,0.013460992835462093,-0.0017143965233117342,-0.03117271699011326
1782845806024038100,7.8710380859375,0.00761929526925087,0.0032542876433581114,-0.027899617329239845
1782845806034043100,7.881043212890625,0.00446291733533144,0.007508687674999237,-0.028985921293497086
1782845806044048100,7.891048095703125,0.0019456972368061543,0.0035847858525812626,-0.020273922011256218
1782845806054053000,7.90105322265625,-0.0027356070932000875,-0.004243575967848301,-0.010794400237500668
1782845806064058000,7.91105810546875,-0.0018436231184750795,-0.013497743755578995,0.0019906379748135805
1782845806074063000,7.92106298828125,-0.005039416253566742,-0.015087917447090149,0.009452548809349537
1782845806084068000,7.931068115234375,-0.0027663186192512512,-0.013855360448360443,0.015468970872461796
1782845806094073000,7.941072998046875,-0.004640385042876005,-0.009604955092072487,0.013254552148282528
1782845806104078000,7.951078125,-0.004066563677042723,0.0020433980971574783,0.0036812126636505127
1782845806114082600,7.96108251953125,-0.0033610924147069454,0.008676533587276936,-0.00196229200810194
1782845806124087600,7.971087646484375,-0.0016549082938581705,0.007497478276491165,-0.0018077903660014272
1782845806134092500,7.981092529296875,-0.0026277611032128334,0.0012313264887779951,0.003998433239758015
1782845806144097500,7.99109765625,-0.0004711755318567157,-0.0019654834177345037,0.004845622926950455
1782845806154102500,8.0011025390625,0.001624732045456767,-0.004883509129285812,0.015527562238276005
1782845806164107500,8.011107421875,-0.0005971126956865191,-0.007929705083370209,0.012664398178458214
1782845806174112500,8.021112548828125,0.006166783161461353,-0.0076593938283622265,0.011866248212754726
1782845806184117500,8.031117431640626,0.007911347784101963,-0.006403859704732895,0.011819946579635143
1782845806194122500,8.04112255859375,0.009088731370866299,-0.004492775537073612,0.0015111168613657355
1782845806204127500,8.05112744140625,0.00767168216407299,0.0037394927348941565,-0.0037962584756314754
1782845806214132500,8.061132568359374,0.006694301962852478,0.014581487514078617,-0.011983081698417664
1782845806224137500,8.071137451171875,0.008810067549347878,0.01342637650668621,-0.011993126012384892
1782845806234142500,8.081142578125,0.010484930127859116,0.008464641869068146,-0.0081642996519804
1782845806244147500,8.0911474609375,0.010271471925079823,-0.0035173315554857254,0.0026464229449629784
1782845806254152400,8.10115234375,0.01308563444763422,-0.007330711465328932,0.018955888226628304
1782845806264158700,8.11115869140625,0.012313456274569035,-0.009967362508177757,0.031039029359817505
1782845806274163700,8.121163818359374,0.011707054451107979,-0.0005741273052990437,0.03382522985339165
1782845806284168700,8.131168701171875,0.011319903656840324,0.007283409126102924,0.02924295701086521
1782845806294173700,8.141173583984376,0.00694592809304595,0.010619284585118294,0.030477065593004227
1782845806304178700,8.1511787109375,0.0037585413083434105,0.014364656992256641,0.02340138889849186
1782845806314183700,8.16118359375,0.003397949505597353,0.01618466153740883,0.01931183785200119
1782845806324188700,8.171188720703125,0.003291635075584054,0.015540201216936111,0.015188275836408138
1782845806334193700,8.181193603515625,0.0031883043702691793,0.007409303914755583,0.013736054301261902
1782845806344198700,8.19119873046875,0.005765807814896107,-0.001009820494800806,0.014452063478529453
1782845806354203600,8.20120361328125,0.0040206387639045715,-0.010208112187683582,0.012423800304532051
1782845806364208600,8.211208740234374,0.002926334273070097,-0.014747493900358677,0.005822661332786083
1782845806374213600,8.221213623046875,-0.0011307252570986748,-0.012028672732412815,0.003002106910571456
1782845806384218600,8.231218505859376,-0.005109306424856186,-0.005647109355777502,-0.0015435665845870972
1782845806394223600,8.2412236328125,-0.012223408557474613,0.001584437908604741,-0.012439090758562088
1782845806404228600,8.251228515625,-0.01978989690542221,0.0013401294127106667,-0.010674556717276573
1782845806414233600,8.261233642578125,-0.01991666480898857,0.0001702026929706335,-0.006751987151801586
1782845806424238600,8.271238525390626,-0.02209492400288582,-0.0050515783950686455,-0.0016184782143682241
1782845806434243600,8.28124365234375,-0.021176401525735855,-0.007943505421280861,-0.005629731807857752
1782845806444248600,8.29124853515625,-0.018712757155299187,-0.005530776455998421,-0.005043950397521257
1782845806454253600,8.301253662109374,-0.012549403123557568,-0.004365643486380577,-0.002963755279779434
1782845806464258600,8.311258544921875,-0.004093843512237072,-0.0069563197903335094,0.002218148671090603
1782845806474263600,8.321263671875,0.0017454035114496946,-0.009760627523064613,0.0057601528242230415
1782845806484268500,8.3312685546875,0.0025058635510504246,-0.006204920820891857,0.009382203221321106
1782845806494273500,8.3412734375,0.0016443310305476189,-0.000019995495676994324,0.012780397199094296
1782845806504278800,8.35127880859375,0.0033672687131911516,0.0053525445982813835,0.016875918954610825
1782845806514283800,8.36128369140625,0.002735567046329379,0.004082216881215572,0.02118438109755516
1782845806524288800,8.371288818359375,0.008490445092320442,-0.00012347172014415264,0.01344356220215559
1782845806534293800,8.381293701171876,0.01497817225754261,0.0016467313980683684,0.008084217086434364
1782845806544298800,8.391298828125,0.02412118762731552,0.0033456594683229923,0.0039977869018912315
1782845806554303700,8.4013037109375,0.025520944967865944,0.0017706658691167831,-0.0006579514010809362
1782845806564308700,8.411308837890624,0.03005855344235897,0.0013126996345818043,0.0024863656144589186
1782845806574313700,8.421313720703125,0.031582411378622055,0.0011316046584397554,0.0018610553815960884
1782845806584318700,8.431318603515624,0.03498798981308937,0.0031027309596538544,-0.0054335701279342175
1782845806594323700,8.44132373046875,0.03108379617333412,0.001566353254020214,-0.014673939906060696
1782845806604328700,8.45132861328125,0.028472155332565308,0.006401563063263893,-0.01593194156885147
1782845806614333700,8.461333740234375,0.02662631869316101,0.007501714862883091,-0.01911335438489914
1782845806624338700,8.471338623046876,0.024242382496595383,0.007999846711754799,-0.02295321226119995
1782845806634343700,8.48134375,0.02321520447731018,0.0065841106697916985,-0.02457108348608017
1782845806644348700,8.4913486328125,0.023260464891791344,0.008153221569955349,-0.025070920586586
1782845806654353700,8.501353759765625,0.022731028497219086,0.00728689506649971,-0.020613854750990868
1782845806664359700,8.511359619140626,0.02569696679711342,0.0036662803031504154,-0.011638392694294453
1782845806674364700,8.52136474609375,0.021896369755268097,-0.0007601596880704165,-0.002191095845773816
1782845806684369700,8.53136962890625,0.0193162988871336,0.0035355191212147474,0.0024614466819912195
1782845806694374700,8.541374755859374,0.014805968850851059,0.009077024646103382,0.01106132660061121
1782845806704379600,8.551379638671875,0.01116272248327732,0.012335984036326408,0.020191213116049767
1782845806714384600,8.561384521484374,0.008010605350136757,0.011971661821007729,0.02346610091626644
1782845806724389600,8.5713896484375,0.009618943557143211,0.00846025999635458,0.02346016839146614
1782845806734394600,8.58139453125,0.007909992709755898,0.0061409128829836845,0.02334671840071678
1782845806744399600,8.591399658203125,0.009751011617481709,0.0019293429795652628,0.018852973356842995
1782845806754404600,8.601404541015626,0.003090712008997798,0.006616773083806038,0.010307421907782555
1782845806764409600,8.61140966796875,0.003247553948312998,0.011945853941142559,0.0043144747614860535
1782845806774414600,8.62141455078125,-0.0010750227374956012,0.015671350061893463,-0.005100864917039871
1782845806784419600,8.631419677734375,0.0008779272902756929,0.025782281532883644,0.01355823129415512
1782845806794424600,8.641424560546875,-0.016133014112710953,0.02924039587378502,0.11021659523248672
1782845806804429600,8.6514296875,-0.012192013673484325,0.07526245713233948,0.10162782669067383
1782845806814434600,8.6614345703125,0.0006486836355179548,0.0958300530910492,0.014665763825178146
1782845806824439600,8.671439453125,0.019993649795651436,0.03922102972865105,-0.06850049644708633
1782845806834444500,8.681444580078125,0.04301401227712631,-0.016551423817873,-0.12110058963298798
1782845806844449500,8.691449462890626,0.04867331683635712,-0.04530886560678482,-0.12748266756534576
1782845806854454500,8.70145458984375,0.0339076854288578,-0.06489534676074982,-0.0779862254858017
1782845806864459500,8.71145947265625,0.022934425622224808,-0.04553770273923874,-0.042516376823186874
1782845806874464500,8.721464599609375,0.019443821161985397,-0.0028645414859056473,-0.013356892392039299
1782845806884469500,8.731469482421875,0.02493489906191826,0.0002711373381316662,0.016729483380913734
