time,seconds_elapsed,z,y,x
1782845350466392300,0.080392333984375,0.07207797873914241,-0.016284341455250977,0.11972009294517337
1782845350476397300,0.090397216796875,-0.025653496694564817,0.009839695360511541,0.08638729379437864
1782845350486401000,0.100401123046875,-0.11627134073078632,0.053544104791432616,0.08410575872845948
1782845350496405200,0.1104052734375,-0.11289280420839785,0.054101738674193614,0.049659080051630736
1782845350506410200,0.12041015625,-0.09387655357122421,0.0511332442574203,0.04597125838436186
1782845350516414200,0.130414306640625,-0.09326514367461204,0.024943302598595618,0.11985884382873772
1782845350526419200,0.140419189453125,-0.0363379723161459,0.044268180793523786,0.19895831870250402
1782845350536423200,0.150423095703125,0.04856324763894081,0.05295096120387315,0.22739983868040142
1782845350546428200,0.16042822265625,0.1011924295425415,0.0650333209246397,0.19522263930551706
1782845350556432100,0.17043212890625,0.19395663795769214,0.05076134220510721,0.1835788171324879
1782845350566437000,0.18043701171875,0.30050913322865963,-0.00126768184825778,0.1147448618158698
1782845350576441300,0.19044140625,0.41319092503488064,0.02015942932292819,0.06670563805103302
1782845350586446300,0.2004462890625,0.4373731801331043,0.15704042736217377,0.06740574914440513
1782845350596450000,0.210449951171875,0.41193186488449574,0.24646599287390708,-0.03990647845268249
1782845350606454000,0.2204541015625,0.44656069519519803,0.2457707040861249,-0.11510426971279084
1782845350616459000,0.230458984375,0.5183762236058712,0.2304132682174444,-0.1647843194872141
1782845350626463200,0.240463134765625,0.5591647455900908,0.17710910966172813,-0.14616795488782225
1782845350636468200,0.25046826171875,0.5341939704626798,0.17769670029133558,-0.07925992613248527
1782845350646472200,0.26047216796875,0.4737888938605785,0.21271891383379696,-0.04214432050734758
1782845350656477200,0.270477294921875,0.3823831143170595,0.25286431560888883,-0.04813106676675379
1782845350666481200,0.280481201171875,0.3595166179925203,0.270941531830281,-0.05433255175538361
1782845350676486400,0.290486328125,0.3878507320731878,0.1942135353282094,-0.1276639646217227
1782845350686490600,0.30049072265625,0.45111938141286373,0.0266302327722311,-0.23191220153830944
1782845350696495600,0.31049560546875,0.505537784820795,-0.11694368703439831,-0.26050145942382513
1782845350706499600,0.32049951171875,0.5503641840189695,-0.12560454787388442,-0.29661168739870186
1782845350716503300,0.33050341796875,0.4414548964887857,-0.129873457364738,-0.2739295346651226
1782845350726508300,0.34050830078125,0.30576164692938324,-0.2429239363528788,-0.2506860947869718
1782845350736512500,0.350512451171875,0.15573065993785856,-0.31129268531054255,-0.2666696266647428
1782845350746517500,0.360517578125,0.08233166172802447,-0.42629269093126054,-0.36708274239785965
1782845350756521500,0.370521484375,0.057118894538283345,-0.5696634893812239,-0.45552682259157296
1782845350766526500,0.3805263671875,0.03750233992040157,-0.709134942305088,-0.49771089058741924
1782845350776530400,0.390530517578125,-0.06086217271983623,-0.7602503586448729,-0.49313240369074046
1782845350786535400,0.400535400390625,-0.10856734222471713,-0.7740399606749415,-0.42216925432570274
1782845350796539600,0.41053955078125,-0.12975509168207644,-0.8361685000687837,-0.3676514821965247
1782845350806544600,0.420544677734375,-0.2065197669327259,-0.8538793671958148,-0.40469234208501875
1782845350816548600,0.430548583984375,-0.2837041289001703,-0.7300121645085513,-0.4563052596181631
1782845350826552300,0.44055224609375,-0.3703355336487293,-0.5844309965327382,-0.5378242167238145
1782845350836557300,0.450557373046875,-0.4390390675187111,-0.4561331179216504,-0.6221917681936174
1782845350846561500,0.4605615234375,-0.5357686724334955,-0.36529695495963094,-0.6833915753699839
1782845350856566500,0.47056640625,-0.6324860023885965,-0.4034979446686804,-0.7098642794929444
1782845350866570500,0.480570556640625,-0.7256131988972425,-0.35219153580144047,-0.6775796742208302
1782845350876575500,0.490575439453125,-0.7539426368027925,-0.32056831704750655,-0.6739715667262673
1782845350886579500,0.500579345703125,-0.6783019971460104,-0.35290377572402354,-0.6545253271739929
1782845350896584400,0.51058447265625,-0.4642296228766441,-0.37662352787703274,-0.5504889794424176
1782845350906588700,0.520588623046875,-0.14615326877534388,-0.357764952019602,-0.5013978354718536
1782845350916593700,0.53059375,0.21644319505393503,-0.3628406478486955,-0.4590962055109441
1782845350926597400,0.540597412109375,0.5302385108351707,-0.4435260036744177,-0.42757396291345356
1782845350936601300,0.550601318359375,0.7430950795739889,-0.5030089969955385,-0.3792636671222746
1782845350946606300,0.5606064453125,0.8835691336691379,-0.5983261047638953,-0.32241957093738016
1782845350956610600,0.570610595703125,0.9230793062806129,-0.7110042433083057,-0.3039087125390768
1782845350966615600,0.580615478515625,0.8595762636631726,-0.7344827340513468,-0.3078646105580032
1782845350976619500,0.59061962890625,0.7630547485411167,-0.7628022350847721,-0.35229200050123033
1782845350986624500,0.60062451171875,0.5670329947471618,-0.7154724747635424,-0.43609906854405994
1782845350996628500,0.61062841796875,0.3814151460677385,-0.6780252260312437,-0.579687747528404
1782845351006633500,0.620633544921875,0.23227204782664773,-0.7124995964325964,-0.7089573937810957
1782845351016637400,0.630637451171875,0.13638356991112233,-0.6899369053602218,-0.7684264316421001
1782845351026642700,0.640642578125,0.07958674693405628,-0.6563257276594638,-0.8424194502223282
1782845351036646400,0.650646484375,0.06077274087071419,-0.6669651950955391,-0.8966927460711449
1782845351046650400,0.660650390625,0.005431961920857429,-0.680000763887912,-0.897271203546226
1782845351056655400,0.6706552734375,-0.029120880544185636,-0.7135074583008885,-0.8807947735849767
1782845351066659300,0.680659423828125,-0.013851415219902992,-0.679310735797137,-0.8940627628937363
1782845351076664300,0.690664306640625,0.07942249628305435,-0.6602360329709946,-0.876470334514603
1782845351086668500,0.70066845703125,0.1962590696811676,-0.6375137674227357,-0.8298026182986795
1782845351096673500,0.710673583984375,0.26126842520833016,-0.6148217508822679,-0.7422934078022837
1782845351106677500,0.720677490234375,0.2664607331544161,-0.5843197912432253,-0.6003680589202791
1782845351116682500,0.7306826171875,0.23779577968418597,-0.5657390094138681,-0.4683761480968445
1782845351126686500,0.7406865234375,0.22502456091642378,-0.5591156457513571,-0.3294384367235005
1782845351136691500,0.75069140625,0.1635544854313135,-0.47320729458034033,-0.2833046081885695
1782845351146695400,0.7606953125,0.05938157877326011,-0.3041455900348723,-0.28645094339028
1782845351156699400,0.770699462890625,0.07721008093059062,-0.22800883742421865,-0.2163531786829233
1782845351166704400,0.780704345703125,0.07126315522491931,-0.30694355019032954,-0.16843517014496026
1782845351176708400,0.790708251953125,-0.001835398733615875,-0.30014760643988847,-0.04819200317375362
1782845351186713300,0.80071337890625,-0.06944178501665592,-0.2384070434503257,0.11287658372595906
1782845351196717600,0.810717529296875,-0.17847206857800482,-0.2594008777707815,0.26878566897064443
1782845351206722600,0.82072265625,-0.20255144782364368,-0.39690263805687426,0.344261473454535
1782845351216726500,0.8307265625,-0.13212415890097617,-0.4649383556678891,0.41242498216368256
1782845351226731500,0.8407314453125,-0.08446049045026302,-0.511240964898467,0.46793118080832063
1782845351236735500,0.850735595703125,-0.08112287046015262,-0.5841328903689981,0.5145766121271997
1782845351246740500,0.860740478515625,-0.05366086303889751,-0.6926289209231734,0.5161951532397419
1782845351256744400,0.870744384765625,0.08562778066396713,-0.7792761077627539,0.4968716632843017
1782845351266749400,0.88074951171875,0.2174386358320713,-0.8748021821066737,0.40698644437156617
1782845351276753400,0.89075341796875,0.36550387570858,-0.9527075518250465,0.2985689589463174
1782845351286757400,0.90075732421875,0.40176293756961823,-0.9279416516199708,0.07757284982837737
1782845351296762400,0.910762451171875,0.2855821977317333,-0.9197229815900325,-0.14443645492009818
1782845351306766600,0.9207666015625,0.19855098001062868,-0.8869026620060205,-0.3940907224413007
1782845351316771600,0.930771484375,0.10459668502807616,-0.8241505838863551,-0.6235413561716675
1782845351326775600,0.940775634765625,0.0024900632500648497,-0.8008674695849418,-0.846461419089511
1782845351336780500,0.950780517578125,-0.0422504112303257,-0.8032062877960503,-1.1145664853848516
1782845351346784500,0.960784423828125,-0.005544190123677253,-0.8215496076077222,-1.2924872036904096
1782845351356789500,0.97078955078125,-0.02852349917292595,-0.85343615347296,-1.3457856631577014
1782845351366793500,0.98079345703125,-0.09446984328925609,-0.759975925617665,-1.3633134288027882
1782845351376798500,0.990798583984375,-0.10929273388981818,-0.7211379531793296,-1.3486216172359884
1782845351386802400,1.000802490234375,-0.09554945521950721,-0.6540437542021275,-1.3703374822206795
1782845351396806400,1.010806396484375,-0.05714870515465736,-0.6123315415017306,-1.344622026205808
1782845351406811400,1.020811279296875,0.036353169885277745,-0.6096608609877526,-1.2838856718227267
1782845351416815600,1.030815673828125,0.17664485315084458,-0.5537962042942642,-1.169652047464624
1782845351426820600,1.040820556640625,0.3303513137847185,-0.4385490920446813,-1.0116686401639132
1782845351436824600,1.050824462890625,0.4008095823675394,-0.33808760712519287,-1.0454704450659453
1782845351446829600,1.06082958984375,0.47691140979528424,-0.3158766520999372,-1.0715278463862836
1782845351456833300,1.070833251953125,0.4327636405110359,-0.362088075915724,-1.0170946838006376
1782845351466838300,1.08083837890625,0.36510932343304153,-0.4448951000705361,-0.9852265503749251
1782845351476842500,1.090842529296875,0.15820727918446062,-0.5148739145733415,-0.788395818285644
1782845351486847500,1.100847412109375,-0.016804419806599614,-0.5123780061043799,-0.18650763712599872
1782845351496851500,1.1108515625,-0.526127568385005,-0.4762945930711925,0.21201390736959874
1782845351506855400,1.12085546875,-1.3110504498630762,-0.29806480881646275,0.45651422619372606
1782845351516860400,1.1308603515625,-1.9440292042046785,-0.008902706771343945,0.6183440797895192
1782845351526864600,1.14086474609375,-2.193159447851777,0.15138415516614914,0.5915035652674734
1782845351536869600,1.15086962890625,-2.1946768666774035,0.26309067219942806,0.42875411260873075
1782845351546873600,1.16087353515625,-1.891668317848444,0.4197453151144087,0.3097154991216957
1782845351556878600,1.170878662109375,-1.5571113690674303,0.3973410294741392,0.10558014310747385
1782845351566882300,1.18088232421875,-1.231297698712349,0.278736277359724,-0.07940707951821387
1782845351576887300,1.19088720703125,-0.7962380562186241,0.17246581390053034,-0.19983327490612862
1782845351586891500,1.2008916015625,-0.30433833612799643,0.09836553555354476,-0.22771043899953364
1782845351596895500,1.2108955078125,0.11098434023857116,0.07193126374483108,-0.27367461005598304
1782845351606900500,1.220900390625,0.446040470713377,0.10256050302535295,-0.3791590377040207
1782845351616904400,1.230904541015625,0.6698579939275979,0.20586115689352152,-0.40996626389995217
1782845351626909400,1.240909423828125,0.9287637816578149,0.36250396324023604,-0.41669593748115
1782845351636913700,1.25091357421875,1.2142226452708245,0.47341655341684813,-0.4798050123449415
1782845351646918700,1.260918701171875,1.4805582907408474,0.5416828649133444,-0.5245164068613201
1782845351656922600,1.270922607421875,1.5232704742640255,0.6185305422723293,-0.5399914777603
1782845351666927600,1.280927734375,1.3802934974372385,0.6920455680772661,-0.5478925332084298
1782845351676931600,1.290931640625,1.121403491798043,0.7277912735886871,-0.45858606403172014
1782845351686936600,1.3009365234375,0.773736886075139,0.7198730478100478,-0.19025573761314152
1782845351696940500,1.3109404296875,0.47789165300428865,0.6984526586405932,0.07552921517156064
1782845351706945500,1.320945556640625,0.31074586508274077,0.7230347267113626,0.3226949538126588
1782845351716949500,1.330949462890625,0.1067652612388134,0.7279713063307106,0.5410348493333905
1782845351726953500,1.340953369140625,-0.040938744109869,0.7796371961601078,0.7744858047462999
1782845351736958500,1.35095849609375,-0.1434253051161766,0.7912862790301441,0.9082645259212702
1782845351746962400,1.36096240234375,-0.17895079200565814,0.7119672431215643,1.009021705851704
1782845351756967400,1.370967529296875,-0.28984453135132787,0.5789456969894469,1.0662029981017112
1782845351766971600,1.3809716796875,-0.4900502928316593,0.4706523494005203,0.9819956786949187
1782845351776976600,1.3909765625,-0.7380529937535524,0.3707634036719799,1.039664243005216
1782845351786980600,1.400980712890625,-0.9080617698907851,0.3237272194698453,1.1831084720175713
1782845351796985600,1.410985595703125,-1.1207979271203279,0.1800900251686573,1.093914377174154
1782845351806989600,1.420989501953125,-1.1973498364031314,0.03972074662223458,1.017435825388506
1782845351816994600,1.43099462890625,-1.0761223345696926,-0.05613660550266504,0.9706981126762926
1782845351826998500,1.44099853515625,-0.9092664695054292,-0.021889760246872902,0.9162060595102608
1782845351837002500,1.45100244140625,-0.7153104160696268,-0.15660218207538126,0.7867449092734604
1782845351847007500,1.461007568359375,-0.5212146619021892,-0.13943185156583784,0.6422483216639607
1782845351857011500,1.471011474609375,-0.3321148163259029,-0.00477247509881854,0.46365065394490956
1782845351867016400,1.481016357421875,-0.1745733075737953,0.1318327747389674,0.26276567802876233
1782845351877020700,1.491020751953125,0.05178747038245201,0.17906755025312304,0.017137231957539915
1782845351887025700,1.501025634765625,0.30800562646389007,0.2020980049677193,-0.18177680921182035
1782845351897029600,1.511029541015625,0.5019336228489876,0.3549333818554878,-0.30142756324782966
1782845351907034600,1.52103466796875,0.6980687738895416,0.45372225738763805,-0.37004736435711383
1782845351917038300,1.531038330078125,0.8014414700806141,0.47022331033349035,-0.35226956947371363
1782845351927043300,1.541043212890625,0.9016559945017099,0.46832361419200896,-0.3127184803299606
1782845351937047600,1.551047607421875,1.0154495469421148,0.478650070156157,-0.2560769940450787
1782845351947051500,1.561051513671875,1.104675059837103,0.438027406258136,-0.17441760555543004
1782845351957056500,1.571056396484375,1.1786550728052854,0.35930619011223314,-0.07833784285150468
1782845351967060500,1.581060546875,1.2952385482251643,0.28679215804338454,0.004557517173886299
1782845351977065500,1.5910654296875,1.346409348013997,0.2835401705101132,0.04345079999603331
1782845351987069700,1.601069580078125,1.2775012314826248,0.2774488678976893,0.05954034953154623
1782845351997074700,1.61107470703125,1.1808978832960129,0.22073753124698994,0.07660970388464629
1782845352007078700,1.62107861328125,0.990420904147625,0.21391294592395424,0.10925744338072836
1782845352017083600,1.631083740234375,0.7231710664421319,0.2385879529751837,0.17363171587474643
1782845352027087400,1.64108740234375,0.491977461501956,0.19407573429271577,0.23929420154839753
1782845352037092400,1.65109228515625,0.2987023760676384,0.13667159307226537,0.33721601192243394
1782845352047096600,1.6610966796875,0.19830723438262937,0.09635478025302291,0.3889689224481582
1782845352057100500,1.6711005859375,0.13500585181713104,0.0754094612494111,0.45063539728820323
1782845352067105500,1.68110546875,0.08472352530062198,0.030527970863133667,0.509187174173817
1782845352077109500,1.691109619140625,-0.026035774010419843,0.015452128414809703,0.5016923614390194
1782845352087114500,1.701114501953125,-0.11388941403031348,0.09180690769031644,0.4446932208228856
1782845352097118700,1.71111865234375,-0.16733926466703414,0.10001257210820913,0.35815519344620406
1782845352107123700,1.721123779296875,-0.1866869392156601,0.04184197655990719,0.29952837856300174
1782845352117127700,1.731127685546875,-0.11965046177506446,-0.004726590130478143,0.21603541797064243
1782845352127132700,1.741132568359375,0.056519759601354594,-0.044306028585880994,0.12204415197856723
1782845352137136400,1.751136474609375,0.2766460270822048,-0.09740195121839643,0.00855864257402718
1782845352147141400,1.761141357421875,0.4857891282558441,-0.10957461957111954,-0.08825396444909274
1782845352157145600,1.7711455078125,0.6248696821659803,-0.11899974278137088,-0.2040752963900566
1782845352167149600,1.781149658203125,0.7327841134399176,-0.10184826310276984,-0.26971191697008906
1782845352177154600,1.791154541015625,0.8039344559401274,-0.1500249956421554,-0.37102855741418894
1782845352187158500,1.801158447265625,0.9264286167085171,-0.30819661899134515,-0.4616698553912341
1782845352197163500,1.81116357421875,1.0490466961175202,-0.38418198043256996,-0.4783003068704158
1782845352207167700,1.821167724609375,1.026639049476385,-0.4239215778857469,-0.458564875113219
1782845352217172700,1.8311728515625,0.9065671474188566,-0.43974838483184575,-0.47758309851177033
1782845352227176700,1.8411767578125,0.847563169786334,-0.4758516716092825,-0.5392858867742121
1782845352237181700,1.851181640625,0.8197942883729934,-0.5682894245490432,-0.5245024514012039
1782845352247185400,1.861185302734375,0.7218301732271909,-0.6077082656152546,-0.46419506301991637
1782845352257190400,1.8711904296875,0.6108990244805812,-0.5490025402769446,-0.343950946200639
1782845352267194600,1.881194580078125,0.5809861167758703,-0.5414844197317957,-0.24021306995898484
1782845352277198600,1.891198486328125,0.5996522388011217,-0.6233752058245241,-0.18937215971164403
1782845352287203600,1.90120361328125,0.5697662191033362,-0.754513276297599,-0.0981119991838932
1782845352297207600,1.91120751953125,0.47111996691226954,-0.8190306105241179,0.03938179699145257
1782845352307212500,1.921212646484375,0.3420768228918314,-0.7932531951889396,0.21706834121495483
1782845352317216500,1.931216552734375,0.17836802368164062,-0.8108122327551245,0.3037994069457054
1782845352327221800,1.9412216796875,0.031005963638424873,-0.8139649976976215,0.3433583871349692
1782845352337225700,1.951225830078125,-0.006201777249574661,-0.7908914344936608,0.36525457712262865
1782845352347230700,1.961230712890625,-0.017381927433609962,-0.7639207177206874,0.3124040806185454
1782845352357234400,1.971234375,-0.02224631859958172,-0.7545742127045989,0.2295510984301567
1782845352367239400,1.981239501953125,0.030690906339883802,-0.8057168093122541,0.11414784577079116
1782845352377243400,1.991243408203125,0.003064648267626762,-0.8728973713986575,0.05116553909182548
1782845352387247600,2.00124755859375,-0.04232990620732307,-0.933029037886858,0.10064473253190517
1782845352397252600,2.011252685546875,-0.12831599878966807,-1.0073433973759411,0.1352789696700871
1782845352407256600,2.021256591796875,-0.29929625030755996,-1.0579438499309122,0.17343429360650478
1782845352417261600,2.031261474609375,-0.5073106397122145,-1.1253544213809072,0.21207133664526043
1782845352427265500,2.041265625,-0.6360697060942649,-1.2416801226474343,0.22323358584642408
1782845352437270500,2.0512705078125,-0.716551940563321,-1.2585751433469354,0.2042637316342443
1782845352447274500,2.0612744140625,-0.7208394086241722,-1.2524717119053006,0.16576653545759618
1782845352457279500,2.071279541015625,-0.6844546745568514,-1.1493312170349061,0.1393113669913262
1782845352467283500,2.081283447265625,-0.6310644451528787,-1.133248243370652,0.08977050649188459
1782845352477288400,2.091288330078125,-0.46054713497161864,-1.2030993398405612,0.03533668631911278
1782845352487292400,2.10129248046875,-0.3549503329902887,-1.1435494187630713,0.06729227883256972
1782845352497296600,2.111296630859375,-0.35798224803209305,-0.9913866804398596,0.09143215609379113
1782845352507301600,2.121301513671875,-0.38063597838878627,-0.9275377469941973,0.14470979196876288
1782845352517305600,2.1313056640625,-0.4624965154737234,-0.8302382332369684,0.2944413576222956
1782845352527310600,2.141310546875,-0.6721656863480806,-0.5956411034636199,0.4835811698827892
1782845352537314600,2.151314453125,-0.8788584717601537,-0.36095892575532196,0.6657993661865592
1782845352547319600,2.161319580078125,-0.8849129494935274,-0.2578806824661791,0.7630856551360339
1782845352557323500,2.171323486328125,-0.7841969052910804,-0.24132716868072746,0.8209984034657478
1782845352567328500,2.18132861328125,-0.7265881814092398,-0.11273381425440311,0.8635621914941817
1782845352577332500,2.19133251953125,-0.7217991935670376,-0.027590309976041314,0.8200143608644604
1782845352587336400,2.20133642578125,-0.6764543234527111,-0.04066621077880263,0.7308203390862792
1782845352597341400,2.211341552734375,-0.617014877012372,-0.10076762825921178,0.5875259668733924
1782845352607345700,2.221345703125,-0.5280366168767213,-0.15181334036365152,0.37516361139230425
1782845352617350700,2.2313505859375,-0.3851970026940107,-0.21218071530386803,0.1850344227682799
1782845352627354600,2.241354736328125,-0.27259236777722834,-0.2573613347671926,0.036864261212572455
1782845352637359600,2.251359619140625,-0.15595453182160854,-0.28677856790944933,-0.059362947138026353
1782845352647363600,2.261363525390625,0.02600187174081802,-0.32634631592705843,-0.1133244736239314
1782845352657368600,2.27136865234375,0.22979718214571473,-0.2903954432323575,-0.12756649559661745
1782845352667372500,2.28137255859375,0.4542693698763847,-0.10046338461562991,-0.14841500316224993
1782845352677377800,2.291377685546875,0.6877151376575231,0.13503624695539473,-0.2556552615016699
1782845352687381800,2.3013818359375,0.987813351997733,0.3100421007275581,-0.34604360763095315
1782845352697386800,2.31138671875,1.246672377976775,0.48017508776634926,-0.3221085322268307
1782845352707390700,2.321390625,1.4776941334813833,0.44280251170545815,-0.2861932423021644
1782845352717394700,2.331394775390625,1.6346633953034877,0.49407560282498597,-0.21028050770573317
1782845352727399700,2.341399658203125,1.6129606820613145,0.6992363563641906,-0.15417795060314238
1782845352737403600,2.351403564453125,1.484462896963954,0.8208668860405683,-0.13204349488019942
1782845352747408600,2.36140869140625,1.3444891936063765,0.8552627843782306,0.019343217569217086
1782845352757412600,2.37141259765625,1.1796838313311337,0.9075617114141583,0.23636508929394184
1782845352767417600,2.38141748046875,0.9495517181426286,0.9712275433778762,0.44103718253336843
1782845352777421800,2.391421875,0.6657201634705067,1.0149234772413969,0.5442978697173297
1782845352787426800,2.4014267578125,0.36537878802418705,1.0679095097586513,0.5662709973987191
1782845352797430800,2.4114306640625,0.06749708068966866,1.197981120043993,0.5627987912435084
1782845352807435800,2.421435791015625,-0.19211773209273814,1.2712684745728968,0.5345396420951932
1782845352817439700,2.431439697265625,-0.37641982199847696,1.3104141977861523,0.48509084379337725
1782845352827443700,2.441443603515625,-0.5369359626471996,1.3064604917243123,0.4014373588770628
1782845352837448700,2.45144873046875,-0.7144920854240655,1.2895911899879573,0.2964353809837252
1782845352847452700,2.46145263671875,-0.8163070307791233,1.2602210108578205,0.17276384699903427
1782845352857457700,2.471457763671875,-0.7862561759084463,1.2241390591293573,0.022190423693880437
1782845352867461600,2.481461669921875,-0.6565612899810075,1.1906959314718841,-0.1852531070202589
1782845352877466600,2.491466552734375,-0.46243397163152694,1.1653405409410595,-0.3010666940461844
1782845352887470800,2.501470947265625,-0.3192810537159443,1.1228744411334395,-0.3824899356923997
1782845352897475800,2.511475830078125,-0.16467618293762207,1.0356386407509446,-0.42576143359877167
1782845352907479800,2.521479736328125,0.06464402934610844,0.919518983450532,-0.45949930641911924
1782845352917484800,2.53148486328125,0.2869844657450914,0.8576859198719262,-0.46860601132996377
1782845352927488500,2.541488525390625,0.4247153586119413,0.7960057087674737,-0.4723152411114424
1782845352937492700,2.55149267578125,0.41107963196933267,0.8580395556151866,-0.40187202396728094
1782845352947497700,2.561497802734375,0.3303852160543203,0.800593036557734,-0.336224151340872
1782845352957501700,2.571501708984375,0.25511633231937886,0.5838993738740682,-0.2592266171824187
1782845352967506700,2.581506591796875,0.16641513555943965,0.514579461671412,-0.06782806620970368
1782845352977510700,2.5915107421875,0.05240764810740947,0.4819394670903682,0.12732267690338195
1782845352987515600,2.601515625,-0.12456453730165958,0.4231795273467898,0.19817199063040314
1782845352997519600,2.61151953125,-0.3527133677184582,0.42072833480238914,0.18506452564559875
1782845353007524600,2.621524658203125,-0.5005249250948429,0.48742052884995934,0.06745660254880785
1782845353017528800,2.63152880859375,-0.47478901081383224,0.5755716905117034,-0.07872625764720141
1782845353027532500,2.641532470703125,-0.30142917068302627,0.6042126785844564,-0.2073495688203722
1782845353037537500,2.65153759765625,-0.0781347945600748,0.5832178213506937,-0.2928984390292316
1782845353047541500,2.66154150390625,0.1716717409133911,0.588976238746941,-0.28629706800282
1782845353057546500,2.67154638671875,0.3404775710016489,0.5119622649103402,-0.2772003730293363
1782845353067550700,2.68155078125,0.5640659616351127,0.41424627930670976,-0.26724041229002177
1782845353077555700,2.6915556640625,0.7572498616546391,0.29565643250048157,-0.2352285595446825
1782845353087559700,2.7015595703125,0.8767489322602748,0.20084259807914495,-0.15093721511624753
1782845353097564700,2.711564697265625,0.9058978698551654,0.1290013507053256,-0.09135872553139925
1782845353107568600,2.721568603515625,0.8560533502340316,0.049356882234662766,-0.07342705526053905
1782845353117573600,2.73157373046875,0.7164391278386115,-0.019440905790030955,-0.09066898970156907
1782845353127577900,2.741577880859375,0.5350210689365863,-0.07550386153459548,-0.1628259519610554
1782845353137581600,2.75158154296875,0.3356020739197731,-0.13579378732442854,-0.2258260134924203
1782845353147586600,2.761586669921875,0.08764730379283428,-0.17029533799365162,-0.2687225406065583
1782845353157590500,2.771590576171875,-0.03522796524763107,-0.21799583132341502,-0.25071554007716473
1782845353167595500,2.781595458984375,-0.11551906105875968,-0.30141601894050835,-0.2815565954774618
1782845353177599700,2.791599853515625,-0.15452069962620735,-0.37588396155610676,-0.3319933088380843
1782845353187604700,2.801604736328125,-0.18948738358914852,-0.427073319914937,-0.3185270204782486
1782845353197608700,2.811608642578125,-0.23590485137104986,-0.4469513019479811,-0.3240525789666921
1782845353207613700,2.82161376953125,-0.3480155652910471,-0.4667781383156776,-0.3308253610372543
1782845353217617700,2.83161767578125,-0.42693712631464004,-0.4422195972509682,-0.3232197083391249
1782845353227622700,2.84162255859375,-0.444975471830368,-0.39937896504253145,-0.43766799836121495
1782845353237627000,2.851626953125,-0.40677696633934973,-0.2866692623160779,-0.5524234546363354
1782845353247630600,2.861630615234375,-0.32158173187375066,-0.24881197147816417,-0.6734725311629474
1782845353257635600,2.871635498046875,-0.18469313504993914,-0.20837124001830815,-0.7313659172050655
1782845353267639600,2.8816396484375,-0.048889410853385926,-0.2234666639499366,-0.7407019738923758
1782845353277644500,2.89164453125,0.11108838513493537,-0.2757832727730274,-0.6769614692572504
1782845353287648800,2.901648681640625,0.2184662253141403,-0.2833488857217133,-0.5899329549498856
1782845353297653800,2.91165380859375,0.24974457615315912,-0.16364800893366335,-0.5365341769132763
1782845353307657700,2.92165771484375,0.19998948838114738,-0.03688976098001003,-0.5046270266514271
1782845353317662700,2.931662841796875,0.13308277480006217,0.006691752723604441,-0.5060109552904963
1782845353327666700,2.941666748046875,0.15634966861903665,-0.05647825854718685,-0.5410305384844541
1782845353337671700,2.951671630859375,0.23716741865277288,-0.14267127187848092,-0.46454577615372833
1782845353347676000,2.961676025390625,0.30039924311339855,-0.17104571796953677,-0.3513264434047043
1782845353357679600,2.9716796875,0.2586462600111961,-0.21190452871099114,-0.2437570261761546
1782845353367684600,2.9816845703125,0.19418284792900084,-0.2416863573819399,-0.14951280833631753
1782845353377688600,2.9916884765625,0.09592880992591381,-0.24293124287649986,-0.07057561135217547
1782845353387693600,3.001693603515625,0.012718027275800705,-0.2673009833708405,-0.044619770710170266
1782845353397697800,3.01169775390625,-0.006184241592884063,-0.2713626798518002,-0.027216362097114324
1782845353407702800,3.021702880859375,0.014742811101675033,-0.2889602958627045,-0.06018829204626381
1782845353417706800,3.031706787109375,0.044774961271882054,-0.3191927909106016,-0.06387794034443796
1782845353427711700,3.041711669921875,0.15076456196308136,-0.33436829434111714,-0.07325966280438005
1782845353437715700,3.0517158203125,0.21769231833219527,-0.3588008709385991,-0.11873897295333444
1782845353447720700,3.061720703125,0.32247663488686085,-0.38446284320056434,-0.20651874401941894
1782845353457724700,3.071724609375,0.38327275663316246,-0.3591626899883151,-0.2985978927798569
1782845353467728600,3.081728759765625,0.46996261357069014,-0.33990620085448026,-0.4229588703334331
1782845353477733600,3.091733642578125,0.6003863982945681,-0.32783494704961774,-0.5036667302519082
1782845353487737600,3.101737548828125,0.7047767470955848,-0.42081309047639365,-0.5721435426939279
1782845353497742600,3.11174267578125,0.6750327662169933,-0.5946428862065076,-0.6098045072421431
1782845353507746800,3.121746826171875,0.6404279013037681,-0.6811427735298872,-0.528096091978997
1782845353517751800,3.131751708984375,0.5169692794173956,-0.6526701277613639,-0.49661454671807587
1782845353527755800,3.141755859375,0.25298984168469907,-0.5579121151804923,-0.48463652415461833
1782845353537760800,3.1517607421875,-0.008758475995063781,-0.4132315493062138,-0.5999946224980056
1782845353547764700,3.1617646484375,-0.02488485040962696,-0.28500352106094357,-0.7745712910726666
1782845353557769700,3.171769775390625,-0.011525018098950386,-0.22458675402104852,-0.9732232472397386
1782845353567773700,3.181773681640625,-0.3271346898257732,-0.13087006718665362,-1.0294827484697102
1782845353577777700,3.191777587890625,-0.5802513727605343,-0.025717209580540655,-1.1178436073593794
1782845353587782700,3.20178271484375,-0.8700953195899724,-0.12599544688761233,-1.2949348891034722
1782845353597786600,3.21178662109375,-0.8580652745783328,-0.12287059286534785,-1.388761758314073
1782845353607791600,3.22179150390625,-0.6222118611335754,-0.1501546133711934,-1.3159886369176208
1782845353617795600,3.231795654296875,-0.4551093278318643,-0.29028146146386863,-1.1298272559460252
1782845353627800600,3.241800537109375,-0.5003834707975388,-0.2713482129350304,-0.86985259687528
1782845353637804800,3.2518046875,-0.7733183684021234,-0.17662030323147773,-0.6404211062368005
1782845353647809800,3.261809814453125,-1.1770914767503737,-0.1191498187765479,-0.500522221681103
1782845353657813800,3.271813720703125,-1.490175429391861,-0.15013883128017186,-0.44616373176686464
1782845353667818800,3.28181884765625,-1.687168658566475,-0.11996961072683333,-0.38147016419060525
1782845353677822500,3.291822509765625,-1.757898729828,0.027829671689867972,-0.25109167991317805
1782845353687826400,3.301826416015625,-1.6412766759634017,0.13051467787772417,-0.20130575861148536
1782845353697831400,3.31183154296875,-1.3477443960100413,0.23177871135175226,-0.16353870334029197
1782845353707835400,3.32183544921875,-0.8376070084393024,0.2806082087114453,-0.15588095512874423
1782845353717840400,3.33184033203125,-0.35391163759231564,0.27975188414305446,-0.147964482915774
1782845353727844400,3.34184423828125,0.11515022774636745,0.3244064339056611,-0.08233158866278827
1782845353737849600,3.351849609375,0.5346346999675036,0.30285598861575125,-0.018529051642119883
1782845353747853600,3.361853515625,0.7532827115893364,0.32573592894375325,-0.0043693741906434295
1782845353757858600,3.371858642578125,0.9084609983414411,0.43189445646107194,0.06781221105344593
1782845353767862500,3.381862548828125,1.1408511195898055,0.5359203558638692,0.16120076191201804
1782845353777867500,3.391867431640625,1.3828501961827278,0.6313105288684367,0.22544906993880867
1782845353787871500,3.40187158203125,1.4427905778825283,0.7301508423268794,0.27916531642675396
1782845353797875500,3.41187548828125,1.3646142822682856,0.8384504735261201,0.29631102395169434
1782845353807880400,3.42188037109375,1.0963070444643497,0.8883046377584337,0.26437793553099037
1782845353817884400,3.431884521484375,0.7265630469679832,0.8466989541724323,0.19724493891336023
1782845353827889400,3.441889404296875,0.48482291357219215,0.7765332387953996,0.20084091757871209
1782845353837893400,3.451893310546875,0.3135200059711933,0.6828603911027312,0.22991744752451776
1782845353847898400,3.4618984375,0.18868951120972632,0.616209113587439,0.3365183119818568
1782845353857902600,3.471902587890625,0.10139116698503493,0.5812251862287521,0.5513190735910087
1782845353867907600,3.481907470703125,0.05995908640027046,0.6010109599336981,0.7113088522780686
1782845353877911600,3.49191162109375,0.028426468539237974,0.6180363290145993,0.8276165794964879
1782845353887916500,3.50191650390625,-0.014002806389331816,0.5773077205240726,0.8463104663114994
1782845353897920300,3.511920166015625,-0.16116028377115726,0.5148804904446006,0.8181926983952522
1782845353907924500,3.521924560546875,-0.35925299862027166,0.44782530830353495,0.7933310827307403
1782845353917929500,3.531929443359375,-0.5948544831305742,0.37907062876820563,0.7874471392586827
1782845353927933400,3.541933349609375,-0.7741822917550801,0.245304255618155,0.782900581870228
1782845353937938400,3.5519384765625,-0.8056979584813118,0.09731646489202976,0.7742273730058222
1782845353947942400,3.5619423828125,-0.802273244729638,-0.011548983496427535,0.8183660091355442
1782845353957947400,3.571947509765625,-0.8261012795627116,-0.08596154266297816,0.852068956772983
1782845353967951600,3.58195166015625,-0.8062018163502216,-0.16031389607489108,0.8387832126118242
1782845353977956600,3.59195654296875,-0.7286953828215599,-0.0930927097171545,0.8481966453842819
1782845353987960600,3.601960693359375,-0.6730991678059101,0.09605214404463767,0.8210541522409767
1782845353997965600,3.611965576171875,-0.5626233616113663,0.13279051385521887,0.7454138048451393
1782845354007969300,3.62196923828125,-0.44969665513336654,0.20472996090650558,0.5700486162412911
1782845354017973500,3.631973388671875,-0.34626492223143573,0.302686769528687,0.4383297502055764
1782845354027978500,3.641978515625,-0.24682488931417465,0.32853929592669007,0.341777255423367
1782845354037982500,3.651982421875,-0.11722820306420326,0.34448943699151274,0.18741452283784746
1782845354047987500,3.661987548828125,-0.053985857209563254,0.42517011664211746,0.19790135699547826
1782845354057991400,3.671991455078125,0.00926701003909111,0.4427431827336549,0.16761223638951778
1782845354067996400,3.681996337890625,0.08791267673075198,0.4117643993631005,0.17749416345655916
1782845354078000600,3.692000732421875,0.21655483873486517,0.41520372616201634,0.238500713083148
1782845354088005600,3.702005615234375,0.36896482981741424,0.39525457858890295,0.26329671616554257
1782845354098009600,3.712009521484375,0.5296218402415513,0.4380263833448291,0.28132695144005115
1782845354108014600,3.7220146484375,0.6771428902387618,0.4641121339768171,0.27363091704472897
1782845354118018300,3.732018310546875,0.8312269520133734,0.4160208877637982,0.2832050933368504
1782845354128022500,3.7420224609375,0.974998878610134,0.37026772910952566,0.3004893325496465
1782845354138027500,3.752027587890625,1.0178764818280934,0.37481706297695633,0.33700784906446934
1782845354148031500,3.762031494140625,0.9776280580699444,0.33518852468281984,0.35696517994403837
1782845354158036500,3.772036376953125,0.905699132412672,0.2764537193804979,0.3434372975900769
1782845354168040400,3.78204052734375,0.820973853546381,0.22746493980586527,0.3593621580831706
1782845354178045400,3.79204541015625,0.7356471016556024,0.13193681963533163,0.3986224475868046
1782845354188049700,3.802049560546875,0.585311578759551,0.03242313695997,0.4414696556665003
1782845354198054700,3.8120546875,0.3922854996502399,-0.026331249825656412,0.4807997955359518
1782845354208058400,3.822058349609375,0.2572130123376846,-0.043427638316154475,0.4975909174695611
1782845354218063400,3.8320634765625,0.13859832335114478,-0.008697393457591534,0.4822701603494584
1782845354228067300,3.8420673828125,0.08221709543764591,-0.016869009475409983,0.43127676295414563
1782845354238071600,3.852071533203125,0.06388531993329524,-0.02119359467625618,0.3798538881003856
1782845354248076500,3.86207666015625,0.05926058274209499,-0.04749795649498701,0.30407398610338565
1782845354258080500,3.87208056640625,0.0859253023058176,-0.059573301953077314,0.23707857132554053
1782845354268085500,3.88208544921875,0.1752525220096111,-0.08700228388756513,0.21471286412999033
1782845354278089500,3.89208935546875,0.2250543715327978,-0.03725976333618164,0.19775047728270292
1782845354288094500,3.902094482421875,0.3206120100587606,-0.02125233912616968,0.14759016971066594
1782845354298098700,3.9120986328125,0.44193595800399776,0.011047171454131602,0.09141060184910893
1782845354308103700,3.922103759765625,0.6020733284682035,0.06862929958999156,0.018000936114788053
1782845354318107400,3.932107421875,0.8037310423225164,0.011027882231771945,-0.11309183391183614
1782845354328112400,3.9421123046875,1.0379501325637102,-0.1311643739581108,-0.18873904943987727
1782845354338116400,3.952116455078125,1.1626216373711824,-0.23484131379276513,-0.1178590483136475
1782845354348120600,3.96212060546875,1.1178279713988304,-0.25177286711037156,-0.07806713615134359
1782845354358125600,3.97212548828125,0.8570598969280719,-0.3018693156659603,-0.024930589247494934
1782845354368129500,3.982129638671875,0.5402227292329073,-0.33699791219234465,0.02221373150423169
1782845354378134500,3.992134521484375,0.2651929051756859,-0.29647710123360155,-0.010786620821803808
1782845354388138500,4.002138427734375,0.19476035555601118,-0.3123217360973358,-0.05430266807377338
1782845354398143500,4.0121435546875,0.30433424447476864,-0.5425815673187375,-0.10201309827566146
1782845354408147500,4.0221474609375,0.320710209736228,-0.7292483405292034,-0.06540989915207028
1782845354418152400,4.03215234375,0.29386253482103347,-0.8185755602329969,0.028003420821577307
1782845354428156400,4.042156494140625,0.24612697017788884,-0.8579708742931484,0.06809928436651826
1782845354438161400,4.052161376953125,0.16502163537442682,-0.7442576936125754,0.1282668989509344
1782845354448165400,4.062165283203125,0.043107904842495916,-0.6216764390826225,0.2570757958240807
1782845354458169300,4.07216943359375,0.029019758257269858,-0.6302133812814951,0.3666188512131572
1782845354468174300,4.08217431640625,0.02217033075392246,-0.691646631887555,0.40981063494682307
1782845354478178600,4.092178466796875,-0.041619712111353874,-0.70235185803622,0.35686230409145353
1782845354488183600,4.10218359375,-0.13537994582653046,-0.6286947934120893,0.2647771639816463
1782845354498187500,4.1121875,-0.12607026568949223,-0.5766828666239977,0.12610212213248015
1782845354508192500,4.122192626953125,-0.011895020455121993,-0.5771919851899147,0.03777589616477489
1782845354518196500,4.132196533203125,0.1063771387040615,-0.5967874970197677,-0.04463029210418463
1782845354528201500,4.142201416015625,0.252137608769536,-0.5640925573810934,-0.13035524953231215
1782845354538205400,4.152205322265625,0.36104806534349915,-0.594336304475367,-0.1925345692653209
1782845354548210400,4.16221044921875,0.4610410559684038,-0.6599976941704749,-0.24264300051964818
1782845354558214400,4.17221435546875,0.5345154575020075,-0.6788403418064117,-0.3033693449653685
1782845354568218400,4.18221826171875,0.5268336708277463,-0.6650152300715446,-0.3639492666777223
1782845354578223400,4.192223388671875,0.46955695537924763,-0.6263163738429546,-0.4243506900180131
1782845354588227600,4.2022275390625,0.358275093498826,-0.7210898762539029,-0.4106166175674647
1782845354598232600,4.212232666015625,0.29775018990933894,-0.9043634998947382,-0.33965302981100975
1782845354608236500,4.222236572265625,0.13719663985967634,-1.0350652247771621,-0.19351444714814423
1782845354618241500,4.232241455078125,-0.04291384357511997,-1.0859756200641393,-0.06662607000879943
1782845354628245500,4.24224560546875,-0.11906126371026038,-1.1182292456761003,0.01568206471316516
1782845354638250500,4.25225048828125,-0.0925438436627388,-1.1994549919888375,0.06682100805900991
1782845354648254500,4.26225439453125,-0.10033084427714348,-1.2946712697312235,0.10271313630379736
1782845354658259500,4.272259521484375,-0.06997253089249134,-1.301035836327076,0.09158983087353408
1782845354668263400,4.282263427734375,0.023899931025505066,-1.2385937009394168,0.05223338751904666
1782845354678267400,4.292267333984375,0.13468904095292092,-1.122628941939771,0.029902094049751755
1782845354688272100,4.302272216796875,0.1626221730172634,-0.9463882856756448,0.02612790927328169
1782845354698276400,4.3122763671875,0.30302199283242226,-0.809384538039565,0.004270297730341553
1782845354708281300,4.32228125,0.3968395096927881,-0.6814931944027542,0.10401895820535718
1782845354718285300,4.332285400390625,0.33862405208945273,-0.5546610044300556,0.2282125433027744
1782845354728290300,4.342290283203125,0.2712298472523689,-0.3866875335127115,0.4060422223240137
1782845354738294300,4.352294189453125,0.16450608706772327,-0.19446020356565713,0.640964346268028
1782845354748299300,4.36229931640625,-0.1652928535312414,-0.15171148742437363,0.7495124723356217
1782845354758303500,4.372303466796875,-0.46513270919620986,-0.10133797549307345,0.8477982937164604
1782845354768307500,4.382307373046875,-0.7123357841730117,-0.021298808616399763,0.9516687833618372
1782845354778312400,4.3923125,-0.9527595742732285,-0.03778028007894754,0.9452549707967788
1782845354788316200,4.402316162109375,-1.0683031852513551,-0.08061901259124278,0.9168675190936774
1782845354798321200,4.412321044921875,-0.9304664939224719,-0.06816022077351808,0.8161530092611908
1782845354808325400,4.422325439453125,-0.6323042160809039,-0.046289749749004835,0.6796263776175677
1782845354818330400,4.432330322265625,-0.30155367384552956,-0.07716828761547803,0.47485447726547714
1782845354828334300,4.442334228515625,0.01642564962208271,-0.19059739065766335,0.26832375054731966
1782845354838339300,4.45233935546875,0.26749533689916133,-0.37199937520772214,0.14325389407202602
1782845354848343300,4.46234326171875,0.4317524176418781,-0.5392638210728764,0.11268412989377975
1782845354858348300,4.472348388671875,0.5217722957849502,-0.6155383747190236,0.12292729148864745
1782845354868352500,4.4823525390625,0.6293067878305911,-0.6232853355839848,0.08314823880791664
1782845354878356500,4.4923564453125,0.5670487768381833,-0.49755701519995926,0.024022826752811668
1782845354888361500,4.502361572265625,0.468364530724287,-0.2666916193008423,-0.03040573272295296
1782845354898365200,4.512365234375,0.4609171373277902,-0.050340486444532866,-0.160384915484488
1782845354908370200,4.5223701171875,0.4502046046555042,0.06873626709580422,-0.33251455623321235
1782845354918374400,4.53237451171875,0.573476179537177,0.15318360580354928,-0.49434813615605233
1782845354928379400,4.54237939453125,0.6488070225924253,0.3705088443890214,-0.5018729787029326
1782845354938383400,4.55238330078125,0.7202016952425241,0.6216212017640471,-0.4261678224425763
1782845354948388400,4.562388427734375,0.7419733820676803,0.7383195357352494,-0.26257073997855185
1782845354958392300,4.572392333984375,0.6535942568689584,0.9242293530985712,-0.042713498697429894
1782845354968397300,4.582397216796875,0.47098201974630355,1.1069485577270388,0.1476939223460853
1782845354978401500,4.592401611328125,0.28344693926870823,1.2081851186722516,0.20655330387614665
1782845354988405500,4.602405517578125,0.20687983241677282,1.1540367643773555,0.23383031011931596
1782845354998410500,4.612410400390625,0.2477723992973566,1.1347241611421108,0.29364896513558925
1782845355008414200,4.622414306640625,0.2483732877999544,1.1846657113969326,0.3986668712504208
1782845355018419200,4.632419189453125,0.21456980239748955,1.254334290906787,0.5024890647746623
1782845355028423400,4.64242333984375,0.13467267434000968,1.3538392057538031,0.5772727222759276
1782845355038428400,4.652428466796875,0.0795031603038311,1.3652297838181255,0.5662012931633741
1782845355048432400,4.662432373046875,0.0224561619579792,1.3050626076251268,0.5286478806428611
1782845355058437400,4.672437255859375,-0.1548410176217556,1.2729574505731462,0.5283356728885322
1782845355068441300,4.68244140625,-0.29872575694322584,1.206205343031883,0.565120658319816
1782845355078446300,4.6924462890625,-0.33968495931923387,1.1481811702169478,0.5498220399662852
1782845355088450300,4.7024501953125,-0.33577567692101,1.0938133279524742,0.530750113619119
1782845355098454300,4.712454345703125,-0.2839531352251768,0.9958721552908419,0.4678622802905738
1782845355108459300,4.722459228515625,-0.19482699105143547,0.8777275680340826,0.4506400003980845
1782845355118463200,4.732463134765625,-0.10127017095386981,0.7602579574294388,0.42073257258608937
1782845355128468200,4.74246826171875,-0.04438333160579204,0.6319013343684375,0.3943720236007124
1782845355138472200,4.75247216796875,-0.07112111640572548,0.5840092639893293,0.3788977564193308
1782845355148477400,4.7624775390625,-0.24986907931566238,0.6077909754626453,0.32964345777630805
1782845355158481400,4.7724814453125,-0.4553384604126215,0.5707622444033622,0.2687831847526133
1782845355168486400,4.782486328125,-0.5380073912709951,0.5048343127265572,0.2372436256941408
1782845355178490400,4.792490478515625,-0.6242214473903179,0.46191097067072984,0.2815505310628563
1782845355188495400,4.802495361328125,-0.7243892100602388,0.46944034326225514,0.34791809626594183
1782845355198499300,4.812499267578125,-0.7990724028617143,0.4239643941141665,0.32946408262141047
1782845355208503300,4.82250341796875,-0.7533277197748423,0.47655149044170975,0.2840936396744102
1782845355218508300,4.83250830078125,-0.5877665706962346,0.5438198769420385,0.24337628323026
1782845355228512300,4.84251220703125,-0.286865807801485,0.5970945171423256,0.15756803143285214
1782845355238517200,4.852517333984375,0.09829144740402698,0.6215110193878411,0.044216450606286525
1782845355248521200,4.862521240234375,0.5331131894886494,0.552512740354985,-0.07982486653886735
1782845355258526200,4.872526123046875,0.8850427133530377,0.5218403925850987,-0.1255185500908643
1782845355268530400,4.882530517578125,1.0492606311291455,0.46873351016715165,-0.13700272472277283
1782845355278535400,4.892535400390625,1.1414157677352428,0.4189227466851473,-0.12511632596552372
1782845355288539400,4.902539306640625,1.0917565415531396,0.3617963994927704,-0.1771359976686537
1782845355298544400,4.91254443359375,0.9552192423850298,0.34891879774108525,-0.18776961988583207
1782845355308548400,4.92254833984375,0.8007038034558296,0.2997247048527002,-0.16804573243595658
1782845355318552300,4.93255224609375,0.6835942583352327,0.23493059951141476,-0.19363325122222302
1782845355328557300,4.942557373046875,0.5672960295975208,0.11617898627221583,-0.2409209990326315
1782845355338561300,4.952561279296875,0.3595557809591293,0.07294175596162676,-0.2425215660970658
1782845355348566300,4.962566162109375,0.17323124531507492,0.031078152091801165,-0.3097738782454282
1782845355358570200,4.9725703125,0.08273030565679072,-0.023340689707547425,-0.39499154373854395
1782845355368575200,4.9825751953125,-0.04624444930255413,-0.07823138680234551,-0.5067106279924511
1782845355378579500,4.992579345703125,-0.12563888853490351,-0.15786781809702516,-0.5954358632151037
1782845355388584400,5.00258447265625,-0.1757411823093891,-0.17741759108901023,-0.6279926364921034
1782845355398588400,5.01258837890625,-0.23426176033914087,-0.1991734958231449,-0.6510259407509118
1782845355408592400,5.02259228515625,-0.3027332390189171,-0.2789581034168601,-0.6456250315554439
1782845355418597400,5.032597412109375,-0.2856231142640114,-0.33241613736003633,-0.6499868800267576
1782845355428601300,5.042601318359375,-0.27121932585835457,-0.29327640549615025,-0.6559243072517216
1782845355438606300,5.0526064453125,-0.186830731600523,-0.2794062855757773,-0.6690956312529742
1782845355448610300,5.0626103515625,-0.10876198801398276,-0.2863486520595848,-0.715809232437238
1782845355458615300,5.072615234375,-0.02806464948952198,-0.3462678448408842,-0.7415360135637223
1782845355468619300,5.082619384765625,0.019429507613182066,-0.33545009822845456,-0.702987817852199
1782845355478624300,5.092624267578125,0.07821136692762375,-0.3896247560083866,-0.6318422976575792
1782845355488628500,5.10262841796875,0.08550970724225043,-0.44665684904605146,-0.5561338534615934
1782845355498633500,5.112633544921875,0.05098784443736076,-0.5460431059494615,-0.48654834912531075
1782845355508637400,5.122637451171875,0.05509001905918121,-0.6235724819622933,-0.36756270793452855
1782845355518641200,5.13264111328125,0.054661564514040945,-0.6683899672016501,-0.2782754549149424
1782845355528646100,5.142646240234375,0.1015975032120943,-0.6629949762903153,-0.16560557274222373
1782845355538650400,5.152650390625,0.11576339120864867,-0.6405018433228135,-0.12354118560329079
1782845355548655400,5.1626552734375,0.17918460076153278,-0.5923004147335886,-0.1683874585457146
1782845355558659300,5.172659423828125,0.3611912732064724,-0.6466660650409758,-0.2502651659611612
1782845355568664300,5.182664306640625,0.48926294184625146,-0.6873023190729319,-0.3011482348497957
1782845355578668300,5.192668212890625,0.546125815796852,-0.6405927364766597,-0.40169820177033544
1782845355588673300,5.20267333984375,0.5506646282702684,-0.6003066110566259,-0.5357847467854618
1782845355598677500,5.212677490234375,0.4871826284408569,-0.5892826743476093,-0.6850310131400823
1782845355608682500,5.2226826171875,0.45147009454667564,-0.5864695166230202,-0.7369221630927175
1782845355618686500,5.2326865234375,0.24340368269383905,-0.6589509615965187,-0.8843651063524186
1782845355628690200,5.242690185546875,0.06180559104979038,-0.6087091132208705,-0.9366158833976834
1782845355638695200,5.252695068359375,-0.06148293496668338,-0.5133111953012645,-0.8331197069574147
1782845355648699400,5.262699462890625,-0.21362112337052822,-0.46275560480132694,-0.7903697487071156
1782845355658704400,5.272704345703125,-0.3930880482047796,-0.4301462976194918,-0.7835578036699443
1782845355668708400,5.282708251953125,-0.38528175836801526,-0.5477510789111256,-0.8191729416042566
1782845355678713300,5.29271337890625,-0.269726456952095,-0.6171744514882564,-0.851660668233037
1782845355688717300,5.30271728515625,-0.1990466545730829,-0.5958928862676024,-0.8088284385267644
1782845355698722300,5.312722412109375,-0.07897767512500285,-0.5953986730098724,-0.7408449625596404
1782845355708726500,5.3227265625,0.048432314735651016,-0.6167917357809841,-0.6644735244102775
1782845355718731500,5.3327314453125,0.1737152294397354,-0.5622869692638516,-0.5208334074996411
1782845355728735200,5.3427353515625,0.23694179320335387,-0.540159893129766,-0.40859592539481815
1782845355738739200,5.3527392578125,0.2774479911148548,-0.5658465614415705,-0.3887210121016949
1782845355748744200,5.362744140625,0.26263737547397614,-0.6025111353635788,-0.3807595317032188
1782845355758748400,5.37274853515625,0.14433949735164642,-0.6494003123104571,-0.3480563356928527
1782845355768753400,5.38275341796875,0.03523848664164543,-0.6484080864027142,-0.3427081795979291
1782845355778757400,5.39275732421875,-0.12509177604615687,-0.5397372838035226,-0.3958984294503927
1782845355788762400,5.402762451171875,-0.09234393717646598,-0.41400194915682076,-0.4947744718093425
1782845355798766300,5.412766357421875,0.057657823720574375,-0.29425270318239927,-0.6631066199712455
1782845355808771300,5.422771240234375,0.3109545393973589,-0.21615590254515407,-0.7507251360610127
1782845355818775300,5.432775390625,0.577758386901021,-0.2829991955012083,-0.7702509436555206
1782845355828780300,5.4427802734375,0.6275970613032579,-0.4062812917768955,-0.7265822631251067
1782845355838784300,5.4527841796875,0.408525855833292,-0.4543652314662933,-0.6173848063033074
1782845355848788200,5.462788330078125,-0.07572714889645576,-0.4671028402253985,-0.4803337854593992
1782845355858793200,5.472793212890625,-0.7295750882655382,-0.3929395796447992,-0.32737171345204114
1782845355868797200,5.482797119140625,-1.330064362412691,-0.22060528316944836,-0.1465118729546666
1782845355878802200,5.49280224609375,-1.5383230819672344,-0.1447647370263934,0.029436960756033657
1782845355888806400,5.502806396484375,-1.5171978763520717,-0.10394552764296532,0.13554405034705996
1782845355898811400,5.512811279296875,-1.3939555275648832,0.02338993567675352,0.15475202416405082
1782845355908815400,5.5228154296875,-1.3022586561203002,0.18263123408406973,0.13044088198915124
1782845355918820400,5.5328203125,-1.409908883500099,0.3311895181745291,-0.019315818105638025
1782845355928824300,5.54282421875,-1.4056751914530992,0.44264732114374633,-0.33710056884922085
1782845355938829300,5.552829345703125,-1.1392559593528508,0.3688799280129373,-0.5589039757620543
1782845355948833300,5.562833251953125,-0.5616454564899206,0.3735791917450726,-0.6103001087393611
1782845355958837200,5.572837158203125,-0.0068920976012945175,0.46372094270214437,-0.6345326327200979
1782845355968842200,5.58284228515625,0.4303004652678966,0.5658912773661315,-0.5915638440873473
1782845355978846200,5.59284619140625,1.0219622898370027,0.7631088168159127,-0.4548993383429944
1782845355988851200,5.602851318359375,1.5565186638712882,0.8561484811715782,-0.42380153170265256
1782845355998855400,5.61285546875,1.8001824588060378,0.8831248970329761,-0.29190475181676445
1782845356008860400,5.6228603515625,1.947832688140869,0.8411874972745775,-0.20147790030799806
1782845356018864400,5.632864501953125,1.851807432103157,0.7851847472846507,-0.16170586188994346
1782845356028869400,5.642869384765625,1.5705787534058093,0.7650345241814851,-0.08375789513885974
1782845356038873000,5.652873046875,1.263308455479145,0.7436249486669898,0.07264372286312282
1782845356048877300,5.662877197265625,0.9237333862751722,0.7741749852314591,0.2836731492400169
1782845356058882300,5.67288232421875,0.5465554393857717,0.8205524132639169,0.48472442163378
1782845356068886300,5.68288623046875,0.21579963645339012,0.7897562929838895,0.6237065566707403
1782845356078891300,5.692891357421875,-0.06476385633349419,0.7643874584496021,0.7183567980282008
1782845356088895200,5.702895263671875,-0.4738280568271875,0.7090750288113952,0.7748090453512966
1782845356098900200,5.712900146484375,-0.6918453693300485,0.6777984315380454,0.9463278607252985
1782845356108904400,5.722904541015625,-0.9436831183701753,0.5863473515480756,1.070615773042664
1782845356118909400,5.732909423828125,-1.1282172634661196,0.46369916926175353,1.1109611543692648
1782845356128913400,5.742913330078125,-1.1440841101616621,0.4238084729000926,1.1734652490772306
1782845356138918400,5.75291845703125,-1.0377625010371208,0.3419076038047671,1.2175612151090054
1782845356148922000,5.762922119140625,-0.9396025710582733,0.2265443178296089,1.2450792635664343
1782845356158926300,5.77292626953125,-0.9168056328386068,0.15679507429897785,1.2616836307562886
1782845356168931300,5.782931396484375,-0.8902841211378574,0.10603694696426391,1.2089506962172687
1782845356178935300,5.792935302734375,-0.7860504242032766,0.07417378197461366,1.0813724371176212
1782845356188940300,5.802940185546875,-0.6320172158330678,0.07441109786182641,0.8517275229241699
1782845356198944300,5.8129443359375,-0.429852136978507,0.16733955692797897,0.6315561741925776
1782845356208949200,5.82294921875,-0.2712210794240236,0.24960750577002763,0.4360576405551284
1782845356218953500,5.832953369140625,-0.1239753392368555,0.34234336487352846,0.3082075787767768
1782845356228958500,5.84295849609375,0.04964636670053005,0.4962263511180877,0.16741444879509507
1782845356238962400,5.85296240234375,0.26427403676509853,0.570251664532721,0.06502776796668767
1782845356248967400,5.862967529296875,0.4602209717571735,0.5428972091391683,-0.036450565845146776
1782845356258971100,5.87297119140625,0.6576876636624336,0.48259033221453423,-0.08408800387606025
1782845356268975400,5.882975341796875,0.7179103694349527,0.5060349206879735,-0.06433182159177958
1782845356278980400,5.89298046875,0.720110509827733,0.46532764724642034,-0.011168825072422624
1782845356288984300,5.902984375,0.7325953128695487,0.41618046223968264,0.04724683127813041
1782845356298989300,5.9129892578125,0.7130161676526069,0.3212991155400872,0.1396758163895458
1782845356308993300,5.9229931640625,0.6937479880809784,0.24267390711456535,0.2565378164898604
1782845356318998300,5.932998291015625,0.6727098762273788,0.25187252809256316,0.35057482131980355
1782845356329002500,5.94300244140625,0.6438625519275665,0.22296587482094762,0.3748801913410425
1782845356339007500,5.953007568359375,0.6115513509094714,0.22770488604158162,0.3239866741236299
1782845356349011500,5.963011474609375,0.5585848998755216,0.23228140017688273,0.23453721627965568
1782845356359015200,5.97301513671875,0.48963878942131994,0.23496815504282711,0.245010021911934
1782845356369020200,5.983020263671875,0.4813976152986288,0.22753508243262766,0.2087389773521572
1782845356379024400,5.9930244140625,0.4591366836518049,0.25547347519397734,0.19819580989740787
1782845356389029400,6.003029296875,0.47960488666296003,0.3242012667223811,0.21521255728043615
1782845356399033300,6.013033447265625,0.5367945083498954,0.3390510453298688,0.2606296889133751
1782845356409038300,6.023038330078125,0.5684335091948509,0.3026929070085287,0.3135338153008371
1782845356419042300,6.033042236328125,0.5291968928277492,0.2449114569082856,0.37950434401035305
1782845356429047300,6.04304736328125,0.4657511333554983,0.16550503497719762,0.42628786862567064
1782845356439051300,6.05305126953125,0.4388151956349611,0.1043666756644845,0.4882685239814222
1782845356449056500,6.063056396484375,0.34218846657276153,-0.021854688933491705,0.3191158532168716
1782845356459060200,6.073060302734375,0.29691724621653554,-0.09584346973001956,0.294352071903646
1782845356469065200,6.083065185546875,0.5209902054965496,-0.07056874321997166,0.28404680485799905
1782845356479069200,6.093069091796875,0.564837530529499,-0.20376403848379848,0.18610840867534278
1782845356489073200,6.1030732421875,0.5860434001654387,-0.2515729606240988,0.1068402261711657
1782845356499078400,6.113078369140625,0.5862532435238361,-0.2918869969643652,0.10641118710413575
1782845356509082400,6.123082275390625,0.4820353286802768,-0.36403307250365613,0.1588815982494503
1782845356519087400,6.13308740234375,0.3723217390298843,-0.5366758504062891,0.10457768806666135
1782845356529091300,6.14309130859375,0.25849194623231886,-0.6405917135633528,0.050140433827787635
1782845356539096300,6.153096435546875,0.21403847199976442,-0.7062985498353839,0.10138459111377596
1782845356549100300,6.163100341796875,0.20739362715780735,-0.835831377068907,0.28645547343492506
1782845356559105300,6.173105224609375,0.05535013130009174,-1.1200973776355385,0.379117536649853
1782845356569109200,6.183109130859375,0.08316343637704848,-1.1258131249338388,0.3466971031036228
1782845356579113200,6.19311328125,0.08805997624695301,-0.9585166764952242,0.22961342307664453
1782845356589118200,6.2031181640625,0.044676177072525025,-0.8498214701071382,0.007179901566728949
1782845356599122200,6.2131220703125,0.1386842480689287,-0.8197169853530824,-0.23866459840796886
1782845356609127200,6.223127197265625,0.2424263620942831,-0.7333367788866162,-0.38002931773252785
1782845356619131400,6.23313134765625,0.3712894733726978,-0.5874307628706097,-0.4700119326051324
1782845356629136400,6.243136474609375,0.48930327385663985,-0.5146846756115555,-0.5534943718034774
1782845356639140400,6.253140380859375,0.6479080279260874,-0.465207966389507,-0.5924180497638881
1782845356649145300,6.263145263671875,0.6886760916441679,-0.4477224324509501,-0.5876556576676666
1782845356659149300,6.2731494140625,0.6477917080700397,-0.4841426762230694,-0.569502380535379
1782845356669153300,6.2831533203125,0.5697907690227031,-0.6006200609199702,-0.44511429577916856
1782845356679158300,6.293158203125,0.4625958841949701,-0.7400162566505372,-0.2596878049533814
1782845356689162800,6.303162841796875,0.299229030290246,-0.894105286861211,-0.09719780694842338
1782845356699167700,6.313167724609375,0.15084697954952717,-1.0064080162219702,-0.004400280785560607
1782845356709171700,6.323171630859375,0.11697042891085146,-1.1215800174087285,0.013865955201908945
1782845356719176700,6.3331767578125,0.11851765835285186,-1.2219083774678408,-0.0173099581759423
1782845356729181000,6.343180908203125,0.058301382321119304,-1.24137573287338,-0.05348367984108626
1782845356739186000,6.35318603515625,0.047024201503396035,-1.2592311230376363,-0.11505911539681254
1782845356749189600,6.363189697265625,0.11777765364050864,-1.2791886000476778,-0.1495470028668642
1782845356759194600,6.373194580078125,0.07252981415987014,-1.3093082823708653,-0.22409517111182212
1782845356769198600,6.383198486328125,-0.001287117201089859,-1.2596945027656852,-0.27786139422133566
1782845356779202800,6.393202880859375,-0.06968786873221397,-1.2786090465940534,-0.2536280665230006
1782845356789207800,6.403207763671875,-0.06707447136342524,-1.3129752804458141,-0.11676292364001273
1782845356799211800,6.413211669921875,-0.11960019289255142,-1.1971762334018945,0.04432210293784737
1782845356809216800,6.423216796875,-0.1273076985299587,-1.0567087551780043,0.0741814538244158
1782845356819220700,6.433220703125,-0.12136837160885333,-0.9775219673469662,0.010974763805046677
1782845356829225700,6.443225830078125,-0.15500351470708845,-0.7902382312819362,0.010740370527282356
1782845356839229700,6.453229736328125,-0.23959552258253097,-0.6254556653603911,0.08958842792324721
1782845356849235000,6.46323486328125,-0.4396487238496542,-0.5940139406532049,0.2677398131795227
1782845356859238700,6.47323876953125,-0.6275812792122364,-0.38236937805265186,0.563521260299161
1782845356869243600,6.48324365234375,-0.8006038502126932,0.0036861411668360233,0.7882230190020054
1782845356879247600,6.49324755859375,-0.992753731009364,0.18899346259236335,0.7957184893239289
1782845356889251600,6.50325146484375,-1.0884843880146742,0.06631912295147777,0.7890158498801291
1782845356899256800,6.5132568359375,-0.9459814584404229,-0.14832695955261588,0.8732678852114826
1782845356909260800,6.5232607421875,-0.7316589088022708,-0.19420652106553316,1.000211572734639
1782845356919265800,6.533265869140625,-0.6183288822203874,-0.2502053255327046,1.109521915346384
1782845356929269800,6.543269775390625,-0.6345815133631229,-0.3891090615712106,1.1147625194136053
1782845356939274800,6.553274658203125,-0.5559563049376011,-0.4528055809341371,1.082964528614655
1782845356949278700,6.56327880859375,-0.38834114593863484,-0.4986031632520258,0.9627890931174159
1782845356959283700,6.57328369140625,-0.2819225061804056,-0.4373554983459413,0.8508709791600704
1782845356969287700,6.58328759765625,-0.14958908844292162,-0.23946122867837547,0.7630148549221456
1782845356979292700,6.593292724609375,-0.06166062962114811,-0.00018733926564455032,0.5911619122229517
1782845356989296600,6.603296630859375,-0.012654314389824867,0.10662468372434378,0.37739465838000175
1782845356999300600,6.613300537109375,0.018445757272839546,0.28729046295434235,0.22179946139007806
1782845357009305600,6.6233056640625,0.07162614331841469,0.5338358046747744,0.01892908381037414
1782845357019309800,6.633309814453125,0.19679390721023082,0.7037205160409211,-0.15968780006580055
1782845357029314800,6.643314697265625,0.45181262437403197,0.74261723292917,-0.1923962567731738
1782845357039318800,6.65331884765625,0.6114917296767235,0.8669437236912548,-0.13724449758939444
1782845357049323800,6.66332373046875,0.7140285595655441,1.0316779204264284,-0.11157879900038242
1782845357059327700,6.67332763671875,0.7386819393068551,1.0489439663954079,-0.08606887549497187
1782845357069332700,6.683332763671875,0.723359282490611,1.091764286468178,0.054766997649893165
1782845357079336700,6.693336669921875,0.5230015453189611,1.2592549423046409,0.16546536055393515
1782845357089340700,6.703340576171875,0.3418447677016258,1.305060269537568,0.22262056851461529
1782845357099345700,6.713345703125,0.24260171866118907,1.315420335510373,0.32331374329812823
1782845357109349600,6.723349609375,0.224101016330719,1.3443990311048923,0.3827167301855981
1782845357119354600,6.733354736328125,0.3438035005539655,1.3679011949844657,0.3859983091395348
1782845357129358800,6.74335888671875,0.5359902062296867,1.41528794618994,0.3993534652750939
1782845357139363800,6.75336376953125,0.7076268758296966,1.479526025083661,0.4292454032570123
1782845357149367800,6.763367919921875,0.8943974016755819,1.5652482060328126,0.3598150164172053
1782845357159372800,6.773372802734375,0.9978975236386061,1.592582787682116,0.2561915603354573
1782845357169376500,6.78337646484375,1.0313643244326114,1.5517486729905008,0.1819397446885705
1782845357179381500,6.793381591796875,1.0204618221461772,1.4507472359754143,0.12143478790856897
1782845357189385700,6.8033857421875,0.932413536337018,1.3186518647775054,0.05074512172266841
1782845357199389700,6.8133896484375,0.7722071922898293,1.1531522366277873,0.10283807785771787
1782845357209394700,6.823394775390625,0.535920648124814,1.0155915857613087,0.14458324297964573
1782845357219398700,6.833398681640625,0.19891104549467561,0.8624049112178385,0.20177374144941568
1782845357229403600,6.843403564453125,-0.14094576326012612,0.7227649698592722,0.17980682431310413
1782845357239407900,6.853407958984375,-0.5556237119823694,0.6443238858290016,0.10177169073522091
1782845357249412900,6.863412841796875,-0.9962614468693732,0.5849256481818854,0.06219320212788879
1782845357259416800,6.873416748046875,-1.4124895476430654,0.5597673876583575,0.0010866992581635712
1782845357269421800,6.883421875,-1.7200006685882805,0.5852728541843593,-0.0709592038422823
1782845357279425500,6.893425537109375,-1.7975059330731629,0.5426105011522769,-0.1718647792674601
1782845357289430500,6.903430419921875,-1.7133797891438007,0.4415411134675145,-0.2354663868885487
1782845357299434800,6.913434814453125,-1.5086708710253238,0.41102293334603307,-0.2701473857779056
1782845357309438700,6.923438720703125,-1.1367997983723879,0.4176875058017671,-0.3021622341979295
1782845357319443700,6.933443603515625,-0.6110492466062307,0.4574202351227402,-0.3544702943883836
1782845357329447700,6.94344775390625,-0.007823825493454933,0.5073373815886676,-0.41307767391875383
1782845357339452700,6.95345263671875,0.48439562807083125,0.5679672068573535,-0.4742456977173686
1782845357349457000,6.963456787109375,0.8510609487742186,0.6261367794923484,-0.5580064424004405
1782845357359462000,6.9734619140625,1.1417746641755104,0.6668120503604412,-0.6421729914054274
1782845357369465900,6.9834658203125,1.4244751689910888,0.6366451678946614,-0.7290835784215479
1782845357379470800,6.993470947265625,1.5660896252930163,0.5606209357477724,-0.7259583590731025
1782845357389474600,7.003474609375,1.5874270123541354,0.47980406249687074,-0.6174217773128301
1782845357399479600,7.0134794921875,1.4695570042550563,0.425303387632966,-0.42753969531767066
1782845357409483800,7.02348388671875,1.3040332645773887,0.32065599533095956,-0.25692586595937605
1782845357419487700,7.03348779296875,1.062538630375266,0.19119111876711248,-0.1338666917193681
1782845357429492700,7.04349267578125,0.7469044087290764,0.08159984032213688,-0.059974503165110944
1782845357439496700,7.05349658203125,0.39506490123569965,-0.005659779327362775,-0.04320018623583018
1782845357449501700,7.063501708984375,0.04770049332976341,-0.1116995027706027,-0.061159329035505645
1782845357459506000,7.073505859375,-0.2464513798266649,-0.19849939595386384,-0.11301496928334236
1782845357469511000,7.083510986328125,-0.5004845930844545,-0.30048312200456856,-0.19463921339437365
1782845357479515000,7.093514892578125,-0.6630237639933824,-0.3692398473665118,-0.2836979914203286
1782845357489519900,7.103519775390625,-0.8219377301424742,-0.37994624255895615,-0.39609994337186216
1782845357499523600,7.113523681640625,-0.9047586366921663,-0.3122061468936503,-0.5285515806615352
1782845357509527800,7.12352783203125,-0.9234738585561514,-0.2576205702252686,-0.6531830457195639
1782845357519532800,7.13353271484375,-0.8561714236557483,-0.20570859668031333,-0.7708361961975694
1782845357529536800,7.143536865234375,-0.7101099248170852,-0.17014643104225396,-0.843866653355956
1782845357539541800,7.153541748046875,-0.5200163920283317,-0.0413438177794218,-0.8794695163305848
1782845357549545700,7.163545654296875,-0.26604806070029735,0.014649287599325178,-0.8666341462854296
1782845357559550700,7.17355078125,-0.019975451058149338,-0.04436725725382566,-0.8133027343966066
1782845357569554700,7.1835546875,0.21334932069182394,-0.07608458403199911,-0.6920631037339567
1782845357579559700,7.1935595703125,0.46315877877473827,-0.1118858191229403,-0.4932064918402582
1782845357589563600,7.203563720703125,0.5950619884014129,-0.1720734535820782,-0.33994185668975113
1782845357599568600,7.213568603515625,0.6914034707814455,-0.22131810761392115,-0.18906557798050344
1782845357609572600,7.223572509765625,0.6400193205028772,-0.25872195559591055,-0.04877206808403134
1782845357619576600,7.23357666015625,0.4358791421830654,-0.2158097194559872,0.0883678000871092
1782845357629581600,7.24358154296875,0.2957072859048843,-0.14584244926050305,0.17058767200373112
1782845357639585800,7.253585693359375,0.19456980141997335,-0.0805279733069241,0.1730030625823885
1782845357649590800,7.2635908203125,0.07303893272578715,-0.04872326050624251,0.1451360545568168
1782845357659594800,7.2735947265625,-0.08165770798921584,-0.046152094843983645,0.0700013185955584
1782845357669599700,7.283599853515625,-0.24762743786871433,-0.11568287331834434,0.0241107972972095
1782845357679603700,7.293603759765625,-0.3057774290204048,-0.08578647835701704,0.04541881213337183
1782845357689608400,7.3036083984375,-0.32389176238179207,-0.1283903792001307,0.017649273132905364
1782845357699612700,7.31361279296875,-0.24489772064387796,-0.20722762294113634,-0.05618979699462652
1782845357709616600,7.32361669921875,-0.11592997994720936,-0.20469956576824186,-0.06373378263339399
1782845357719621600,7.33362158203125,0.05553659378290176,-0.2245603044055402,-0.0487427689243108
1782845357729625600,7.34362548828125,0.22093407673239707,-0.24776290081664917,-0.10169840630330144
1782845357739630600,7.353630615234375,0.34770343060195447,-0.17745967666506765,-0.14683211788497863
1782845357749634600,7.363634521484375,0.3673901278465986,-0.1263422144986689,-0.1831860184226185
1782845357759639600,7.3736396484375,0.31637656444609163,-0.06748626703470945,-0.21704393742606043
1782845357769643500,7.3836435546875,0.2658627672612667,-0.0907245192810893,-0.1903526221163571
1782845357779648500,7.3936484375,0.3473527174681425,-0.16862608960717915,-0.2015585643287748
1782845357789652500,7.403652587890625,0.31619360909461974,-0.15934475878179072,-0.1348079180922359
1782845357799657500,7.413657470703125,0.3052460986226797,-0.20970336540490386,-0.05235124174505472
1782845357809661700,7.42366162109375,0.36200726576447484,-0.35247707474455237,0.03490589368641376
1782845357819665700,7.433665771484375,0.40897886029779906,-0.47790568152964114,0.10489376827850937
1782845357829670700,7.443670654296875,0.4789262567490339,-0.5489128161668777,0.12784845434315503
1782845357839674600,7.453674560546875,0.5135737917602062,-0.5402553163282573,0.06144369893483817
1782845357849679600,7.4636796875,0.5434837768554687,-0.4651826858177781,-0.060153878320008514
1782845357859683600,7.47368359375,0.579032060098648,-0.35173838520646095,-0.2535484254155308
1782845357869688600,7.4836884765625,0.5531336487323045,-0.28275734956935045,-0.47589339185915885
1782845357879692500,7.493692626953125,0.31504268549382686,-0.30266748030632734,-0.7102722027067094
1782845357889697500,7.503697509765625,0.05494856476187706,-0.3323319662079215,-0.9193664232373238
1782845357899701500,7.513701416015625,-0.11537819128334521,-0.3893932853400707,-1.1030236393682658
1782845357909706500,7.52370654296875,-0.18535598287284374,-0.3963805138789117,-1.23991179780066
1782845357919710700,7.533710693359375,-0.2205535529822111,-0.28369331524521113,-1.3202854573287068
1782845357929714700,7.543714599609375,-0.16455051073133944,-0.07744710455685853,-1.443639303666353
1782845357939719700,7.5537197265625,-0.16695874091684818,-0.009620645782351493,-1.6103427546478808
1782845357949723400,7.563723388671875,-0.2130763489693403,0.0600768675610423,-1.6780425183027983
1782845357959728400,7.573728271484375,-0.21282149742543696,0.18590718701481818,-1.704249849487841
1782845357969732600,7.583732666015625,-0.39091947199404237,0.22579349946230648,-1.6793705520361661
1782845357979737600,7.593737548828125,-0.8278104215681552,0.23091464186832308,-1.4475944710329174
1782845357989741600,7.603741455078125,-1.2501742486178875,0.2725051278851926,-1.131695534035936
1782845357999746600,7.61374658203125,-1.5292869580745696,0.3108588239379227,-0.8148598276454955
1782845358009750500,7.62375048828125,-1.672429354596138,0.30167320857197044,-0.5477502751935273
1782845358019754800,7.633754638671875,-1.6823147887945173,0.2750811158530414,-0.32875571515634655
1782845358029759700,7.643759765625,-1.5114946962743996,0.2640571791440248,-0.17319551641456782
1782845358039763700,7.653763671875,-1.176908521398902,0.24062939567491412,-0.07922609692811966
1782845358049768700,7.663768798828125,-0.7089250989466905,0.2614743230439722,-0.08057583103664219
1782845358059772400,7.6737724609375,-0.20145546928048133,0.24994419037848709,-0.16381759334690868
1782845358069777400,7.68377734375,0.17055062792897224,0.21842808526083826,-0.25138116437904534
1782845358079781600,7.69378173828125,0.4210042291343212,0.1680161410152912,-0.3826815858069807
1782845358089786600,7.70378662109375,0.5319020601332187,0.1453534966997802,-0.46946306655071673
1782845358099790600,7.71379052734375,0.5603729523360729,0.11236001250594854,-0.46779783675223585
1782845358109795600,7.723795654296875,0.4915893389672041,0.1308005090817809,-0.393980613130331
1782845358119799600,7.733799560546875,0.3212052997767925,0.15626608198881148,-0.3684058807604015
1782845358129803800,7.7438037109375,0.25558687244057654,0.1296656598329544,-0.41162879028469324
1782845358139808800,7.753808837890625,0.2747317178934812,0.09234788269922137,-0.38068515129275615
1782845358149812700,7.763812744140625,0.22812720310688017,0.09475333640575409,-0.3325444399148226
1782845358159817700,7.773817626953125,0.12621639616191385,0.09157909028381109,-0.24222002586722371
1782845358169821400,7.783821533203125,0.09080664460659027,0.07678761773481965,-0.2106999021615833
1782845358179826400,7.793826416015625,0.07213643092811108,0.19519275562390684,-0.15319741513319313
1782845358189830700,7.80383056640625,0.017122984236478806,0.3305423063121736,-0.07926949767842888
1782845358199835600,7.813835693359375,0.019307927060127256,0.46933834419250486,0.044152080133184786
1782845358209839600,7.823839599609375,0.019815292060375213,0.5727456733055413,0.1774458673354238
1782845358219844600,7.8338447265625,-0.021382395246624945,0.6787313284739852,0.3230212631575763
1782845358229848600,7.8438486328125,-0.15935761826336384,0.7490354294084012,0.4179636193294078
1782845358239852500,7.8538525390625,-0.26664427302777766,0.7908480337433517,0.5208161641038954
1782845358249857800,7.86385791015625,-0.35516309895813464,0.8170848832838237,0.6201548555385321
1782845358259861800,7.87386181640625,-0.36560675156116484,0.8348799215629696,0.8769779187105595
1782845358269866800,7.88386669921875,-0.26165070252418515,0.6819099585101008,1.016865039763227
1782845358279870500,7.893870361328125,-0.1473679052621126,0.510726293374598,1.0617504026070237
1782845358289875500,7.90387548828125,-0.0315799641340971,0.4187558656856417,1.135609711804986
1782845358299879400,7.91387939453125,0.03890928410887718,0.36489392711669205,1.1663154503878206
1782845358309884700,7.923884765625,0.30784722103178497,0.15256898103654384,1.2851570069327949
1782845358319888600,7.933888671875,0.440044445168972,0.015814824247360228,1.3778085487537086
1782845358329892600,7.943892578125,0.43683015929758545,-0.09180909964740276,1.274853785713762
1782845358339897600,7.953897705078125,0.5139736047327518,-0.191385033904016,1.114403696038574
1782845358349901600,7.963901611328125,0.5003565827906131,-0.25327070445269345,0.994645974496752
1782845358359906600,7.973906494140625,0.3501876486331224,-0.1837579000264406,0.9292130597952752
1782845358369910800,7.983910888671875,0.20532792679965495,-0.019001929850876332,0.8935253680814057
1782845358379915800,7.993915771484375,0.1406628546655178,-0.01124678567945957,0.7187071458358317
1782845358389919500,8.00391943359375,0.1276870532363653,-0.059086979740858074,0.5239091616831719
1782845358399924500,8.013924560546876,0.16212942106425762,-0.008186813586950302,0.35008199630156156
1782845358409928400,8.023928466796875,0.1573760890573263,0.12241904970556497,0.295560570910573
1782845358419933400,8.033933349609375,0.05227846876978874,0.3464411555811763,0.3558461858514696
1782845358429937700,8.043937744140624,0.015622516545653341,0.4148810700789094,0.3338753962576389
1782845358439941600,8.053941650390625,-0.00968085153698921,0.3860907366633415,0.38035876888260245
1782845358449946600,8.063946533203126,-0.0841951175123453,0.3016419366508722,0.5103144246380776
1782845358459950600,8.07395068359375,-0.17129881594777105,0.2219698495209217,0.6409566013529896
1782845358469955600,8.08395556640625,-0.10694763206839561,0.23610505011826752,0.7024933853987604
1782845358479959600,8.09395947265625,0.07214870588779448,0.1601952381312847,0.6193732767067849
1782845358489964500,8.103964599609375,0.4131131836235523,0.07896803051382303,0.5374781797651201
1782845358499968500,8.113968505859376,0.7192097615957259,0.04477086961865425,0.421971101405099
1782845358509973500,8.123973388671875,0.8680705357640981,-0.024499358223378658,0.3024887627385556
1782845358519977500,8.1339775390625,0.911941241672635,-0.07882774526029825,0.2047469120413065
1782845358529982500,8.143982421875,0.9043108929246664,-0.08685030819624662,0.13112696455717085
1782845358539986700,8.153986572265625,0.8347942891061305,-0.01862549775391817,0.04494513020701706
1782845358549990700,8.16399072265625,0.7224784080028533,0.04698357723206281,-0.0045831630717962975
1782845358559995600,8.17399560546875,0.6353712024360895,0.04028086472302675,-0.04346139445528388
1782845358569999600,8.18399951171875,0.4935217683345079,-0.06343114642500877,-0.05282455834522843
1782845358580004600,8.194004638671874,0.3522849131733179,-0.14534633630663155,-0.005697700184956193
1782845358590008600,8.204008544921875,0.24081951141953467,-0.20875264055132864,0.054235448056459426
1782845358600013600,8.214013671875,0.0959989525526762,-0.22862813836634158,0.07393858497925103
1782845358610017500,8.224017578125,-0.02417816344499588,-0.20489801094979046,0.03606726561598479
1782845358620022500,8.2340224609375,-0.07634265044629573,-0.22310323746502397,-0.023188275624811648
1782845358630026500,8.244026611328126,-0.09449205512106418,-0.20763094304502008,-0.08323971648365258
1782845358640030700,8.25403076171875,-0.08835925145447254,-0.1394517253100872,-0.14717990840934217
1782845358650035700,8.26403564453125,-0.005289338579773903,0.04174421527385711,-0.20445837742350995
1782845358660039700,8.274039794921874,0.09648352119922637,0.013651508733630179,-0.29469957016706466
1782845358670044700,8.284044677734375,0.2795253819108009,-0.07773498158752917,-0.3655790598366409
1782845358680048600,8.294048583984376,0.41651860815286634,-0.16429332109987735,-0.37833091631680726
1782845358690053000,8.30405322265625,0.5161708225160837,-0.2157651496618986,-0.33416656122393906
1782845358700057300,8.314057373046875,0.5576075792759656,-0.2438543490707874,-0.33581396310478445
1782845358710062300,8.324062255859374,0.5532189889281988,-0.2575570034697652,-0.338405806228891
1782845358720066300,8.33406640625,0.5367582679927348,-0.32237755842655896,-0.34008849861882623
1782845358730071300,8.3440712890625,0.3879179520905018,-0.37959728299081325,-0.2907851001370698
1782845358740075000,8.354074951171874,0.2569675131440162,-0.38241497076004743,-0.2973994037102908
1782845358750079200,8.364079345703125,0.1873953797459602,-0.24922201358377932,-0.33985110966637727
1782845358760084200,8.374084228515626,0.1993698951780796,-0.1874465254113078,-0.38844453324787315
1782845358770088200,8.384088134765625,0.2560147424638271,-0.17994214113056659,-0.39101058434359726
1782845358780093200,8.39409326171875,0.3195838360548019,-0.13691986874490975,-0.2840161905240267
1782845358790097200,8.40409716796875,0.35200434266626834,-0.07218202363550663,-0.17833302543349563
1782845358800102100,8.41410205078125,0.42106618845462795,-0.0824459357574582,-0.12938720821775496
1782845358810106400,8.4241064453125,0.5613222158849239,-0.14475713824182748,-0.07396240424625575
1782845358820111400,8.434111328125,0.686616821026802,-0.2236567796945572,0.06263721956834196
1782845358830115300,8.444115234375,0.807329359075427,-0.3334153775304556,0.192751207690686
1782845358840119000,8.454119140625,0.8858195429444312,-0.45245910558402536,0.3709159638851881
1782845358850124000,8.4641240234375,0.9446434878349304,-0.5430713966622949,0.509276240696758
1782845358860128300,8.474128173828126,0.9573200140565633,-0.5940437512695789,0.5534199183277786
1782845358870133200,8.48413330078125,0.795287039104104,-0.6293801453277468,0.5242317447010427
1782845358880137200,8.49413720703125,0.5039344412773847,-0.6023211657494306,0.39379999586641784
1782845358890142200,8.50414208984375,0.22557167340517043,-0.6035168052747846,0.1920358259629458
1782845358900146200,8.514146240234375,-0.02725157954096794,-0.6287301569864153,0.01919365303069353
1782845358910151200,8.524151123046876,-0.1884901892453432,-0.674505527472496,-0.1432639770746231
1782845358920155400,8.5341552734375,-0.2689893748492002,-0.71790598552078,-0.273293355653435
1782845358930160400,8.544160400390625,-0.26533845112621784,-0.7717439586922525,-0.38462723998203874
1782845358940164400,8.554164306640626,-0.2898041993409395,-0.8132815454781055,-0.44110739822536704
1782845358950168000,8.56416796875,-0.3689063776284456,-0.8077274184823036,-0.47925782679095863
1782845358960173000,8.574173095703125,-0.39592239484786984,-0.8433446753084659,-0.4558133844479918
1782845358970177300,8.58417724609375,-0.44511867969334123,-0.8687211086273193,-0.4276633947625756
1782845358980182300,8.594182373046875,-0.45713878783285616,-0.8390341186329722,-0.38060397581532596
1782845358990186200,8.604186279296876,-0.4432815273940563,-0.7829308308780193,-0.3800954417712986
1782845359000191200,8.614191162109375,-0.2854734766602516,-0.7967319772154092,-0.40863223881721494
1782845359010195200,8.6241953125,-0.11882336330115795,-0.7949146986603737,-0.3479430115114897
1782845359020200200,8.6342001953125,0.018771335965394972,-0.7587289942964911,-0.3016521657839417
1782845359030204400,8.644204345703125,0.12561609218120573,-0.7756050180345774,-0.2837190342083573
1782845359040209400,8.65420947265625,0.32893267915844915,-0.7604796373561025,-0.26571466402746735
1782845359050213400,8.66421337890625,0.13138941488564013,-0.6434709222614765,-0.3264007495280355
1782845359060217000,8.674217041015625,0.8929770134836434,-0.8036275819480418,-0.021586466451361773
1782845359070222000,8.68422216796875,0.4743254849553108,-0.7818938890457153,0.33883769484013315
1782845359080226300,8.694226318359375,0.16032266390323638,-0.9860384512796997,0.31211123515181244
1782845359090231300,8.704231201171876,0.046782209441065786,-0.973889456063509,0.29634280732944607
1782845359100235300,8.7142353515625,0.07276070030629635,-0.6799211227804421,0.15833236686885355
1782845359110240300,8.724240234375,0.24110826523303985,-0.35147125870287416,-0.08190072296485304
1782845359120244200,8.734244140625,0.5058306302875281,-0.1225116964250803,-0.16781382337622344
