time,seconds_elapsed,z,y,x
1782845350448885200,0.06288525390625,-0.953857421875,-0.1991424560546875,0.14227294921875
1782845350458890200,0.07289013671875,-0.966217041015625,-0.1931304931640625,0.1367340087890625
1782845350468894200,0.082894287109375,-0.97625732421875,-0.190338134765625,0.1329498291015625
1782845350478899200,0.092899169921875,-0.985504150390625,-0.186004638671875,0.132476806640625
1782845350488903200,0.102903076171875,-0.985107421875,-0.186309814453125,0.128814697265625
1782845350498908200,0.112908203125,-0.98309326171875,-0.1871337890625,0.1282196044921875
1782845350508912000,0.122912109375,-0.9829559326171875,-0.1904449462890625,0.135345458984375
1782845350518917000,0.132917236328125,-0.977081298828125,-0.189208984375,0.1428070068359375
1782845350528921000,0.142921142578125,-0.968353271484375,-0.18914794921875,0.14495849609375
1782845350538925000,0.152925048828125,-0.9629058837890625,-0.188812255859375,0.1408843994140625
1782845350548930000,0.162929931640625,-0.9533538818359375,-0.191162109375,0.1389923095703125
1782845350558934300,0.172934326171875,-0.9423980712890625,-0.1972503662109375,0.1314239501953125
1782845350568939300,0.182939208984375,-0.9308319091796875,-0.1956787109375,0.126129150390625
1782845350578943200,0.192943115234375,-0.92828369140625,-0.1822509765625,0.1259918212890625
1782845350588948200,0.2029482421875,-0.9307861328125,-0.17364501953125,0.1149444580078125
1782845350598952200,0.2129521484375,-0.9271697998046875,-0.174163818359375,0.1072235107421875
1782845350608957200,0.222957275390625,-0.9197998046875,-0.175994873046875,0.1020965576171875
1782845350618961200,0.232961181640625,-0.9156494140625,-0.181427001953125,0.1039276123046875
1782845350628966100,0.242966064453125,-0.9182586669921875,-0.18115234375,0.110595703125
1782845350638970000,0.25297021484375,-0.9245147705078125,-0.17724609375,0.1141510009765625
1782845350648974000,0.26297412109375,-0.9339447021484375,-0.17279052734375,0.113250732421875
1782845350658979000,0.27297900390625,-0.9363861083984375,-0.1705780029296875,0.112335205078125
1782845350668983300,0.2829833984375,-0.933624267578125,-0.1779022216796875,0.104644775390625
1782845350678988500,0.292988525390625,-0.9273529052734375,-0.1941680908203125,0.093902587890625
1782845350688992500,0.302992431640625,-0.9220733642578125,-0.207489013671875,0.0909576416015625
1782845350698997500,0.31299755859375,-0.9178619384765625,-0.2065887451171875,0.087249755859375
1782845350709001500,0.32300146484375,-0.9293975830078125,-0.204986572265625,0.0893402099609375
1782845350719006500,0.33300634765625,-0.9437103271484375,-0.2144317626953125,0.0911407470703125
1782845350729010700,0.3430107421875,-0.9595184326171875,-0.21929931640625,0.088653564453125
1782845350739015700,0.353015625,-0.9675445556640625,-0.2288055419921875,0.077423095703125
1782845350749019400,0.363019287109375,-0.970703125,-0.2409820556640625,0.06732177734375
1782845350759023400,0.3730234375,-0.9733428955078125,-0.2524871826171875,0.061859130859375
1782845350769028400,0.3830283203125,-0.9840545654296875,-0.254791259765625,0.0610198974609375
1782845350779032600,0.393032470703125,-0.9896392822265625,-0.25311279296875,0.0667877197265625
1782845350789037600,0.40303759765625,-0.992523193359375,-0.2563323974609375,0.0707855224609375
1782845350799041500,0.41304150390625,-1.00103759765625,-0.2551727294921875,0.0654296875
1782845350809046500,0.423046630859375,-1.0095367431640625,-0.23980712890625,0.05865478515625
1782845350819050500,0.433050537109375,-1.0189208984375,-0.2225799560546875,0.048919677734375
1782845350829055500,0.443055419921875,-1.0263671875,-0.2076568603515625,0.0390167236328125
1782845350839059700,0.453059814453125,-1.036529541015625,-0.197265625,0.03167724609375
1782845350849064700,0.463064697265625,-1.0465240478515625,-0.2008514404296875,0.0281829833984375
1782845350859068400,0.473068359375,-1.0559844970703125,-0.19610595703125,0.0310516357421875
1782845350869073400,0.483073486328125,-1.0587005615234375,-0.1939849853515625,0.031341552734375
1782845350879077400,0.493077392578125,-1.05072021484375,-0.1988525390625,0.0334014892578125
1782845350889081600,0.50308154296875,-1.0285797119140625,-0.20306396484375,0.04412841796875
1782845350899086600,0.513086669921875,-0.9958343505859375,-0.2029266357421875,0.049224853515625
1782845350909090600,0.523090576171875,-0.9585723876953125,-0.2050628662109375,0.05364990234375
1782845350919095600,0.533095458984375,-0.92633056640625,-0.214630126953125,0.0569915771484375
1782845350929099500,0.543099609375,-0.9044647216796875,-0.2215576171875,0.0620269775390625
1782845350939104500,0.5531044921875,-0.8900909423828125,-0.23150634765625,0.0679168701171875
1782845350949108500,0.5631083984375,-0.886138916015625,-0.2425689697265625,0.0697784423828125
1782845350959113500,0.573113525390625,-0.892791748046875,-0.2440338134765625,0.0692138671875
1782845350969117400,0.583117431640625,-0.902862548828125,-0.245758056640625,0.0644073486328125
1782845350979122400,0.593122314453125,-0.9230804443359375,-0.23980712890625,0.0554962158203125
1782845350989126400,0.60312646484375,-0.94219970703125,-0.2350921630859375,0.04046630859375
1782845350999130400,0.61313037109375,-0.9575653076171875,-0.2379608154296875,0.0268096923828125
1782845351009135400,0.62313525390625,-0.96746826171875,-0.235260009765625,0.020172119140625
1782845351019139600,0.6331396484375,-0.973358154296875,-0.231597900390625,0.0120391845703125
1782845351029144600,0.64314453125,-0.975341796875,-0.23260498046875,0.0059814453125
1782845351039148500,0.6531484375,-0.9810028076171875,-0.2340545654296875,0.0055389404296875
1782845351049153500,0.663153564453125,-0.9844970703125,-0.237762451171875,0.00701904296875
1782845351059157200,0.6731572265625,-0.982879638671875,-0.234619140625,0.0056915283203125
1782845351069162500,0.68316259765625,-0.973297119140625,-0.232940673828125,0.00775146484375
1782845351079166500,0.69316650390625,-0.961334228515625,-0.23065185546875,0.0129547119140625
1782845351089171500,0.70317138671875,-0.954681396484375,-0.2281341552734375,0.0224609375
1782845351099175400,0.713175537109375,-0.9541473388671875,-0.224700927734375,0.0375213623046875
1782845351109179400,0.723179443359375,-0.957061767578125,-0.2225189208984375,0.051544189453125
1782845351119184400,0.733184326171875,-0.9583587646484375,-0.221649169921875,0.0660858154296875
1782845351129188600,0.743188720703125,-0.964630126953125,-0.212799072265625,0.0709075927734375
1782845351139193600,0.753193603515625,-0.9752655029296875,-0.195465087890625,0.07061767578125
1782845351149197600,0.763197509765625,-0.9734649658203125,-0.1875457763671875,0.077850341796875
1782845351159202600,0.77320263671875,-0.9740753173828125,-0.1954803466796875,0.0828857421875
1782845351169206300,0.783206298828125,-0.98150634765625,-0.1948089599609375,0.0953369140625
1782845351179211300,0.793211181640625,-0.988311767578125,-0.188812255859375,0.1121368408203125
1782845351189215500,0.803215576171875,-0.9992828369140625,-0.19140625,0.12872314453125
1782845351199220500,0.813220458984375,-1.001556396484375,-0.20587158203125,0.137451171875
1782845351209224400,0.823224365234375,-0.9941864013671875,-0.213104248046875,0.145721435546875
1782845351219228400,0.833228515625,-0.9891357421875,-0.218048095703125,0.1528167724609375
1782845351229233400,0.8432333984375,-0.9886016845703125,-0.2257080078125,0.1590118408203125
1782845351239237600,0.853237548828125,-0.9856109619140625,-0.2370758056640625,0.1604461669921875
1782845351249242600,0.86324267578125,-0.971221923828125,-0.24627685546875,0.1595916748046875
1782845351259246600,0.87324658203125,-0.957611083984375,-0.25634765625,0.1514434814453125
1782845351269251600,0.88325146484375,-0.9423675537109375,-0.2646026611328125,0.141204833984375
1782845351279255300,0.89325537109375,-0.9384918212890625,-0.2626953125,0.1193084716796875
1782845351289260300,0.90326025390625,-0.950103759765625,-0.2628936767578125,0.09716796875
1782845351299264500,0.913264404296875,-0.95867919921875,-0.260986328125,0.0721435546875
1782845351309269500,0.92326953125,-0.9678955078125,-0.2563934326171875,0.049163818359375
1782845351319273500,0.9332734375,-0.977874755859375,-0.25616455078125,0.026885986328125
1782845351329277400,0.94327734375,-0.9819488525390625,-0.258758544921875,0.0001068115234375
1782845351339282400,0.953282470703125,-0.9776611328125,-0.2631683349609375,-0.017333984375
1782845351349286700,0.96328662109375,-0.979400634765625,-0.269195556640625,-0.022003173828125
1782845351359291600,0.973291748046875,-0.9854583740234375,-0.2626800537109375,-0.02294921875
1782845351369295400,0.98329541015625,-0.9862213134765625,-0.2620391845703125,-0.0205078125
1782845351379300400,0.99330029296875,-0.983978271484375,-0.2588653564453125,-0.0216827392578125
1782845351389304300,1.00330419921875,-0.9791412353515625,-0.2585601806640625,-0.0179595947265625
1782845351399309300,1.013309326171875,-0.9686431884765625,-0.26239013671875,-0.0107269287109375
1782845351409313500,1.0233134765625,-0.953399658203125,-0.2607574462890625,0.0016632080078125
1782845351419318500,1.033318603515625,-0.9368743896484375,-0.2528076171875,0.01812744140625
1782845351429322500,1.043322509765625,-0.92901611328125,-0.2457427978515625,0.0145721435546875
1782845351439326500,1.053326416015625,-0.9208526611328125,-0.24554443359375,0.0115203857421875
1782845351449331500,1.06333154296875,-0.9252777099609375,-0.250732421875,0.016845703125
1782845351459335700,1.073335693359375,-0.932464599609375,-0.25799560546875,0.019866943359375
1782845351469340700,1.083340576171875,-0.954193115234375,-0.2624053955078125,0.039642333984375
1782845351479344400,1.093344482421875,-0.972900390625,-0.2581329345703125,0.10101318359375
1782845351489349400,1.103349365234375,-1.0258026123046875,-0.249664306640625,0.1419525146484375
1782845351499353300,1.113353271484375,-1.1068115234375,-0.2265777587890625,0.1671600341796875
1782845351509358300,1.1233583984375,-1.17230224609375,-0.192474365234375,0.1834564208984375
1782845351519362600,1.133362548828125,-1.1986236572265625,-0.172027587890625,0.17974853515625
1782845351529367600,1.143367431640625,-1.1996307373046875,-0.1572265625,0.1614837646484375
1782845351539371500,1.15337158203125,-1.1694488525390625,-0.1387176513671875,0.1473236083984375
1782845351549375500,1.16337548828125,-1.135833740234375,-0.139556884765625,0.1245269775390625
1782845351559380500,1.17338037109375,-1.10284423828125,-0.151458740234375,0.10394287109375
1782845351569384400,1.183384521484375,-1.058441162109375,-0.163330078125,0.09033203125
1782845351579389700,1.1933896484375,-1.0080108642578125,-0.1729278564453125,0.086517333984375
1782845351589393400,1.203393310546875,-0.9652099609375,-0.1784210205078125,0.0811309814453125
1782845351599398400,1.2133984375,-0.9304656982421875,-0.178619384765625,0.0698394775390625
1782845351609402400,1.22340234375,-0.906982421875,-0.1717376708984375,0.0662078857421875
1782845351619407400,1.233407470703125,-0.8798828125,-0.159576416015625,0.0649566650390625
1782845351629411600,1.24341162109375,-0.8500823974609375,-0.1519622802734375,0.0579681396484375
1782845351639416600,1.25341650390625,-0.822265625,-0.1483612060546875,0.0530548095703125
1782845351649420500,1.263420654296875,-0.8173065185546875,-0.143402099609375,0.05145263671875
1782845351659424500,1.273424560546875,-0.83135986328125,-0.13818359375,0.0510101318359375
1782845351669429500,1.283429443359375,-0.8573150634765625,-0.1362457275390625,0.0608062744140625
1782845351679433500,1.29343359375,-0.89239501953125,-0.1382598876953125,0.0891571044921875
1782845351689438500,1.3034384765625,-0.922271728515625,-0.14117431640625,0.117431640625
1782845351699442700,1.313442626953125,-0.9390869140625,-0.1390380859375,0.1439361572265625
1782845351709447700,1.32344775390625,-0.9597015380859375,-0.1387176513671875,0.1674652099609375
1782845351719451600,1.33345166015625,-0.9746246337890625,-0.1334991455078125,0.1923675537109375
1782845351729456600,1.34345654296875,-0.985015869140625,-0.1321258544921875,0.2068634033203125
1782845351739460400,1.35346044921875,-0.988677978515625,-0.1396331787109375,0.2178802490234375
1782845351749465300,1.36346533203125,-1.0001220703125,-0.1521759033203125,0.2244415283203125
1782845351759469600,1.373469482421875,-1.0207672119140625,-0.16192626953125,0.216278076171875
1782845351769473500,1.3834736328125,-1.0463409423828125,-0.170684814453125,0.22235107421875
1782845351779478500,1.393478515625,-1.06396484375,-0.1742095947265625,0.236846923828125
1782845351789482500,1.403482421875,-1.085906982421875,-0.1879425048828125,0.227294921875
1782845351799487500,1.413487548828125,-1.093902587890625,-0.2017974853515625,0.218719482421875
1782845351809491700,1.42349169921875,-1.0816650390625,-0.2115936279296875,0.212860107421875
1782845351819496700,1.43349658203125,-1.064697265625,-0.2086334228515625,0.2059326171875
1782845351829500700,1.443500732421875,-1.0448760986328125,-0.2234039306640625,0.191192626953125
1782845351839505700,1.453505615234375,-1.0249481201171875,-0.2231292724609375,0.17486572265625
1782845351849509400,1.46350927734375,-1.0054168701171875,-0.21136474609375,0.1550750732421875
1782845351859514400,1.473514404296875,-0.9889984130859375,-0.199798583984375,0.13311767578125
1782845351869518600,1.4835185546875,-0.9654541015625,-0.197662353515625,0.10687255859375
1782845351879522600,1.4935224609375,-0.938751220703125,-0.1982574462890625,0.0858154296875
1782845351889527600,1.503527587890625,-0.918304443359375,-0.185760498046875,0.073333740234375
1782845351899531500,1.513531494140625,-0.897552490234375,-0.178863525390625,0.0665130615234375
1782845351909536500,1.52353662109375,-0.8862152099609375,-0.1803131103515625,0.06890869140625
1782845351919540700,1.533540771484375,-0.87518310546875,-0.1835479736328125,0.0737762451171875
1782845351929545700,1.543545654296875,-0.8627777099609375,-0.1853485107421875,0.080596923828125
1782845351939549400,1.553549560546875,-0.8529510498046875,-0.19195556640625,0.0900726318359375
1782845351949554400,1.563554443359375,-0.8448333740234375,-0.2018280029296875,0.1009368896484375
1782845351959558400,1.573558349609375,-0.832550048828125,-0.210418701171875,0.110260009765625
1782845351969563400,1.5835634765625,-0.827117919921875,-0.2112884521484375,0.11492919921875
1782845351979567600,1.593567626953125,-0.8341064453125,-0.2117919921875,0.117156982421875
1782845351989571600,1.603571533203125,-0.8440704345703125,-0.21685791015625,0.1194610595703125
1782845351999576600,1.61357666015625,-0.86370849609375,-0.2164154052734375,0.1233673095703125
1782845352009580500,1.62358056640625,-0.8912353515625,-0.2125091552734375,0.1305084228515625
1782845352019585500,1.63358544921875,-0.9151153564453125,-0.2155303955078125,0.1377716064453125
1782845352029589800,1.64358984375,-0.9351348876953125,-0.2198333740234375,0.1483154296875
1782845352039594800,1.6535947265625,-0.9456787109375,-0.2223968505859375,0.1541595458984375
1782845352049598500,1.663598388671875,-0.952423095703125,-0.22308349609375,0.1609344482421875
1782845352059603500,1.673603515625,-0.957794189453125,-0.2264404296875,0.16729736328125
1782845352069607400,1.683607421875,-0.9692535400390625,-0.2271270751953125,0.166839599609375
1782845352079612400,1.6936123046875,-0.9782867431640625,-0.2189178466796875,0.1612396240234375
1782845352089616600,1.70361669921875,-0.9837188720703125,-0.2180938720703125,0.1525421142578125
1782845352099620600,1.71362060546875,-0.985595703125,-0.2244415283203125,0.14654541015625
1782845352109625600,1.72362548828125,-0.978607177734375,-0.2299041748046875,0.1378936767578125
1782845352119629600,1.733629638671875,-0.9604339599609375,-0.2348785400390625,0.1281890869140625
1782845352129634600,1.743634521484375,-0.9377288818359375,-0.2413787841796875,0.116607666015625
1782845352139638800,1.753638671875,-0.9160919189453125,-0.2438201904296875,0.1069183349609375
1782845352149643800,1.763643798828125,-0.90155029296875,-0.24609375,0.095458984375
1782845352159647500,1.7736474609375,-0.89013671875,-0.2457733154296875,0.0892791748046875
1782845352169652500,1.783652587890625,-0.8824615478515625,-0.2520904541015625,0.0795745849609375
1782845352179656400,1.793656494140625,-0.8695831298828125,-0.269439697265625,0.071044921875
1782845352189661400,1.803661376953125,-0.8567657470703125,-0.278076171875,0.0701141357421875
1782845352199665700,1.813665771484375,-0.85882568359375,-0.282623291015625,0.0729522705078125
1782845352209669600,1.823669677734375,-0.870941162109375,-0.2843170166015625,0.0718841552734375
1782845352219674600,1.833674560546875,-0.876953125,-0.287567138671875,0.0664825439453125
1782845352229678600,1.8436787109375,-0.879913330078125,-0.2960357666015625,0.06884765625
1782845352239683600,1.85368359375,-0.89013671875,-0.2987518310546875,0.07568359375
1782845352249687600,1.8636875,-0.901763916015625,-0.2912750244140625,0.0883331298828125
1782845352259692500,1.873692626953125,-0.90521240234375,-0.288848876953125,0.0989532470703125
1782845352269696500,1.883696533203125,-0.9037933349609375,-0.295318603515625,0.1038970947265625
1782845352279701500,1.893701416015625,-0.90740966796875,-0.3065948486328125,0.1126708984375
1782845352289705500,1.90370556640625,-0.9181060791015625,-0.3109283447265625,0.1258544921875
1782845352299710500,1.91371044921875,-0.93194580078125,-0.305999755859375,0.1428375244140625
1782845352309714400,1.92371435546875,-0.9493408203125,-0.3055267333984375,0.1502532958984375
1782845352319718700,1.93371875,-0.9650726318359375,-0.3037109375,0.15252685546875
1782845352329723600,1.9437236328125,-0.9695587158203125,-0.2993621826171875,0.15277099609375
1782845352339727600,1.9537275390625,-0.9713592529296875,-0.2947540283203125,0.14532470703125
1782845352349732600,1.963732666015625,-0.97247314453125,-0.2920379638671875,0.1349334716796875
1782845352359736300,1.973736328125,-0.9676361083984375,-0.2956085205078125,0.121429443359375
1782845352369741300,1.9837412109375,-0.970947265625,-0.3010101318359375,0.113433837890625
1782845352379745500,1.99374560546875,-0.9759979248046875,-0.30596923828125,0.116973876953125
1782845352389750500,2.00375048828125,-0.9850921630859375,-0.3127899169921875,0.1190185546875
1782845352399754500,2.01375439453125,-1.0027313232421875,-0.3177642822265625,0.1213836669921875
1782845352409759500,2.023759521484375,-1.024017333984375,-0.325042724609375,0.1237945556640625
1782845352419763500,2.033763427734375,-1.0370941162109375,-0.33782958984375,0.1235198974609375
1782845352429767700,2.043767578125,-1.0451507568359375,-0.3408203125,0.120361328125
1782845352439772700,2.053772705078125,-1.045379638671875,-0.34161376953125,0.1154327392578125
1782845352449776600,2.063776611328125,-1.0414276123046875,-0.3325347900390625,0.1119842529296875
1782845352459781600,2.07378173828125,-1.0357818603515625,-0.332000732421875,0.1064910888671875
1782845352469785300,2.083785400390625,-1.018310546875,-0.3395538330078125,0.1008148193359375
1782845352479790300,2.093790283203125,-1.0076141357421875,-0.33306884765625,0.104278564453125
1782845352489794600,2.103794677734375,-1.008148193359375,-0.316314697265625,0.10723876953125
1782845352499799600,2.113799560546875,-1.01080322265625,-0.307952880859375,0.1132965087890625
1782845352509803500,2.123803466796875,-1.0195465087890625,-0.2959747314453125,0.12908935546875
1782845352519808500,2.13380859375,-1.0413055419921875,-0.270172119140625,0.148651123046875
1782845352529812500,2.1438125,-1.0627288818359375,-0.244659423828125,0.1671600341796875
1782845352539816700,2.153816650390625,-1.0636749267578125,-0.2327880859375,0.17669677734375
1782845352549821700,2.16382177734375,-1.0537109375,-0.2299957275390625,0.181884765625
1782845352559825700,2.17382568359375,-1.048065185546875,-0.21630859375,0.185150146484375
1782845352569830700,2.18383056640625,-1.04766845703125,-0.207794189453125,0.1794281005859375
1782845352579834400,2.19383447265625,-1.0429534912109375,-0.2101593017578125,0.169036865234375
1782845352589839400,2.20383935546875,-1.036590576171875,-0.2182159423828125,0.1533050537109375
1782845352599843600,2.213843505859375,-1.0269927978515625,-0.2262115478515625,0.130859375
1782845352609848600,2.2238486328125,-1.0116729736328125,-0.2360076904296875,0.1110382080078125
1782845352619852500,2.2338525390625,-0.99920654296875,-0.245086669921875,0.095794677734375
1782845352629857500,2.243857421875,-0.986114501953125,-0.253326416015625,0.0860137939453125
1782845352639861500,2.253861572265625,-0.9662017822265625,-0.26312255859375,0.0806121826171875
1782845352649865700,2.26386572265625,-0.9439697265625,-0.2654571533203125,0.0792388916015625
1782845352659870700,2.27387060546875,-0.9196014404296875,-0.2520599365234375,0.0771484375
1782845352669874700,2.283874755859375,-0.894378662109375,-0.233642578125,0.0662078857421875
1782845352679879700,2.293879638671875,-0.86248779296875,-0.22076416015625,0.0570068359375
1782845352689883600,2.303883544921875,-0.8349761962890625,-0.2075958251953125,0.0595550537109375
1782845352699888600,2.313888671875,-0.8105010986328125,-0.214752197265625,0.06341552734375
1782845352709892900,2.323892822265625,-0.79376220703125,-0.212127685546875,0.0714111328125
1782845352719897900,2.33389794921875,-0.79541015625,-0.193115234375,0.0775604248046875
1782845352729901800,2.34390185546875,-0.8081512451171875,-0.18182373046875,0.08038330078125
1782845352739906800,2.35390673828125,-0.8222808837890625,-0.17864990234375,0.096343994140625
1782845352749910500,2.36391064453125,-0.839141845703125,-0.173004150390625,0.1187896728515625
1782845352759914800,2.373914794921875,-0.86279296875,-0.1658172607421875,0.139739990234375
1782845352769919700,2.383919677734375,-0.891998291015625,-0.160430908203125,0.15020751953125
1782845352779923700,2.393923828125,-0.9229278564453125,-0.1539764404296875,0.1522979736328125
1782845352789928700,2.4039287109375,-0.95361328125,-0.1396484375,0.1517486572265625
1782845352799932700,2.4139326171875,-0.9803924560546875,-0.131134033203125,0.1486358642578125
1782845352809937700,2.423937744140625,-0.99945068359375,-0.126251220703125,0.1433563232421875
1782845352819941600,2.433941650390625,-1.0160064697265625,-0.1260528564453125,0.1345672607421875
1782845352829947000,2.44394677734375,-1.0341796875,-0.1276397705078125,0.12353515625
1782845352839950800,2.453950927734375,-1.04449462890625,-0.1309967041015625,0.1106109619140625
1782845352849955800,2.463955810546875,-1.0412445068359375,-0.1354217529296875,0.0950927734375
1782845352859959600,2.47395947265625,-1.027740478515625,-0.1398468017578125,0.073974609375
1782845352869963500,2.483963623046875,-1.007598876953125,-0.14361572265625,0.062408447265625
1782845352879968800,2.49396875,-0.99261474609375,-0.1492156982421875,0.05450439453125
1782845352889972700,2.50397265625,-0.976470947265625,-0.1593170166015625,0.050567626953125
1782845352899977700,2.513977783203125,-0.9528045654296875,-0.1719970703125,0.047637939453125
1782845352909981700,2.523981689453125,-0.92999267578125,-0.1785888671875,0.0473175048828125
1782845352919986700,2.533986572265625,-0.91595458984375,-0.18463134765625,0.0475616455078125
1782845352929990700,2.54399072265625,-0.91748046875,-0.1776275634765625,0.055267333984375
1782845352939995600,2.55399560546875,-0.9259796142578125,-0.1823577880859375,0.0623626708984375
1782845352949999600,2.56399951171875,-0.9340667724609375,-0.2028656005859375,0.0704498291015625
1782845352960004600,2.574004638671875,-0.9436492919921875,-0.207977294921875,0.0899200439453125
1782845352970008600,2.584008544921875,-0.95587158203125,-0.2092437744140625,0.1094207763671875
1782845352980012500,2.594012451171875,-0.9744873046875,-0.2133331298828125,0.1160430908203125
1782845352990017500,2.604017578125,-0.99822998046875,-0.2120208740234375,0.11407470703125
1782845353000021800,2.614021728515625,-1.013641357421875,-0.204132080078125,0.1015625
1782845353010026800,2.62402685546875,-1.011199951171875,-0.194580078125,0.0863037109375
1782845353020030700,2.63403076171875,-0.993560791015625,-0.1915435791015625,0.0731048583984375
1782845353030035700,2.64403564453125,-0.970733642578125,-0.19384765625,0.0645294189453125
1782845353040039700,2.654039794921875,-0.945159912109375,-0.1935577392578125,0.0654296875
1782845353050044700,2.664044677734375,-0.9278564453125,-0.2017059326171875,0.0664825439453125
1782845353060048600,2.674048583984375,-0.9050445556640625,-0.21173095703125,0.0674591064453125
1782845353070053600,2.6840537109375,-0.8854522705078125,-0.223480224609375,0.070556640625
1782845353080057600,2.6940576171875,-0.8735198974609375,-0.2322845458984375,0.078887939453125
1782845353090061600,2.7040615234375,-0.8709259033203125,-0.2382965087890625,0.0846099853515625
1782845353100066600,2.714066650390625,-0.8764801025390625,-0.2447357177734375,0.086090087890625
1782845353110070800,2.72407080078125,-0.8912506103515625,-0.2498016357421875,0.084014892578125
1782845353120075800,2.73407568359375,-0.910308837890625,-0.253448486328125,0.07635498046875
1782845353130079700,2.744079833984375,-0.9311981201171875,-0.257537841796875,0.0695953369140625
1782845353140084700,2.754084716796875,-0.9570159912109375,-0.2591094970703125,0.06475830078125
1782845353150088700,2.764088623046875,-0.9700469970703125,-0.2621917724609375,0.0659942626953125
1782845353160093700,2.77409375,-0.97869873046875,-0.2690887451171875,0.0621490478515625
1782845353170097700,2.78409765625,-0.9831085205078125,-0.2752227783203125,0.05621337890625
1782845353180102700,2.7941025390625,-0.9870758056640625,-0.2790985107421875,0.056793212890625
1782845353190106600,2.804106689453125,-0.992156982421875,-0.279998779296875,0.055419921875
1782845353200110600,2.814110595703125,-1.0038604736328125,-0.28118896484375,0.053955078125
1782845353210115600,2.824115478515625,-1.0120697021484375,-0.27825927734375,0.0540771484375
1782845353220119800,2.834119873046875,-1.013946533203125,-0.273895263671875,0.0419769287109375
1782845353230124800,2.844124755859375,-1.009979248046875,-0.262786865234375,0.0300445556640625
1782845353240128800,2.854128662109375,-1.001129150390625,-0.2596282958984375,0.0176239013671875
1782845353250133800,2.8641337890625,-0.9869384765625,-0.256439208984375,0.01177978515625
1782845353260137700,2.8741376953125,-0.9728240966796875,-0.259002685546875,0.011016845703125
1782845353270142700,2.884142822265625,-0.9562530517578125,-0.2652740478515625,0.0178375244140625
1782845353280146700,2.894146728515625,-0.9450531005859375,-0.26690673828125,0.0271453857421875
1782845353290151700,2.904151611328125,-0.9416046142578125,-0.25555419921875,0.0331268310546875
1782845353300155600,2.91415576171875,-0.9463958740234375,-0.2435455322265625,0.0369873046875
1782845353310159600,2.92415966796875,-0.952911376953125,-0.240081787109375,0.03753662109375
1782845353320164600,2.93416455078125,-0.950225830078125,-0.2474822998046875,0.034759521484375
1782845353330168800,2.9441689453125,-0.94171142578125,-0.257049560546875,0.04339599609375
1782845353340173800,2.954173828125,-0.9350433349609375,-0.2605133056640625,0.055755615234375
1782845353350177800,2.964177734375,-0.9391326904296875,-0.26507568359375,0.06744384765625
1782845353360182800,2.974182861328125,-0.9455718994140625,-0.2684173583984375,0.0776519775390625
1782845353370186500,2.9841865234375,-0.9554595947265625,-0.2688751220703125,0.0861968994140625
1782845353380191500,2.99419140625,-0.963775634765625,-0.2718963623046875,0.0891876220703125
1782845353390195700,3.00419580078125,-0.965484619140625,-0.2730560302734375,0.0912628173828125
1782845353400200700,3.01420068359375,-0.9630584716796875,-0.275848388671875,0.088287353515625
1782845353410204700,3.02420458984375,-0.95965576171875,-0.2800750732421875,0.0883941650390625
1782845353420208600,3.034208740234375,-0.948486328125,-0.282806396484375,0.0880126953125
1782845353430213600,3.044213623046875,-0.9412994384765625,-0.2864227294921875,0.0840911865234375
1782845353440217900,3.0542177734375,-0.9302520751953125,-0.29010009765625,0.0760040283203125
1782845353450222800,3.064222900390625,-0.9236907958984375,-0.28851318359375,0.067626953125
1782845353460226800,3.074226806640625,-0.9145050048828125,-0.287445068359375,0.0560302734375
1782845353470231800,3.084231689453125,-0.900909423828125,-0.2868804931640625,0.0489654541015625
1782845353480235500,3.094235595703125,-0.8900146484375,-0.29681396484375,0.0432281494140625
1782845353490240500,3.104240478515625,-0.892852783203125,-0.3148193359375,0.04052734375
1782845353500244700,3.11424462890625,-0.896240234375,-0.3238525390625,0.049652099609375
1782845353510249700,3.124249755859375,-0.9087066650390625,-0.3213348388671875,0.0530548095703125
1782845353520253700,3.134253662109375,-0.9354400634765625,-0.31256103515625,0.053802490234375
1782845353530257700,3.144257568359375,-0.9618377685546875,-0.299346923828125,0.0409393310546875
1782845353540262700,3.1542626953125,-0.9630889892578125,-0.288299560546875,0.021697998046875
1782845353550266600,3.1642666015625,-0.9611663818359375,-0.2846527099609375,0.000274658203125
1782845353560271600,3.174271728515625,-0.9925689697265625,-0.2780914306640625,-0.005859375
1782845353570275800,3.18427587890625,-1.0174102783203125,-0.270751953125,-0.01458740234375
1782845353580280800,3.19428076171875,-1.045928955078125,-0.28436279296875,-0.0318450927734375
1782845353590284500,3.204284423828125,-1.0438079833984375,-0.286773681640625,-0.040313720703125
1782845353600289500,3.21428955078125,-1.019134521484375,-0.291259765625,-0.031646728515625
1782845353610293500,3.22429345703125,-1.0017852783203125,-0.30615234375,-0.01141357421875
1782845353620298800,3.234298828125,-1.0063629150390625,-0.3039093017578125,0.0162811279296875
1782845353630302700,3.244302734375,-1.034332275390625,-0.293365478515625,0.040740966796875
1782845353640306700,3.254306640625,-1.0757293701171875,-0.286407470703125,0.0558319091796875
1782845353650311700,3.264311767578125,-1.1078948974609375,-0.2885284423828125,0.0618896484375
1782845353660315600,3.274315673828125,-1.1281890869140625,-0.2846221923828125,0.068756103515625
1782845353670320600,3.284320556640625,-1.135528564453125,-0.2690582275390625,0.0821685791015625
1782845353680324600,3.29432470703125,-1.1236419677734375,-0.2585296630859375,0.08734130859375
1782845353690329600,3.30432958984375,-1.093597412109375,-0.24853515625,0.0913543701171875
1782845353700333300,3.314333251953125,-1.0413665771484375,-0.244171142578125,0.0924530029296875
1782845353710338600,3.324338623046875,-0.9917755126953125,-0.2449951171875,0.0937652587890625
1782845353720342300,3.33434228515625,-0.9436798095703125,-0.2410888671875,0.1011505126953125
1782845353730347500,3.344347412109375,-0.9006805419921875,-0.243743896484375,0.10845947265625
1782845353740351500,3.3543515625,-0.8782196044921875,-0.24169921875,0.1106109619140625
1782845353750355500,3.36435546875,-0.862335205078125,-0.230926513671875,0.1183624267578125
1782845353760360400,3.3743603515625,-0.838714599609375,-0.2200469970703125,0.127899169921875
1782845353770364400,3.384364501953125,-0.8142547607421875,-0.2096405029296875,0.1342620849609375
1782845353780369400,3.394369384765625,-0.8084716796875,-0.198516845703125,0.1394805908203125
1782845353790373600,3.40437353515625,-0.8168182373046875,-0.186248779296875,0.1410064697265625
1782845353800378600,3.414378662109375,-0.8445281982421875,-0.1799774169921875,0.13763427734375
1782845353810382300,3.42438232421875,-0.8825225830078125,-0.18316650390625,0.1308441162109375
1782845353820387300,3.43438720703125,-0.9074249267578125,-0.189300537109375,0.1315155029296875
1782845353830391300,3.444391357421875,-0.9251251220703125,-0.197784423828125,0.1350555419921875
1782845353840396300,3.454396240234375,-0.938079833984375,-0.203460693359375,0.14666748046875
1782845353850400500,3.464400390625,-0.9472198486328125,-0.2058563232421875,0.1693115234375
1782845353860404500,3.474404541015625,-0.9517059326171875,-0.202606201171875,0.1862945556640625
1782845353870409500,3.484409423828125,-0.9552154541015625,-0.19952392578125,0.19879150390625
1782845353880413400,3.494413330078125,-0.9598541259765625,-0.202239990234375,0.2013702392578125
1782845353890418400,3.50441845703125,-0.9751739501953125,-0.2071533203125,0.1991729736328125
1782845353900422700,3.514422607421875,-0.99566650390625,-0.212646484375,0.1972198486328125
1782845353910427600,3.524427734375,-1.01995849609375,-0.2184600830078125,0.1970672607421875
1782845353920431400,3.534431396484375,-1.0384979248046875,-0.2310333251953125,0.196868896484375
1782845353930436400,3.544436279296875,-1.041961669921875,-0.24517822265625,0.1959991455078125
1782845353940440300,3.5544404296875,-1.0418243408203125,-0.2555999755859375,0.2002410888671875
1782845353950445300,3.5644453125,-1.04443359375,-0.26275634765625,0.2031402587890625
1782845353960449500,3.574449462890625,-1.04254150390625,-0.2702178955078125,0.2009124755859375
1782845353970453500,3.58445361328125,-1.034698486328125,-0.263671875,0.20068359375
1782845353980458500,3.59445849609375,-1.0289764404296875,-0.2451934814453125,0.1965484619140625
1782845353990462500,3.60446240234375,-1.0175323486328125,-0.2426910400390625,0.187530517578125
1782845354000467500,3.614467529296875,-1.005706787109375,-0.236968994140625,0.1685943603515625
1782845354010471700,3.6244716796875,-0.994720458984375,-0.228912353515625,0.154449462890625
1782845354020476700,3.6344765625,-0.9840087890625,-0.228485107421875,0.14434814453125
1782845354030480400,3.64448046875,-0.9700927734375,-0.2293243408203125,0.128814697265625
1782845354040485400,3.6544853515625,-0.9628448486328125,-0.223724365234375,0.1304931640625
1782845354050489300,3.6644892578125,-0.95550537109375,-0.2247161865234375,0.1283416748046875
1782845354060494300,3.674494384765625,-0.9465179443359375,-0.2308197021484375,0.1304779052734375
1782845354070498600,3.68449853515625,-0.932373046875,-0.2335205078125,0.137969970703125
1782845354080502500,3.69450244140625,-0.915771484375,-0.2386322021484375,0.141876220703125
1782845354090507500,3.704507568359375,-0.8983306884765625,-0.2372589111328125,0.1451873779296875
1782845354100511500,3.714511474609375,-0.882293701171875,-0.2373046875,0.14593505859375
1782845354110516500,3.7245166015625,-0.8657073974609375,-0.244476318359375,0.1484527587890625
1782845354120520700,3.734520751953125,-0.8503265380859375,-0.250885009765625,0.1517333984375
1782845354130525700,3.744525634765625,-0.84539794921875,-0.251617431640625,0.156951904296875
1782845354140529400,3.754529296875,-0.84912109375,-0.256317138671875,0.160369873046875
1782845354150534400,3.764534423828125,-0.856231689453125,-0.26251220703125,0.16021728515625
1782845354160538400,3.774538330078125,-0.86480712890625,-0.2672576904296875,0.16290283203125
1782845354170543400,3.78454345703125,-0.873565673828125,-0.2764129638671875,0.167816162109375
1782845354180547600,3.794547607421875,-0.8890380859375,-0.2857666015625,0.1729278564453125
1782845354190551600,3.804551513671875,-0.908905029296875,-0.2909088134765625,0.177490234375
1782845354200556500,3.814556640625,-0.9228515625,-0.2918853759765625,0.1796417236328125
1782845354210560500,3.824560546875,-0.9350738525390625,-0.287750244140625,0.178466796875
1782845354220565500,3.8345654296875,-0.940887451171875,-0.2881927490234375,0.1736602783203125
1782845354230569500,3.844569580078125,-0.9427337646484375,-0.2884979248046875,0.16888427734375
1782845354240574500,3.854574462890625,-0.9430999755859375,-0.291290283203125,0.16168212890625
1782845354250578400,3.864578369140625,-0.940216064453125,-0.2928466796875,0.15533447265625
1782845354260583400,3.87458349609375,-0.9309234619140625,-0.2960662841796875,0.1534576416015625
1782845354270587400,3.88458740234375,-0.9256744384765625,-0.29144287109375,0.1519775390625
1782845354280592400,3.89459228515625,-0.9157867431640625,-0.2902679443359375,0.1468963623046875
1782845354290596600,3.9045966796875,-0.903289794921875,-0.2874603271484375,0.1410064697265625
1782845354300600600,3.9146005859375,-0.886871337890625,-0.2819671630859375,0.133331298828125
1782845354310605600,3.92460546875,-0.866302490234375,-0.287872314453125,0.11993408203125
1782845354320609500,3.934609619140625,-0.8425445556640625,-0.3018646240234375,0.1124267578125
1782845354330614500,3.944614501953125,-0.830108642578125,-0.31134033203125,0.12005615234375
1782845354340618500,3.954618408203125,-0.8350982666015625,-0.3114013671875,0.12469482421875
1782845354350623500,3.96462353515625,-0.8621978759765625,-0.3145294189453125,0.1307220458984375
1782845354360627500,3.97462744140625,-0.8950347900390625,-0.3160552978515625,0.1361236572265625
1782845354370632400,3.984632568359375,-0.9235992431640625,-0.309906005859375,0.13330078125
1782845354380636400,3.994636474609375,-0.9313201904296875,-0.3094482421875,0.1293487548828125
1782845354390640400,4.004640380859375,-0.92071533203125,-0.33074951171875,0.12493896484375
1782845354400645400,4.014645263671875,-0.9196319580078125,-0.3475341796875,0.1291046142578125
1782845354410649600,4.024649658203125,-0.9229583740234375,-0.354400634765625,0.1389923095703125
1782845354420654600,4.034654541015625,-0.92840576171875,-0.3562774658203125,0.1432647705078125
1782845354430658600,4.044658447265625,-0.937225341796875,-0.3427581787109375,0.1493377685546875
1782845354440663600,4.05466357421875,-0.9501800537109375,-0.32855224609375,0.162139892578125
1782845354450667300,4.064667236328125,-0.952117919921875,-0.32794189453125,0.17266845703125
1782845354460672300,4.07467236328125,-0.9532623291015625,-0.33306884765625,0.1761322021484375
1782845354470676500,4.084676513671875,-0.9601287841796875,-0.33343505859375,0.1695709228515625
1782845354480681500,4.094681396484375,-0.9699554443359375,-0.3256378173828125,0.1588287353515625
1782845354490685400,4.104685546875,-0.9691925048828125,-0.3203887939453125,0.143218994140625
1782845354500689400,4.114689453125,-0.957672119140625,-0.3207550048828125,0.1326751708984375
1782845354510694400,4.1246943359375,-0.945709228515625,-0.323211669921875,0.1226043701171875
1782845354520698600,4.13469873046875,-0.9309539794921875,-0.320343017578125,0.1120758056640625
1782845354530703600,4.14470361328125,-0.91998291015625,-0.3238067626953125,0.1038970947265625
1782845354540707600,4.15470751953125,-0.9099578857421875,-0.330718994140625,0.09698486328125
1782845354550712600,4.164712646484375,-0.90264892578125,-0.3327178955078125,0.08917236328125
1782845354560716300,4.17471630859375,-0.9035797119140625,-0.3313751220703125,0.0816650390625
1782845354570721300,4.18472119140625,-0.90948486328125,-0.3276214599609375,0.074554443359375
1782845354580725500,4.1947255859375,-0.9207916259765625,-0.337677001953125,0.075408935546875
1782845354590730500,4.20473046875,-0.9268035888671875,-0.3570404052734375,0.082427978515625
1782845354600734500,4.214734375,-0.94287109375,-0.371490478515625,0.0972747802734375
1782845354610738400,4.224738525390625,-0.9608154296875,-0.37823486328125,0.1101226806640625
1782845354620743400,4.234743408203125,-0.968048095703125,-0.3834991455078125,0.1183319091796875
1782845354630747600,4.24474755859375,-0.9647064208984375,-0.3941497802734375,0.1232757568359375
1782845354640752600,4.254752685546875,-0.9647674560546875,-0.406524658203125,0.1266937255859375
1782845354650756400,4.26475634765625,-0.96087646484375,-0.40997314453125,0.1254425048828125
1782845354660761300,4.27476123046875,-0.950531005859375,-0.406219482421875,0.1215057373046875
1782845354670765300,4.284765380859375,-0.9385223388671875,-0.3966522216796875,0.119598388671875
1782845354680770300,4.294770263671875,-0.93511962890625,-0.380279541015625,0.1198577880859375
1782845354690774500,4.3047744140625,-0.920562744140625,-0.366790771484375,0.118408203125
1782845354700779500,4.314779541015625,-0.9111480712890625,-0.3529510498046875,0.1292724609375
1782845354710783200,4.324783203125,-0.917633056640625,-0.337982177734375,0.1423797607421875
1782845354720787200,4.334787109375,-0.9253997802734375,-0.31768798828125,0.160797119140625
1782845354730792200,4.344792236328125,-0.93743896484375,-0.2940673828125,0.184814453125
1782845354740796400,4.35479638671875,-0.9723968505859375,-0.28515625,0.1956329345703125
1782845354750801400,4.364801513671875,-1.004364013671875,-0.2753448486328125,0.2049713134765625
1782845354760805400,4.374805419921875,-1.030914306640625,-0.2627716064453125,0.2144927978515625
1782845354770810400,4.384810302734375,-1.0565948486328125,-0.260772705078125,0.212432861328125
1782845354780814300,4.394814453125,-1.0692901611328125,-0.2624359130859375,0.2079315185546875
1782845354790819300,4.4048193359375,-1.0558929443359375,-0.2594146728515625,0.1959991455078125
1782845354800823600,4.414823486328125,-1.025909423828125,-0.256256103515625,0.1805572509765625
1782845354810828500,4.42482861328125,-0.992401123046875,-0.2591552734375,0.1583404541015625
1782845354820832300,4.434832275390625,-0.9600372314453125,-0.2710113525390625,0.136077880859375
1782845354830836200,4.444836181640625,-0.93438720703125,-0.290191650390625,0.122161865234375
1782845354840841200,4.45484130859375,-0.917510986328125,-0.3082122802734375,0.1179046630859375
1782845354850845400,4.464845458984375,-0.908172607421875,-0.317047119140625,0.11785888671875
1782845354860850400,4.474850341796875,-0.8970184326171875,-0.318939208984375,0.11285400390625
1782845354870854400,4.4848544921875,-0.90313720703125,-0.3072967529296875,0.106048583984375
1782845354880859400,4.494859375,-0.9129180908203125,-0.2850189208984375,0.0999755859375
1782845354890863400,4.50486328125,-0.9133453369140625,-0.2642364501953125,0.08660888671875
1782845354900868400,4.514868408203125,-0.9141082763671875,-0.2531890869140625,0.069366455078125
1782845354910872600,4.52487255859375,-0.9012603759765625,-0.245361328125,0.053466796875
1782845354920877600,4.534877685546875,-0.8933868408203125,-0.2236175537109375,0.0534210205078125
1782845354930881300,4.54488134765625,-0.88604736328125,-0.1979217529296875,0.0619049072265625
1782845354940885200,4.55488525390625,-0.8839111328125,-0.1854248046875,0.0792999267578125
1782845354950890200,4.56489013671875,-0.8931121826171875,-0.1655731201171875,0.102203369140625
1782845354960894500,4.57489453125,-0.911956787109375,-0.1460418701171875,0.121795654296875
1782845354970899500,4.5848994140625,-0.9312896728515625,-0.13494873046875,0.127777099609375
1782845354980903400,4.5949033203125,-0.9392852783203125,-0.1398162841796875,0.1304473876953125
1782845354990908400,4.604908447265625,-0.935302734375,-0.1411285400390625,0.136444091796875
1782845355000912400,4.614912353515625,-0.935455322265625,-0.135284423828125,0.14703369140625
1782845355010917400,4.62491748046875,-0.93914794921875,-0.1273193359375,0.157470703125
1782845355020921300,4.63492138671875,-0.9475860595703125,-0.11614990234375,0.1649169921875
1782845355030926600,4.644926513671875,-0.9535369873046875,-0.113800048828125,0.1636810302734375
1782845355040930300,4.654930419921875,-0.959686279296875,-0.118682861328125,0.159820556640625
1782845355050934300,4.664934326171875,-0.9780731201171875,-0.1208038330078125,0.15972900390625
1782845355060939300,4.674939208984375,-0.9930267333984375,-0.1265716552734375,0.1633758544921875
1782845355070943200,4.684943115234375,-0.9974517822265625,-0.131591796875,0.1616668701171875
1782845355080948500,4.694948486328125,-0.997283935546875,-0.136322021484375,0.1595306396484375
1782845355090952400,4.704952392578125,-0.9922332763671875,-0.1455078125,0.152862548828125
1782845355100957400,4.71495751953125,-0.983428955078125,-0.1566009521484375,0.1507415771484375
1782845355110961400,4.72496142578125,-0.9742431640625,-0.1673583984375,0.1472930908203125
1782845355120966400,4.73496630859375,-0.9688720703125,-0.178924560546875,0.144195556640625
1782845355130970000,4.74497021484375,-0.9720611572265625,-0.18212890625,0.142242431640625
1782845355140975400,4.754975341796875,-0.99072265625,-0.1781005859375,0.13690185546875
1782845355150979300,4.764979248046875,-1.0120391845703125,-0.1805267333984375,0.1304168701171875
1782845355160983300,4.7749833984375,-1.020751953125,-0.1862030029296875,0.1269683837890625
1782845355170988300,4.78498828125,-1.02972412109375,-0.189910888671875,0.1313323974609375
1782845355180992300,4.7949921875,-1.0399932861328125,-0.188995361328125,0.1379241943359375
1782845355190997200,4.804997314453125,-1.0475311279296875,-0.1940460205078125,0.1358184814453125
1782845355201001500,4.81500146484375,-1.0426483154296875,-0.1897125244140625,0.130859375
1782845355211006500,4.82500634765625,-1.0254058837890625,-0.1844940185546875,0.1262664794921875
1782845355221010400,4.835010498046875,-0.9942474365234375,-0.181121826171875,0.1171417236328125
1782845355231015400,4.845015380859375,-0.954437255859375,-0.18084716796875,0.1053619384765625
1782845355241019100,4.85501904296875,-0.9095916748046875,-0.189910888671875,0.092620849609375
1782845355251023400,4.8650234375,-0.873291015625,-0.1946258544921875,0.0880279541015625
1782845355261028400,4.8750283203125,-0.856292724609375,-0.2009429931640625,0.0870513916015625
1782845355271032300,4.8850322265625,-0.846832275390625,-0.2061767578125,0.0884857177734375
1782845355281037300,4.895037353515625,-0.8520050048828125,-0.2115325927734375,0.0832977294921875
1782845355291041300,4.905041259765625,-0.866180419921875,-0.2119140625,0.08209228515625
1782845355301046300,4.91504638671875,-0.8823089599609375,-0.215606689453125,0.0837860107421875
1782845355311050500,4.925050537109375,-0.8947296142578125,-0.22052001953125,0.080718994140625
1782845355321055500,4.935055419921875,-0.9071502685546875,-0.2306365966796875,0.0753326416015625
1782845355331059500,4.9450595703125,-0.9289398193359375,-0.2328948974609375,0.0745086669921875
1782845355341064400,4.955064453125,-0.9485626220703125,-0.234954833984375,0.0669097900390625
1782845355351068200,4.965068115234375,-0.9583892822265625,-0.2384033203125,0.057403564453125
1782845355361072400,4.975072265625,-0.972076416015625,-0.2421417236328125,0.0451812744140625
1782845355371077400,4.985077392578125,-0.9806365966796875,-0.2486724853515625,0.0353240966796875
1782845355381081300,4.995081298828125,-0.98614501953125,-0.24932861328125,0.0312042236328125
1782845355391086300,5.00508642578125,-0.992462158203125,-0.2504119873046875,0.028045654296875
1782845355401090300,5.01509033203125,-0.9997406005859375,-0.25762939453125,0.0277862548828125
1782845355411095300,5.02509521484375,-0.99822998046875,-0.2624053955078125,0.0265655517578125
1782845355421099500,5.035099609375,-0.9969329833984375,-0.257965087890625,0.0252685546875
1782845355431104500,5.0451044921875,-0.9884490966796875,-0.256256103515625,0.02337646484375
1782845355441108500,5.0551083984375,-0.9805755615234375,-0.256744384765625,0.0182342529296875
1782845355451113500,5.065113525390625,-0.972412109375,-0.2626800537109375,0.015350341796875
1782845355461117200,5.0751171875,-0.9676361083984375,-0.2613677978515625,0.0190887451171875
1782845355471121400,5.085121337890625,-0.9617156982421875,-0.2666473388671875,0.0261688232421875
1782845355481126400,5.09512646484375,-0.9610595703125,-0.2721710205078125,0.0336761474609375
1782845355491130400,5.10513037109375,-0.9646759033203125,-0.2820281982421875,0.040435791015625
1782845355501135400,5.11513525390625,-0.96435546875,-0.2896728515625,0.0521697998046875
1782845355511139300,5.125139404296875,-0.9644775390625,-0.294097900390625,0.060791015625
1782845355521144300,5.135144287109375,-0.9597320556640625,-0.2936248779296875,0.0716400146484375
1782845355531148500,5.1451484375,-0.95831298828125,-0.2915496826171875,0.0750885009765625
1782845355541153500,5.155153564453125,-0.951904296875,-0.286773681640625,0.0695037841796875
1782845355551157200,5.1651572265625,-0.9334716796875,-0.2921905517578125,0.06005859375
1782845355561162200,5.175162353515625,-0.92059326171875,-0.2959747314453125,0.0537567138671875
1782845355571166200,5.185166259765625,-0.915008544921875,-0.290740966796875,0.04229736328125
1782845355581170400,5.19517041015625,-0.9147491455078125,-0.2862091064453125,0.0273895263671875
1782845355591175400,5.205175537109375,-0.92138671875,-0.2847442626953125,0.0111541748046875
1782845355601179400,5.215179443359375,-0.925140380859375,-0.2842864990234375,0.0049896240234375
1782845355611184400,5.225184326171875,-0.9463958740234375,-0.2917633056640625,-0.0107574462890625
1782845355621188400,5.235188232421875,-0.9648590087890625,-0.2870635986328125,-0.0166168212890625
1782845355631193300,5.245193359375,-0.977264404296875,-0.2781524658203125,-0.00634765625
1782845355641197600,5.255197509765625,-0.99249267578125,-0.2742462158203125,-0.0020599365234375
1782845355651202600,5.26520263671875,-1.0103912353515625,-0.2725830078125,-0.001220703125
1782845355661206300,5.275206298828125,-1.00909423828125,-0.28656005859375,-0.0044708251953125
1782845355671211300,5.285211181640625,-0.9967193603515625,-0.2959136962890625,-0.0072021484375
1782845355681215200,5.29521533203125,-0.988861083984375,-0.2962188720703125,-0.002197265625
1782845355691219500,5.305219482421875,-0.975921630859375,-0.2988128662109375,0.0053253173828125
1782845355701224400,5.315224365234375,-0.96221923828125,-0.3037261962890625,0.013519287109375
1782845355711228400,5.325228515625,-0.94873046875,-0.300933837890625,0.028411865234375
1782845355721233400,5.3352333984375,-0.941558837890625,-0.301483154296875,0.040008544921875
1782845355731237400,5.3452373046875,-0.936676025390625,-0.306976318359375,0.042205810546875
1782845355741242400,5.355242431640625,-0.9373779296875,-0.313720703125,0.0433349609375
1782845355751246300,5.365246337890625,-0.9485626220703125,-0.3216705322265625,0.04718017578125
1782845355761251300,5.375251220703125,-0.9587249755859375,-0.3249664306640625,0.048370361328125
1782845355771255300,5.38525537109375,-0.97406005859375,-0.31744384765625,0.04351806640625
1782845355781259300,5.39525927734375,-0.9697418212890625,-0.3080291748046875,0.0339202880859375
1782845355791264300,5.40526416015625,-0.9536285400390625,-0.298614501953125,0.0171966552734375
1782845355801268200,5.415268310546875,-0.9273223876953125,-0.292236328125,0.0086212158203125
1782845355811273200,5.425273193359375,-0.9001312255859375,-0.2989044189453125,0.006927490234375
1782845355821277400,5.43527734375,-0.8956298828125,-0.3093109130859375,0.0116729736328125
1782845355831282400,5.445282470703125,-0.919036865234375,-0.310302734375,0.022979736328125
1782845355841286400,5.455286376953125,-0.969818115234375,-0.3065032958984375,0.0367889404296875
1782845355851291400,5.46529150390625,-1.0380401611328125,-0.29339599609375,0.0515594482421875
1782845355861295000,5.475295166015625,-1.100860595703125,-0.2703094482421875,0.0682220458984375
1782845355871300000,5.485300048828125,-1.1236572265625,-0.2573394775390625,0.08343505859375
1782845355881304300,5.49530419921875,-1.1229705810546875,-0.2483367919921875,0.0909881591796875
1782845355891308300,5.505308349609375,-1.1116943359375,-0.23114013671875,0.0895233154296875
1782845355901313300,5.515313232421875,-1.1033172607421875,-0.2118072509765625,0.0839080810546875
1782845355911317200,5.525317138671875,-1.1148223876953125,-0.1951751708984375,0.066162109375
1782845355921322200,5.535322265625,-1.11444091796875,-0.18408203125,0.0321044921875
1782845355931326500,5.545326416015625,-1.0869140625,-0.1933135986328125,0.008819580078125
1782845355941331500,5.55533154296875,-1.0273590087890625,-0.195556640625,0.003631591796875
1782845355951335200,5.565335205078125,-0.969940185546875,-0.189788818359375,0.001434326171875
1782845355961340200,5.575340087890625,-0.9244232177734375,-0.18310546875,0.0060272216796875
1782845355971344100,5.58534423828125,-0.8631591796875,-0.1667022705078125,0.019989013671875
1782845355981349000,5.59534912109375,-0.807769775390625,-0.16070556640625,0.0230255126953125
1782845355991353300,5.605353271484375,-0.782135009765625,-0.16107177734375,0.036224365234375
1782845356001357300,5.615357421875,-0.7664337158203125,-0.1678924560546875,0.0451507568359375
1782845356011362300,5.6253623046875,-0.7757568359375,-0.175445556640625,0.0489501953125
1782845356021366300,5.6353662109375,-0.80413818359375,-0.17864990234375,0.0567626953125
1782845356031371300,5.645371337890625,-0.8353271484375,-0.181365966796875,0.0727386474609375
1782845356041375500,5.65537548828125,-0.86993408203125,-0.178253173828125,0.09454345703125
1782845356051380500,5.66538037109375,-0.9084625244140625,-0.173126220703125,0.1156158447265625
1782845356061384200,5.67538427734375,-0.94232177734375,-0.175537109375,0.1306915283203125
1782845356071389200,5.68538916015625,-0.9710845947265625,-0.1772613525390625,0.14141845703125
1782845356081393200,5.69539306640625,-1.012939453125,-0.1820526123046875,0.1483306884765625
1782845356091398100,5.705398193359375,-1.0352783203125,-0.1845245361328125,0.1669464111328125
1782845356101402400,5.71540234375,-1.0610198974609375,-0.193328857421875,0.1806488037109375
1782845356111406300,5.72540625,-1.0798492431640625,-0.20556640625,0.185546875
1782845356121411300,5.735411376953125,-1.081451416015625,-0.2095794677734375,0.19232177734375
1782845356131415300,5.745415283203125,-1.070587158203125,-0.2180328369140625,0.1967620849609375
1782845356141420300,5.755420166015625,-1.0605316162109375,-0.2301025390625,0.1991119384765625
1782845356151424500,5.765424560546875,-1.05810546875,-0.2378387451171875,0.1999664306640625
1782845356161429500,5.775429443359375,-1.0552215576171875,-0.2440032958984375,0.1934814453125
1782845356171433200,5.78543310546875,-1.0443267822265625,-0.248565673828125,0.1793365478515625
1782845356181438200,5.795438232421875,-1.0282745361328125,-0.2501068115234375,0.1549072265625
1782845356191442200,5.805442138671875,-1.0072479248046875,-0.24237060546875,0.1316680908203125
1782845356201446400,5.8154462890625,-0.990570068359375,-0.2359619140625,0.1112518310546875
1782845356211451400,5.825451416015625,-0.9749755859375,-0.228668212890625,0.0980682373046875
1782845356221455400,5.835455322265625,-0.956634521484375,-0.215240478515625,0.0839080810546875
1782845356231460400,5.84546044921875,-0.93408203125,-0.209930419921875,0.0741119384765625
1782845356241464300,5.85546435546875,-0.913482666015625,-0.2146453857421875,0.06488037109375
1782845356251469300,5.86546923828125,-0.892791748046875,-0.2223663330078125,0.0615692138671875
1782845356261473500,5.8754736328125,-0.88616943359375,-0.2212066650390625,0.06536865234375
1782845356271478500,5.885478515625,-0.8855438232421875,-0.2262420654296875,0.07275390625
1782845356281482200,5.895482177734375,-0.883941650390625,-0.2318267822265625,0.0808258056640625
1782845356291487200,5.9054873046875,-0.8856964111328125,-0.2417449951171875,0.0923919677734375
1782845356301491200,5.9154912109375,-0.88751220703125,-0.2496795654296875,0.1063995361328125
1782845356311495400,5.925495361328125,-0.88958740234375,-0.248382568359375,0.1180267333984375
1782845356321500400,5.93550048828125,-0.8925323486328125,-0.2507171630859375,0.1224822998046875
1782845356331504400,5.94550439453125,-0.8958892822265625,-0.249420166015625,0.11920166015625
1782845356341509400,5.95550927734375,-0.901397705078125,-0.24798583984375,0.1119232177734375
1782845356351513300,5.965513427734375,-0.9085693359375,-0.2466278076171875,0.114776611328125
1782845356361518300,5.975518310546875,-0.9095611572265625,-0.246246337890625,0.1128692626953125
1782845356371522300,5.985522216796875,-0.9119873046875,-0.2422027587890625,0.1136474609375
1782845356381527300,5.99552734375,-0.9100799560546875,-0.23388671875,0.1172637939453125
1782845356391531300,6.00553125,-0.9044647216796875,-0.2309112548828125,0.123779296875
1782845356401536300,6.015536376953125,-0.9014892578125,-0.2330169677734375,0.13104248046875
1782845356411540200,6.025540283203125,-0.9057769775390625,-0.237213134765625,0.1394805908203125
1782845356421544200,6.035544189453125,-0.9125518798828125,-0.2435760498046875,0.1458282470703125
1782845356431549200,6.045549072265625,-0.9156036376953125,-0.24810791015625,0.153594970703125
1782845356441553400,6.055553466796875,-0.925750732421875,-0.259368896484375,0.1376190185546875
1782845356451558400,6.065558349609375,-0.9306488037109375,-0.2653961181640625,0.1362152099609375
1782845356461562400,6.075562255859375,-0.9080810546875,-0.2613372802734375,0.13616943359375
1782845356471567400,6.0855673828125,-0.9039154052734375,-0.273406982421875,0.12701416015625
1782845356481571000,6.095571044921875,-0.9021148681640625,-0.27667236328125,0.1194610595703125
1782845356491576300,6.105576416015625,-0.9025115966796875,-0.279083251953125,0.11962890625
1782845356501580300,6.115580322265625,-0.913604736328125,-0.2846527099609375,0.12493896484375
1782845356511585300,6.125585205078125,-0.925262451171875,-0.300537109375,0.119140625
1782845356521589200,6.13558935546875,-0.9373321533203125,-0.309539794921875,0.1130828857421875
1782845356531593200,6.14559326171875,-0.9423065185546875,-0.3148193359375,0.1175689697265625
1782845356541598200,6.15559814453125,-0.9433746337890625,-0.3268890380859375,0.135498046875
1782845356551602400,6.1656025390625,-0.9592132568359375,-0.35504150390625,0.143798828125
1782845356561607400,6.175607421875,-0.956634521484375,-0.3551177978515625,0.1392822265625
1782845356571611400,6.185611328125,-0.9562835693359375,-0.33795166015625,0.1262054443359375
1782845356581616400,6.195616455078125,-0.96075439453125,-0.327117919921875,0.1024932861328125
1782845356591620000,6.2056201171875,-0.951141357421875,-0.324554443359375,0.07647705078125
1782845356601625000,6.215625,-0.94049072265625,-0.3163909912109375,0.0612030029296875
1782845356611629300,6.22562939453125,-0.9272613525390625,-0.302154541015625,0.05133056640625
1782845356621633300,6.23563330078125,-0.9151611328125,-0.2951812744140625,0.0423736572265625
1782845356631638300,6.24563818359375,-0.898956298828125,-0.2902984619140625,0.0383148193359375
1782845356641642200,6.255642333984375,-0.8948211669921875,-0.2883148193359375,0.0390777587890625
1782845356651647200,6.265647216796875,-0.899078369140625,-0.291473388671875,0.0414276123046875
1782845356661651500,6.2756513671875,-0.9071807861328125,-0.30255126953125,0.0546112060546875
1782845356671656400,6.285656494140625,-0.918304443359375,-0.3158416748046875,0.073883056640625
1782845356681660700,6.29566064453125,-0.9351806640625,-0.33062744140625,0.090576171875
1782845356691665700,6.305665771484375,-0.9505462646484375,-0.3412017822265625,0.0998687744140625
1782845356701669600,6.315669677734375,-0.9542388916015625,-0.3521728515625,0.1012725830078125
1782845356711674600,6.325674560546875,-0.95428466796875,-0.3618927001953125,0.0973358154296875
1782845356721678800,6.335678955078125,-0.9605560302734375,-0.363739013671875,0.0926971435546875
1782845356731682800,6.345682861328125,-0.9617462158203125,-0.3658447265625,0.0853271484375
1782845356741687800,6.355687744140625,-0.9544525146484375,-0.3686370849609375,0.0807342529296875
1782845356751691800,6.36569189453125,-0.9588470458984375,-0.37298583984375,0.0721588134765625
1782845356761696800,6.37569677734375,-0.966033935546875,-0.36962890625,0.065826416015625
1782845356771700700,6.38570068359375,-0.972625732421875,-0.3734283447265625,0.067413330078125
1782845356781705700,6.395705810546875,-0.9720306396484375,-0.378631591796875,0.080322265625
1782845356791709700,6.405709716796875,-0.977203369140625,-0.36798095703125,0.0955810546875
1782845356801714700,6.415714599609375,-0.97802734375,-0.3538818359375,0.0976104736328125
1782845356811718700,6.42571875,-0.97772216796875,-0.3448638916015625,0.09051513671875
1782845356821723600,6.4357236328125,-0.9817047119140625,-0.323699951171875,0.0901641845703125
1782845356831727600,6.4457275390625,-0.9911041259765625,-0.303802490234375,0.09820556640625
1782845356841731800,6.45573193359375,-1.0124359130859375,-0.2967681884765625,0.116485595703125
1782845356851736800,6.46573681640625,-1.0325927734375,-0.271148681640625,0.1464691162109375
1782845356861740800,6.47574072265625,-1.0511627197265625,-0.2281341552734375,0.168731689453125
1782845356871745800,6.485745849609375,-1.071533203125,-0.206298828125,0.16851806640625
1782845356881749500,6.49574951171875,-1.0819091796875,-0.21661376953125,0.1666412353515625
1782845356891754800,6.505754638671875,-1.067840576171875,-0.23699951171875,0.17388916015625
1782845356901758700,6.5157587890625,-1.046295166015625,-0.2408905029296875,0.185333251953125
1782845356911763700,6.525763671875,-1.0348663330078125,-0.246612548828125,0.1949462890625
1782845356921767700,6.535767578125,-1.0364532470703125,-0.261627197265625,0.194000244140625
1782845356931772700,6.545772705078125,-1.0282135009765625,-0.2696075439453125,0.1893157958984375
1782845356941776600,6.555776611328125,-1.0107879638671875,-0.2761993408203125,0.175689697265625
1782845356951780900,6.56578076171875,-0.999542236328125,-0.2721405029296875,0.162811279296875
1782845356961785900,6.575785888671875,-0.9856109619140625,-0.2542724609375,0.1524658203125
1782845356971789800,6.585789794921875,-0.9762115478515625,-0.2321014404296875,0.1336669921875
1782845356981794800,6.595794921875,-0.9708099365234375,-0.2232513427734375,0.1107177734375
1782845356991798500,6.605798583984375,-0.9672698974609375,-0.206634521484375,0.0939178466796875
1782845357001803500,6.615803466796875,-0.9615325927734375,-0.1829833984375,0.0725555419921875
1782845357011807700,6.625807861328125,-0.94854736328125,-0.166717529296875,0.0538177490234375
1782845357021812700,6.635812744140625,-0.92242431640625,-0.1633758544921875,0.04998779296875
1782845357031816700,6.645816650390625,-0.906097412109375,-0.1509857177734375,0.05523681640625
1782845357041820700,6.655820556640625,-0.8956146240234375,-0.13433837890625,0.057708740234375
1782845357051825700,6.66582568359375,-0.8930511474609375,-0.1327667236328125,0.0603485107421875
1782845357061830000,6.675829833984375,-0.894500732421875,-0.1287994384765625,0.0749053955078125
1782845357071835000,6.6858349609375,-0.9147186279296875,-0.112457275390625,0.08660888671875
1782845357081838600,6.695838623046875,-0.9328460693359375,-0.1089935302734375,0.093048095703125
1782845357091843600,6.705843505859375,-0.9424896240234375,-0.1096343994140625,0.10400390625
1782845357101847600,6.71584765625,-0.9438018798828125,-0.108734130859375,0.1107940673828125
1782845357111852500,6.7258525390625,-0.930999755859375,-0.108428955078125,0.1119537353515625
1782845357121856800,6.735856689453125,-0.9108734130859375,-0.105377197265625,0.1142425537109375
1782845357131861800,6.74586181640625,-0.89300537109375,-0.0999755859375,0.1181793212890625
1782845357141865700,6.75586572265625,-0.873809814453125,-0.0915985107421875,0.11181640625
1782845357151869700,6.76586962890625,-0.8633575439453125,-0.0882568359375,0.1017913818359375
1782845357161874700,6.775874755859375,-0.860321044921875,-0.090850830078125,0.0946044921875
1782845357171879000,6.78587890625,-0.8620758056640625,-0.09857177734375,0.0886688232421875
1782845357181884000,6.7958837890625,-0.8719482421875,-0.108489990234375,0.0815277099609375
1782845357191887600,6.8058876953125,-0.8893890380859375,-0.1209869384765625,0.0866546630859375
1782845357201892600,6.815892578125,-0.91473388671875,-0.1300506591796875,0.09039306640625
1782845357211896600,6.825896484375,-0.9504241943359375,-0.140380859375,0.0953826904296875
1782845357221901600,6.835901611328125,-0.9864044189453125,-0.1492462158203125,0.0921478271484375
1782845357231905800,6.84590576171875,-1.029937744140625,-0.152069091796875,0.08319091796875
1782845357241909800,6.85590966796875,-1.075958251953125,-0.1535186767578125,0.0782318115234375
1782845357251914800,6.865914794921875,-1.1192474365234375,-0.1524810791015625,0.0711212158203125
1782845357261918700,6.875918701171875,-1.1511688232421875,-0.14752197265625,0.0629425048828125
1782845357271923700,6.885923828125,-1.1593475341796875,-0.15081787109375,0.0519256591796875
1782845357281928000,6.895927978515625,-1.1507415771484375,-0.1614532470703125,0.0448455810546875
1782845357291933000,6.905932861328125,-1.129547119140625,-0.1662139892578125,0.0408782958984375
1782845357301936600,6.9159365234375,-1.091064453125,-0.1682281494140625,0.037384033203125
1782845357311941600,6.925941650390625,-1.0366973876953125,-0.167633056640625,0.032073974609375
1782845357321945600,6.935945556640625,-0.97430419921875,-0.1664276123046875,0.0263671875
1782845357331950600,6.94595068359375,-0.9231414794921875,-0.1643524169921875,0.0207061767578125
1782845357341954800,6.955954833984375,-0.884765625,-0.1623992919921875,0.01312255859375
1782845357351958800,6.965958740234375,-0.8542327880859375,-0.1616363525390625,0.005828857421875
1782845357361963800,6.9759638671875,-0.8247222900390625,-0.1670989990234375,-0.0014801025390625
1782845357371967700,6.9859677734375,-0.809906005859375,-0.175933837890625,0.0003662109375
1782845357381972700,6.99597265625,-0.80767822265625,-0.1839752197265625,0.012725830078125
1782845357391977000,7.00597705078125,-0.8199310302734375,-0.188262939453125,0.032989501953125
1782845357401982000,7.01598193359375,-0.8372802734375,-0.196807861328125,0.0508270263671875
1782845357411985700,7.025985595703125,-0.8625335693359375,-0.20733642578125,0.063385009765625
1782845357421990700,7.03599072265625,-0.8954315185546875,-0.2155609130859375,0.0705718994140625
1782845357431994600,7.04599462890625,-0.9320526123046875,-0.2214508056640625,0.0715789794921875
1782845357441999600,7.05599951171875,-0.9681854248046875,-0.2294464111328125,0.0687713623046875
1782845357452003800,7.06600390625,-0.9988250732421875,-0.2357940673828125,0.062347412109375
1782845357462007800,7.0760078125,-1.0252838134765625,-0.2440948486328125,0.05279541015625
1782845357472012800,7.0860126953125,-1.04229736328125,-0.24951171875,0.04248046875
1782845357482016800,7.096016845703125,-1.058807373046875,-0.249603271484375,0.0298004150390625
1782845357492021800,7.106021728515625,-1.067413330078125,-0.242340087890625,0.0151214599609375
1782845357502025700,7.116025634765625,-1.0693206787109375,-0.23712158203125,0.0013580322265625
1782845357512030700,7.12603076171875,-1.0623016357421875,-0.23284912109375,-0.0115814208984375
1782845357522034700,7.13603466796875,-1.047119140625,-0.23077392578125,-0.0197601318359375
1782845357532039700,7.146039794921875,-1.0273590087890625,-0.2194671630859375,-0.023773193359375
1782845357542043600,7.156043701171875,-1.0010223388671875,-0.2157440185546875,-0.022491455078125
1782845357552047600,7.166047607421875,-0.975433349609375,-0.223876953125,-0.0167236328125
1782845357562052600,7.176052490234375,-0.951141357421875,-0.2291107177734375,-0.0036773681640625
1782845357572056800,7.186056884765625,-0.92523193359375,-0.2343597412109375,0.0176239013671875
1782845357582061800,7.196061767578125,-0.9114837646484375,-0.241424560546875,0.034454345703125
1782845357592065800,7.206065673828125,-0.901519775390625,-0.2466888427734375,0.0510101318359375
1782845357602070800,7.21607080078125,-0.90673828125,-0.250274658203125,0.0663299560546875
1782845357612074500,7.226074462890625,-0.9276123046875,-0.245391845703125,0.08111572265625
1782845357622079500,7.23607958984375,-0.9420013427734375,-0.237640380859375,0.090118408203125
1782845357632083700,7.246083740234375,-0.9524078369140625,-0.23040771484375,0.0908660888671875
1782845357642088700,7.256088623046875,-0.9648590087890625,-0.226776123046875,0.0884246826171875
1782845357652092700,7.2660927734375,-0.980621337890625,-0.2264404296875,0.081146240234375
1782845357662096600,7.2760966796875,-0.9974517822265625,-0.233795166015625,0.076904296875
1782845357672101600,7.2861015625,-1.003204345703125,-0.231353759765625,0.0795745849609375
1782845357682105600,7.296105712890625,-1.0048065185546875,-0.236572265625,0.0773162841796875
1782845357692110600,7.306110595703125,-0.9964752197265625,-0.24560546875,0.0703887939453125
1782845357702114600,7.316114501953125,-0.9830474853515625,-0.2463226318359375,0.0702667236328125
1782845357712119600,7.32611962890625,-0.965301513671875,-0.2492218017578125,0.0725250244140625
1782845357722123500,7.33612353515625,-0.9481964111328125,-0.2523193359375,0.0679779052734375
1782845357732128500,7.34612841796875,-0.9350433349609375,-0.245758056640625,0.0644073486328125
1782845357742132700,7.3561328125,-0.93280029296875,-0.2411041259765625,0.0619659423828125
1782845357752137700,7.3661376953125,-0.9377288818359375,-0.2357177734375,0.0600433349609375
1782845357762141700,7.3761416015625,-0.94256591796875,-0.2387542724609375,0.0645904541015625
1782845357772145400,7.3861455078125,-0.9339141845703125,-0.2474365234375,0.0653533935546875
1782845357782150400,7.396150390625,-0.9367523193359375,-0.2472381591796875,0.0739593505859375
1782845357792154600,7.406154541015625,-0.9375457763671875,-0.25311279296875,0.0839691162109375
1782845357802159600,7.41615966796875,-0.93145751953125,-0.2683868408203125,0.0942535400390625
1782845357812163600,7.42616357421875,-0.9263916015625,-0.2818450927734375,0.1026153564453125
1782845357822168600,7.43616845703125,-0.91900634765625,-0.2897186279296875,0.1060028076171875
1782845357832172500,7.446172607421875,-0.9152374267578125,-0.289459228515625,0.1001129150390625
1782845357842177500,7.456177490234375,-0.9119720458984375,-0.2823944091796875,0.0884552001953125
1782845357852181800,7.466181640625,-0.90814208984375,-0.2714080810546875,0.0693817138671875
1782845357862185700,7.476185791015625,-0.9105682373046875,-0.265045166015625,0.0472259521484375
1782845357872190700,7.486190673828125,-0.9346160888671875,-0.2678985595703125,0.02362060546875
1782845357882194400,7.4961943359375,-0.960906982421875,-0.2718505859375,0.0023345947265625
1782845357892199400,7.506199462890625,-0.9780731201171875,-0.2786407470703125,-0.0167694091796875
1782845357902203600,7.51620361328125,-0.9850616455078125,-0.2802886962890625,-0.031585693359375
1782845357912208600,7.526208740234375,-0.98858642578125,-0.2695465087890625,-0.0410308837890625
1782845357922212600,7.536212646484375,-0.98291015625,-0.2489166259765625,-0.0550079345703125
1782845357932217600,7.546217529296875,-0.983306884765625,-0.2418060302734375,-0.073089599609375
1782845357942221600,7.5562216796875,-0.9883270263671875,-0.2336273193359375,-0.080535888671875
1782845357952226600,7.5662265625,-0.9887847900390625,-0.2187957763671875,-0.083099365234375
1782845357962230800,7.576230712890625,-1.0075225830078125,-0.2120819091796875,-0.0798187255859375
1782845357972234500,7.586234375,-1.0526580810546875,-0.208648681640625,-0.0549468994140625
1782845357982239500,7.596239501953125,-1.096282958984375,-0.201507568359375,-0.021331787109375
1782845357992243500,7.606243408203125,-1.1252593994140625,-0.194915771484375,0.0121612548828125
1782845358002248400,7.61624853515625,-1.14031982421875,-0.193572998046875,0.040069580078125
1782845358012252700,7.626252685546875,-1.1417388916015625,-0.1945037841796875,0.0623931884765625
1782845358022257700,7.636257568359375,-1.1246795654296875,-0.1943817138671875,0.0774993896484375
1782845358032261600,7.64626171875,-1.09088134765625,-0.19598388671875,0.08563232421875
1782845358042266600,7.6562666015625,-1.0434417724609375,-0.19342041015625,0.083587646484375
1782845358052270600,7.6662705078125,-0.9919281005859375,-0.1944122314453125,0.0730438232421875
1782845358062275600,7.676275634765625,-0.9541778564453125,-0.197601318359375,0.062164306640625
1782845358072279800,7.68627978515625,-0.92877197265625,-0.20281982421875,0.047088623046875
1782845358082283500,7.696283447265625,-0.91754150390625,-0.2053375244140625,0.0368194580078125
1782845358092288500,7.70628857421875,-0.9146575927734375,-0.2091064453125,0.03570556640625
1782845358102292500,7.71629248046875,-0.9216156005859375,-0.2079315185546875,0.0420074462890625
1782845358112297500,7.72629736328125,-0.9388427734375,-0.2064056396484375,0.04345703125
1782845358122301700,7.7363017578125,-0.9452972412109375,-0.210540771484375,0.0379638671875
1782845358132306700,7.746306640625,-0.9430389404296875,-0.21600341796875,0.0401763916015625
1782845358142310700,7.756310546875,-0.947418212890625,-0.21759033203125,0.0444183349609375
1782845358152315600,7.766315673828125,-0.9573974609375,-0.21978759765625,0.05328369140625
1782845358162319600,7.776319580078125,-0.9605560302734375,-0.2231903076171875,0.0565338134765625
1782845358172323600,7.786323486328125,-0.9619598388671875,-0.21307373046875,0.0627899169921875
1782845358182328600,7.79632861328125,-0.9670257568359375,-0.201324462890625,0.0709228515625
1782845358192332500,7.80633251953125,-0.9662322998046875,-0.1892852783203125,0.0841827392578125
1782845358202337500,7.816337646484375,-0.965576171875,-0.180938720703125,0.098541259765625
1782845358212341500,7.826341552734375,-0.9691314697265625,-0.1724090576171875,0.1143341064453125
1782845358222346500,7.836346435546875,-0.98248291015625,-0.1677093505859375,0.1251678466796875
1782845358232350500,7.8463505859375,-0.99261474609375,-0.1661834716796875,0.136962890625
1782845358242355700,7.856355712890625,-1.000732421875,-0.1665496826171875,0.148529052734375
1782845358252359700,7.866359619140625,-1.0008392333984375,-0.1678619384765625,0.1763153076171875
1782845358262364700,7.87636474609375,-0.9892730712890625,-0.1865081787109375,0.1923370361328125
1782845358272368600,7.88636865234375,-0.9766693115234375,-0.2069091796875,0.1986541748046875
1782845358282372600,7.89637255859375,-0.9639434814453125,-0.2191314697265625,0.2077484130859375
1782845358292377600,7.906377685546875,-0.9559173583984375,-0.2272491455078125,0.2121124267578125
1782845358302381600,7.916381591796875,-0.927764892578125,-0.251220703125,0.2251129150390625
1782845358312386600,7.926386474609375,-0.9136962890625,-0.2670745849609375,0.2351226806640625
1782845358322390500,7.936390625,-0.913604736328125,-0.279449462890625,0.224884033203125
1782845358332395500,7.9463955078125,-0.905517578125,-0.2904052734375,0.208465576171875
1782845358342399500,7.9563994140625,-0.9068603515625,-0.296966552734375,0.1959991455078125
1782845358352404500,7.966404541015625,-0.9222412109375,-0.289764404296875,0.18896484375
1782845358362408700,7.97640869140625,-0.9371185302734375,-0.272735595703125,0.184906005859375
1782845358372413700,7.98641357421875,-0.943817138671875,-0.2716522216796875,0.1668548583984375
1782845358382417700,7.996417724609375,-0.9452362060546875,-0.276123046875,0.147186279296875
1782845358392421400,8.00642138671875,-0.9417724609375,-0.2705230712890625,0.1301422119140625
1782845358402426400,8.01642626953125,-0.9422454833984375,-0.2568359375,0.1257476806640625
1782845358412430600,8.0264306640625,-0.952880859375,-0.2337188720703125,0.1334686279296875
1782845358422435600,8.036435546875,-0.9564666748046875,-0.226654052734375,0.1329498291015625
1782845358432439600,8.046439453125,-0.9588470458984375,-0.229705810546875,0.1392974853515625
1782845358442444500,8.056444580078125,-0.9662017822265625,-0.2386932373046875,0.1538543701171875
1782845358452448500,8.066448486328126,-0.97479248046875,-0.247528076171875,0.16802978515625
1782845358462453500,8.07645361328125,-0.9678955078125,-0.2471160888671875,0.174713134765625
1782845358472457700,8.086457763671875,-0.949310302734375,-0.2559661865234375,0.1663055419921875
1782845358482461700,8.096461669921876,-0.9142913818359375,-0.2651824951171875,0.157806396484375
1782845358492466700,8.106466796875,-0.8829345703125,-0.269287109375,0.145721435546875
1782845358502470400,8.116470458984375,-0.8677215576171875,-0.2765960693359375,0.1331939697265625
1782845358512475400,8.126475341796874,-0.8633270263671875,-0.2819671630859375,0.1229400634765625
1782845358522479600,8.136479736328125,-0.8642730712890625,-0.2822723388671875,0.115234375
1782845358532484600,8.146484619140624,-0.8715972900390625,-0.2745361328125,0.1063232421875
1782845358542488600,8.156488525390625,-0.88336181640625,-0.26678466796875,0.1011810302734375
1782845358552493600,8.16649365234375,-0.892608642578125,-0.266204833984375,0.0971527099609375
1782845358562497500,8.17649755859375,-0.907470703125,-0.2754058837890625,0.096099853515625
1782845358572502500,8.18650244140625,-0.9222869873046875,-0.2823486328125,0.1007232666015625
1782845358582506800,8.1965068359375,-0.934051513671875,-0.287445068359375,0.1066741943359375
1782845358592510700,8.2065107421875,-0.94915771484375,-0.288299560546875,0.108551025390625
1782845358602515700,8.216515625,-0.9616851806640625,-0.284942626953125,0.10455322265625
1782845358612519400,8.22651953125,-0.9672088623046875,-0.286102294921875,0.098388671875
1782845358622524400,8.2365244140625,-0.9692230224609375,-0.28399658203125,0.0920867919921875
1782845358632528600,8.246528564453126,-0.9687042236328125,-0.276763916015625,0.0852813720703125
1782845358642533600,8.25653369140625,-0.9602813720703125,-0.258270263671875,0.0790252685546875
1782845358652537600,8.26653759765625,-0.949920654296875,-0.26129150390625,0.069244384765625
1782845358662542600,8.27654248046875,-0.9312896728515625,-0.270751953125,0.061309814453125
1782845358672546600,8.286546630859375,-0.917388916015625,-0.2796173095703125,0.059234619140625
1782845358682551000,8.296551025390626,-0.9073333740234375,-0.2847900390625,0.062896728515625
1782845358692555300,8.30655517578125,-0.903228759765625,-0.2875213623046875,0.0618896484375
1782845358702559200,8.316559326171875,-0.9037933349609375,-0.2887725830078125,0.06085205078125
1782845358712564200,8.326564208984376,-0.9055633544921875,-0.2952728271484375,0.06005859375
1782845358722568200,8.336568115234375,-0.9207916259765625,-0.301116943359375,0.064544677734375
1782845358732573200,8.3465732421875,-0.9341278076171875,-0.3016510009765625,0.0633544921875
1782845358742577400,8.356577392578124,-0.9411163330078125,-0.2886199951171875,0.058563232421875
1782845358752582400,8.36658251953125,-0.9397125244140625,-0.283111572265625,0.053253173828125
1782845358762586000,8.376586181640626,-0.9336700439453125,-0.2833709716796875,0.052825927734375
1782845358772591000,8.386591064453125,-0.92681884765625,-0.2802581787109375,0.06390380859375
1782845358782595000,8.396594970703125,-0.923065185546875,-0.27508544921875,0.0751953125
1782845358792599300,8.406599365234374,-0.915557861328125,-0.27752685546875,0.0809478759765625
1782845358802604300,8.416604248046875,-0.900848388671875,-0.285003662109375,0.0875244140625
1782845358812608300,8.426608154296876,-0.8878021240234375,-0.2936859130859375,0.10235595703125
1782845358822613200,8.43661328125,-0.8754119873046875,-0.304901123046875,0.116363525390625
1782845358832617200,8.4466171875,-0.8675537109375,-0.316375732421875,0.13494873046875
1782845358842622200,8.456622314453124,-0.8619232177734375,-0.3242950439453125,0.1490936279296875
1782845358852626400,8.46662646484375,-0.8611907958984375,-0.3276214599609375,0.153228759765625
1782845358862631400,8.47663134765625,-0.8784027099609375,-0.329010009765625,0.149505615234375
1782845358872635100,8.48663525390625,-0.90887451171875,-0.3238372802734375,0.1352081298828125
1782845358882640100,8.49664013671875,-0.93804931640625,-0.32147216796875,0.1134796142578125
1782845358892644000,8.50664404296875,-0.9645843505859375,-0.321685791015625,0.0946197509765625
1782845358902648300,8.5166484375,-0.9817047119140625,-0.3242645263671875,0.0767822265625
1782845358912653300,8.5266533203125,-0.990509033203125,-0.3268890380859375,0.062255859375
1782845358922657300,8.5366572265625,-0.990631103515625,-0.3309173583984375,0.049713134765625
1782845358932662300,8.546662353515625,-0.9934844970703125,-0.334136962890625,0.042938232421875
1782845358942666200,8.556666259765626,-1.0017547607421875,-0.33306884765625,0.038238525390625
1782845358952671200,8.566671142578125,-1.004547119140625,-0.3367767333984375,0.0399932861328125
1782845358962675500,8.576675537109375,-1.009429931640625,-0.3400726318359375,0.04229736328125
1782845358972680400,8.586680419921874,-1.010345458984375,-0.33837890625,0.046661376953125
1782845358982684200,8.59668408203125,-1.0084686279296875,-0.3345184326171875,0.046417236328125
1782845358992689200,8.606689208984376,-0.9918212890625,-0.3381195068359375,0.0431976318359375
1782845359002693000,8.616693115234375,-0.97418212890625,-0.3404541015625,0.049041748046875
1782845359012697300,8.626697265625,-0.9593658447265625,-0.3397064208984375,0.053619384765625
1782845359022702300,8.636702392578124,-0.9475250244140625,-0.3447265625,0.0558929443359375
1782845359032706300,8.646706298828125,-0.92547607421875,-0.347259521484375,0.0597381591796875
1782845359042711300,8.656711181640626,-0.9444580078125,-0.3387908935546875,0.0555267333984375
1782845359052715300,8.66671533203125,-0.8662261962890625,-0.3567962646484375,0.0876007080078125
1782845359062720300,8.67672021484375,-0.90899658203125,-0.3543548583984375,0.1241912841796875
1782845359072724200,8.68672412109375,-0.9415740966796875,-0.3735198974609375,0.12054443359375
1782845359082729200,8.696729248046875,-0.953948974609375,-0.3697509765625,0.118072509765625
1782845359092733200,8.706733154296876,-0.9521484375,-0.3367767333984375,0.103912353515625
1782845359102737200,8.716737060546874,-0.935882568359375,-0.2998199462890625,0.080047607421875
1782845359112742100,8.7267421875,-0.909881591796875,-0.2724609375,0.0723724365234375
