time,seconds_elapsed,z,y,x
1782845350448885200,0.06288525390625,0.010936536826193333,-0.06601417064666748,-0.050874900072813034
1782845350458890200,0.07289013671875,0.008129299618303776,-0.06181250140070915,-0.04060974344611168
1782845350468894200,0.082894287109375,0.008472580462694168,-0.04523299261927605,-0.024033697322010994
1782845350478899200,0.092899169921875,0.005084507167339325,-0.029857497662305832,0.00381391285918653
1782845350488903200,0.102903076171875,-0.0028794098179787397,-0.016765130683779716,0.030251912772655487
1782845350498908200,0.112908203125,-0.009785252623260021,-0.025126392021775246,0.05353912338614464
1782845350508912000,0.122912109375,-0.01787646859884262,-0.0400046743452549,0.06318429857492447
1782845350518917000,0.132917236328125,-0.021401163190603256,-0.0659145712852478,0.07626547664403915
1782845350528921000,0.142921142578125,-0.02473783679306507,-0.08257956802845001,0.08250100165605545
1782845350538925000,0.152925048828125,-0.02574477717280388,-0.09118157625198364,0.0945158526301384
1782845350548930000,0.162929931640625,-0.025110412389039993,-0.0844552293419838,0.09787330031394958
1782845350558934300,0.172934326171875,-0.021227523684501648,-0.06722990423440933,0.08754662424325943
1782845350568939300,0.182939208984375,-0.01447081845253706,-0.05053561180830002,0.0660964623093605
1782845350578943200,0.192943115234375,-0.014176539145410061,-0.032521724700927734,0.05481291562318802
1782845350588948200,0.2029482421875,-0.009889115579426289,-0.017896708101034164,0.05229063332080841
1782845350598952200,0.2129521484375,-0.0152561841532588,-0.012319516390562057,0.050817906856536865
1782845350608957200,0.222957275390625,-0.02605290524661541,-0.015002917498350143,0.036138564348220825
1782845350618961200,0.232961181640625,-0.028027374297380447,-0.011782091110944748,0.006391853094100952
1782845350628966100,0.242966064453125,-0.026570623740553856,-0.022286662831902504,-0.015752598643302917
1782845350638970000,0.25297021484375,-0.02972114458680153,-0.03044072911143303,-0.030553381890058517
1782845350648974000,0.26297412109375,-0.030428744852542877,-0.041008420288562775,-0.03478754311800003
1782845350658979000,0.27297900390625,-0.03376222401857376,-0.04025181382894516,-0.03098507970571518
1782845350668983300,0.2829833984375,-0.03881450742483139,-0.0363907627761364,-0.04202468320727348
1782845350678988500,0.292988525390625,-0.03873221576213837,-0.024924257770180702,-0.06966989487409592
1782845350688992500,0.302992431640625,-0.03401016443967819,-0.012929913587868214,-0.11725419014692307
1782845350698997500,0.31299755859375,-0.014901984483003616,-0.005344697739928961,-0.17307297885417938
1782845350709001500,0.32300146484375,0.00509755639359355,-0.01962163858115673,-0.20706050097942352
1782845350719006500,0.33300634765625,0.026007631793618202,-0.047803208231925964,-0.21854299306869507
1782845350729010700,0.3430107421875,0.042388737201690674,-0.08066315203905106,-0.2164449542760849
1782845350739015700,0.353015625,0.045101698487997055,-0.09342821687459946,-0.22882892191410065
1782845350749019400,0.363019287109375,0.040760479867458344,-0.10439164936542511,-0.24847932159900665
1782845350759023400,0.3730234375,0.03778199851512909,-0.11267754435539246,-0.27962473034858704
1782845350769028400,0.3830283203125,0.03443573787808418,-0.1258878856897354,-0.2997411787509918
1782845350779032600,0.393032470703125,0.03720276057720184,-0.1442573070526123,-0.31802430748939514
1782845350789037600,0.40303759765625,0.03759557753801346,-0.15271711349487305,-0.3256723880767822
1782845350799041500,0.41304150390625,0.037043504416942596,-0.1589808613061905,-0.31393396854400635
1782845350809046500,0.423046630859375,0.03948535770177841,-0.15327876806259155,-0.28931355476379395
1782845350819050500,0.433050537109375,0.03423759713768959,-0.14534014463424683,-0.25667014718055725
1782845350829055500,0.443055419921875,0.024039022624492645,-0.13428349792957306,-0.20636382699012756
1782845350839059700,0.453059814453125,0.012165320105850697,-0.11772503703832626,-0.13793842494487762
1782845350849064700,0.463064697265625,-0.005495432764291763,-0.0955696627497673,-0.05056304112076759
1782845350859068400,0.473068359375,-0.019938554614782333,-0.0594492107629776,0.034632280468940735
1782845350869073400,0.483073486328125,-0.037409424781799316,-0.021648837253451347,0.1013665646314621
1782845350879077400,0.493077392578125,-0.05120060220360756,-0.006103964988142252,0.15408144891262054
1782845350889081600,0.50308154296875,-0.05762308090925217,-0.0031156321056187153,0.1848292350769043
1782845350899086600,0.513086669921875,-0.05848248302936554,-0.002974218223243952,0.19238781929016113
1782845350909090600,0.523090576171875,-0.04695046320557594,-0.0017417073249816895,0.17569886147975922
1782845350919095600,0.533095458984375,-0.029770677909255028,0.0039007319137454033,0.14872290194034576
1782845350929099500,0.543099609375,-0.0011891013709828258,0.006527673918753862,0.10338178277015686
1782845350939104500,0.5531044921875,0.04128671810030937,0.014840465039014816,0.040527451783418655
1782845350949108500,0.5631083984375,0.09038848429918289,0.01182150561362505,-0.03852741792798042
1782845350959113500,0.573113525390625,0.13182806968688965,0.0067726848646998405,-0.1015188992023468
1782845350969117400,0.583117431640625,0.1701783835887909,0.0009166600648313761,-0.13374555110931396
1782845350979122400,0.593122314453125,0.19270659983158112,-0.006958839949220419,-0.1384790539741516
1782845350989126400,0.60312646484375,0.1985546350479126,-0.009618006646633148,-0.1225525438785553
1782845350999130400,0.61313037109375,0.18846099078655243,-0.018075406551361084,-0.09086892008781433
1782845351009135400,0.62313525390625,0.16594795882701874,-0.033664487302303314,-0.0618433952331543
1782845351019139600,0.6331396484375,0.12787647545337677,-0.04520636051893234,-0.04008776322007179
1782845351029144600,0.64314453125,0.08908193558454514,-0.043296076357364655,-0.02112952060997486
1782845351039148500,0.6531484375,0.03886457532644272,-0.040347687900066376,0.002918558195233345
1782845351049153500,0.663153564453125,-0.006621417589485645,-0.029462818056344986,0.02912965603172779
1782845351059157200,0.6731572265625,-0.055515456944704056,-0.016934774816036224,0.042747728526592255
1782845351069162500,0.68316259765625,-0.10854911059141159,0.0018290589796379209,0.04243800416588783
1782845351079166500,0.69316650390625,-0.1628142148256302,0.01230646762996912,0.023390278220176697
1782845351089171500,0.70317138671875,-0.21021075546741486,0.02082698419690132,0.005014199763536453
1782845351099175400,0.713175537109375,-0.25610846281051636,0.015343536622822285,-0.004930576309561729
1782845351109179400,0.723179443359375,-0.28768664598464966,0.0068051754496991634,-0.002338521648198366
1782845351119184400,0.733184326171875,-0.3034925162792206,-0.0067543089389801025,0.005645102355629206
1782845351129188600,0.743188720703125,-0.3136010766029358,-0.04276503995060921,0.02227121777832508
1782845351139193600,0.753193603515625,-0.32446277141571045,-0.05643078684806824,0.026515763252973557
1782845351149197600,0.763197509765625,-0.3376515507698059,-0.05458095297217369,0.017672736197710037
1782845351159202600,0.77320263671875,-0.3459305167198181,-0.045102763921022415,0.01925678551197052
1782845351169206300,0.783206298828125,-0.34433233737945557,-0.048107076436281204,0.0299626924097538
1782845351179211300,0.793211181640625,-0.3214896023273468,-0.028689168393611908,0.054781224578619
1782845351189215500,0.803215576171875,-0.29135382175445557,0.0072717610746622086,0.07310377061367035
1782845351199220500,0.813220458984375,-0.24690432846546173,0.05155640095472336,0.07457277178764343
1782845351209224400,0.823224365234375,-0.20407482981681824,0.09240423142910004,0.05541026219725609
1782845351219228400,0.833228515625,-0.1511564999818802,0.11409807950258255,0.0382579080760479
1782845351229233400,0.8432333984375,-0.08701985329389572,0.13300491869449615,0.028679581359028816
1782845351239237600,0.853237548828125,-0.0019185412675142288,0.12978222966194153,0.029271602630615234
1782845351249242600,0.86324267578125,0.09134615957736969,0.12945732474327087,0.02707263082265854
1782845351259246600,0.87324658203125,0.18573391437530518,0.1380620002746582,0.014301974326372147
1782845351269251600,0.88325146484375,0.276384174823761,0.1305028796195984,-0.001151284552179277
1782845351279255300,0.89325537109375,0.3530411422252655,0.1259012073278427,0.011109909042716026
1782845351289260300,0.90326025390625,0.411287397146225,0.11985716223716736,0.0469328872859478
1782845351299264500,0.913264404296875,0.4563172161579132,0.12143188714981079,0.08526456356048584
1782845351309269500,0.92326953125,0.4922142028808594,0.12512223422527313,0.11866539716720581
1782845351319273500,0.9332734375,0.5045907497406006,0.1288282871246338,0.1516667604446411
1782845351329277400,0.94327734375,0.4968166947364807,0.14014992117881775,0.1808169186115265
1782845351339282400,0.953282470703125,0.4821661114692688,0.15236690640449524,0.19568881392478943
1782845351349286700,0.96328662109375,0.45585566759109497,0.15900802612304688,0.22266742587089539
1782845351359291600,0.973291748046875,0.4278051257133484,0.159183531999588,0.24904337525367737
1782845351369295400,0.98329541015625,0.3906551003456116,0.1629718691110611,0.28622564673423767
1782845351379300400,0.99330029296875,0.3389969766139984,0.16772988438606262,0.32604122161865234
1782845351389304300,1.00330419921875,0.29068881273269653,0.1671096235513687,0.3648219108581543
1782845351399309300,1.013309326171875,0.247089684009552,0.15962880849838257,0.3898167312145233
1782845351409313500,1.0233134765625,0.22240297496318817,0.12835903465747833,0.39387965202331543
1782845351419318500,1.033318603515625,0.20404714345932007,0.0858059823513031,0.37877288460731506
1782845351429322500,1.043322509765625,0.17312970757484436,0.0356256365776062,0.3277922570705414
1782845351439326500,1.053326416015625,0.1344880312681198,-0.01447215024381876,0.2353334277868271
1782845351449331500,1.06333154296875,0.0890321359038353,-0.016378972679376602,0.08282137662172318
1782845351459335700,1.073335693359375,0.03465571627020836,-0.013512613251805305,-0.08873572945594788
1782845351469340700,1.083340576171875,0.009853430092334747,-0.03675961121916771,-0.24431946873664856
1782845351479344400,1.093344482421875,0.014494254253804684,-0.010569287464022636,-0.3867463767528534
1782845351489349400,1.103349365234375,0.05246054381132126,0.035467445850372314,-0.48994919657707214
1782845351499353300,1.113353271484375,0.11157473176717758,0.057495784014463425,-0.5228549242019653
1782845351509358300,1.1233583984375,0.17774921655654907,0.033009350299835205,-0.510015070438385
1782845351519362600,1.133362548828125,0.2249675989151001,-0.03773672506213188,-0.46394795179367065
1782845351529367600,1.143367431640625,0.26455947756767273,-0.10940345376729965,-0.4026995003223419
1782845351539371500,1.15337158203125,0.28754255175590515,-0.15710413455963135,-0.3198530972003937
1782845351549375500,1.16337548828125,0.2943602502346039,-0.15638801455497742,-0.2142622321844101
1782845351559380500,1.17338037109375,0.29069948196411133,-0.13265284895896912,-0.090586356818676
1782845351569384400,1.183384521484375,0.28062206506729126,-0.09806264936923981,0.04535549879074097
1782845351579389700,1.1933896484375,0.27768781781196594,-0.061642058193683624,0.1580202579498291
1782845351589393400,1.203393310546875,0.270587295293808,-0.029337648302316666,0.2374599575996399
1782845351599398400,1.2133984375,0.2594323754310608,-0.011421232484281063,0.30044370889663696
1782845351609402400,1.22340234375,0.2419561743736267,-0.004178499802947044,0.3409397304058075
1782845351619407400,1.233407470703125,0.21532349288463593,-0.016706008464097977,0.3697567582130432
1782845351629411600,1.24341162109375,0.17702564597129822,-0.03014858067035675,0.3664003610610962
1782845351639416600,1.25341650390625,0.12531425058841705,-0.02130156010389328,0.3443363308906555
1782845351649420500,1.263420654296875,0.06468099355697632,-0.0029795446898788214,0.3003033697605133
1782845351659424500,1.273424560546875,-0.013878530822694302,0.023635821416974068,0.2505757510662079
1782845351669429500,1.283429443359375,-0.07987858355045319,0.04175064340233803,0.1957513988018036
1782845351679433500,1.29343359375,-0.1353604942560196,0.06223434582352638,0.15145476162433624
1782845351689438500,1.3034384765625,-0.1748884618282318,0.07450006902217865,0.10577862709760666
1782845351699442700,1.313442626953125,-0.19489705562591553,0.0872155949473381,0.06616251170635223
1782845351709447700,1.32344775390625,-0.20104362070560455,0.08740681409835815,0.04651530459523201
1782845351719451600,1.33345166015625,-0.1892511546611786,0.0714840367436409,0.031315311789512634
1782845351729456600,1.34345654296875,-0.1657988280057907,0.05480945110321045,0.008846488781273365
1782845351739460400,1.35346044921875,-0.13279692828655243,0.04261350631713867,-0.0354384183883667
1782845351749465300,1.36346533203125,-0.10156071186065674,0.05543289706110954,-0.08360115438699722
1782845351759469600,1.373469482421875,-0.07635229825973511,0.030790936201810837,-0.12062788009643555
1782845351769473500,1.3834736328125,-0.03407488018274307,0.014515026472508907,-0.1433342546224594
1782845351779478500,1.393478515625,0.005155613645911217,-0.005928196478635073,-0.1408657729625702
1782845351789482500,1.403482421875,0.0385868065059185,-0.034747060388326645,-0.10668463259935379
1782845351799487500,1.413487548828125,0.06802139431238174,-0.06210172176361084,-0.06905656307935715
1782845351809491700,1.42349169921875,0.08687284588813782,-0.08901003003120422,-0.02129756473004818
1782845351819496700,1.43349658203125,0.10090716928243637,-0.11891653388738632,0.029024994000792503
1782845351829500700,1.443500732421875,0.10111543536186218,-0.1356837898492813,0.08215878158807755
1782845351839505700,1.453505615234375,0.10191651433706284,-0.14614255726337433,0.12592224776744843
1782845351849509400,1.46350927734375,0.09460267424583435,-0.1475503146648407,0.18124622106552124
1782845351859514400,1.473514404296875,0.07416903227567673,-0.14547491073608398,0.2264121025800705
1782845351869518600,1.4835185546875,0.039505865424871445,-0.12825624644756317,0.26312270760536194
1782845351879522600,1.4935224609375,0.005381183233112097,-0.09418162703514099,0.29691609740257263
1782845351889527600,1.503527587890625,-0.022164158523082733,-0.05156039446592331,0.31810659170150757
1782845351899531500,1.513531494140625,-0.05618710443377495,-0.007691209204494953,0.3317755460739136
1782845351909536500,1.52353662109375,-0.0948527455329895,0.025902969762682915,0.3367820084095001
1782845351919540700,1.533540771484375,-0.12101910263299942,0.04766525700688362,0.32884418964385986
1782845351929545700,1.543545654296875,-0.15673714876174927,0.06216137483716011,0.3175462782382965
1782845351939549400,1.553549560546875,-0.1921073943376541,0.06782592087984085,0.2885742783546448
1782845351949554400,1.563554443359375,-0.22450314462184906,0.05831364169716835,0.23369957506656647
1782845351959558400,1.573558349609375,-0.2556570768356323,0.030374683439731598,0.1660291850566864
1782845351969563400,1.5835634765625,-0.28382906317710876,0.0029941920656710863,0.10285181552171707
1782845351979567600,1.593567626953125,-0.31087160110473633,-0.01925092563033104,0.0373082235455513
1782845351989571600,1.603571533203125,-0.33991390466690063,-0.02937067113816738,-0.020684238523244858
1782845351999576600,1.61357666015625,-0.3623366355895996,-0.033012811094522476,-0.06795934587717056
1782845352009580500,1.62358056640625,-0.37595871090888977,-0.034631479531526566,-0.09645729511976242
1782845352019585500,1.63358544921875,-0.3730548024177551,-0.036669597029685974,-0.11178858578205109
1782845352029589800,1.64358984375,-0.3656514883041382,-0.0338815338909626,-0.11963212490081787
1782845352039594800,1.6535947265625,-0.3427376449108124,-0.02809075638651848,-0.12096983194351196
1782845352049598500,1.663598388671875,-0.30349862575531006,-0.02341531030833721,-0.11880148202180862
1782845352059603500,1.673603515625,-0.26632195711135864,-0.023372966796159744,-0.10272478312253952
1782845352069607400,1.683607421875,-0.23626287281513214,-0.02588086575269699,-0.07048934698104858
1782845352079612400,1.6936123046875,-0.21082276105880737,-0.028656411916017532,-0.030130738392472267
1782845352089616600,1.70361669921875,-0.1836758255958557,-0.02990436926484108,0.009877664037048817
1782845352099620600,1.71362060546875,-0.15638162195682526,-0.03664243221282959,0.05374845117330551
1782845352109625600,1.72362548828125,-0.13489097356796265,-0.04712783172726631,0.08371380716562271
1782845352119629600,1.733629638671875,-0.1249547153711319,-0.046835415065288544,0.10724896192550659
1782845352129634600,1.743634521484375,-0.11731597036123276,-0.03639129549264908,0.12162709981203079
1782845352139638800,1.753638671875,-0.11700917780399323,-0.018760638311505318,0.135255828499794
1782845352149643800,1.763643798828125,-0.12070244550704956,0.0009033442474901676,0.15081721544265747
1782845352159647500,1.7736474609375,-0.12502236664295197,0.014189322479069233,0.16167810559272766
1782845352169652500,1.783652587890625,-0.1419544816017151,0.023507723584771156,0.16577565670013428
1782845352179656400,1.793656494140625,-0.15769429504871368,0.02990676648914814,0.150928795337677
1782845352189661400,1.803661376953125,-0.1721414029598236,0.0333385169506073,0.11941853910684586
1782845352199665700,1.813665771484375,-0.18653365969657898,0.036483973264694214,0.08503100275993347
1782845352209669600,1.823669677734375,-0.20391690731048584,0.03518648445606232,0.04591768980026245
1782845352219674600,1.833674560546875,-0.22717510163784027,0.03141944110393524,-0.004778509959578514
1782845352229678600,1.8436787109375,-0.25355264544487,0.023385750129818916,-0.05626034364104271
1782845352239683600,1.85368359375,-0.272346556186676,0.009373261593282223,-0.09587220102548599
1782845352249687600,1.8636875,-0.29826632142066956,-0.025799639523029327,-0.11269592493772507
1782845352259692500,1.873692626953125,-0.33207622170448303,-0.07208538055419922,-0.12389025092124939
1782845352269696500,1.883696533203125,-0.36168283224105835,-0.10905271768569946,-0.1421789824962616
1782845352279701500,1.893701416015625,-0.3807859718799591,-0.14197711646556854,-0.16383633017539978
1782845352289705500,1.90370556640625,-0.3806892931461334,-0.17136536538600922,-0.18373042345046997
1782845352299710500,1.91371044921875,-0.3596804141998291,-0.19773252308368683,-0.19288849830627441
1782845352309714400,1.92371435546875,-0.3197218179702759,-0.2166082113981247,-0.19942894577980042
1782845352319718700,1.93371875,-0.2655014395713806,-0.2372964471578598,-0.1931588053703308
1782845352329723600,1.9437236328125,-0.21125471591949463,-0.2538900673389435,-0.18462923169136047
1782845352339727600,1.9537275390625,-0.1614312380552292,-0.25542083382606506,-0.17529591917991638
1782845352349732600,1.963732666015625,-0.1193503588438034,-0.23800723254680634,-0.1699693351984024
1782845352359736300,1.973736328125,-0.0928812026977539,-0.20451772212982178,-0.16329997777938843
1782845352369741300,1.9837412109375,-0.07772169262170792,-0.18578743934631348,-0.1454850286245346
1782845352379745500,1.99374560546875,-0.06955350935459137,-0.17365141212940216,-0.12258423864841461
1782845352389750500,2.00375048828125,-0.06612282991409302,-0.1703309863805771,-0.08570478111505508
1782845352399754500,2.01375439453125,-0.07233384996652603,-0.17394410073757172,-0.03177470713853836
1782845352409759500,2.023759521484375,-0.08226478099822998,-0.17919185757637024,0.03327246755361557
1782845352419763500,2.033763427734375,-0.09584290534257889,-0.17349456250667572,0.09170888364315033
1782845352429767700,2.043767578125,-0.11309299618005753,-0.16114787757396698,0.13494983315467834
1782845352439772700,2.053772705078125,-0.12485405057668686,-0.14153368771076202,0.15582580864429474
1782845352449776600,2.063776611328125,-0.13995151221752167,-0.11983958631753922,0.1652025431394577
1782845352459781600,2.07378173828125,-0.15623007714748383,-0.0905354917049408,0.14374011754989624
1782845352469785300,2.083785400390625,-0.181319460272789,-0.06540323793888092,0.08931390196084976
1782845352479790300,2.093790283203125,-0.20526739954948425,-0.03759850934147835,-0.0012570120161399245
1782845352489794600,2.103794677734375,-0.2353731095790863,-0.009573797695338726,-0.08587975054979324
1782845352499799600,2.113799560546875,-0.25207751989364624,0.00574843306094408,-0.15453365445137024
1782845352509803500,2.123803466796875,-0.2549430727958679,-0.0004588626616168767,-0.1926831603050232
1782845352519808500,2.13380859375,-0.25387221574783325,-0.021881863474845886,-0.17559312283992767
1782845352529812500,2.1438125,-0.24227549135684967,-0.05263844504952431,-0.14739477634429932
1782845352539816700,2.153816650390625,-0.2212519645690918,-0.08168154954910278,-0.12245480716228485
1782845352549821700,2.16382177734375,-0.17758063971996307,-0.10635999590158463,-0.10806787759065628
1782845352559825700,2.17382568359375,-0.10775362700223923,-0.12910231947898865,-0.06416566669940948
1782845352569830700,2.18383056640625,-0.03050011768937111,-0.13980956375598907,0.0018349179299548268
1782845352579834400,2.19383447265625,0.04867406189441681,-0.1289004534482956,0.07375890761613846
1782845352589839400,2.20383935546875,0.10970146209001541,-0.10027680546045303,0.1646382212638855
1782845352599843600,2.213843505859375,0.14726828038692474,-0.0604095496237278,0.2493554949760437
1782845352609848600,2.2238486328125,0.16530373692512512,-0.019391540437936783,0.3344232439994812
1782845352619852500,2.2338525390625,0.176985964179039,0.0160018689930439,0.4215453863143921
1782845352629857500,2.243857421875,0.17268522083759308,0.03724750503897667,0.5069814324378967
1782845352639861500,2.253861572265625,0.1613987535238266,0.0406813845038414,0.5684186816215515
1782845352649865700,2.26386572265625,0.13646464049816132,0.0388597808778286,0.6034834980964661
1782845352659870700,2.27387060546875,0.09283006936311722,0.020616594702005386,0.6148266792297363
1782845352669874700,2.283874755859375,0.019530823454260826,0.004820055328309536,0.5923171043395996
1782845352679879700,2.293879638671875,-0.06335846334695816,-0.019947342574596405,0.5406115651130676
1782845352689883600,2.303883544921875,-0.13744041323661804,-0.031149396672844887,0.4660060405731201
1782845352699888600,2.313888671875,-0.19476576149463654,-0.033858366310596466,0.3877301514148712
1782845352709892900,2.323892822265625,-0.23668603599071503,-0.043659597635269165,0.30999940633773804
1782845352719897900,2.33389794921875,-0.27442118525505066,-0.039439018815755844,0.24372531473636627
1782845352729901800,2.34390185546875,-0.3027377724647522,-0.029391178861260414,0.168056920170784
1782845352739906800,2.35390673828125,-0.2975504696369171,-0.02690058946609497,0.08458572626113892
1782845352749910500,2.36391064453125,-0.2821022570133209,-0.0433056615293026,0.006622216198593378
1782845352759914800,2.373914794921875,-0.25830772519111633,-0.0631246417760849,-0.03798732906579971
1782845352769919700,2.383919677734375,-0.23118820786476135,-0.07359299063682556,-0.07174662500619888
1782845352779923700,2.393923828125,-0.19286559522151947,-0.07145021110773087,-0.0876651406288147
1782845352789928700,2.4039287109375,-0.1512499749660492,-0.06475210189819336,-0.09771057963371277
1782845352799932700,2.4139326171875,-0.11116939783096313,-0.058403123170137405,-0.10070157796144485
1782845352809937700,2.423937744140625,-0.07131253182888031,-0.049553170800209045,-0.09014160931110382
1782845352819941600,2.433941650390625,-0.0375702790915966,-0.042221490293741226,-0.0715000182390213
1782845352829947000,2.44394677734375,-0.009869675152003765,-0.039734095335006714,-0.030316093936562538
1782845352839950800,2.453950927734375,0.012383699417114258,-0.03453667089343071,0.026308303698897362
1782845352849955800,2.463955810546875,0.02214658074080944,-0.019901802763342857,0.0645425096154213
1782845352859959600,2.47395947265625,0.019781960174441338,0.000029827404432580806,0.09965548664331436
1782845352869963500,2.483963623046875,0.007387342397123575,0.018017616122961044,0.11869309097528458
1782845352879968800,2.49396875,-0.009017730131745338,0.03370070457458496,0.13368242979049683
1782845352889972700,2.50397265625,-0.03374304994940758,0.036003272980451584,0.13548459112644196
1782845352899977700,2.513977783203125,-0.06005614623427391,0.03001968376338482,0.10429950803518295
1782845352909981700,2.523981689453125,-0.09751510620117188,0.031498804688453674,0.05456151068210602
1782845352919986700,2.533986572265625,-0.13299719989299774,0.026220418512821198,-0.0021140172611922026
1782845352929990700,2.54399072265625,-0.16624677181243896,0.009012402966618538,-0.044388238340616226
1782845352939995600,2.55399560546875,-0.19155824184417725,-0.012417521327733994,-0.0879032239317894
1782845352949999600,2.56399951171875,-0.20251049101352692,-0.029622873291373253,-0.13382437825202942
1782845352960004600,2.574004638671875,-0.19332551956176758,-0.05392767861485481,-0.17614227533340454
1782845352970008600,2.584008544921875,-0.16448615491390228,-0.08009323477745056,-0.20194697380065918
1782845352980012500,2.594012451171875,-0.129932701587677,-0.09805173426866531,-0.19336067140102386
1782845352990017500,2.604017578125,-0.0896313488483429,-0.09433635324239731,-0.1702747941017151
1782845353000021800,2.614021728515625,-0.061160292476415634,-0.07739385962486267,-0.12023692578077316
1782845353010026800,2.62402685546875,-0.04939417913556099,-0.0594920888543129,-0.06657902896404266
1782845353020030700,2.63403076171875,-0.042702190577983856,-0.02936401404440403,-0.018334265798330307
1782845353030035700,2.64403564453125,-0.043535757809877396,-0.004971588961780071,0.016141418367624283
1782845353040039700,2.654039794921875,-0.03826083615422249,0.012386095710098743,0.02882339246571064
1782845353050044700,2.664044677734375,-0.03711647540330887,0.004059189930558205,0.03617051988840103
1782845353060048600,2.674048583984375,-0.0387394055724144,-0.013288641348481178,0.018425345420837402
1782845353070053600,2.6840537109375,-0.026340527459979057,-0.02238253690302372,-0.01962456852197647
1782845353080057600,2.6940576171875,-0.0034767568577080965,-0.02960369922220707,-0.07547131925821304
1782845353090061600,2.7040615234375,0.02779780887067318,-0.030584273859858513,-0.12885437905788422
1782845353100066600,2.714066650390625,0.06839743256568909,-0.022701317444443703,-0.1723528653383255
1782845353110070800,2.72407080078125,0.11251695454120636,-0.0065100970678031445,-0.20771777629852295
1782845353120075800,2.73407568359375,0.14387275278568268,0.0013904364313930273,-0.227029949426651
1782845353130079700,2.744079833984375,0.17715108394622803,0.006404902320355177,-0.23215654492378235
1782845353140084700,2.754084716796875,0.20853696763515472,0.0052208611741662025,-0.22814396023750305
1782845353150088700,2.764088623046875,0.22867631912231445,-0.006869623903185129,-0.21068613231182098
1782845353160093700,2.77409375,0.2348838895559311,-0.017135310918092728,-0.19293589890003204
1782845353170097700,2.78409765625,0.23425696790218353,-0.027096066623926163,-0.1784491091966629
1782845353180102700,2.7941025390625,0.23764504492282867,-0.028378644958138466,-0.16653278470039368
1782845353190106600,2.804106689453125,0.22999165952205658,-0.031185882166028023,-0.14577718079090118
1782845353200110600,2.814110595703125,0.2305184304714203,-0.031980570405721664,-0.11685604602098465
1782845353210115600,2.824115478515625,0.2260911911725998,-0.021758824586868286,-0.07702074944972992
1782845353220119800,2.834119873046875,0.21887801587581635,0.00008122641156660393,-0.030910512432456017
1782845353230124800,2.844124755859375,0.20150569081306458,0.017830928787589073,0.011442803777754307
1782845353240128800,2.854128662109375,0.18355144560337067,0.027398068457841873,0.05026343837380409
1782845353250133800,2.8641337890625,0.1605023294687271,0.03755749389529228,0.08004236966371536
1782845353260137700,2.8741376953125,0.14515292644500732,0.0484871082007885,0.09475180506706238
1782845353270142700,2.884142822265625,0.12616325914859772,0.05650348961353302,0.09051445126533508
1782845353280146700,2.894146728515625,0.11589410901069641,0.06646797060966492,0.07955794036388397
1782845353290151700,2.904151611328125,0.10556744039058685,0.07551872730255127,0.07602419704198837
1782845353300155600,2.91415576171875,0.08837593346834183,0.08079791069030762,0.08322511613368988
1782845353310159600,2.92415966796875,0.06077440083026886,0.08312631398439407,0.09265883266925812
1782845353320164600,2.93416455078125,0.030059898272156715,0.08356999605894089,0.09785039722919464
1782845353330168800,2.9441689453125,0.003829092951491475,0.08293136954307556,0.08649440854787827
1782845353340173800,2.954173828125,-0.019302325323224068,0.076210618019104,0.06449909508228302
1782845353350177800,2.964177734375,-0.038239531219005585,0.06748290359973907,0.048221856355667114
1782845353360182800,2.974182861328125,-0.04978300258517265,0.04856087639927864,0.03429379314184189
1782845353370186500,2.9841865234375,-0.044925663620233536,0.037466149777173996,0.03388180211186409
1782845353380191500,2.99419140625,-0.0317094586789608,0.02472798340022564,0.05314311385154724
1782845353390195700,3.00419580078125,-0.017584852874279022,0.02124643325805664,0.07363986223936081
1782845353400200700,3.01420068359375,0.000642620783764869,0.03323039039969444,0.09712761640548706
1782845353410204700,3.02420458984375,0.031861525028944016,0.050507914274930954,0.11382803320884705
1782845353420208600,3.034208740234375,0.06817372888326645,0.07181054353713989,0.11621608585119247
1782845353430213600,3.044213623046875,0.11043249815702438,0.09665117412805557,0.10785829275846481
1782845353440217900,3.0542177734375,0.14914155006408691,0.12140791863203049,0.09926586598157883
1782845353450222800,3.064222900390625,0.17435768246650696,0.14010624587535858,0.08535697311162949
1782845353460226800,3.074226806640625,0.1854841113090515,0.15901495516300201,0.07929082959890366
1782845353470231800,3.084231689453125,0.1988089680671692,0.16725850105285645,0.05497616529464722
1782845353480235500,3.094235595703125,0.20794467628002167,0.17980678379535675,0.03181145712733269
1782845353490240500,3.104240478515625,0.23607724905014038,0.18103769421577454,0.008341552689671516
1782845353500244700,3.11424462890625,0.2757122814655304,0.16616633534431458,-0.012256399728357792
1782845353510249700,3.124249755859375,0.3272676169872284,0.11679958552122116,-0.010415356606245041
1782845353520253700,3.134253662109375,0.3765171766281128,0.06356539577245712,0.03657958284020424
1782845353530257700,3.144257568359375,0.4149247407913208,0.007608118467032909,0.09964723140001297
1782845353540262700,3.1542626953125,0.4533062279224396,-0.026400981470942497,0.152461975812912
1782845353550266600,3.1642666015625,0.4742211103439331,-0.02255723997950554,0.19712026417255402
1782845353560271600,3.174271728515625,0.4893435835838318,0.07194715738296509,0.24769821763038635
1782845353570275800,3.18427587890625,0.47691062092781067,0.1403816044330597,0.29938483238220215
1782845353580280800,3.19428076171875,0.43822234869003296,0.1937178075313568,0.31947147846221924
1782845353590284500,3.204284423828125,0.38147491216659546,0.21721354126930237,0.26662105321884155
1782845353600289500,3.21428955078125,0.3119432330131531,0.21358205378055573,0.17306844890117645
1782845353610293500,3.22429345703125,0.24996083974838257,0.20248998701572418,0.0659039169549942
1782845353620298800,3.234298828125,0.20154297351837158,0.18086698651313782,-0.03842888027429581
1782845353630302700,3.244302734375,0.15678748488426208,0.15946821868419647,-0.10144966095685959
1782845353640306700,3.254306640625,0.10846894979476929,0.12201991677284241,-0.1273835152387619
1782845353650311700,3.264311767578125,0.059603676199913025,0.0734606385231018,-0.1191444993019104
1782845353660315600,3.274315673828125,0.014242053031921387,0.0346386693418026,-0.0979987382888794
1782845353670320600,3.284320556640625,-0.028534971177577972,0.0007693872321397066,-0.058881159871816635
1782845353680324600,3.29432470703125,-0.05744784697890282,-0.01107741892337799,-0.009807889349758625
1782845353690329600,3.30432958984375,-0.0803622156381607,-0.01101723127067089,0.03485571965575218
1782845353700333300,3.314333251953125,-0.0986378937959671,-0.003911118488758802,0.07168909907341003
1782845353710338600,3.324338623046875,-0.09862671047449112,0.014491324312984943,0.08410102874040604
1782845353720342300,3.33434228515625,-0.08995892107486725,0.03883075341582298,0.08556470274925232
1782845353730347500,3.344347412109375,-0.07098549604415894,0.06053711473941803,0.059604741632938385
1782845353740351500,3.3543515625,-0.0469435416162014,0.06435315310955048,0.038967639207839966
1782845353750355500,3.36435546875,-0.019466908648610115,0.04243640601634979,0.015000521205365658
1782845353760360400,3.3743603515625,-0.0009326389990746975,0.0075822859071195126,-0.02052977681159973
1782845353770364400,3.384364501953125,0.02064402587711811,-0.015534484758973122,-0.0629936158657074
1782845353780369400,3.394369384765625,0.041060883551836014,-0.018192319199442863,-0.1089073121547699
1782845353790373600,3.40437353515625,0.054661646485328674,-0.013866014778614044,-0.13608726859092712
1782845353800378600,3.414378662109375,0.052200354635715485,-0.004217115696519613,-0.1341996192932129
1782845353810382300,3.42438232421875,0.0321962870657444,0.004343349486589432,-0.11689146608114243
1782845353820387300,3.43438720703125,0.00398781755939126,0.02100861258804798,-0.10678450018167496
1782845353830391300,3.444391357421875,-0.016698818653821945,0.04674060642719269,-0.10789983719587326
1782845353840396300,3.454396240234375,-0.0230544526129961,0.06424849480390549,-0.11539663374423981
1782845353850400500,3.464400390625,-0.011663846671581268,0.0740867406129837,-0.12064998596906662
1782845353860404500,3.474404541015625,0.008262990042567253,0.06946216523647308,-0.12783733010292053
1782845353870409500,3.484409423828125,0.03223570063710213,0.07299724221229553,-0.13923698663711548
1782845353880413400,3.494413330078125,0.05371995270252228,0.08107514679431915,-0.1568191796541214
1782845353890418400,3.50441845703125,0.07069680839776993,0.08690906316041946,-0.16351382434368134
1782845353900422700,3.514422607421875,0.09139729291200638,0.08478492498397827,-0.15469050407409668
1782845353910427600,3.524427734375,0.10547342896461487,0.0767136886715889,-0.14045244455337524
1782845353920431400,3.534431396484375,0.11517026275396347,0.06251424551010132,-0.12662851810455322
1782845353930436400,3.544436279296875,0.12343991547822952,0.03440617769956589,-0.11924143880605698
1782845353940440300,3.5544404296875,0.12537150084972382,0.01104599330574274,-0.09619657695293427
1782845353950445300,3.5644453125,0.1253238320350647,-0.019816847518086433,-0.06549938023090363
1782845353960449500,3.574449462890625,0.12327826023101807,-0.053711432963609695,-0.03681686893105507
1782845353970453500,3.58445361328125,0.12143481522798538,-0.08994507044553757,0.0020298613235354424
1782845353980458500,3.59445849609375,0.11192813515663147,-0.11606775224208832,0.05754078924655914
1782845353990462500,3.60446240234375,0.09477338194847107,-0.11897139251232147,0.10865537077188492
1782845354000467500,3.614467529296875,0.07596667110919952,-0.10317005962133408,0.15157754719257355
1782845354010471700,3.6244716796875,0.051468249410390854,-0.07581540197134018,0.18797975778579712
1782845354020476700,3.6344765625,0.021094366908073425,-0.036675188690423965,0.22106021642684937
1782845354030480400,3.64448046875,-0.025188444182276726,-0.0005254416610114276,0.251985102891922
1782845354040485400,3.6544853515625,-0.05649709701538086,0.03512150049209595,0.27717408537864685
1782845354050489300,3.6644892578125,-0.08798631280660629,0.06469058245420456,0.2943544089794159
1782845354060494300,3.674494384765625,-0.10955232381820679,0.07995608448982239,0.31666475534439087
1782845354070498600,3.68449853515625,-0.12997131049633026,0.08846727758646011,0.33267781138420105
1782845354080502500,3.69450244140625,-0.14649143815040588,0.09722881764173508,0.34089046716690063
1782845354090507500,3.704507568359375,-0.1561587154865265,0.10292504727840424,0.3357686698436737
1782845354100511500,3.714511474609375,-0.16332261264324188,0.10808359086513519,0.31353580951690674
1782845354110516500,3.7245166015625,-0.17900703847408295,0.10543134808540344,0.27544116973876953
1782845354120520700,3.734520751953125,-0.1867150217294693,0.10134153813123703,0.22032678127288818
1782845354130525700,3.744525634765625,-0.19352206587791443,0.1006443202495575,0.1627737432718277
1782845354140529400,3.754529296875,-0.20099543035030365,0.08640892058610916,0.1069251149892807
1782845354150534400,3.764534423828125,-0.2090168595314026,0.0644889771938324,0.061107560992240906
1782845354160538400,3.774538330078125,-0.21548621356487274,0.045581333339214325,0.017527062445878983
1782845354170543400,3.78454345703125,-0.2232474684715271,0.02689393237233162,-0.025903236120939255
1782845354180547600,3.794547607421875,-0.22372150421142578,0.012632970698177814,-0.05122270807623863
1782845354190551600,3.804551513671875,-0.21174447238445282,-0.005005144979804754,-0.06018611043691635
1782845354200556500,3.814556640625,-0.20039993524551392,-0.0167936272919178,-0.05594316124916077
1782845354210560500,3.824560546875,-0.18276821076869965,-0.021082649007439613,-0.04225344583392143
1782845354220565500,3.8345654296875,-0.15723170340061188,-0.008992962539196014,-0.025552231818437576
1782845354230569500,3.844569580078125,-0.1369064599275589,0.001418932224623859,-0.004689826630055904
1782845354240574500,3.854574462890625,-0.11590929329395294,0.018676215782761574,0.02082405611872673
1782845354250578400,3.864578369140625,-0.08579107373952866,0.022119417786598206,0.04128698632121086
1782845354260583400,3.87458349609375,-0.06408817321062088,0.021515145897865295,0.04930336773395538
1782845354270587400,3.88458740234375,-0.05020564794540405,0.013815946877002716,0.056167133152484894
1782845354280592400,3.89459228515625,-0.030850857496261597,-0.00452923821285367,0.05142883583903313
1782845354290596600,3.9045966796875,-0.021167868748307228,-0.022638732567429543,0.055743955075740814
1782845354300600600,3.9146005859375,-0.02285631373524666,-0.03297659009695053,0.050212569534778595
1782845354310605600,3.92460546875,-0.03309962898492813,-0.022465627640485764,0.02027464471757412
1782845354320609500,3.934609619140625,-0.048029575496912,-0.002628007438033819,-0.02912592701613903
1782845354330614500,3.944614501953125,-0.05787075683474541,0.016561932861804962,-0.09421171993017197
1782845354340618500,3.954618408203125,-0.06645705550909042,0.03344584256410599,-0.15610091388225555
1782845354350623500,3.96462353515625,-0.07188324630260468,0.043001264333724976,-0.19328823685646057
1782845354360627500,3.97462744140625,-0.07864367961883545,0.035952143371105194,-0.20902937650680542
1782845354370632400,3.984632568359375,-0.0965326651930809,0.027544276788830757,-0.20385219156742096
1782845354380636400,3.994636474609375,-0.11258886009454727,0.013251623138785362,-0.19948354363441467
1782845354390640400,4.004640380859375,-0.13125495612621307,0.00839588139206171,-0.20788875222206116
1782845354400645400,4.014645263671875,-0.13517220318317413,0.0030751521699130535,-0.21577277779579163
1782845354410649600,4.024649658203125,-0.13388003408908844,-0.002223206916823983,-0.21839119493961334
1782845354420654600,4.034654541015625,-0.11763501912355423,-0.010547716170549393,-0.2133018970489502
1782845354430658600,4.044658447265625,-0.08503925800323486,-0.027606327086687088,-0.1959194391965866
1782845354440663600,4.05466357421875,-0.04683221876621246,-0.0452689453959465,-0.177285298705101
1782845354450667300,4.064667236328125,-0.0011025486746802926,-0.059724848717451096,-0.1642877459526062
1782845354460672300,4.07467236328125,0.04813157767057419,-0.08342725038528442,-0.13566727936267853
1782845354470676500,4.084676513671875,0.09246228635311127,-0.09584157168865204,-0.10297191888093948
1782845354480681500,4.094681396484375,0.12684370577335358,-0.10595732182264328,-0.06036294251680374
1782845354490685400,4.104685546875,0.15207794308662415,-0.11098244041204453,-0.02346298098564148
1782845354500689400,4.114689453125,0.1761329472064972,-0.11710771173238754,0.0024410535115748644
1782845354510694400,4.1246943359375,0.18457730114459991,-0.12237677723169327,0.02292635478079319
1782845354520698600,4.13469873046875,0.18438822031021118,-0.1396244764328003,0.023261379450559616
1782845354530703600,4.14470361328125,0.16946253180503845,-0.14846935868263245,0.018503110855817795
1782845354540707600,4.15470751953125,0.14417049288749695,-0.1545885056257248,0.00777589762583375
1782845354550712600,4.164712646484375,0.1113467663526535,-0.15224093198776245,-0.0034671693574637175
1782845354560716300,4.17471630859375,0.07067656517028809,-0.13148771226406097,-0.005253617651760578
1782845354570721300,4.18472119140625,0.024099210277199745,-0.10484572499990463,0.01212750282138586
1782845354580725500,4.1947255859375,-0.025346102192997932,-0.07649184763431549,0.03797561302781105
1782845354590730500,4.20473046875,-0.05841324105858803,-0.04835927486419678,0.06800967454910278
1782845354600734500,4.214734375,-0.07617812603712082,-0.03201385959982872,0.11107485741376877
1782845354610738400,4.224738525390625,-0.08498573303222656,-0.03398140147328377,0.16115932166576385
1782845354620743400,4.234743408203125,-0.0870446190237999,-0.046302251517772675,0.2049504816532135
1782845354630747600,4.24474755859375,-0.0755767822265625,-0.05102243646979332,0.2451879233121872
1782845354640752600,4.254752685546875,-0.06541869044303894,-0.050693005323410034,0.27998557686805725
1782845354650756400,4.26475634765625,-0.0651363953948021,-0.038171619176864624,0.2997736632823944
1782845354660761300,4.27476123046875,-0.06807705760002136,-0.02063177525997162,0.28766506910324097
1782845354670765300,4.284765380859375,-0.07717547565698624,0.006489058490842581,0.26085343956947327
1782845354680770300,4.294770263671875,-0.0870337039232254,0.03501098230481148,0.20421332120895386
1782845354690774500,4.3047744140625,-0.10149599611759186,0.044924862682819366,0.09629298001527786
1782845354700779500,4.314779541015625,-0.12132376432418823,0.040939975529909134,-0.03647705167531967
1782845354710783200,4.324783203125,-0.15195012092590332,0.006228601094335318,-0.16423821449279785
1782845354720787200,4.334787109375,-0.1831200271844864,-0.023987891152501106,-0.28385835886001587
1782845354730792200,4.344792236328125,-0.21293143928050995,-0.05347920209169388,-0.37920084595680237
1782845354740796400,4.35479638671875,-0.22643128037452698,-0.08651944249868393,-0.4402413070201874
1782845354750801400,4.364801513671875,-0.21000996232032776,-0.12292565405368805,-0.4669938087463379
1782845354760805400,4.374805419921875,-0.1744554191827774,-0.15717816352844238,-0.4543642997741699
1782845354770810400,4.384810302734375,-0.1197783350944519,-0.17488045990467072,-0.39573508501052856
1782845354780814300,4.394814453125,-0.05188290402293205,-0.18376770615577698,-0.3025430738925934
1782845354790819300,4.4048193359375,0.017284980043768883,-0.17341598868370056,-0.20847943425178528
1782845354800823600,4.414823486328125,0.08085117489099503,-0.14657825231552124,-0.12832655012607574
1782845354810828500,4.42482861328125,0.1271986961364746,-0.115241639316082,-0.05674637109041214
1782845354820832300,4.434832275390625,0.1612834334373474,-0.08570931106805801,0.0001395496365148574
1782845354830836200,4.444836181640625,0.18463802337646484,-0.07808680832386017,0.0424923337996006
1782845354840841200,4.45484130859375,0.20665358006954193,-0.0702240988612175,0.07458528876304626
1782845354850845400,4.464845458984375,0.2101375162601471,-0.06334701180458069,0.08699055761098862
1782845354860850400,4.474850341796875,0.20543144643306732,-0.054602257907390594,0.09310304373502731
1782845354870854400,4.4848544921875,0.19298437237739563,-0.035709794610738754,0.10044218599796295
1782845354880859400,4.494859375,0.15720292925834656,-0.026024144142866135,0.11203625798225403
1782845354890863400,4.50486328125,0.09235549718141556,-0.0015622102655470371,0.127900168299675
1782845354900868400,4.514868408203125,0.0075692362152040005,0.02112206257879734,0.12078101187944412
1782845354910872600,4.52487255859375,-0.07784845679998398,0.036609143018722534,0.09782296419143677
1782845354920877600,4.534877685546875,-0.15626098215579987,0.02791711874306202,0.07128775864839554
1782845354930881300,4.54488134765625,-0.22014887630939484,0.01492542028427124,0.029271602630615234
1782845354940885200,4.55488525390625,-0.2606566250324249,0.003976099658757448,-0.023746341466903687
1782845354950890200,4.56489013671875,-0.2890065014362335,-0.024341825395822525,-0.060865215957164764
1782845354960894500,4.57489453125,-0.2984287738800049,-0.06035415455698967,-0.06468045711517334
1782845354970899500,4.5848994140625,-0.30828219652175903,-0.0843694731593132,-0.05795437842607498
1782845354980903400,4.5949033203125,-0.30749204754829407,-0.09982220083475113,-0.03315103054046631
1782845354990908400,4.604908447265625,-0.30060216784477234,-0.09700297564268112,-0.034201644361019135
1782845355000912400,4.614912353515625,-0.2826298475265503,-0.09114348888397217,-0.047441817820072174
1782845355010917400,4.62491748046875,-0.2571084797382355,-0.08994187414646149,-0.05980021506547928
1782845355020921300,4.63492138671875,-0.2274472713470459,-0.08613914251327515,-0.07517650723457336
1782845355030926600,4.644926513671875,-0.2000230997800827,-0.06989333033561707,-0.09871991723775864
1782845355040930300,4.654930419921875,-0.17272303998470306,-0.05048660933971405,-0.11450900137424469
1782845355050934300,4.664934326171875,-0.14744244515895844,-0.04581276327371597,-0.10736986249685287
1782845355060939300,4.674939208984375,-0.1260434240102768,-0.04747271165251732,-0.09525168687105179
1782845355070943200,4.684943115234375,-0.10411148518323898,-0.045042309910058975,-0.08621238172054291
1782845355080948500,4.694948486328125,-0.07855872064828873,-0.0439930222928524,-0.07780584692955017
1782845355090952400,4.704952392578125,-0.05830085650086403,-0.041973549872636795,-0.07736483216285706
1782845355100957400,4.71495751953125,-0.04218553751707077,-0.05203869938850403,-0.09090647101402283
1782845355110961400,4.72496142578125,-0.03299230337142944,-0.05472023785114288,-0.11348767578601837
1782845355120966400,4.73496630859375,-0.038782548159360886,-0.056602559983730316,-0.1490533947944641
1782845355130970000,4.74497021484375,-0.03801342844963074,-0.05414659157395363,-0.1713951826095581
1782845355140975400,4.754975341796875,-0.03813859820365906,-0.0484175980091095,-0.16953417658805847
1782845355150979300,4.764979248046875,-0.04005340859293938,-0.043526969850063324,-0.14250628650188446
1782845355160983300,4.7749833984375,-0.033738523721694946,-0.037870150059461594,-0.11132998764514923
1782845355170988300,4.78498828125,-0.02010207250714302,-0.026148246601223946,-0.08185172080993652
1782845355180992300,4.7949921875,0.0036935380194336176,-0.020436033606529236,-0.028864936903119087
1782845355190997200,4.804997314453125,0.028728051111102104,-0.01756461337208748,0.02388961985707283
1782845355201001500,4.81500146484375,0.06060529127717018,-0.01948847994208336,0.0822240337729454
1782845355211006500,4.82500634765625,0.08598201721906662,-0.025955701246857643,0.14596518874168396
1782845355221010400,4.835010498046875,0.1136954054236412,-0.017912155017256737,0.19483420252799988
1782845355231015400,4.845015380859375,0.13921168446540833,0.0033015208318829536,0.219480961561203
1782845355241019100,4.85501904296875,0.16184189915657043,0.023780696094036102,0.20103058218955994
1782845355251023400,4.8650234375,0.1872497797012329,0.04903145879507065,0.158250093460083
1782845355261028400,4.8750283203125,0.21151384711265564,0.06901422142982483,0.08829577267169952
1782845355271032300,4.8850322265625,0.24561509490013123,0.08057233691215515,0.009393768385052681
1782845355281037300,4.895037353515625,0.28060317039489746,0.08590026199817657,-0.0671558678150177
1782845355291041300,4.905041259765625,0.3107304573059082,0.07136712223291397,-0.11982174217700958
1782845355301046300,4.91504638671875,0.347995787858963,0.05619083344936371,-0.16736716032028198
1782845355311050500,4.925050537109375,0.378814160823822,0.048284441232681274,-0.20661282539367676
1782845355321055500,4.935055419921875,0.4056130051612854,0.04683142155408859,-0.245784193277359
1782845355331059500,4.9450595703125,0.42952606081962585,0.03786642104387283,-0.26544925570487976
1782845355341064400,4.955064453125,0.4447910487651825,0.03080052323639393,-0.27906838059425354
1782845355351068200,4.965068115234375,0.44374150037765503,0.021158814430236816,-0.26733049750328064
1782845355361072400,4.975072265625,0.4350193738937378,0.01497921533882618,-0.24344061315059662
1782845355371077400,4.985077392578125,0.41812559962272644,0.016920126974582672,-0.2123146504163742
1782845355381081300,4.995081298828125,0.4016803205013275,0.010991131886839867,-0.1819666028022766
1782845355391086300,5.00508642578125,0.3792077600955963,0.0034314829390496016,-0.16079527139663696
1782845355401090300,5.01509033203125,0.3535897731781006,-0.005949501879513264,-0.13479216396808624
1782845355411095300,5.02509521484375,0.33009669184684753,-0.010565824806690216,-0.10618981719017029
1782845355421099500,5.035099609375,0.3019273579120636,-0.005018194206058979,-0.07979070395231247
1782845355431104500,5.0451044921875,0.2685464918613434,0.00013156015484128147,-0.058641474694013596
1782845355441108500,5.0551083984375,0.22406984865665436,0.006253900937736034,-0.04340127110481262
1782845355451113500,5.065113525390625,0.17725467681884766,0.009694971144199371,-0.034566763788461685
1782845355461117200,5.0751171875,0.1334826946258545,0.006770820822566748,-0.034387536346912384
1782845355471121400,5.085121337890625,0.09183032065629959,0.0005107942852191627,-0.03431003540754318
1782845355481126400,5.09512646484375,0.057382866740226746,-0.00771677540615201,-0.03735988959670067
1782845355491130400,5.10513037109375,0.04007604718208313,-0.025950640439987183,-0.03249562531709671
1782845355501135400,5.11513525390625,0.040166594088077545,-0.03463973477482796,-0.033899109810590744
1782845355511139300,5.125139404296875,0.060808490961790085,-0.03614601865410805,-0.025105087086558342
1782845355521144300,5.135144287109375,0.09228891879320145,-0.04242335632443428,-0.007643538527190685
1782845355531148500,5.1451484375,0.1424327790737152,-0.05038034915924072,0.009272327646613121
1782845355541153500,5.155153564453125,0.19908247888088226,-0.05716794729232788,0.0024919197894632816
1782845355551157200,5.1651572265625,0.2648652195930481,-0.05470772087574005,-0.02840527519583702
1782845355561162200,5.175162353515625,0.3152082860469818,-0.04403670132160187,-0.06325007230043411
1782845355571166200,5.185166259765625,0.352177232503891,-0.04153865575790405,-0.0781528577208519
1782845355581170400,5.19517041015625,0.37335655093193054,-0.0499422587454319,-0.07683805376291275
1782845355591175400,5.205175537109375,0.3731924891471863,-0.024331972002983093,-0.06897134333848953
1782845355601179400,5.215179443359375,0.35972434282302856,-0.014840731397271156,-0.055208925157785416
1782845355611184400,5.225184326171875,0.34263190627098083,-0.00216568261384964,-0.029258552938699722
1782845355621188400,5.235188232421875,0.3188818395137787,0.01074159424751997,0.006013683974742889
1782845355631193300,5.245193359375,0.29294851422309875,0.028027107939124107,0.04944904148578644
1782845355641197600,5.255197509765625,0.26871320605278015,0.04742823541164398,0.09417470544576645
1782845355651202600,5.26520263671875,0.23842908442020416,0.061584267765283585,0.1404055804014206
1782845355661206300,5.275206298828125,0.20508870482444763,0.07622366398572922,0.1782967746257782
1782845355671211300,5.285211181640625,0.17345914244651794,0.09690391272306442,0.2124161273241043
1782845355681215200,5.29521533203125,0.14944781363010406,0.09818915277719498,0.23733611404895782
1782845355691219500,5.305219482421875,0.1263185292482376,0.0921509638428688,0.2591250538825989
1782845355701224400,5.315224365234375,0.11902332305908203,0.07370617985725403,0.2685840427875519
1782845355711228400,5.325228515625,0.12197144329547882,0.05458894371986389,0.27303045988082886
1782845355721233400,5.3352333984375,0.1374681144952774,0.045397043228149414,0.2736174166202545
1782845355731237400,5.3452373046875,0.16555887460708618,0.05199582129716873,0.27543771266937256
1782845355741242400,5.355242431640625,0.1983216106891632,0.07477863132953644,0.29020172357559204
1782845355751246300,5.365246337890625,0.25029534101486206,0.10819651186466217,0.29762476682662964
1782845355761251300,5.375251220703125,0.3155971169471741,0.1475827991962433,0.3197641372680664
1782845355771255300,5.38525537109375,0.3742747902870178,0.15949378907680511,0.33466002345085144
1782845355781259300,5.39525927734375,0.41906410455703735,0.16233937442302704,0.329875111579895
1782845355791264300,5.40526416015625,0.4509083330631256,0.16818182170391083,0.27534767985343933
1782845355801268200,5.415268310546875,0.45519548654556274,0.1633966565132141,0.1646917462348938
1782845355811273200,5.425273193359375,0.445424348115921,0.1537671983242035,-0.00315930787473917
1782845355821277400,5.43527734375,0.42043590545654297,0.14553776383399963,-0.21424971520900726
1782845355831282400,5.445282470703125,0.3944575786590576,0.13129384815692902,-0.4059363305568695
1782845355841286400,5.455286376953125,0.3669452369213104,0.09467057883739471,-0.5482228994369507
1782845355851291400,5.46529150390625,0.342167466878891,0.02455061674118042,-0.6055322289466858
1782845355861295000,5.475295166015625,0.3232691287994385,-0.07877284288406372,-0.604230523109436
1782845355871300000,5.485300048828125,0.2980513870716095,-0.19032441079616547,-0.5765312314033508
1782845355881304300,5.49530419921875,0.28316086530685425,-0.2614648938179016,-0.5360701084136963
1782845355891308300,5.505308349609375,0.27092817425727844,-0.29410111904144287,-0.47983452677726746
1782845355901313300,5.515313232421875,0.2611040472984314,-0.2783661186695099,-0.3740715980529785
1782845355911317200,5.525317138671875,0.24303768575191498,-0.22194305062294006,-0.21526756882667542
1782845355921322200,5.535322265625,0.21476316452026367,-0.14947843551635742,-0.029405292123556137
1782845355931326500,5.545326416015625,0.18633206188678741,-0.052023787051439285,0.13022059202194214
1782845355941331500,5.55533154296875,0.1676502525806427,0.032412800937891006,0.24923352897167206
1782845355951335200,5.565335205078125,0.15097513794898987,0.060323793441057205,0.33094489574432373
1782845355961340200,5.575340087890625,0.13752403855323792,0.05642492696642876,0.3735959529876709
1782845355971344100,5.58534423828125,0.11676070094108582,0.03320322558283806,0.3803659677505493
1782845355981349000,5.59534912109375,0.0911317765712738,0.009771670214831829,0.36142319440841675
1782845355991353300,5.605353271484375,0.07225102931261063,-0.008376972749829292,0.33018961548805237
1782845356001357300,5.615357421875,0.04150829464197159,-0.02358229085803032,0.27627846598625183
1782845356011362300,5.6253623046875,-0.0033449302427470684,-0.034385137259960175,0.20648632943630219
1782845356021366300,5.6353662109375,-0.04778909310698509,-0.036983851343393326,0.13635890185832977
1782845356031371300,5.645371337890625,-0.09449508041143417,-0.03025990165770054,0.07420206069946289
1782845356041375500,5.65537548828125,-0.1382763832807541,-0.020412864163517952,0.02063923142850399
1782845356051380500,5.66538037109375,-0.17056187987327576,0.002189651131629944,-0.02250690758228302
1782845356061384200,5.67538427734375,-0.19448798894882202,0.03319497033953667,-0.05421902984380722
1782845356071389200,5.68538916015625,-0.20610150694847107,0.048775795847177505,-0.07583297789096832
1782845356081393200,5.69539306640625,-0.19592715799808502,0.06516648828983307,-0.07575228810310364
1782845356091398100,5.705398193359375,-0.16730457544326782,0.07041610777378082,-0.06888718903064728
1782845356101402400,5.71540234375,-0.13016386330127716,0.07210242003202438,-0.04934278130531311
1782845356111406300,5.72540625,-0.08739562332630157,0.06411001086235046,-0.029573604464530945
1782845356121411300,5.735411376953125,-0.04983866214752197,0.03675348684191704,-0.007441671099513769
1782845356131415300,5.745415283203125,-0.013794641941785812,-0.001913214917294681,0.007731156423687935
1782845356141420300,5.755420166015625,0.02098996937274933,-0.03642218932509422,0.021281586959958076
1782845356151424500,5.765424560546875,0.056410279124975204,-0.06662536412477493,0.04944824427366257
1782845356161429500,5.775429443359375,0.08584513515233994,-0.08960897475481033,0.08762732148170471
1782845356171433200,5.78543310546875,0.10374104231595993,-0.0976615771651268,0.12254402786493301
1782845356181438200,5.795438232421875,0.10204940289258957,-0.08762918412685394,0.15113545954227448
1782845356191442200,5.805442138671875,0.08805795013904572,-0.06787066161632538,0.16834719479084015
1782845356201446400,5.8154462890625,0.05957331508398056,-0.04617095738649368,0.196882963180542
1782845356211451400,5.825451416015625,0.03277578949928284,-0.01601332053542137,0.21926896274089813
1782845356221455400,5.835455322265625,0.01558055728673935,0.011111240833997726,0.22844143211841583
1782845356231460400,5.84546044921875,-0.012140552513301373,0.04910602793097496,0.23541918396949768
1782845356241464300,5.85546435546875,-0.0498059056699276,0.08720041811466217,0.21295568346977234
1782845356251469300,5.86546923828125,-0.08075423538684845,0.12560532987117767,0.18032635748386383
1782845356261473500,5.8754736328125,-0.11333667486906052,0.14618277549743652,0.14480271935462952
1782845356271478500,5.885478515625,-0.15014396607875824,0.15296530723571777,0.11282268911600113
1782845356281482200,5.895482177734375,-0.18792462348937988,0.1618296504020691,0.07839494198560715
1782845356291487200,5.9054873046875,-0.22212308645248413,0.1581030786037445,0.05032069608569145
1782845356301491200,5.9154912109375,-0.24810035526752472,0.14757214486598969,0.019228288903832436
1782845356311495400,5.925495361328125,-0.2701007127761841,0.13339880108833313,-0.007162838242948055
1782845356321500400,5.93550048828125,-0.29304200410842896,0.12064199894666672,-0.032464999705553055
1782845356331504400,5.94550439453125,-0.3244289457798004,0.10358444601297379,-0.049982208758592606
1782845356341509400,5.95550927734375,-0.3601331412792206,0.08643635362386703,-0.0651337280869484
1782845356351513300,5.965513427734375,-0.39305248856544495,0.07149921357631683,-0.07200415432453156
1782845356361518300,5.975518310546875,-0.42439335584640503,0.062373097985982895,-0.07856617867946625
1782845356371522300,5.985522216796875,-0.44952213764190674,0.06298216432332993,-0.08060163259506226
1782845356381527300,5.99552734375,-0.46575066447257996,0.059548813849687576,-0.08840096741914749
1782845356391531300,6.00553125,-0.46179214119911194,0.06454011052846909,-0.10419245064258575
1782845356401536300,6.015536376953125,-0.4407379627227783,0.06844377517700195,-0.1186014786362648
1782845356411540200,6.025540283203125,-0.40499863028526306,0.07093116641044617,-0.1327974647283554
1782845356421544200,6.035544189453125,-0.35584038496017456,0.06454090774059296,-0.1422458291053772
1782845356431549200,6.045549072265625,-0.3090004622936249,0.07409632951021194,-0.14557690918445587
1782845356441553400,6.055553466796875,-0.2649371325969696,0.061822086572647095,-0.14336088299751282
1782845356451558400,6.065558349609375,-0.21983355283737183,0.05982818081974983,-0.1369469314813614
1782845356461562400,6.075562255859375,-0.18332375586032867,0.053826212882995605,-0.13503824174404144
1782845356471567400,6.0855673828125,-0.16694344580173492,0.04807085543870926,-0.13778263330459595
1782845356481571000,6.095571044921875,-0.15107128024101257,0.02081366814672947,-0.1461111307144165
1782845356491576300,6.105576416015625,-0.1352188140153885,-0.009378854185342789,-0.16045811772346497
1782845356501580300,6.115580322265625,-0.12769830226898193,-0.037884797900915146,-0.17181383073329926
1782845356511585300,6.125585205078125,-0.13672375679016113,-0.05775038152933121,-0.16568750143051147
1782845356521589200,6.13558935546875,-0.15056714415550232,-0.08796953409910202,-0.155284121632576
1782845356531593200,6.14559326171875,-0.15545830130577087,-0.11226262897253036,-0.14165407419204712
1782845356541598200,6.15559814453125,-0.1380113959312439,-0.13318148255348206,-0.11499529331922531
1782845356551602400,6.1656025390625,-0.10659302026033401,-0.1446775496006012,-0.08167248964309692
1782845356561607400,6.175607421875,-0.06752897799015045,-0.14919348061084747,-0.05812322348356247
1782845356571611400,6.185611328125,-0.0417674221098423,-0.1322200894355774,-0.020486099645495415
1782845356581616400,6.195616455078125,-0.029217272996902466,-0.121265709400177,0.017169665545225143
1782845356591620000,6.2056201171875,-0.022551914677023888,-0.10913367569446564,0.04983679950237274
1782845356601625000,6.215625,-0.021947909146547318,-0.10261265933513641,0.06883259117603302
1782845356611629300,6.22562939453125,-0.024107467383146286,-0.08884917944669724,0.06935030966997147
1782845356621633300,6.23563330078125,-0.040278978645801544,-0.06850289553403854,0.0565013587474823
1782845356631638300,6.24563818359375,-0.06046946719288826,-0.03857535496354103,0.031083351001143456
1782845356641642200,6.255642333984375,-0.08403338491916656,-0.004995557479560375,-0.002433330286294222
1782845356651647200,6.265647216796875,-0.10694295912981033,0.016105467453598976,-0.03961558640003204
1782845356661651500,6.2756513671875,-0.11941241472959518,0.020552946254611015,-0.06492707133293152
1782845356671656400,6.285656494140625,-0.11277315020561218,0.01324123702943325,-0.08590798079967499
1782845356681660700,6.29566064453125,-0.09160581976175308,-0.004804342519491911,-0.08882920444011688
1782845356691665700,6.305665771484375,-0.07093808799982071,-0.026341592893004417,-0.08880550414323807
1782845356701669600,6.315669677734375,-0.046001847833395004,-0.05433833971619606,-0.08237689733505249
1782845356711674600,6.325674560546875,-0.014455637894570827,-0.08085809648036957,-0.061095044016838074
1782845356721678800,6.335678955078125,0.024390028789639473,-0.09157013148069382,-0.026044117286801338
1782845356731682800,6.345682861328125,0.05692480131983757,-0.10062461346387863,0.011713913641870022
1782845356741687800,6.355687744140625,0.0858086496591568,-0.09828422218561172,0.054241932928562164
1782845356751691800,6.36569189453125,0.09940595179796219,-0.08253295719623566,0.10789930075407028
1782845356761696800,6.37569677734375,0.09828502684831619,-0.06973620504140854,0.16138143837451935
1782845356771700700,6.38570068359375,0.072915218770504,-0.06895855814218521,0.18673020601272583
1782845356781705700,6.395705810546875,0.026610571891069412,-0.10266219824552536,0.18110667169094086
1782845356791709700,6.405709716796875,-0.023753000423312187,-0.13347230851650238,0.14291933178901672
1782845356801714700,6.415714599609375,-0.08004290610551834,-0.14107616245746613,0.0589783638715744
1782845356811718700,6.42571875,-0.14016856253147125,-0.11222746968269348,-0.05795704200863838
1782845356821723600,6.4357236328125,-0.1958848237991333,-0.09790179878473282,-0.16907663643360138
1782845356831727600,6.4457275390625,-0.24820154905319214,-0.07401616871356964,-0.27374738454818726
1782845356841731800,6.45573193359375,-0.2680650055408478,-0.055568721145391464,-0.35954299569129944
1782845356851736800,6.46573681640625,-0.25023648142814636,-0.06847519427537918,-0.40193384885787964
1782845356861740800,6.47574072265625,-0.22883211076259613,-0.117437943816185,-0.3733368217945099
1782845356871745800,6.485745849609375,-0.21378739178180695,-0.15142974257469177,-0.30345815420150757
1782845356881749500,6.49574951171875,-0.18112798035144806,-0.16574636101722717,-0.2285253256559372
1782845356891754800,6.505754638671875,-0.1206851378083229,-0.16873735189437866,-0.1630517691373825
1782845356901758700,6.5157587890625,-0.04626869410276413,-0.16712427139282227,-0.09875400364398956
1782845356911763700,6.525763671875,0.032216258347034454,-0.1542779803276062,-0.02509762905538082
1782845356921767700,6.535767578125,0.09674358367919922,-0.1359383910894394,0.059361327439546585
1782845356931772700,6.545772705078125,0.14395743608474731,-0.12208463251590729,0.13005892932415009
1782845356941776600,6.555776611328125,0.18278659880161285,-0.09831219166517258,0.1723451316356659
1782845356951780900,6.56578076171875,0.22090788185596466,-0.10344037413597107,0.2025405913591385
1782845356961785900,6.575785888671875,0.23976944386959076,-0.0921054258942604,0.21720635890960693
1782845356971789800,6.585789794921875,0.23234695196151733,-0.08389143645763397,0.21525105834007263
1782845356981794800,6.595794921875,0.21190638840198517,-0.0755474865436554,0.2011440247297287
1782845356991798500,6.605798583984375,0.18024487793445587,-0.0636436939239502,0.18108350038528442
1782845357001803500,6.615803466796875,0.12306200712919235,-0.048043690621852875,0.1537533402442932
1782845357011807700,6.625807861328125,0.06187375262379646,-0.043658796697854996,0.11522139608860016
1782845357021812700,6.635812744140625,0.0060445768758654594,-0.05560440570116043,0.07362867891788483
1782845357031816700,6.645816650390625,-0.028199680149555206,-0.052261073142290115,0.03807654604315758
1782845357041820700,6.655820556640625,-0.07104142010211945,-0.040279779583215714,0.020557206124067307
1782845357051825700,6.66582568359375,-0.0938820168375969,-0.02594424970448017,0.022456839680671692
1782845357061830000,6.675829833984375,-0.09740059077739716,-0.014140852726995945,0.04279673099517822
1782845357071835000,6.6858349609375,-0.09806158393621445,0.009945841506123543,0.06937241554260254
1782845357081838600,6.695838623046875,-0.10198868066072464,0.03062954731285572,0.11564723402261734
1782845357091843600,6.705843505859375,-0.09012269973754883,0.04349128529429436,0.1686508059501648
1782845357101847600,6.71584765625,-0.07427103817462921,0.05248557776212692,0.2139786034822464
1782845357111852500,6.7258525390625,-0.06296804547309875,0.06397152692079544,0.22576895356178284
1782845357121856800,6.735856689453125,-0.05140593275427818,0.07753287255764008,0.1994478553533554
1782845357131861800,6.74586181640625,-0.041836928576231,0.08046874403953552,0.1414516717195511
1782845357141865700,6.75586572265625,-0.031252194195985794,0.06920730322599411,0.06285326182842255
1782845357151869700,6.76586962890625,-0.026679813861846924,0.049843721091747284,-0.02882525697350502
1782845357161874700,6.775874755859375,-0.022661369293928146,0.03205274045467377,-0.13452105224132538
1782845357171879000,6.78587890625,-0.02257668226957321,0.018197380006313324,-0.24203260242938995
1782845357181884000,6.7958837890625,-0.02707156538963318,0.0008908273885026574,-0.3416033983230591
1782845357191887600,6.8058876953125,-0.020502345636487007,-0.020292488858103752,-0.4352918267250061
1782845357201892600,6.815892578125,-0.011479555629193783,-0.049253832548856735,-0.5034573078155518
1782845357211896600,6.825896484375,-0.0027750139124691486,-0.08478999137878418,-0.5432483553886414
1782845357221901600,6.835901611328125,0.004551874939352274,-0.10408512502908707,-0.5576171875
1782845357231905800,6.84590576171875,0.010998056270182133,-0.10676825791597366,-0.5425769686698914
1782845357241909800,6.85590966796875,0.019089005887508392,-0.09761683642864227,-0.494740754365921
1782845357251914800,6.865914794921875,0.02183392643928528,-0.09021750837564468,-0.4051770567893982
1782845357261918700,6.875918701171875,0.029995182529091835,-0.08468665927648544,-0.2758467495441437
1782845357271923700,6.885923828125,0.03618437051773071,-0.07340098172426224,-0.14797134697437286
1782845357281928000,6.895927978515625,0.049850113689899445,-0.057499777525663376,-0.004828843753784895
1782845357291933000,6.905932861328125,0.06317071616649628,-0.040177781134843826,0.13088051974773407
1782845357301936600,6.9159365234375,0.07210002839565277,-0.01661732606589794,0.24855521321296692
1782845357311941600,6.925941650390625,0.07486678659915924,0.009789779782295227,0.33370286226272583
1782845357321945600,6.935945556640625,0.07524947822093964,0.031185083091259003,0.3848118484020233
1782845357331950600,6.94595068359375,0.06079384312033653,0.06114591285586357,0.41358891129493713
1782845357341954800,6.955954833984375,0.04590623825788498,0.09456538408994675,0.41997623443603516
1782845357351958800,6.965958740234375,0.021318338811397552,0.12766608595848083,0.36772048473358154
1782845357361963800,6.9759638671875,0.0083687175065279,0.15530623495578766,0.27632081508636475
1782845357371967700,6.9859677734375,0.006749515421688557,0.15874357521533966,0.145830437541008
1782845357381972700,6.99597265625,0.0192573182284832,0.14228923618793488,0.008098939433693886
1782845357391977000,7.00597705078125,0.04183826223015785,0.11026845127344131,-0.11154890060424805
1782845357401982000,7.01598193359375,0.07647933065891266,0.07021557539701462,-0.20858649909496307
1782845357411985700,7.025985595703125,0.1149715930223465,0.0354304276406765,-0.2795797288417816
1782845357421990700,7.03599072265625,0.1525501310825348,0.0072962623089551926,-0.3115352392196655
1782845357431994600,7.04599462890625,0.18129602074623108,-0.026040121912956238,-0.32771021127700806
1782845357441999600,7.05599951171875,0.2028423249721527,-0.053109556436538696,-0.31109264492988586
1782845357452003800,7.06600390625,0.21547342836856842,-0.06697051227092743,-0.28124046325683594
1782845357462007800,7.0760078125,0.2249380350112915,-0.08225785195827484,-0.24421426653862
1782845357472012800,7.0860126953125,0.22540223598480225,-0.0838533565402031,-0.19288423657417297
1782845357482016800,7.096016845703125,0.22145728766918182,-0.08144425600767136,-0.1331617832183838
1782845357492021800,7.106021728515625,0.20238372683525085,-0.08318144083023071,-0.06966722756624222
1782845357502025700,7.116025634765625,0.16662253439426422,-0.07517784088850021,0.006481335032731295
1782845357512030700,7.12603076171875,0.11769413948059082,-0.08024690300226212,0.08294415473937988
1782845357522034700,7.13603466796875,0.06082979589700699,-0.07137750834226608,0.1463865041732788
1782845357532039700,7.146039794921875,0.0010953581659123302,-0.05296920984983444,0.18436957895755768
1782845357542043600,7.156043701171875,-0.0551958791911602,-0.028865469619631767,0.2029789388179779
1782845357552047600,7.166047607421875,-0.10118813812732697,-0.002415487077087164,0.221182182431221
1782845357562052600,7.176052490234375,-0.13799089193344116,0.026969032362103462,0.2278027981519699
1782845357572056800,7.186056884765625,-0.15914757549762726,0.05685263127088547,0.1874559074640274
1782845357582061800,7.196061767578125,-0.15862692892551422,0.08362965285778046,0.12252724915742874
1782845357592065800,7.206065673828125,-0.1395198106765747,0.08761933445930481,0.04663274809718132
1782845357602070800,7.21607080078125,-0.1026717871427536,0.08231271803379059,-0.00890854001045227
1782845357612074500,7.226074462890625,-0.05029699206352234,0.07220575213432312,-0.04644472897052765
1782845357622079500,7.23607958984375,0.008344748988747597,0.06562881171703339,-0.06477206945419312
1782845357632083700,7.246083740234375,0.058824967592954636,0.06161489337682724,-0.06645971536636353
1782845357642088700,7.256088623046875,0.10125605016946793,0.06347138434648514,-0.053820088505744934
1782845357652092700,7.2660927734375,0.12868207693099976,0.0626458078622818,-0.02424488589167595
1782845357662096600,7.2760966796875,0.14729145169258118,0.07302121073007584,0.006708502769470215
1782845357672101600,7.2861015625,0.1587531566619873,0.08098326623439789,0.04031253606081009
1782845357682105600,7.296105712890625,0.1578996181488037,0.08786141127347946,0.07163503766059875
1782845357692110600,7.306110595703125,0.15081827342510223,0.08819883316755295,0.08790615200996399
1782845357702114600,7.316114501953125,0.14304423332214355,0.09343594312667847,0.08946596831083298
1782845357712119600,7.32611962890625,0.12895211577415466,0.09680697321891785,0.0809856653213501
1782845357722123500,7.33612353515625,0.1109776496887207,0.10495517402887344,0.07075539231300354
1782845357732128500,7.34612841796875,0.09456006437540054,0.11920522153377533,0.055216118693351746
1782845357742132700,7.3561328125,0.08066342025995255,0.14018000662326813,0.047094542533159256
1782845357752137700,7.3661376953125,0.07767641544342041,0.16118383407592773,0.05772561579942703
1782845357762141700,7.3761416015625,0.08285573124885559,0.19801507890224457,0.05799752101302147
1782845357772145400,7.3861455078125,0.10290427505970001,0.21804817020893097,0.06678781658411026
1782845357782150400,7.396150390625,0.13842764496803284,0.2206873744726181,0.06489058583974838
1782845357792154600,7.406154541015625,0.19862841069698334,0.2138209342956543,0.056349027901887894
1782845357802159600,7.41615966796875,0.2793616056442261,0.21208083629608154,0.04766445606946945
1782845357812163600,7.42616357421875,0.3728276491165161,0.215240940451622,0.03641127049922943
1782845357822168600,7.43616845703125,0.475131630897522,0.2226804792881012,0.019364111125469208
1782845357832172500,7.446172607421875,0.5748918056488037,0.2309727668762207,0.00845580268651247
1782845357842177500,7.456177490234375,0.6631561517715454,0.23547297716140747,0.0012602078495547175
1782845357852181800,7.466181640625,0.7367214560508728,0.24380068480968475,-0.012767460197210312
1782845357862185700,7.476185791015625,0.793061375617981,0.2491011619567871,-0.013583719730377197
1782845357872190700,7.486190673828125,0.8361324667930603,0.2370823174715042,0.0003605920064728707
1782845357882194400,7.4961943359375,0.857907235622406,0.21963435411453247,0.009412942454218864
1782845357892199400,7.506199462890625,0.8644871115684509,0.1872364729642868,0.012360263615846634
1782845357902203600,7.51620361328125,0.8533007502555847,0.1304035484790802,0.015162174589931965
1782845357912208600,7.526208740234375,0.8151518106460571,0.07721675932407379,0.00430207047611475
1782845357922212600,7.536212646484375,0.7626379728317261,0.03939454257488251,-0.020893564447760582
1782845357932217600,7.546217529296875,0.6952229738235474,0.045830339193344116,-0.06390894204378128
1782845357942221600,7.5562216796875,0.6127328872680664,0.07393893599510193,-0.14406396448612213
1782845357952226600,7.5662265625,0.5175720453262329,0.11504882574081421,-0.2329070121049881
1782845357962230800,7.576230712890625,0.4097459614276886,0.15731239318847656,-0.30308103561401367
1782845357972234500,7.586234375,0.3149763345718384,0.19206690788269043,-0.3279227316379547
1782845357982239500,7.596239501953125,0.23620028793811798,0.20202739536762238,-0.3246947228908539
1782845357992243500,7.606243408203125,0.17231477797031403,0.16999436914920807,-0.2992655336856842
1782845358002248400,7.61624853515625,0.12916330993175507,0.11181814223527908,-0.259752482175827
1782845358012252700,7.626252685546875,0.10785988718271255,0.039139680564403534,-0.20916999876499176
1782845358022257700,7.636257568359375,0.09666688740253448,-0.04005074501037598,-0.153823122382164
1782845358032261600,7.64626171875,0.100914366543293,-0.11282375454902649,-0.10168907791376114
1782845358042266600,7.6562666015625,0.1023884266614914,-0.16857384145259857,-0.06125510111451149
1782845358052270600,7.6662705078125,0.10511523485183716,-0.1900399774312973,-0.03346288576722145
1782845358062275600,7.676275634765625,0.10421855002641678,-0.18539568781852722,-0.014002367854118347
1782845358072279800,7.68627978515625,0.1122429147362709,-0.1586194783449173,-0.006066680885851383
1782845358082283500,7.696283447265625,0.119379922747612,-0.1270333230495453,0.006118080113083124
1782845358092288500,7.70628857421875,0.13025014102458954,-0.10638049989938736,0.025193503126502037
1782845358102292500,7.71629248046875,0.13759833574295044,-0.10145631432533264,0.05102083832025528
1782845358112297500,7.72629736328125,0.13647662103176117,-0.0946415513753891,0.09127505123615265
1782845358122301700,7.7363017578125,0.13243207335472107,-0.08612476289272308,0.1257302314043045
1782845358132306700,7.746306640625,0.11810559779405594,-0.07894541323184967,0.15428145229816437
1782845358142310700,7.756310546875,0.10354503244161606,-0.0561884380877018,0.1772991418838501
1782845358152315600,7.766315673828125,0.08367199450731277,-0.028448153287172318,0.18298979103565216
1782845358162319600,7.776319580078125,0.053998254239559174,0.003955326974391937,0.19046474993228912
1782845358172323600,7.786323486328125,0.014689197763800621,0.030612237751483917,0.19735194742679596
1782845358182328600,7.79632861328125,-0.03181252256035805,0.049845851957798004,0.21213889122009277
1782845358192332500,7.80633251953125,-0.08553274720907211,0.04536481946706772,0.2224099040031433
1782845358202337500,7.816337646484375,-0.14022980630397797,0.038058970123529434,0.23573796451091766
1782845358212341500,7.826341552734375,-0.19228875637054443,0.04177887365221977,0.250265508890152
1782845358222346500,7.836346435546875,-0.2406962364912033,0.04886767268180847,0.26783278584480286
1782845358232350500,7.8463505859375,-0.2838580906391144,0.05890326574444771,0.2969435155391693
1782845358242355700,7.856355712890625,-0.31181222200393677,0.060511279851198196,0.33681318163871765
1782845358252359700,7.866359619140625,-0.3158192038536072,0.07551819086074829,0.3492754399776459
1782845358262364700,7.87636474609375,-0.3084441125392914,0.09577979147434235,0.349454402923584
1782845358272368600,7.88636865234375,-0.29112398624420166,0.10267578065395355,0.3357226252555847
1782845358282372600,7.89637255859375,-0.268576055765152,0.09462477266788483,0.3221902847290039
1782845358292377600,7.906377685546875,-0.24538631737232208,0.0672573372721672,0.30340489745140076
1782845358302381600,7.916381591796875,-0.20468097925186157,0.03831223398447037,0.2696855366230011
1782845358312386600,7.926386474609375,-0.15669560432434082,0.017241571098566055,0.22627495229244232
1782845358322390500,7.936390625,-0.12617364525794983,-0.0043563987128436565,0.17331905663013458
1782845358332395500,7.9463955078125,-0.10883273929357529,-0.03268497437238693,0.10862075537443161
1782845358342399500,7.9563994140625,-0.10830836743116379,-0.05513382703065872,0.048590440303087234
1782845358352404500,7.966404541015625,-0.09722907841205597,-0.06557208299636841,0.001127316034398973
1782845358362408700,7.97640869140625,-0.09059488028287888,-0.0722435712814331,-0.016865266487002373
1782845358372413700,7.98641357421875,-0.09986428171396255,-0.06525091081857681,-0.016931844875216484
1782845358382417700,7.996417724609375,-0.1095680370926857,-0.024176442995667458,-0.0304575078189373
1782845358392421400,8.00642138671875,-0.12568096816539764,0.0195515975356102,-0.030401049181818962
1782845358402426400,8.01642626953125,-0.12429744750261307,0.06961769610643387,-0.028017519041895866
1782845358412430600,8.0264306640625,-0.11701876670122147,0.12144653499126434,-0.022372417151927948
1782845358422435600,8.036435546875,-0.11317342519760132,0.1450812965631485,0.0008173241512849927
1782845358432439600,8.046439453125,-0.10951823741197586,0.14091716706752777,0.019113507121801376
1782845358442444500,8.056444580078125,-0.095152348279953,0.1149633377790451,0.03982091695070267
1782845358452448500,8.066448486328126,-0.06445249170064926,0.07874008268117905,0.07214716076850891
1782845358462453500,8.07645361328125,-0.03533322364091873,0.03767307475209236,0.10498154163360596
1782845358472457700,8.086457763671875,-0.01673370599746704,0.004370247479528189,0.1184544712305069
1782845358482461700,8.096461669921876,0.003961718175560236,-0.012861203402280807,0.1050579771399498
1782845358492466700,8.106466796875,0.022881347686052322,-0.026064623147249222,0.07153596729040146
1782845358502470400,8.116470458984375,0.03672872111201286,-0.02953552082180977,0.02935629151761532
1782845358512475400,8.126475341796874,0.05444673076272011,-0.020843496546149254,-0.013883058913052082
1782845358522479600,8.136479736328125,0.05746462568640709,-0.007872037589550018,-0.05253644287586212
1782845358532484600,8.146484619140624,0.04748149961233139,-0.003991812001913786,-0.0841769278049469
1782845358542488600,8.156488525390625,0.04199938103556633,-0.0029462550301104784,-0.11080773919820786
1782845358552493600,8.16649365234375,0.033545974642038345,0.0001347559446003288,-0.1304653286933899
1782845358562497500,8.17649755859375,0.039744481444358826,0.00013635384675581008,-0.14522910118103027
1782845358572502500,8.18650244140625,0.052020590752363205,-0.0067633637227118015,-0.1557195484638214
1782845358582506800,8.1965068359375,0.07382947951555252,-0.0036738307680934668,-0.15512220561504364
1782845358592510700,8.2065107421875,0.09092804044485092,0.008035289123654366,-0.13906840980052948
1782845358602515700,8.216515625,0.10868173837661743,0.011950935237109661,-0.11366105079650879
1782845358612519400,8.22651953125,0.11903584003448486,0.01696167327463627,-0.09249797463417053
1782845358622524400,8.2365244140625,0.12120578438043594,0.012524846941232681,-0.07072210311889648
1782845358632528600,8.246528564453126,0.12015383690595627,0.001047421246767044,-0.04855075851082802
1782845358642533600,8.25653369140625,0.0963078960776329,-0.015669241547584534,-0.016346216201782227
1782845358652537600,8.26653759765625,0.06273874640464783,-0.043365851044654846,0.009652627632021904
1782845358662542600,8.27654248046875,0.02075348235666752,-0.06911009550094604,0.015349661000072956
1782845358672546600,8.286546630859375,-0.015482819639146328,-0.08834318071603775,0.007527158595621586
1782845358682551000,8.296551025390626,-0.05271407589316368,-0.10552030056715012,-0.0033902039285749197
1782845358692555300,8.30655517578125,-0.08725740760564804,-0.1167101040482521,-0.005510346498340368
1782845358702559200,8.316559326171875,-0.12101776897907257,-0.12218582630157471,-0.006613694131374359
1782845358712564200,8.326564208984376,-0.14346182346343994,-0.11191428452730179,0.001347559504210949
1782845358722568200,8.336568115234375,-0.15685859322547913,-0.10454558581113815,0.010253170505166054
1782845358732573200,8.3465732421875,-0.16481637954711914,-0.10146137326955795,0.03299470245838165
1782845358742577400,8.356577392578124,-0.17646664381027222,-0.10362999141216278,0.06762511283159256
1782845358752582400,8.36658251953125,-0.20178452134132385,-0.09852764010429382,0.0928037092089653
1782845358762586000,8.376586181640626,-0.2199515402317047,-0.08896289765834808,0.12204468250274658
1782845358772591000,8.386591064453125,-0.23318451642990112,-0.06221863254904747,0.15044836699962616
1782845358782595000,8.396594970703125,-0.24266937375068665,-0.026148779317736626,0.17012512683868408
1782845358792599300,8.406599365234374,-0.2542964518070221,0.0022855247370898724,0.17479418218135834
1782845358802604300,8.416604248046875,-0.2600531578063965,0.01726154424250126,0.1531381458044052
1782845358812608300,8.426608154296876,-0.2525491714477539,0.02269226312637329,0.10705588012933731
1782845358822613200,8.43661328125,-0.2237907499074936,0.01679735630750656,0.042517632246017456
1782845358832617200,8.4466171875,-0.17402878403663635,0.002603506203740835,-0.0335952453315258
1782845358842622200,8.456622314453124,-0.09898436814546585,-0.019102854654192924,-0.11028336733579636
1782845358852626400,8.46662646484375,-0.022162027657032013,-0.03817348554730415,-0.18036018311977386
1782845358862631400,8.47663134765625,0.04656457155942917,-0.06108013167977333,-0.2327384352684021
1782845358872635100,8.48663525390625,0.10206697881221771,-0.07440818846225739,-0.2585300803184509
1782845358882640100,8.49664013671875,0.14253051578998566,-0.08366507291793823,-0.271192342042923
1782845358892644000,8.50664404296875,0.16402782499790192,-0.08380009233951569,-0.2689473032951355
1782845358902648300,8.5166484375,0.17213422060012817,-0.08855436742305756,-0.24147947132587433
1782845358912653300,8.5266533203125,0.1681559830904007,-0.09113922715187073,-0.21108214557170868
1782845358922657300,8.5366572265625,0.1469271332025528,-0.0933573767542839,-0.17431055009365082
1782845358932662300,8.546662353515625,0.12697818875312805,-0.07885726541280746,-0.13086853921413422
1782845358942666200,8.556666259765626,0.10134685784578323,-0.06740780174732208,-0.07754512876272202
1782845358952671200,8.566671142578125,0.07003341615200043,-0.054729025810956955,-0.015807459130883217
1782845358962675500,8.576675537109375,0.03946991264820099,-0.055571649223566055,0.05354258790612221
1782845358972680400,8.586680419921874,0.014093714766204357,-0.04981629177927971,0.12324284017086029
1782845358982684200,8.59668408203125,0.0027079021092504263,-0.037333790212869644,0.1829381287097931
1782845358992689200,8.606689208984376,-0.008931176736950874,-0.03738705441355705,0.22071853280067444
1782845359002693000,8.616693115234375,-0.0001304948964389041,-0.04114210978150368,0.251276433467865
1782845359012697300,8.626697265625,0.017013337463140488,-0.02587074600160122,0.2914606034755707
1782845359022702300,8.636702392578124,0.03795084357261658,0.02870248444378376,0.3310841917991638
1782845359032706300,8.646706298828125,0.037390515208244324,0.18363960087299347,0.4036928713321686
1782845359042711300,8.656711181640626,-0.04435920715332031,0.21248403191566467,0.4103899300098419
1782845359052715300,8.66671533203125,-0.08955837786197662,0.10622923076152802,0.23257358372211456
1782845359062720300,8.67672021484375,-0.09544476121664047,-0.02130768448114395,0.030003972351551056
1782845359072724200,8.68672412109375,-0.09680963307619095,-0.1192837804555893,-0.13748568296432495
1782845359082729200,8.696729248046875,-0.10768358409404755,-0.14465439319610596,-0.23939155042171478
1782845359092733200,8.706733154296876,-0.1520632952451706,-0.07557784765958786,-0.287433385848999
1782845359102737200,8.716737060546874,-0.20407536625862122,-0.013248694129288197,-0.32883915305137634
1782845359112742100,8.7267421875,-0.25364184379577637,0.035235486924648285,-0.37938326597213745
