time,seconds_elapsed,z,y,x
1782845836288269800,0.068269775390625,0.2031295399725437,0.0010460019215941428,0.02352043018862605
1782845836298274800,0.07827490234375,0.19566285735368727,0.00939487420246005,0.02801511125937104
1782845836308279800,0.08827978515625,0.1680377683252096,0.013443857332319021,-0.012479688475281
1782845836318284800,0.098284912109375,0.07315408353805541,0.01733311985582113,-0.039489129823446274
1782845836328289800,0.108289794921875,-0.02901566660404205,0.0325743819989264,-0.0644230800718069
1782845836338294800,0.118294677734375,-0.11993337036967276,0.02394903086423874,-0.0522660476796329
1782845836348299800,0.1282998046875,-0.18240064019858837,0.008880641070008277,-0.030559388914704323
1782845836358304800,0.1383046875,-0.17743863387703895,-0.0014181962348520755,-0.019782120443135497
1782845836368309800,0.148309814453125,-0.1346539696395397,-0.014141338077187537,0.002469751114398241
1782845836378314800,0.158314697265625,-0.05748831237256526,-0.028691110824793576,0.0005384907908737659
1782845836388319700,0.16831982421875,0.04435585907697678,-0.029517478646337983,-0.003031330519914627
1782845836398324700,0.17832470703125,0.13744973783791065,-0.02256795176938176,-0.03336027167961001
1782845836408328700,0.18832861328125,0.18021452833116053,0.015183248345553874,-0.04798442483767867
1782845836418333700,0.198333740234375,0.18957213926315306,0.0612622779533267,-0.08095818141773342
1782845836428338700,0.208338623046875,0.1793143646210432,0.06601794804781674,-0.06394654860123991
1782845836438343700,0.21834375,0.14552490774393081,0.07141352348104119,-0.06586290361657739
1782845836448348700,0.2283486328125,0.08081599646806717,0.09134571991935372,-0.040990620427578686
1782845836458353700,0.238353759765625,0.029227263528108595,0.07914572516828774,-0.022347148625552652
1782845836468358700,0.248358642578125,0.012509352961182593,0.04347615363299846,0.020028058028221128
1782845836478363600,0.25836376953125,0.021117022308707236,0.05673603270053863,0.0816978938691318
1782845836488368600,0.26836865234375,0.06180266844034195,0.0178399003341794,0.11297039948925375
1782845836498373600,0.27837353515625,0.09499006777107714,-0.007014116545766592,0.11909253563135862
1782845836508378600,0.288378662109375,0.12265782689750193,0.01741539131179452,0.0750732150323689
1782845836518383600,0.298383544921875,0.11691548385322094,0.024046499889343976,0.08568988611474633
1782845836528388900,0.308388916015625,0.10639759697020053,0.023144874874502418,0.08766206297054886
1782845836538393900,0.318393798828125,0.10443886411786078,0.04541472048014402,0.07605652698129416
1782845836548398800,0.32839892578125,0.10022738390266894,0.05607347713857889,0.07659399485886097
1782845836558403800,0.33840380859375,0.08649404210448265,0.07874737350046634,0.05031520587280392
1782845836568408800,0.348408935546875,0.122376087346673,0.08405439386740327,0.03490107138082385
1782845836578413800,0.358413818359375,0.14335048631429673,0.07170972994863986,0.025695874531567096
1782845836588418800,0.368418701171875,0.14799275916218757,0.05720175051614642,-0.00922799320295453
1782845836598423800,0.378423828125,0.15877777254879474,0.045216859820485115,-0.02423077041506767
1782845836608428800,0.3884287109375,0.14070377119779587,0.018128800278156994,-0.010963438693434
1782845836618433800,0.398433837890625,0.10137889202535152,-0.000493044213950634,0.0011811726085841656
1782845836628438800,0.408438720703125,0.06803367178440094,0.0259733762986958,-0.03199117528349161
1782845836638443800,0.41844384765625,0.03521101411283016,0.050151101352274415,-0.06344736690744757
1782845836648448800,0.42844873046875,0.013171031740307808,0.05031432908996939,-0.06297858035191893
1782845836658453800,0.438453857421875,0.0029687866777181626,0.042330344598740334,-0.06614712738543749
1782845836668458800,0.448458740234375,0.0037958851516246795,0.04367795981541276,-0.06593713789656758
1782845836678463700,0.458463623046875,-0.0011848258703947066,0.045344285592436785,-0.048432314735651016
1782845836688467700,0.4684677734375,0.028121932634711265,0.04028261828869581,-0.011456336776912211
1782845836698472700,0.47847265625,0.058632806232571597,0.030447014581412076,-0.0015121581286191938
1782845836708477700,0.488477783203125,0.08505261112451552,0.0023861644841730594,0.009454641565680504
1782845836718482700,0.498482666015625,0.11720949836373329,0.004004267205297947,0.0137562842823565
1782845836728487700,0.50848779296875,0.14142916286289692,0.004975596455484628,0.014195552482455968
1782845836738492700,0.51849267578125,0.13667699989974497,0.029608225669711826,0.002014993084222078
1782845836748497700,0.52849755859375,0.13513503115475178,0.02874401005581021,-0.0009416647642850875
1782845836758502700,0.538502685546875,0.11689911724030971,0.049225072548538445,-0.012053718148171902
1782845836768507600,0.548507568359375,0.1088736316949129,0.04443418501019478,-0.023518238231539725
1782845836778512600,0.5585126953125,0.09189677793085575,0.03662511869445443,-0.028705139350146052
1782845836788517600,0.568517578125,0.09648469024300575,0.035666502795368434,-0.024542758973687885
1782845836798522600,0.578522705078125,0.10077332734763622,0.03485051023736596,-0.009762538471072911
1782845836808527600,0.588527587890625,0.09138532127737999,0.023602555514127016,0.006759411132335662
1782845836818532600,0.59853271484375,0.08167758173346519,0.02302066397294402,0.0028442835152149197
1782845836828537600,0.60853759765625,0.04368424342572689,0.021701982589811087,-0.0063131286695599555
1782845836838542600,0.61854248046875,0.045587446698546405,0.021119944918155668,0.013785948768258094
1782845836848547600,0.628547607421875,0.029304420417547224,0.027765812673419713,0.020696897200495005
1782845836858552600,0.638552490234375,0.018103811967372894,0.05025324655249715,0.018154665371775625
1782845836868557600,0.6485576171875,0.03366846084594726,0.05664923119992017,-0.00237111304551363
1782845836878562800,0.658562744140625,0.062567223072052,0.06370952497497201,-0.014196283134818076
1782845836888567800,0.66856787109375,0.105785018029809,0.05499620329588651,-0.033316432537883515
1782845836898572800,0.67857275390625,0.13726970509588718,0.06176219029948115,-0.0736319301828742
1782845836908577800,0.688577880859375,0.12926117068529128,0.052877603706717485,-0.07312588035687803
1782845836918582800,0.698582763671875,0.09051555270552634,0.03971256331577897,-0.036031975106894966
1782845836928587800,0.708587890625,0.0681312869399786,0.01609568701535463,0.05247895977795124
1782845836938592800,0.7185927734375,0.06481821686923503,-0.014556202488392591,0.06304141645506024
1782845836948597800,0.72859765625,0.05523673405349254,-0.0005307458758354186,0.052259471808373925
1782845836958602800,0.738602783203125,0.08979191460609436,0.014952508329600095,0.03046761897802353
1782845836968607700,0.748607666015625,0.11855272966623305,0.014121756593883037,-0.00602861263975501
1782845836978611700,0.75861181640625,0.12882277926802635,0.02219400389045477,-0.022269553344696758
1782845836988616700,0.76861669921875,0.14843407318890095,0.044797903756052256,-0.02822729270532727
1782845836998621700,0.77862158203125,0.1451116507679224,0.04335238112285733,-0.05747647580429911
1782845837008626700,0.788626708984375,0.1519727687090635,0.045370589077472684,-0.06333031639903783
1782845837018631700,0.798631591796875,0.15136661950945854,0.026830577649921177,-0.015420271971821784
1782845837028636700,0.80863671875,0.10673661966621875,0.016769056232273576,-0.01638473308980465
1782845837038641700,0.8186416015625,0.07947802586257458,0.009464286176860333,-0.017909604569524524
1782845837048646700,0.828646728515625,0.05152034387886524,0.005606441704928875,0.007989683579653501
1782845837058651600,0.838651611328125,0.034493221232295035,0.0002519289344549179,0.024675591573119163
1782845837068656600,0.84865673828125,0.0190969146579504,-0.0038667584307491777,0.0018180092073976993
1782845837078661600,0.85866162109375,-0.008052373552322387,0.021026713676750658,-0.01513590207248926
1782845837088666600,0.86866650390625,-0.0009282207608222961,0.05187500253543258,-0.04040872888639569
1782845837098671600,0.878671630859375,0.012917933762073517,0.05298427895158529,-0.0743516227595508
1782845837108676600,0.888676513671875,0.027270868763327596,0.033373131161183116,-0.05941445812955498
1782845837118681600,0.898681640625,0.06964461411237716,0.03176774179115891,0.0055159869424998755
1782845837128686600,0.9086865234375,0.10020692563652991,0.02914148494079709,0.02861936076283455
1782845837138691600,0.918691650390625,0.12722411189973354,0.034211043290048836,0.04806581951081752
1782845837148696300,0.9286962890625,0.1395294667214155,0.049115766955167055,0.06320756680220366
1782845837158701300,0.938701416015625,0.17648410963118075,0.015755056884139775,0.05543722506165504
1782845837168706300,0.948706298828125,0.17003274153470993,-0.007945698307454585,0.05313742368668317
1782845837178711300,0.958711181640625,0.12356734295785426,0.012596592853218316,0.021589315995573996
1782845837188716300,0.96871630859375,0.05741933878958225,0.023047844240814446,0.009529021976143122
1782845837198721500,0.978721435546875,0.0184825821518898,0.027564298751950263,-0.0036050387546420096
1782845837208726500,0.9887265625,0.00030278233885765074,0.026005817263573407,-0.011645137347280978
1782845837218731500,0.9987314453125,0.004341828596591949,0.024739012198150157,-0.03142302000671625
1782845837228736500,1.008736572265625,0.03529050908982754,0.033701340202242136,-0.020770693089067933
1782845837238741500,1.018741455078125,0.07718202387988567,0.026096272026002405,0.006974661318212747
1782845837248746500,1.02874658203125,0.0835334387332201,0.0064386547453701495,0.014162673126161098
1782845837258751500,1.03875146484375,0.11606500450372695,-0.005831628762930631,0.0009885726459324359
1782845837268755500,1.04875537109375,0.11498013187646865,-0.004960691147297621,-0.007846329586207866
1782845837278760400,1.058760498046875,0.10810440088808536,-0.012558014408499001,0.000431084893643856
1782845837288765400,1.068765380859375,0.1263712944626808,0.01591901527419686,-0.00953165232464671
1782845837298770400,1.0787705078125,0.10364040721654891,0.01679389841258526,-0.04976794725358486
1782845837308775400,1.088775390625,0.09586042086482048,0.045007747114449735,-0.05661372149512171
1782845837318780400,1.098780517578125,0.10519289735555648,0.058234892956167454,-0.04444090701192617
1782845837328785400,1.108785400390625,0.13052081535756588,0.036343379143625495,-0.05524886288270354
1782845837338790400,1.118790283203125,0.11143968279063701,0.0419419298030436,-0.036273967169225214
1782845837348795400,1.12879541015625,0.0751893887579441,0.0320329685986042,-0.0060639762140810485
1782845837358800400,1.13880029296875,0.07771978401839733,-0.0034634383268654346,0.03404387002959847
1782845837368805400,1.148805419921875,0.049022097322344776,-0.01965527919307351,0.0578591915115714
1782845837378810400,1.158810302734375,0.04466799376606941,-0.001806611030548811,0.061427843778580425
1782845837388815400,1.1688154296875,0.04509411022365093,0.018152035023272037,0.03235240981131792
1782845837398820400,1.1788203125,0.0690069007307291,0.038264118073135615,0.024033055885881185
1782845837408825300,1.188825439453125,0.09285480930805205,0.05461377984955906,-0.0008016717717051505
1782845837418830300,1.198830322265625,0.11373393120765686,0.04724427399486303,-0.003995791637897491
1782845837428835300,1.20883544921875,0.09923135860264301,0.04562339479476213,0.0027570436231791973
1782845837438840300,1.21884033203125,0.07137187629640102,0.04862023852318525,0.04521291429772973
1782845837448845300,1.22884521484375,0.05043605577349662,0.014178016825765371,0.10592997945845127
1782845837458850300,1.238850341796875,0.07100362750589848,-0.010246814856678247,0.13112126546874642
1782845837468855300,1.248855224609375,0.11434417206048965,-0.012649784345179795,0.12037409987449646
1782845837478860300,1.2588603515625,0.19705869562625883,0.004222878392040729,0.07307721890956163
1782845837488865300,1.268865234375,0.24982231756448744,0.01898161771520972,0.022307985658943652
1782845837498870300,1.278870361328125,0.25136019465625287,0.04511383783742785,-0.021607728435099123
1782845837508875300,1.288875244140625,0.22241642424464225,0.04272153587341308,-0.02678542333394289
1782845837518880300,1.29888037109375,0.14657821618914604,0.04576163422167301,-0.03754135675653815
1782845837528885200,1.30888525390625,0.07016600763797759,0.04057750958204269,-0.024232085589319465
1782845837538890200,1.31889013671875,-0.008877718460559845,0.03401595910936594,-0.009510463406145572
1782845837548894500,1.32889453125,-0.0609638795286417,0.034957331612706186,0.018242782046645877
1782845837558900500,1.338900390625,-0.06924421661794185,0.006250584827363491,0.0369834306128323
1782845837568904400,1.348904541015625,-0.057306526064872736,-0.01245309272930026,0.03477145365178585
1782845837578909400,1.358909423828125,0.012100772160291672,-0.020036825856566427,0.04194178367257118
1782845837588914400,1.36891455078125,0.07367606158554553,-0.021568857729434964,-0.009122925393283366
1782845837598919400,1.37891943359375,0.12070026308894156,-0.01160261337980628,-0.056153848898410796
1782845837608924400,1.38892431640625,0.14155425054728984,0.029100130017101763,-0.09795724701359868
1782845837618929400,1.398929443359375,0.1470025790810585,0.020158990931510926,-0.09736907186210154
1782845837628934400,1.408934326171875,0.116036947453022,0.014538228440284727,-0.08649009658172727
1782845837638939400,1.418939453125,0.08054302474558353,0.006060176821798086,-0.08932546613812446
1782845837648944400,1.4289443359375,0.020987258449196813,0.015843027428537607,-0.04471563230007887
1782845837658949400,1.438949462890625,-0.033899931514263154,0.026257892328500745,-0.04050371369346976
1782845837668954400,1.448954345703125,-0.023916882160305974,0.02843056019246578,-0.017339549596607683
1782845837678959400,1.45895947265625,0.023554478588700294,0.026222090362757442,0.014983634120225905
1782845837688964400,1.46896435546875,0.07642740612030029,0.020029519332945344,0.009587620295584201
1782845837698969300,1.47896923828125,0.10973287887275218,0.02214081239849329,-0.027385873445123433
1782845837708974300,1.488974365234375,0.1382750827461481,0.029739304703474044,-0.04360767105817794
1782845837718979300,1.498979248046875,0.15120879859924316,0.029938334406912324,-0.018837386938929557
1782845837728984300,1.508984375,0.19326631760597227,0.01635112308114767,-0.030005846685171124
1782845837738989300,1.5189892578125,0.21627368370592592,0.01778407849371433,-0.016421557968854902
1782845837748994300,1.528994384765625,0.2354676289975643,0.023938363339751956,-0.008586918820440768
1782845837758999300,1.538999267578125,0.20857319233119487,0.019497750543802976,0.00029942133799195286
1782845837769004300,1.54900439453125,0.1512766031384468,0.019516162983328103,-0.008956775046139955
1782845837779009300,1.55900927734375,0.07728022355735302,0.037690994360297915,0.00922623963728547
1782845837789014300,1.56901416015625,0.02917524107992649,0.022391718419641254,-0.003734071961790323
1782845837799019300,1.579019287109375,0.00033317747712135315,0.004146744415909052,0.009461071306467056
1782845837809024300,1.589024169921875,-0.0006312836408615112,-0.01393821672052145,-0.038903585020452734
1782845837819029200,1.599029296875,-0.012199556359648703,0.006505874762684107,-0.06378931221291423
1782845837829034200,1.6090341796875,0.009767945298552513,0.01685015864446759,-0.05533478760048747
1782845837839039200,1.619039306640625,0.04576046517789364,0.0065406538151204585,-0.04374284174516797
1782845837849044200,1.629044189453125,0.07811725890338421,0.012407646152377128,-0.04922726450562477
1782845837859049200,1.63904931640625,0.07483341492712497,0.020311551144719123,-0.040733284665644166
1782845837869053400,1.649053466796875,0.07186404372751712,0.028071225360780952,0.007840776628255844
1782845837879058400,1.659058349609375,0.0851408739298582,0.02747530529424548,0.024549773236364123
1782845837889063400,1.6690634765625,0.11258066951930522,0.010893149936199187,0.03757087511196732
1782845837899068400,1.679068359375,0.11732932535111903,0.008827157317101954,0.024748949070274827
1782845837909073400,1.689073486328125,0.0978589012056589,0.01202960662022233,0.027812282163649796
1782845837919078400,1.699078369140625,0.07719371431767941,0.010867869364470243,0.03493672721609473
1782845837929083400,1.70908349609375,0.04841887073218822,0.010869038408249616,0.035271219867467875
1782845837939088400,1.71908837890625,0.062408233118057245,0.008865005109459161,0.018120909232646226
1782845837949093400,1.72909326171875,0.0929834041237831,0.0323880656465888,-0.0260442495778203
1782845837959098400,1.739098388671875,0.12531506340801715,0.047049628205597396,-0.033406887300312514
1782845837969103400,1.749103271484375,0.14603577987551689,0.04080269664004445,-0.04590659565031528
1782845837979108400,1.7591083984375,0.17145020711719988,0.029074557184427974,-0.03184606772437692
1782845837989113300,1.76911328125,0.15920096639692782,-0.003422667925059795,-0.023617899213731287
1782845837999118300,1.779118408203125,0.1334042618393898,-0.016546791783720254,0.009679244101792573
1782845838009123300,1.789123291015625,0.09208733206689357,-0.011878215450793504,0.035924130818247794
1782845838019128300,1.79912841796875,0.07031915237307548,0.023871727844327686,0.027510522738099098
1782845838029133300,1.80913330078125,0.030527824732661246,0.036260669296234845,0.008623597569018602
1782845838039138300,1.81913818359375,0.01664309176504612,0.04211392536908388,0.027237258754670618
1782845838049143300,1.829143310546875,-0.001758241844177246,0.03885112418085337,0.010158844312280415
1782845838059148300,1.839148193359375,0.010910685592889786,0.05159457815885544,0.002918663925677538
1782845838069153300,1.8491533203125,0.031388825476169585,0.07151902968212961,0.010858224753290414
1782845838079158300,1.859158203125,0.06814473094344138,0.0312964710175991,0.04146948998570442
1782845838089163300,1.869163330078125,0.09274550371468067,0.03872720554023981,0.04630947736278176
1782845838099168300,1.879168212890625,0.10452303526997565,0.03331307153701782,0.004630582410097122
1782845838109173200,1.88917333984375,0.12814181126654148,0.028382483267039058,0.033537089551240205
1782845838119178200,1.89917822265625,0.12466565958857535,0.0038503918178379535,0.08414499476030468
1782845838129183200,1.909183349609375,0.1176490588247776,-0.027816519947350023,0.10505144305825233
1782845838139188200,1.919188232421875,0.1260574062079191,-0.017755290790647266,0.09549217207431793
1782845838149194200,1.9291943359375,0.12109247727692127,0.020732260774821043,0.08315043076500296
1782845838159199200,1.93919921875,0.12246727276146412,0.03599968027248979,0.021947774044424294
1782845838169204200,1.949204345703125,0.11104396147131919,0.0468970679923892,-0.027537995266914365
1782845838179209200,1.959209228515625,0.10274491968154907,0.06422025097608566,-0.04722440025061369
1782845838189213200,1.969213134765625,0.06882745251059531,0.04646043014079332,-0.0634292467288673
1782845838199218200,1.97921826171875,0.032651392757892604,0.0461531177572906,-0.037677988748252386
1782845838209223200,1.98922314453125,0.03695873456299305,0.04256415335461497,0.005112228447198867
1782845838219228200,1.999228271484375,0.0692944855004549,0.03946238794699311,-0.008641571617126465
1782845838229233200,2.009233154296875,0.10423603502213954,0.01822144699767232,-0.022837124099582433
1782845838239238100,2.019238037109375,0.14086568376123904,0.01196034077629447,-0.006256430046260356
1782845838249243100,2.0292431640625,0.1289911215722561,0.004780366144329309,0.013305764035880565
1782845838259248400,2.039248291015625,0.07472703194320202,0.021079612907767293,0.02840484122931957
1782845838269253400,2.04925341796875,0.06379705712795257,0.03433949197530746,0.021227935337275267
1782845838279258400,2.05925830078125,0.0426338575899601,0.03842383867949247,0.019485183323174712
1782845838289263400,2.069263427734375,0.052501756131649015,0.052109980335086584,0.036315029831975695
1782845838299268400,2.079268310546875,0.06837152543663978,0.06676701284945011,0.02745733124613762
1782845838309273300,2.0892734375,0.07965630503892898,0.04789455459713936,0.03018441812247038
1782845838319278300,2.0992783203125,0.07921206840276718,0.042455578413605685,0.020299276185035704
1782845838329283300,2.109283447265625,0.1214046119660139,0.036117023041844366,0.03960267320051789
1782845838339288300,2.119288330078125,0.16347323688864707,0.018588672874867915,0.03328223800733685
1782845838349293300,2.129293212890625,0.17633154941797255,-0.009009235885739326,0.033494857844710346
1782845838359298300,2.13929833984375,0.19012217436134815,0.001871785221248865,0.030025428168475626
1782845838369303300,2.14930322265625,0.14983166502714157,0.026172406002134083,-0.007280512396991253
1782845838379308300,2.159308349609375,0.07651742249131202,0.05025047007352113,-0.04157850331813097
1782845838389313300,2.169313232421875,0.04379880971610546,0.051910804501175876,-0.030116759713739154
1782845838399318300,2.179318359375,0.006484101322293281,0.036421705076843496,-0.017316753242909908
1782845838409323300,2.1893232421875,-0.019310265147686002,0.013644640601426361,-0.040775516372174025
1782845838419328300,2.199328369140625,-0.054092824715375895,0.015207213743031025,-0.061125353700667615
1782845838429333200,2.209333251953125,-0.09070727588534355,0.028366262784600256,-0.07140577856600284
1782845838439338200,2.219338134765625,-0.04159107053875923,0.006546937425434589,-0.030817893720418214
1782845838449343200,2.22934326171875,0.019797171881794928,-0.02281388935446739,-0.017817250110954044
1782845838459348200,2.23934814453125,0.05272504349350929,-0.018813129280507563,-0.03509878591001034
1782845838469353200,2.249353271484375,0.06821779617965221,0.028480829074978828,-0.024885434931516646
1782845838479358200,2.259358154296875,0.08224865961968898,0.021863895153254268,-0.05467033234238624
1782845838489363200,2.26936328125,0.07383388249576091,0.02597498373389244,-0.06428147964403033
1782845838499368200,2.2793681640625,0.08672901990413666,0.0459330452658236,-0.05267828174233436
1782845838509372200,2.2893720703125,0.10506430253982543,0.03348492097258567,-0.06879691124185919
1782845838519377200,2.299377197265625,0.1164028581559658,0.031180443422496318,-0.06258095933645963
1782845838529382100,2.309382080078125,0.14426350950598715,0.04382482094019651,-0.03518383384495973
1782845838539387100,2.31938720703125,0.156086049246788,0.041390141139179465,-0.02280336796045303
1782845838549392100,2.32939208984375,0.17658990809321404,0.0504351789906621,0.00579772649332881
1782845838559397000,2.339397216796875,0.17332944499254227,0.025789690294861792,0.023848054707795382
1782845838569402000,2.349402099609375,0.17763620227575302,0.023549948544055222,0.038811084431409834
1782845838579407000,2.359406982421875,0.1564221493333578,0.02264160152748227,0.04085588813200593
1782845838589412000,2.369412109375,0.1382487792611122,0.0160252521276474,0.0542670122385025
1782845838599417000,2.3794169921875,0.09692775783538818,0.024721330410987136,0.04363295162990689
1782845838609422000,2.389422119140625,0.0829495013654232,0.03467734562754631,0.061116439741849896
1782845838619427300,2.39942724609375,0.06376490842401981,0.01211143968477845,0.09969663802683353
1782845838629432300,2.409432373046875,0.07351999424099921,0.019658494063466786,0.07080649749860167
1782845838639437300,2.419437255859375,0.04550093745887279,0.04851093292981386,0.033640842186659574
1782845838649442300,2.4294423828125,0.024024434188008308,0.06713774585798382,0.02864990203157067
1782845838659447300,2.439447265625,0.025424364113807676,0.0479873474471271,0.041885669571161264
1782845838669452300,2.449452392578125,0.03850187235176563,0.0376928940564394,0.021990298011898994
1782845838679457300,2.459457275390625,0.07873685210645198,0.03332724619284272,0.01497150529101491
1782845838689462300,2.469462158203125,0.11485972036719322,0.03153349464386702,0.012348609441518783
1782845838699467300,2.47946728515625,0.14604630126953125,0.022836685708165168,-0.019535159944742916
1782845838709472300,2.48947216796875,0.15513035595715044,0.016589461881667374,-0.06707184101492167
1782845838719477200,2.499477294921875,0.12973287985026835,0.053657648168504234,-0.072804247187078
1782845838729482200,2.509482177734375,0.06530629264712333,0.05049713831096887,-0.05343845245987176
1782845838739487200,2.5194873046875,0.03896656725406646,0.03455503442212939,-0.02512260468825698
1782845838749492200,2.5294921875,-0.003689502167701721,0.04520166225135326,0.0301082841463387
1782845838759497200,2.539497314453125,-0.015468787288665771,0.03815831961110234,0.03201426389813423
1782845838769502200,2.549502197265625,-0.0011748889982700348,0.007590455128997564,0.05288929414451122
1782845838779507200,2.559507080078125,0.016475333982706068,0.004623422016948461,0.003413753966242075
1782845838789512200,2.56951220703125,0.04401332924962043,0.009531213933229445,-0.004415478354692459
1782845838799517200,2.57951708984375,0.08156243092119693,-0.0161231595441699,0.013318915778398513
1782845838809522200,2.589522216796875,0.1412467920333147,0.001712064614892006,0.02726049349978566
1782845838819526100,2.599526123046875,0.1526794556736946,0.02079436622560024,0.023174977751821278
1782845838829531100,2.60953125,0.16490823812782762,0.024101737207919357,-0.007780424743145704
1782845838839536000,2.6195361328125,0.15995441511273384,0.051126376125216484,-0.0057411740005016325
1782845838849541000,2.629541015625,0.11971592822670936,0.05861585509777069,-0.010450082343816756
1782845838859546000,2.639546142578125,0.12092588853836059,0.05581731042042374,-0.0027010756522417067
1782845838869551000,2.649551025390625,0.11925766306519507,0.06767872086688875,0.003920680575072765
1782845838879556000,2.65955615234375,0.09848375510573387,0.07692673394456505,0.017382950346916913
1782845838889561000,2.66956103515625,0.11580664582848549,0.07371274033412337,0.03017521190270781
1782845838899566000,2.679566162109375,0.1337175655722618,0.05798837084919214,0.04498889628350734
1782845838909571000,2.689571044921875,0.1635930638760328,0.058009121376276014,0.07068053303137421
1782845838919576000,2.699576171875,0.20089199017882345,0.04217968408167362,0.07981865599378943
1782845838929581000,2.7095810546875,0.22568799326121805,0.022304040136188266,0.04727408461123705
1782845838939586000,2.7195859375,0.22348434573709963,0.02779737685546279,0.05557341866195201
1782845838949591000,2.729591064453125,0.15188509042561055,0.030994857722520825,0.04822685529142618
1782845838959596000,2.739595947265625,0.0670066668242216,0.04992854464277625,0.03209156691804528
1782845838969601300,2.749601318359375,-0.012599953854084014,0.05004457223787904,0.022374767284840343
1782845838979606300,2.759606201171875,-0.07518354353904724,0.03650806818604469,0.02281841939911246
1782845838989611300,2.769611328125,-0.08133329834043979,0.0163486388631165,0.014202274484187363
1782845838999616300,2.7796162109375,-0.04855623337626457,0.00593275104984641,-0.019491466933488844
1782845839009621200,2.789621337890625,-0.013913959062099456,-0.01820303455814719,-0.01803235416635871
1782845839019626200,2.799626220703125,0.052637949731945986,-0.023492811529338357,-0.05361658550575375
1782845839029631200,2.80963134765625,0.10158113659918308,-0.02736629196181893,-0.06519216474816203
1782845839039636200,2.81963623046875,0.10837445000112056,-0.02309256016537547,-0.06788871035575866
1782845839049641200,2.82964111328125,0.09254910435974598,-0.0032771219745278356,-0.09335691361129284
1782845839059646200,2.839646240234375,0.05121522345244884,0.017926409573853015,-0.12251841842681169
1782845839069651200,2.849651123046875,0.00887654941678047,0.03814312204197049,-0.11251768728569149
1782845839079656200,2.85965625,-0.02883329577445984,0.050783407906442875,-0.10067205893024801
1782845839089661200,2.8696611328125,-0.042215924438834186,0.06272738206982613,-0.08479980540722608
1782845839099666200,2.879666259765625,-0.0036480011135339736,0.05827040266096591,-0.05096431743130088
1782845839109671200,2.889671142578125,0.022564298507571218,0.03637304362952709,-0.022388941940665243
1782845839119676200,2.89967626953125,0.04094049767553806,0.00515592145845294,0.03436681837365031
1782845839129681200,2.90968115234375,0.11354746872484683,0.003398702527582645,0.05901669098362326
1782845839139686100,2.91968603515625,0.1565612655431032,-0.018597879094630478,0.06058890873640775
1782845839149690600,2.929690673828125,0.18881869054734707,0.008268646651506423,0.0672051120057702
1782845839159694600,2.939694580078125,0.21859949630498884,0.014308803598582744,0.04608063704296946
1782845839169699600,2.949699462890625,0.1960965725958347,0.020473902099579572,0.047358986415714024
1782845839179704600,2.95970458984375,0.1909603787511587,0.04202054799720645,0.03799772222191095
1782845839189709600,2.96970947265625,0.16537936277091503,0.05874591121822595,0.009657470661401749
1782845839199714600,2.979714599609375,0.0994581530958414,0.03799786835238337,0.024193068753182886
1782845839209719600,2.989719482421875,0.041347324910759924,0.01825432635396719,0.03552271041050553
1782845839219724500,2.999724609375,0.004848609074950218,0.005402297434955835,0.04949979783669114
1782845839229729500,3.0097294921875,-0.032442718443274496,-0.010073796377331018,0.0814716838978231
1782845839239734500,3.019734619140625,-0.034818215402960775,-0.027565321665257214,0.09582505729049444
1782845839249739500,3.029739501953125,0.03220247994661331,-0.01664601437449455,0.09224676041230559
1782845839259744800,3.039744873046875,0.10200783757865428,0.011193594187498093,0.02906900422647595
1782845839269749800,3.049749755859375,0.15883096404075622,0.013801730859279632,-0.03162117292732
1782845839279754800,3.059754638671875,0.15076573100686072,0.04026216002255678,-0.08164616368189453
1782845839289759700,3.069759765625,0.13532324720323086,0.06723521488308906,-0.12404358216747641
1782845839299764700,3.0797646484375,0.10719780743718146,0.07830912821367382,-0.15618936349079013
1782845839309769700,3.089769775390625,0.08227671667039393,0.06970540438890457,-0.1382940797075629
1782845839319774700,3.099774658203125,0.09321487479209899,0.04841989364549518,-0.10949892398640512
1782845839329779700,3.10977978515625,0.07420622293949126,0.029114304672926663,-0.08122852279171347
1782845839339784700,3.11978466796875,0.07287292850911617,-0.004600479532778263,-0.0143706167884171
1782845839349789700,3.129789794921875,0.08643149826228617,-0.027183482740819453,0.05546908150464296
1782845839359794700,3.139794677734375,0.08804653224349021,-0.03356646177619695,0.06535042404979467
1782845839369799700,3.149799560546875,0.101314594617486,-0.02914163107126951,0.05097074717208743
1782845839379804700,3.1598046875,0.05363046790063381,-0.022651830660551785,0.043873190126568075
1782845839389809700,3.1698095703125,0.03957680810689926,0.004835749593377113,0.037802930302172896
1782845839399814700,3.179814697265625,0.019210896426439285,0.011385901889204979,0.022639263439923524
1782845839409819600,3.189819580078125,0.03739186528325081,0.022078122425824402,-0.0064570671848952765
1782845839419824600,3.19982470703125,0.06153203480541706,0.04103519022166729,-0.024480799653381107
1782845839429830000,3.209829833984375,0.09850655145943164,0.05700768924877047,-0.021048779378086326
1782845839439835000,3.2198349609375,0.12172376091778278,0.05159253233224153,-0.025193331836909055
1782845839449839900,3.22983984375,0.13954524881243704,0.02635229261368513,-0.000012128829210996626
1782845839459843600,3.239843505859375,0.14339783258736133,0.014926789366453886,0.019848317547142506
1782845839469848600,3.2498486328125,0.18052900110781192,0.002359860999137163,0.017974194238334892
1782845839479853600,3.259853515625,0.22520108652710913,0.002812573202699423,0.012520312746614217
1782845839489858600,3.269858642578125,0.22069559180140494,-0.009554448678344488,-0.05056479671970009
1782845839499863600,3.279863525390625,0.21732816119492052,-0.012792553816735743,-0.07104980473518371
1782845839509868500,3.28986865234375,0.1279658701777458,0.028727497312426565,-0.08863938357010483
1782845839519873500,3.29987353515625,0.03885843070447444,0.01693959049358964,-0.08255743330791591
1782845839529878500,3.30987841796875,-0.03912263459861278,0.0022233751378953454,-0.047906245034933084
1782845839539883500,3.319883544921875,-0.09139993432462215,-0.0021717910811305044,-0.009859569104760884
1782845839549888500,3.329888427734375,-0.12286650121212005,-0.002862403693795204,-0.017696546340733765
1782845839559893500,3.3398935546875,-0.10606851114630698,0.003684533731639385,-0.002834785034507513
1782845839569898500,3.3498984375,-0.059658057627081866,0.008212970941513777,-0.025052462061494588
1782845839579903500,3.359903564453125,0.038026656055450435,-0.009558978722989558,-0.028521453346312044
1782845839589908500,3.369908447265625,0.12455343138575553,-0.00835091810747981,-0.03916340500041842
1782845839599913700,3.379913818359375,0.17918986145853996,0.01868248863816261,-0.04905541507005691
1782845839609918700,3.389918701171875,0.19314999774992464,0.016351707603037356,-0.05201397261470556
1782845839619923700,3.399923828125,0.16902210318744182,0.01937470868602395,-0.0204248022608459
1782845839629928700,3.4099287109375,0.07533084305524826,0.06320230610519648,0.01526011297404766
1782845839639934000,3.419933837890625,-0.002463759765028953,0.07675605355277657,0.06085150519534945
1782845839649939000,3.42993896484375,-0.06416939757168293,0.06313450156599283,0.09624211365878581
1782845839659944000,3.43994384765625,-0.0518704724907875,0.04292728757858276,0.12408186835125087
1782845839669949000,3.449948974609375,-0.013405425018072127,0.04692132565081119,0.12246668823957442
1782845839679954000,3.459953857421875,0.04820493572056293,0.05961714109480381,0.11276581682786345
1782845839689959000,3.469958984375,0.10762626198232174,0.058730859779566526,0.08773089042305945
1782845839699964000,3.4799638671875,0.15991817475557327,0.06383695074692368,0.02030073748975992
1782845839709969000,3.489968994140625,0.2413011574566364,0.10099559179618954,-0.03261749048829078
1782845839719974000,3.499973876953125,0.27566344578564167,0.08565452254042029,-0.045697336813807485
1782845839729979000,3.509978759765625,0.2875467758029699,0.09363499990031122,-0.061760875125229354
1782845839739984000,3.51998388671875,0.29553192933797834,0.08845832791477441,-0.062409986683726305
1782845839749988900,3.52998876953125,0.264355285307765,0.058069619391858576,-0.03508578029796481
1782845839759993900,3.539993896484375,0.1900327425122261,0.03494987895861268,-0.017005933728069068
1782845839769997800,3.549997802734375,0.11838380284011363,0.019292729490995406,-0.010022066190093755
1782845839780002800,3.5600029296875,0.04946224230527878,-0.009980565135926007,0.021804858442395925
1782845839790007800,3.5700078125,0.007705167549848556,-0.03521481350511312,0.05124152693748474
1782845839800012800,3.5800126953125,-0.006731354081630707,-0.03921542744860053,0.027461715160310266
1782845839810017800,3.590017822265625,-0.03410568321943283,-0.011051993759721516,-0.00015767477974295617
1782845839820022800,3.600022705078125,-0.04270166212916374,-0.0071286828361451626,-0.003984685721993446
1782845839830027800,3.61002783203125,-0.03680266721844673,0.004245674745738506,0.02026332808881998
1782845839840032800,3.62003271484375,0.001381225225329399,0.01778393236324191,-0.0031888591691851616
1782845839850037800,3.630037841796875,0.053631052422523494,0.020466011054068804,0.005135170931369066
1782845839860042800,3.640042724609375,0.08933072683513164,0.042102819453179834,-0.0285778597086668
1782845839870047700,3.6500478515625,0.12587269729077816,0.04257657444477081,-0.02447027825936675
1782845839880052700,3.660052734375,0.13590543100535868,0.0576512478493154,-0.04022022057697177
1782845839890057700,3.6700576171875,0.11913725155591964,0.06397825891375541,-0.0231076116040349
1782845839900062700,3.680062744140625,0.11590426098406315,0.03298515475690365,0.010736790330708026
1782845839910067700,3.690067626953125,0.12373919239342213,-0.00629223201200366,0.0501429180458188
1782845839920072700,3.70007275390625,0.13768588468134402,0.011368073971569538,0.042441403757780785
1782845839930077700,3.71007763671875,0.15356325277090072,0.007910919255018235,0.031772271835803986
1782845839940082700,3.720082763671875,0.14485153852701185,0.001976706900447607,0.0299536781065166
1782845839950087700,3.730087646484375,0.12295651758313178,-0.011812310607731342,0.027093174108862875
1782845839960092700,3.7400927734375,0.12372867099940776,-0.00564955019429326,0.004114303451031446
1782845839970097700,3.75009765625,0.11633914526998997,0.029570670138299462,0.009297697438299656
1782845839980102700,3.7601025390625,0.11117255628705024,0.011906418631970882,0.006021598377078771
1782845839990107600,3.770107666015625,0.1128039568811655,0.006898673472553491,-0.01648614763766527
1782845840000113000,3.78011279296875,0.10858370883762836,0.019536621249467135,-0.01639554674476385
1782845840010118000,3.790117919921875,0.05900514667630195,0.011585223853588103,-0.06635828591808676
1782845840020123000,3.800122802734375,0.04395312349498272,0.01652604125663638,-0.09620645782351493
1782845840030127900,3.8101279296875,0.031016485032439232,0.023003274446725844,-0.08945230738818645
1782845840040132900,3.8201328125,0.014529460611939429,0.025696897444874047,-0.05952843989804387
1782845840050137900,3.830137939453125,0.01787000321149826,0.02799026907905936,-0.024911446155607697
1782845840060142800,3.840142822265625,0.035894904723763464,0.03144508570805192,-0.009265402603894472
1782845840070146800,3.850146728515625,0.034653380230069156,0.0009857961669564248,0.011946604511886835
1782845840080151800,3.86015185546875,0.057846624290943144,-0.01236526831537485,0.02590294141098857
1782845840090156800,3.87015673828125,0.1080634843558073,-0.02782251129671931,0.017699176689237355
1782845840100161800,3.880161865234375,0.16213760437071323,-0.019363602770119906,0.010939034904539584
1782845840110166800,3.890166748046875,0.18205694132745265,-0.00815568779632449,-0.02230170204862952
1782845840120171800,3.900171875,0.17392390375435351,0.011408405981957912,-0.027711013746261594
1782845840130176800,3.9101767578125,0.15888532457649707,0.028404110576957464,-0.057284898754954336
1782845840140181800,3.920181640625,0.1310866325467825,0.04549392319619655,-0.0553194439008832
1782845840150186800,3.930186767578125,0.09755261173546313,0.058374593687802546,-0.0320079802878201
1782845840160191700,3.940191650390625,0.055689738517999646,0.055319590031355614,-0.01702858395129442
1782845840170196700,3.95019677734375,-0.020904256340861318,0.05388970335870981,-0.007759235824644565
1782845840180201700,3.96020166015625,-0.013380290576815605,0.06593596885278821,0.019694880551099775
1782845840190206700,3.970206787109375,0.03898819456398487,0.02338818211108446,0.0354651350043714
1782845840200211700,3.980211669921875,0.06639642597138881,0.03763999482542276,0.012841945916414261
1782845840210216700,3.990216796875,0.11283961271643637,0.03340016529858112,-0.0170000885091722
1782845840220221700,4.0002216796875,0.10386369457840919,0.04533712519928813,-0.015023673869669437
1782845840230226700,4.010226806640625,0.10628887589871883,0.054201545786857604,-0.0025768647506833075
1782845840240231700,4.020231689453125,0.09719020816385746,0.03229395762234926,0.0060059624165296555
1782845840250236700,4.030236572265625,0.09630874915421009,0.017589140443503855,-0.007492986103892326
1782845840260241700,4.04024169921875,0.0924918212145567,0.049896395938843485,0.016709288869053124
1782845840270246700,4.05024658203125,0.09509586623311042,0.03891965937241912,0.024044746323674916
1782845840280251600,4.060251708984375,0.062359133279323575,0.003131722154468298,0.050845951748639345
1782845840290256600,4.070256591796875,0.04278700232505798,-0.0009359656758606434,0.06403788014650344
1782845840300261600,4.08026171875,0.05571078130602836,0.0033671383455395696,0.0528702971830964
1782845840310266600,4.0902666015625,0.056605684319138524,0.0025743805326521397,0.03576397182047367
1782845840320271600,4.100271728515625,0.0904606076478958,0.0028971827462315556,0.008044920898228882
1782845840330276600,4.110276611328125,0.11567279031574726,0.009701748194545506,-0.00626475948318839
1782845840340281600,4.120281494140625,0.12084522451758384,0.036290187651664016,-0.037694209230691195
1782845840350286800,4.130286865234375,0.09668225864171981,0.07993132258802652,-0.05881605384498834
1782845840360290800,4.140290771484375,0.06650397799909115,0.08392886779159307,-0.0537897501155734
1782845840370295800,4.1502958984375,0.0643710576236248,0.05559621501564979,-0.04697115614190697
1782845840380300800,4.16030078125,0.0732242261648178,0.02996887567564845,-0.02070011207088828
1782845840390305800,4.170305908203125,0.07109072126746177,0.01405453657656908,-0.004598141445219517
1782845840400310800,4.180310791015625,0.06417699635624885,0.019354834941774604,0.04537804173156619
1782845840410315800,4.190315673828125,0.06955927391648292,-0.0161744513399899,0.07220555064156652
1782845840420320800,4.20032080078125,0.07435352245569228,-0.02736979909315705,0.08900149488076567
1782845840430325800,4.21032568359375,0.08611001122295855,0.002644377028942108,0.07930544577464461
1782845840440330800,4.220330810546875,0.08851707236468792,0.017084990313649177,0.053367140789330005
1782845840450335700,4.230335693359375,0.07112228544950484,0.015909516793489457,0.03212430014386773
1782845840460340700,4.2403408203125,0.043749709877371784,0.04340294226631522,0.0025149054303765296
1782845840470345700,4.250345703125,0.032408231651782984,0.05974120586588978,-0.019342121590673923
1782845840480350700,4.260350830078125,0.05003799636662006,0.06561039016023278,-0.03051920303478837
1782845840490355700,4.270355712890625,0.050855157968401905,0.030454028844088314,-0.01543240080103278
1782845840500360700,4.280360595703125,0.05419570056796073,0.020641221490502355,-0.02095116422250867
1782845840510365700,4.29036572265625,0.09287819018363952,0.03307078721374273,0.005823445456475019
1782845840520370700,4.30037060546875,0.10827975745499134,0.009492635488510131,0.020060645123571155
1782845840530375700,4.310375732421875,0.12063655020296572,-0.005352613074332475,0.0023966858781874177
1782845840540380700,4.320380615234375,0.1223591362118721,0.01523424788042903,0.01016103626936674
1782845840550385700,4.3303857421875,0.14239537754654882,0.034417817908525467,-0.016615911497175694
1782845840560390700,4.340390625,0.11906593988537788,0.0248101777382195,-0.025463380949944256
1782845840570395600,4.350395751953125,0.09360299732685089,0.02023234842866659,-0.05752747533917427
1782845840580400600,4.360400634765625,0.08049509395062923,0.0368584890589118,-0.01628901763036847
1782845840590405600,4.370405517578125,0.07556465181112289,0.025252076286822557,0.004735065697878599
1782845840600410600,4.38041064453125,0.08226210362315177,0.030131665021926164,-0.00022825579792261122
1782845840610415600,4.39041552734375,0.08200432946979999,0.033577275431156156,-0.0011393792934715748
1782845840620420600,4.400420654296875,0.08975625877082348,0.01903393242433667,-0.01427563198134303
1782845840630425600,4.410425537109375,0.06370587171316147,0.02922770191952586,-0.016780308278650045
1782845840640429800,4.420429931640625,0.04511339944601059,0.02656637375578284,0.035207653111964464
1782845840650434800,4.430434814453125,0.04055938940346241,0.012025514966994524,0.06347352426201104
1782845840660439800,4.440439697265625,0.03152794168591499,0.01895195322930813,0.06885419438704848
1782845840670444800,4.45044482421875,0.08209025418758392,0.02234685636460781,0.07742036268040538
1782845840680449800,4.46044970703125,0.13821546151340006,0.03496054648309946,0.07470920402556658
1782845840690454800,4.470454833984375,0.147134096506238,0.040417788975685834,0.03107946726605296
1782845840700459800,4.480459716796875,0.18363924208283422,0.04738222116082907,-0.003209609696269035
1782845840710464800,4.49046484375,0.18395663746893404,0.04799085457846522,-0.03340513373464346
1782845840720469800,4.5004697265625,0.14904431404173374,0.0297815364100039,-0.06765431707799434
1782845840730474800,4.510474853515625,0.1541436830073595,0.015386515832692384,-0.046971302272379396
1782845840740479700,4.520479736328125,0.12560849339663982,-0.006701397334784269,-0.007246463996917009
1782845840750484700,4.530484619140625,0.06398059700131416,0.018757161309570072,-0.0071792439796030515
1782845840760489700,4.54048974609375,0.04441664935350418,-0.01125204637646675,0.01250628422126174
1782845840770494700,4.55049462890625,0.00892448021173477,-0.01724324961528182,0.024958792428672313
1782845840780499700,4.560499755859375,-0.008205518287420272,-0.023676205272227524,0.006609042876213789
1782845840790504700,4.570504638671875,-0.021837737798690793,-0.006745967128872871,0.00414659828543663
1782845840800509700,4.580509765625,-0.026865210571885106,0.007934592391550541,-0.019287322663515804
1782845840810514700,4.5905146484375,-0.04878711952269077,0.017114800930023193,-0.06287570449933409
1782845840820519700,4.600519775390625,-0.03024082448482513,0.046887131120264526,-0.07984934339299797
1782845840830524700,4.610524658203125,0.03836743231713772,0.05727218540385365,-0.11023615221977233
1782845840840529700,4.62052978515625,0.07314063953459263,0.05945858953222632,-0.09492197097092867
1782845840850534700,4.63053466796875,0.12833002731502055,0.05070084418952465,-0.05060249838158488
1782845840860539600,4.64053955078125,0.157738492628932,0.02906783518269658,-0.01695639549791813
1782845840870544600,4.650544677734375,0.1834194618523121,0.00561930118650198,-0.012471066777408122
1782845840880549600,4.660549560546875,0.18641747462451458,0.004877835169434547,0.023055735286325214
1782845840890554600,4.6705546875,0.20440905838906764,-0.002430003625899553,0.047951983872801064
1782845840900559600,4.6805595703125,0.1791658960610628,-0.011459990038722752,0.03344356604889035
1782845840910563600,4.6905634765625,0.15455810902714728,0.01868687255233526,0.0025284955643117427
1782845840920568800,4.70056884765625,0.12137304778397083,0.04482902954667806,0.005427870267629623
1782845840930573800,4.71057373046875,0.0916857655286789,0.04081584838256239,-0.0034672377191483973
1782845840940578800,4.720578857421875,0.04813888474702835,0.03327726957127452,-0.01273000997453928
1782845840950583800,4.730583740234375,0.03329553588032722,0.04982303844168782,0.010918430507928132
1782845840960588800,4.7405888671875,0.03723462889492511,0.02837269252538681,0.009839110838621854
1782845840970593800,4.75059375,0.0022679449319839475,0.011184972489625215,-0.011492869395017624
1782845840980598800,4.760598876953125,0.01884381667971611,0.026351854222267865,0.02353095158264041
1782845840990603800,4.770603759765625,0.07588321624100208,0.02252016710489988,0.02980462502464652
1782845841000608800,4.78060888671875,0.08146715385317801,0.0032648470148444173,0.004904284784942865
1782845841010613800,4.79061376953125,0.11878887650966644,0.027061025404930113,-0.005585106655955315
1782845841020618800,4.80061865234375,0.1344102240115404,0.04566080419570207,-0.03224398100078106
1782845841030623700,4.810623779296875,0.11918342878520488,0.028745325230062006,-0.0624113018579781
1782845841040628700,4.820628662109375,0.13199030338823795,0.006757219175249338,-0.04074789771288633
1782845841050633700,4.8306337890625,0.12149755094647406,0.004937894793599844,-0.05039046306610107
1782845841060638700,4.840638671875,0.1022334630280733,0.0038061142846941946,-0.06432195778489112
1782845841070643700,4.850643798828125,0.10253098466992377,0.014914368276298046,-0.04953618432432413
1782845841080648700,4.860648681640625,0.1336135206758976,-0.0035617841348052023,-0.04608005252107977
1782845841090653700,4.87065380859375,0.15793196937441825,-0.004733458262681961,-0.044430677878856656
1782845841100658700,4.88065869140625,0.16561200248301028,0.0007288987964391708,-0.022333266230672597
1782845841110663700,4.89066357421875,0.17723989643454552,0.004748801962286234,-0.030660218940675256
1782845841120668700,4.900668701171875,0.15724983232915402,0.03764715521857142,-0.032144612279534336
1782845841130673700,4.910673583984375,0.09076338998675346,0.05156842080429196,-0.06665843790844082
1782845841140678700,4.9206787109375,0.04327157097160816,0.05570552060902118,-0.039163551130890845
1782845841150683600,4.93068359375,-0.045377603340148925,0.05213964482098817,-0.005429185441881418
1782845841160688600,4.940688720703125,-0.16943302207589148,0.054408612666279076,0.0000786181941628456
1782845841170692600,4.950692626953125,-0.19228782796263694,0.040446138287335634,0.030647505589574575
1782845841180697600,4.960697509765625,-0.17900281445384025,0.017851006250083446,0.05442760962769389
1782845841190702600,4.97070263671875,-0.121622638630867,-0.012329612480103969,0.08143032897412776
1782845841200707600,4.98070751953125,-0.001796235767006874,-0.0020911270603537558,0.10939122582823037
1782845841210712600,4.990712646484375,0.1355868665754795,0.004762099835276604,0.071571490521729
1782845841220717600,5.000717529296875,0.23818331769704817,0.02449175943881273,0.038677521179616446
1782845841230722600,5.01072265625,0.32012218071520326,0.042869712172448636,0.013207856619358062
1782845841240727600,5.0207275390625,0.32314123627543445,0.05841930961236357,-0.0531841854378581
1782845841250732500,5.030732666015625,0.27738310918509956,0.10002353189364076,-0.0647889907747507
1782845841260737500,5.040737548828125,0.17537644065022467,0.09253975200951099,-0.05024126385375857
1782845841270742500,5.050742431640625,0.07925123136937617,0.06215016670376062,-0.004637888933718204
1782845841280747800,5.060747802734375,0.035819501399993896,0.030044717390835283,0.06938479413241147
1782845841290752800,5.070752685546875,0.021438509348034856,-0.0057435120880603785,0.09112886229827999
1782845841300757800,5.0807578125,0.03604746493697166,-0.013679273523390292,0.0942167453110218
1782845841310762800,5.0907626953125,0.08509820383191108,-0.03969941157326102,0.05902618946433067
1782845841320767700,5.100767822265625,0.12795593330562113,-0.048965983220934865,0.02728796602860093
1782845841330772700,5.110772705078125,0.16393091752827166,-0.03922755627781153,0.0040161037735641
1782845841340777700,5.12077783203125,0.16114391715824603,-0.005256020832061767,0.004011135337501764
1782845841350782700,5.13078271484375,0.11833645656704903,0.017368191169202327,-0.030394699872285127
1782845841360787700,5.14078759765625,0.08142740636467934,0.02615881586819887,-0.07548734879121184
1782845841370792700,5.150792724609375,0.04144201745688915,0.03159676913842559,-0.07360445765405893
1782845841380797700,5.160797607421875,-0.018678396984934807,0.031699498860538,-0.04287745708748698
1782845841390802700,5.170802734375,-0.03342062356472015,0.010946925950050354,-0.028337913472950456
1782845841400807700,5.1808076171875,-0.028232407271862027,-0.0020874737985432145,0.00327039997279644
1782845841410812700,5.190812744140625,-0.011106500425934791,-0.0072165072500705715,0.023267332210391758
1782845841420817700,5.200817626953125,0.021108839002251623,0.004769406358897685,0.034940526608377695
1782845841430821600,5.210821533203125,0.05320084431171417,-0.0035769817039370535,0.03766732122376561
1782845841440826600,5.22082666015625,0.07138239769041538,0.006821808844059705,0.042130584242939945
1782845841450831600,5.23083154296875,0.09688801034688949,0.027693916480988262,0.017495763071626425
1782845841460836600,5.240836669921875,0.10621113448739052,0.037579058418422934,0.0011604220815002917
1782845841470841600,5.250841552734375,0.1291688162267208,0.05482186964228749,-0.02102861337289214
1782845841480846600,5.2608466796875,0.15751812787652014,0.07299684714972972,-0.010718231760710477
1782845841490851600,5.2708515625,0.13392156371176242,0.0636088410794735,0.00778363961353898
1782845841500856600,5.280856689453125,0.13715280071794986,0.057980772064626214,0.024803894127905367
1782845841510861600,5.290861572265625,0.12940613211393356,0.0694699881978333,0.03294818374738097
1782845841520866600,5.300866455078125,0.14179682713150976,0.04998743522316217,0.016833792031556365
1782845841530871600,5.31087158203125,0.13970306972265242,0.019325316586345433,0.013187690614163874
1782845841540876500,5.32087646484375,0.16598025127351282,0.004565992741286755,0.01494680924117565
1782845841550881500,5.330881591796875,0.1689782640457153,0.00928834508806467,0.010257190120220184
1782845841560886500,5.340886474609375,0.13803309068381786,0.018163725461065768,0.004380114780366421
1782845841570891500,5.3508916015625,0.09804302560091017,0.0463077237971127,-0.010213643239438533
1782845841580896500,5.360896484375,0.058683659636974334,0.023612492386251686,-0.00880801422521472
1782845841590901500,5.370901611328125,0.005917115089297294,0.03407061190605164,-0.030201369257271286
1782845841600906500,5.380906494140625,0.0016384148567914962,0.03960033511295914,-0.025007746136933563
1782845841610911500,5.390911376953125,-0.026073767933249472,0.03970978683680296,-0.01024082350730896
1782845841620916500,5.40091650390625,-0.012527473139762877,0.029820114854723214,-0.00110255441442132
1782845841630921700,5.410921630859375,0.012544424274563789,0.010060498504340648,0.004651332937180995
1782845841640926700,5.4209267578125,0.07295709966123104,0.002418459318578243,0.03870367853417992
1782845841650931700,5.430931640625,0.13317396021485328,-0.015590075580775737,0.014880319876223801
1782845841660937000,5.44093701171875,0.16251111385822295,-0.0059470718361437315,0.022454116131365297
1782845841670942000,5.45094189453125,0.17317396216988562,0.0026684885568916796,0.03875657776519656
1782845841680947000,5.460947021484375,0.1447936708599329,0.038790626165270806,0.004216010259836912
1782845841690950700,5.47095068359375,0.10996668762862681,0.04537365781739354,-0.015916823317110536
1782845841700955600,5.48095556640625,0.042022447693347925,0.034859278065711256,-0.009422492861747742
1782845841710960600,5.490960693359375,0.020610241830348968,0.06362403864860534,-0.02261485965102911
1782845841720965600,5.500965576171875,0.051513329616189,0.042487434856593606,-0.015160013600438832
1782845841730970600,5.510970703125,0.08767068466842173,0.02555252053812146,-0.022722996200621126
1782845841740975600,5.5209755859375,0.12735153767168522,0.012746668848395346,-0.03505947681292891
1782845841750980600,5.530980712890625,0.17343816606402396,0.002010463039577007,-0.01490311622992158
1782845841760985600,5.540985595703125,0.18942133261561392,-0.003317600115388632,-0.009915390945225953
1782845841770990600,5.550990478515625,0.16215806263685226,-0.003382335914671421,-0.0018175708159804344
1782845841780995600,5.56099560546875,0.16319149733781813,0.01039440663382411,-0.004183130903542042
1782845841791000600,5.57100048828125,0.12194529471397399,0.020536299811303615,-0.0248209913931787
1782845841801005600,5.581005615234375,0.05083762231171131,0.01849573389440775,-0.04083323790878057
1782845841811010600,5.591010498046875,-0.0002098433583974838,0.023890140283852813,-0.013216770578175783
1782845841821015800,5.601015869140625,-0.03494447213113308,0.013448095116019248,0.013020955745130777
1782845841831020800,5.611020751953125,-0.056684010252356525,0.025524171226471663,0.02516717448234558
1782845841841025800,5.62102587890625,-0.034388591814041136,0.015490122337639332,0.03379369466081261
1782845841851030800,5.63103076171875,0.020646482187509536,-0.014361410568654536,0.03764350195676088
1782845841861035800,5.641035888671875,0.05820552073121071,-0.02026405874118209,0.006227934604138135
1782845841871040800,5.651040771484375,0.11081073723733424,-0.021228081467747687,-0.019557079515606163
1782845841881045800,5.661045654296875,0.15232932706177232,0.019740180997550486,-0.028709377133846282
1782845841891050800,5.67105078125,0.1529021585136652,0.0213854639865458,-0.037320845873653884
1782845841901055700,5.6810556640625,0.13485329160392284,0.026690292396396396,-0.01926277274414897
1782845841911060700,5.691060791015625,0.12457447417378426,0.02424669863656163,0.005497866763919591
1782845841921064700,5.701064697265625,0.11681436156630515,0.02335427984148264,0.03418737015351653
1782845841931069700,5.711069580078125,0.11338730972707271,-0.0023807576566934586,0.03186798729524016
1782845841941074700,5.72107470703125,0.06472761597633361,-0.008808744877576827,0.028240152186900375
1782845841951079700,5.73107958984375,0.05550619864463806,0.0014566285490989685,0.026197102051973342
1782845841961084700,5.741084716796875,0.049693128451704975,-0.01790989683046937,-0.004046352781355381
1782845841971089700,5.751089599609375,0.05063713130354881,0.0061804422006011,-0.016548399218916893
1782845841981095000,5.761094970703125,0.07978840698599815,0.03046425797715783,-0.0017030045256018638
1782845841991100000,5.771099853515625,0.11078268018662929,0.0492051988042891,-0.05013356569558382
1782845842001105000,5.78110498046875,0.1274737027466297,0.06078238548189401,-0.06163257257044315
1782845842011110000,5.79110986328125,0.1428448748797178,0.05140548532754183,-0.06175342247113585
1782845842021115000,5.801114990234375,0.13130115208029747,0.0347312677718699,-0.04195435089319944
1782845842031120000,5.811119873046875,0.132227034753561,0.021247224559634924,-0.005023527250438928
1782845842041124900,5.821124755859375,0.10678747307062149,0.031448154447972776,0.0027143735252320765
1782845842051129900,5.8311298828125,0.0670633654475212,0.02146262087598443,0.019867168378084898
1782845842061134800,5.841134765625,0.02395019990801811,0.031695261076837775,0.026515081959962845
1782845842071139800,5.851139892578125,-0.002285480588674545,0.04199541355594993,0.04876578447371721
1782845842081144800,5.861144775390625,-0.009957330390810966,0.02134352454096079,0.030301468630880117
1782845842091149800,5.87114990234375,0.009957330390810966,0.033903730906546116,0.06744447371959686
1782845842101154800,5.88115478515625,0.04738952768445015,0.016961656194925307,0.06275032455399632
1782845842111159800,5.891159912109375,0.09264145881831645,0.020246084693074224,0.00041340310648083686
1782845842121164800,5.901164794921875,0.10748773029446601,0.0283240310780704,-0.03221826203763485
1782845842131169800,5.911169677734375,0.17561083392798899,0.03357888286635279,-0.06738309892117977
1782845842141174800,5.9211748046875,0.20008067379593847,0.043292321498692034,-0.09007701515778899
1782845842151179000,5.931178955078125,0.19882628982067108,0.02188347663655877,-0.06898761150836945
1782845842161184000,5.94118408203125,0.17176117276251315,0.016014146211743355,-0.05891249995678663
1782845842171189000,5.95118896484375,0.136990303632617,0.0163378252081573,-0.006650982321798801
1782845842181194000,5.961194091796875,0.11937515196502207,0.014578706581145524,0.0012587678894400596
1782845842191199000,5.971198974609375,0.1047474916756153,0.0052574821367859835,0.02177066391184926
1782845842201204000,5.981203857421875,0.08186930491328238,0.0023645371742546557,0.007421820563822984
1782845842211209000,5.991208984375,0.028609423890709876,0.0007464344531297683,-0.030074966398626564
1782845842221214000,6.0012138671875,-0.005246668481826782,0.024050153151154517,-0.03832096282690763
1782845842231219000,6.011218994140625,-0.008929156386852264,0.04857859133854508,-0.05824804469868541
1782845842241224000,6.021223876953125,0.039247722283005715,0.04391235309317708,-0.05171513579860329
1782845842251229000,6.03122900390625,0.08630816414356231,0.04198912994563579,-0.027675357910990715
1782845842261234000,6.04123388671875,0.10130816487669944,0.044077334396541115,-0.007220160511881113
1782845842271239200,6.0512392578125,0.12110007606148719,0.028477760335057972,0.022202041066437958
1782845842281244200,6.061244140625,0.11110241366028785,0.010230594374239444,0.06474953554719687
1782845842291249200,6.071249267578125,0.09426116897463797,0.0025325872175395486,0.07967968591451645
1782845842301254100,6.081254150390625,0.10071429063677788,-0.004905015437304973,0.05440232905596494
1782845842311259100,6.091259033203125,0.11218144106864929,-0.0008444880001246929,0.06405293158516287
1782845842321264000,6.10126416015625,0.1207464403182268,0.0032975802406668663,0.053444005417823785
1782845842331269000,6.11126904296875,0.14642156432271003,-0.0133249071277678,0.04006692971140146
1782845842341274000,6.121274169921875,0.132109545853734,0.005105798706412315,-0.02200418040677905
1782845842351279000,6.131279052734375,0.09231178847253323,0.038796909775584934,-0.03995470150858164
1782845842361284000,6.1412841796875,0.07131342410743235,0.023442981038242577,-0.02262815752401948
1782845842371289000,6.1512890625,0.06635492491722106,0.027350363740324974,-0.02802314843535423
1782845842381294000,6.161294189453125,0.04190378974974155,0.028032939177006482,-0.052174131612479684
1782845842391298000,6.171298095703125,0.025443653336167334,0.03347410731762648,-0.06782733555734158
1782845842401303000,6.181302978515625,0.014746318233013152,0.02712459216043353,-0.04442307909429073
1782845842411308000,6.19130810546875,0.01623041931092739,0.007838584671169518,-0.021560820553451775
1782845842421313000,6.20131298828125,0.00826221691071987,-0.016277034931629894,-0.006094079091399908
1782845842431318000,6.211318115234375,0.026463644033670426,-0.034442367827892305,-0.007817541883140803
1782845842441323000,6.221322998046875,0.03262158214151859,-0.048092269126325846,0.00374357044249773
1782845842451328000,6.231327880859375,0.03934124578535556,-0.016733692657947538,0.008145020271837711
1782845842461333000,6.2413330078125,0.04503741160035133,0.010064736288040875,0.011627893951535224
1782845842471338000,6.251337890625,0.08637304607331753,0.03137216660231352,-0.0039449382334947585
1782845842481343000,6.261343017578125,0.1049912373036146,0.0554335717998445,0.005250467874109745
1782845842491348000,6.271347900390625,0.16309972740113735,0.06551292113512754,-0.015856909823417663
1782845842501353000,6.28135302734375,0.1499742883682251,0.06462751660272478,-0.03917319574207067
1782845842511358000,6.29135791015625,0.10347148039042948,0.04427738701328635,-0.024840280615538356
1782845842521363000,6.301363037109375,0.07319207746088505,0.04217705373317003,0.024383769019693136
1782845842531368000,6.311367919921875,0.06216156488060951,0.012521627920866012,0.06349295961484312
1782845842541373000,6.321373046875,0.04476093274652958,-0.0027118893072009087,0.07588350850194692
1782845842551378000,6.3313779296875,0.08204115434885025,0.004528729470819235,0.05925853691548109
1782845842561383000,6.3413828125,0.15988310344219206,-0.009259411254525184,0.024917437504976988
1782845842571388000,6.351387939453125,0.19842530780434608,-0.015443214455991982,0.007616174092143773
1782845842581393000,6.361392822265625,0.19405016146004198,0.01344122698381543,-0.006469196014106273
1782845842591398000,6.37139794921875,0.18159399999082088,0.037451048124581575,-0.052687634092569345
1782845842601403000,6.38140283203125,0.10641396358311175,0.04105199522599578,-0.06604337475001812
1782845842611408000,6.391407958984375,0.037270869252085684,0.052093759852647775,-0.059587768869847055
1782845842621412000,6.401412109375,0.011955810731649398,0.05385653174147009,-0.08314370876327157
1782845842631417000,6.4114169921875,0.020864508852362632,0.046563598254323005,-0.08701572789102792
1782845842641422000,6.421422119140625,0.03339607364535332,0.039960400597006084,-0.052865767138451335
1782845842651427000,6.431427001953125,0.07337327924668788,0.013860329178720711,-0.03360986252650618
1782845842661432000,6.44143212890625,0.0903349354416132,0.0007401508428156376,0.022476912485063075
1782845842671437000,6.45143701171875,0.09422726670503616,0.00009147767573595046,0.05176262820214033
1782845842681442000,6.461442138671875,0.059121466532349586,-0.002234334923326969,0.0434190166182816
1782845842691447000,6.471447021484375,0.008497194710373877,0.026738223191350698,0.035707565458118914
1782845842701452000,6.4814521484375,-0.007641454663872719,0.050099663425981995,0.01425254336670041
1782845842711457000,6.49145703125,-0.0009311433702707291,0.07932721921503544,0.025626900948584077
1782845842721462000,6.5014619140625,0.008735679641366005,0.07356134916469455,0.038760523287951945
1782845842731467000,6.511467041015625,0.0693254651606083,0.05777282840237021,0.05553557086959481
1782845842741472000,6.521471923828125,0.11825170089304446,0.054208852310478686,0.08322247308790683
1782845842751477000,6.53147705078125,0.22124796498715876,0.04542962578833103,0.0607850158303976
1782845842761482000,6.54148193359375,0.281612125056982,0.011490239046514033,0.06361848569065331
1782845842771487000,6.551487060546875,0.2880921347260475,-0.00663227762132883,0.03865735517442226
1782845842781492000,6.561491943359375,0.2681809810757637,-0.006212737035006285,0.012652122432738541
1782845842791497000,6.5714970703125,0.19284896897673606,-0.02205839481204748,-0.02238163541704416
1782845842801502000,6.581501953125,0.13113222525417803,0.0010033318236470222,-0.04947101013362407
1782845842811507000,6.5915068359375,0.07401274619400501,0.021804273920506236,-0.06353285323381423
1782845842821512000,6.601511962890625,0.06323708515763282,0.057379737431555985,-0.1271320497021079
1782845842831517000,6.611516845703125,0.03578267652094364,0.07510872473716736,-0.12627660191655157
1782845842841522000,6.62152197265625,0.001191255611181259,0.05407572745010256,-0.09515154194310307
1782845842851526100,6.631526123046875,-0.02019873842000961,0.02094078895896673,-0.05492503775581717
1782845842861531100,6.64153125,-0.0430389312595129,0.013850246176123618,-0.04829334465637803
1782845842871536000,6.6515361328125,-0.04979366621673107,-0.02726838454529643,-0.03324307504072785
1782845842881541000,6.661541015625,-0.0172451493114233,-0.0355839390784502,0.008293342701345682
1782845842891546000,6.671546142578125,0.008193243327736854,-0.02227759052067995,0.023348580753058193
1782845842901551000,6.681551025390625,0.033579613518714906,0.007439063959568739,0.027360300612449644
1782845842911556000,6.69155615234375,0.0965647697418928,0.02979585719630122,0.020850918718427418
1782845842921561000,6.70156103515625,0.08878887504339218,0.027933132064342496,0.030639614544063803
1782845842931566000,6.711566162109375,0.1079454109340906,0.02476955346688628,0.060220075424015515
1782845842941571000,6.721571044921875,0.12325287018120289,0.018712006993591785,0.07252513798475264
1782845842951576000,6.731576171875,0.10362228703796864,0.011122574777901172,0.07979556737914681
1782845842961581000,6.7415810546875,0.10908347505331038,0.009500088142603636,0.06499912639409303
1782845842971586000,6.7515859375,0.12539105125367642,0.009107143302261828,0.06389364937022328
1782845842981591000,6.761591064453125,0.13865151484310625,0.010956716691702603,0.049809156046807766
1782845842991596000,6.771595947265625,0.1527279709905386,0.024073972418159246,0.015853694953024387
1782845843001601000,6.78160107421875,0.15296470235586165,0.06329933673888445,-0.006750497173517942
1782845843011606000,6.79160595703125,0.15741349845826624,0.049685091275721786,-0.04091740906089544
1782845843021611000,6.801611083984375,0.15153554633557795,0.040368104615062475,-0.029085078578442333
1782845843031616300,6.8116162109375,0.10846095924079417,0.018443857576698065,-0.01877382018342614
1782845843041621200,6.821621337890625,0.05799392380714416,0.005656710587441921,0.004641542195528745
1782845843051626200,6.831626220703125,0.023510054925084112,0.0037916473679244517,0.0027523674480617044
1782845843061631200,6.84163134765625,0.002421089667081833,-0.007922609692811965,0.0002668342426419258
1782845843071635000,6.851635009765625,0.015252514189481734,-0.015323533599078655,-0.02231865318343043
1782845843081640000,6.861639892578125,0.019677929416298864,0.0024224048413336277,-0.04697860879600048
1782845843091645000,6.87164501953125,0.025575170761346817,0.03290565977990627,-0.04723112225234508
1782845843101650000,6.88164990234375,0.05673369461297988,0.04763692657426,-0.05684899155572056
1782845843111655000,6.891655029296875,0.09739069917201995,0.03607040742114186,-0.04079641302973032
1782845843121660000,6.901659912109375,0.1221890403419733,0.03911898133680224,-0.03544643030390143
1782845843131665000,6.911664794921875,0.09757716165482998,0.027183628871291873,-0.03004004121571779
1782845843141670000,6.921669921875,0.10006079516410828,0.014893910010159014,-0.012354308529943228
1782845843151674000,6.931674072265625,0.0746148037403822,0.032465807057917115,0.01929126818627119
1782845843161679000,6.94167919921875,0.06437398023307322,0.03810220550969243,0.044445729317516086
1782845843171684000,6.95168408203125,0.061710898503661155,0.04188450052738189,0.06067454119324684
1782845843181689000,6.961689208984375,0.1143897647678852,0.04658186456337571,0.06851663299575447
1782845843191694000,6.971694091796875,0.16284370681345461,0.03211436327174306,0.06574234597682953
1782845843201699000,6.981698974609375,0.21217852334678172,0.030996465157717465,0.036005087099969385
1782845843211704000,6.9917041015625,0.23508301359415054,0.030468057369440794,0.012700491619110106
1782845843221709000,7.001708984375,0.21114859577715395,0.028844255559891462,-0.01564370546415448
1782845843231714000,7.011714111328125,0.16509002443552015,0.03732303783074021,-0.007073007126152515
1782845843241719000,7.021718994140625,0.11113690045177936,0.03933510830551386,-0.014263795413076878
1782845843251724000,7.03172412109375,0.08092296397387981,0.039533699617534876,-0.03556786472648382
1782845843261729000,7.04172900390625,0.054446460458636284,0.05610226484164595,-0.031233342653512953
1782845843271734000,7.051734130859375,0.0381242712110281,0.03462488478794694,-0.030494799245893954
1782845843281738000,7.061738037109375,0.07226853287518024,0.013695786266773938,-0.020729192034900187
1782845843291743000,7.071742919921875,0.10180734657049179,0.011189940925687552,-0.017492986592650413
1782845843301748000,7.081748046875,0.10608604680299759,0.02729702611789107,-0.0048785658217966555
1782845843311753000,7.0917529296875,0.10191957477331161,0.027133798380196094,-0.036815234439074994
1782845843321758000,7.101758056640625,0.11021744751930236,0.03918254809230566,-0.02508636433109641
1782845843331763000,7.111762939453125,0.0937502968430519,0.03781988143697381,-0.02207052364125848
1782845843341768000,7.121767822265625,0.07396773800849914,0.028343320300430058,-0.03463730587810278
1782845843351773000,7.13177294921875,0.06371522406339646,0.02598462834507227,-0.008216331942379473
1782845843361778000,7.14177783203125,0.04638122742474079,0.03364478770941496,0.012967471992224455
1782845843371783000,7.151782958984375,0.04381634537279606,0.018710253427922725,0.02083513662740588
1782845843381788000,7.161787841796875,0.06514554912745953,0.006410889955610037,0.006452537140250206
1782845843391793000,7.17179296875,0.08827449578046798,0.006890344035625457,0.019666385108977554
1782845843401798000,7.1817978515625,0.1250339083790779,0.02262114326134324,0.00930251974388957
1782845843411803000,7.191802978515625,0.16267711807489393,0.005955547403544187,0.02884060229808092
1782845843421808000,7.20180810546875,0.1417430511176586,0.028800854809582232,0.022913111945241687
1782845843431813000,7.211813232421875,0.11105156025588511,0.04023118036240339,0.003543371695280075
1782845843441818000,7.221818115234375,0.08264905711412429,0.0558082503311336,-0.03380582349002361
1782845843451823000,7.231822998046875,0.020287001225352284,0.05851619411557912,-0.08081307385861873
1782845843461828000,7.241828125,-0.015279402196407317,0.06132935184016823,-0.05877192244231701
1782845843471833000,7.2518330078125,0.052070378977060315,0.0201142750069499,0.005350128856301308
1782845843481837000,7.261837158203125,0.054124388897418975,-0.029315234072506427,0.009244505946338176
1782845843491842000,7.271842041015625,0.0628419483602047,-0.02713277546688914,0.031486294501274825
1782845843501847000,7.281846923828125,0.06818447843194007,-0.02869505634754896,0.06223623755201697
1782845843511852000,7.29185205078125,0.04590425756275653,-0.030109745451062916,0.05840864208787679
1782845843521857000,7.30185693359375,0.0700000034213066,-0.024105536600202322,0.055072483402490616
1782845843531862000,7.311862060546875,0.0598655628979206,-0.01651449694931507,0.022634879525750874
1782845843541867000,7.321866943359375,0.06503916614353657,0.020744827995449303,-0.017066139482706785
1782845843551872000,7.3318720703125,0.10701952826082706,0.014704671048372983,-0.0372689695559442
1782845843561877000,7.341876953125,0.12234335412085055,0.017558891435712574,-0.04443418501019478
1782845843571882000,7.351882080078125,0.16385317611694336,0.016140549070388078,-0.03272241216748953
1782845843581887000,7.361886962890625,0.15192074626088142,0.01375190036818385,-0.006453998444974422
1782845843591892000,7.37189208984375,0.10186170710623264,-0.017731909915059803,0.04152589634805918
1782845843601897000,7.38189697265625,0.046557753035426135,-0.042663229814916846,0.03364624901413917
1782845843611902000,7.39190185546875,0.02956511718034744,-0.03375920786932111,0.04860270286649465
1782845843621907000,7.401906982421875,-0.0040974984467029565,-0.038003567440807816,0.018766221398860215
1782845843631912000,7.411911865234375,-0.005197568643093109,-0.01902311876937747,0.017442425449192524
1782845843641917000,7.4219169921875,0.005911854392290115,-0.028248627754300832,-0.016263444797694683
1782845843651922000,7.431921875,0.0017699322819709777,0.0007942191176116466,-0.04082183973193168
1782845843661927000,7.441927001953125,0.01993570356965065,0.005648088889569044,-0.06645765463933348
1782845843671932000,7.451931884765625,0.02840133409798145,0.005973959843069315,-0.06161445239186287
1782845843681937000,7.46193701171875,0.0370738853752613,0.025631284862756728,-0.05515899264216423
1782845843691942000,7.47194189453125,0.043239422267675395,0.024804478649795052,-0.053393152013421055
1782845843701946000,7.481946044921875,0.04219897330403328,0.019206220251321793,-0.03365808558240533
1782845843711951000,7.491951171875,0.042215339916944504,-0.005540975253283977,0.012520020485669374
1782845843721956000,7.5019560546875,0.06283493409752845,0.024672522833198308,0.04963920630738139
1782845843731961000,7.511961181640625,0.10095745174288749,0.03409618473872542,0.0807879394173622
1782845843741966000,7.521966064453125,0.15775719732940197,0.020694266851991414,0.07843889207318425
1782845843751971000,7.53197119140625,0.18692425510287283,0.03699176004976034,0.06015519349426031
1782845843761976000,7.54197607421875,0.1904033293902874,0.06311769656166434,0.008918781123310328
1782845843771981000,7.55198095703125,0.1783551642000675,0.07541179933696984,0.006771686092019081
1782845843781986000,7.561986083984375,0.14966566081047059,0.07341434190943837,0.01579831150397658
1782845843791991000,7.571990966796875,0.12513736875355244,0.06144654847905039,0.04697086388096213
1782845843801996000,7.58199609375,0.08524491882622241,0.053812108077853915,0.06832447142452001
1782845843812001000,7.5920009765625,0.07847732438743114,0.0645331163175404,0.08736936363428831
1782845843822006000,7.602006103515625,0.09647767598032951,0.03666954235807061,0.09234218361079692
1782845843832011000,7.612010986328125,0.12254559869468211,0.02086976954936981,0.0663666153550148
1782845843842016000,7.62201611328125,0.1738730503499508,0.021965601962059735,0.013658084604889154
1782845843852021000,7.63202099609375,0.16863281160891055,0.03617065292522311,-0.03771145262643694
1782845843862026000,7.64202587890625,0.16940905667841433,0.05248801986724138,-0.06046615913957357
1782845843872031200,7.65203125,0.12059914080202579,0.0512682688139379,-0.06181289757341146
1782845843882036200,7.6620361328125,0.07369593532979488,0.03673267072215676,-0.09064531656503677
1782845843892041200,7.672041259765625,0.055929977014660834,0.05609145118668675,-0.06834595260396599
1782845843902045000,7.682044921875,0.049123804131150244,0.040835283735394474,-0.07027355966567993
1782845843912050000,7.6920498046875,0.04142039014697075,0.01980696262344718,-0.06527370555177331
1782845843922055000,7.702054931640625,-0.0014794249027967451,0.025443653336167334,-0.011182342141121624
1782845843932060000,7.712059814453125,-0.04239537265896797,0.03856412393301725,0.043277270060032604
1782845843942065000,7.72206494140625,-0.03539104685485363,0.007856850980222225,0.0486867278881371
1782845843952070000,7.73206982421875,-0.00038110827207565303,0.025506781700253486,0.019588059175759554
1782845843962075000,7.742074951171875,0.07421674433350563,0.04446151140853762,-0.007685586066544055
1782845843972079900,7.752079833984375,0.13206921384334563,0.04476239405125379,-0.04955313545912504
1782845843982084900,7.7620849609375,0.17364450229108333,0.05929097788035869,-0.02852349917292595
1782845843992090000,7.772090087890625,0.2212853743880987,0.05582607824876904,0.014691519305855034
1782845844002095000,7.78209521484375,0.2049818898409605,0.0474897731885314,0.06421995871514082
1782845844012100000,7.79210009765625,0.16336510033905505,0.05117532983347773,0.07695683682188391
1782845844022105000,7.80210498046875,0.14249299270212648,0.06516556900218129,0.05248626630157232
1782845844032110000,7.812110107421875,0.1388064131438732,0.07577887908369302,0.007174713934957981
1782845844042115300,7.822115234375,0.10826163727641105,0.03936871831417083,-0.04102802982851863
1782845844052120300,7.832120361328125,0.08766659301519393,0.020371026246994734,-0.04059928302243352
1782845844062125300,7.842125244140625,0.08210194462537765,-0.010187485884875058,-0.06235811036601662
1782845844072130300,7.85213037109375,0.04004734822809696,-0.02996726824045181,-0.05795315340533852
1782845844082135300,7.86213525390625,0.0235281751036644,-0.05138999549746513,-0.060544777333736415
1782845844092140300,7.872140380859375,-0.002503507253527641,-0.06694003132879733,-0.0634292467288673
1782845844102144000,7.88214404296875,-0.03177285635769367,-0.048980157876759765,-0.08579407714158296
1782845844112149000,7.89214892578125,-0.023349895927309988,-0.042945992279052735,-0.08482640115320682
1782845844122154000,7.902154052734375,0.00016658873856067658,-0.04594678153023123,-0.10588745549097657
1782845844132159000,7.912158935546875,0.007927870389819144,-0.024817338131368157,-0.15759440798312424
1782845844142164000,7.9221640625,0.013759060761332511,0.00662774757668376,-0.18480580164417623
1782845844152169700,7.932169677734375,0.031111762100458143,0.006437339571118354,-0.17333616699427365
1782845844162174700,7.9421748046875,0.08547989662587642,-0.01817556202933192,-0.1763238045029342
1782845844172179700,7.9521796875,0.09243746067881584,-0.02836670117601752,-0.16952070035934447
1782845844182184700,7.962184814453125,0.097920276004076,-0.02022065799087286,-0.12925459481403231
1782845844192189700,7.972189697265625,0.09418751921653747,-0.0493348165333271,-0.07153948794826864
1782845844202194700,7.982194580078125,0.0514174680262804,-0.04027662693932652,-0.028817367552965878
1782845844212199700,7.99219970703125,0.006380056425929069,0.0055951896585524075,0.015549451309442519
1782845844222204700,8.00220458984375,-0.023812837263941764,0.0369772931329906,0.05723477600291371
1782845844232209700,8.012209716796875,-0.018216624692082403,0.03329641266316175,0.12144888949915766
1782845844242214700,8.022214599609375,0.05136252296864986,0.020655103885382414,0.12997721000015736
1782845844252219600,8.0322197265625,0.13137421731650828,0.04027341206893325,0.1067160152696073
1782845844262224600,8.042224609375,0.21468553773164747,0.052307256472855806,0.0969508464500308
1782845844272229600,8.052229736328124,0.26940672347843647,0.02480170217081904,0.06755041831210255
1782845844282234600,8.062234619140625,0.28359716139435764,0.027274960416555402,0.02464870356619358
1782845844292239600,8.072239501953124,0.25970307558774947,0.03763181151896715,0.04215937194600701
1782845844302244600,8.08224462890625,0.17460662532150745,0.04379954036846757,0.07643076712116599
1782845844312248800,8.092248779296876,0.07704466123580932,0.05221373297050595,0.0559270544052124
1782845844322253800,8.10225390625,0.004414309310913086,0.05961918692141771,0.07565086878985167
1782845844332258800,8.1122587890625,-0.05726385596692562,0.07141571543812751,0.06787789670079947
1782845844342263800,8.122263916015624,-0.08315583759248256,0.05513605015799403,0.06488587527796626
1782845844352268800,8.132268798828125,-0.05358838232457638,0.03845467220917344,0.04574585213065147
1782845844362273800,8.142273681640624,0.01595861663222313,0.04385667738318443,0.01776625057607889
1782845844372278800,8.15227880859375,0.10387596953809261,0.049345045666396616,-0.034341391671448944
1782845844382283800,8.16228369140625,0.2130506300061941,0.0400759898006916,-0.04933423201143741
1782845844392288800,8.172288818359375,0.2873684966266155,0.009906769247353077,-0.05781564463078975
1782845844402293800,8.182293701171876,0.2837836238771677,0.01015299909338355,-0.050410190679877995
1782845844412298800,8.192298828125,0.2046019506126642,0.02138195685520768,-0.03569032206237316
1782845844422303700,8.2023037109375,0.09719137720763683,0.03942410176321864,0.00017784078493714332
1782845844432308700,8.212308837890625,-0.02039747586250305,0.0448022876702249,0.034355274066329
1782845844442313700,8.222313720703125,-0.11511398738920688,0.05317293339148164,0.07628346760496496
1782845844452318700,8.232318603515624,-0.12554068885743616,0.04944295308291912,0.10024769603833555
1782845844462323700,8.24232373046875,-0.07050210772454739,0.03166179719865322,0.11790347197726368
1782845844472328700,8.25232861328125,0.02135609176158905,0.007372428464144468,0.06024433308243751
1782845844482333700,8.262333740234375,0.10892214701175688,0.031032267123460768,0.027589433193206784
1782845844492338700,8.272338623046876,0.1617161640882492,0.047078562039136886,-0.016976269242167472
1782845844502343700,8.28234375,0.18410919768214223,0.056710605998337264,-0.020293284835666416
1782845844512347600,8.29234765625,0.2070768162935972,0.05347776155695319,-0.0003517360471189022
1782845844522352600,8.3023525390625,0.20259704053103922,0.05818813120499253,-0.0003216331698000431
1782845844532357600,8.312357666015625,0.1819844606131315,0.05991641630232334,-0.01611497623771429
1782845844542362600,8.322362548828124,0.1495160232067108,0.05886734564080834,-0.007107932309061289
1782845844552367600,8.33236767578125,0.11451602149605751,0.039660540867596863,0.03352992915809154
1782845844562372600,8.34237255859375,0.08175298505723476,0.024860154359787702,0.05789265538975596
1782845844572377600,8.352377685546875,0.043747956311702724,0.019435791223496198,0.0528966006681323
1782845844582382600,8.362382568359376,0.01081248591542244,0.012860066094994545,0.03872837458401918
1782845844592387600,8.3723876953125,0.050984921827912325,0.011352145750075577,0.006257891350984573
1782845844602392600,8.382392578125,0.05875730939507484,-0.017280366755276916,-0.014415040452033281
1782845844612397600,8.3923974609375,0.030960955452919006,0.013385551273822783,-0.03320668855309486
1782845844622402600,8.402402587890625,-0.017599369576573373,0.041063393402844664,-0.007545300813019276
1782845844632407600,8.412407470703124,-0.011420388680696487,0.010613456211984156,-0.012299947994202375
1782845844642412500,8.42241259765625,0.034602526825666426,0.02504194066748023,0.015993103423714638
1782845844652417500,8.43241748046875,0.1016238066971302,0.010782090777158736,-0.0023394027329981327
1782845844662422800,8.4424228515625,0.16072013878822325,-0.00039791327640414237,-0.03480301783382892
1782845844672427800,8.452427734375,0.16185644934177398,0.019310119017213582,-0.078196900010854
1782845844682432800,8.462432861328125,0.18140636846423147,0.028352818781137466,-0.0982281729094684
1782845844692437800,8.472437744140626,0.17743746483325956,0.013792963030934333,-0.08521583886221051
1782845844702441700,8.482441650390625,0.16754326280653475,-0.002669219209253788,-0.07718406970649958
1782845844712446700,8.49244677734375,0.15545418108403683,-0.002622019066661596,-0.045292263144254684
1782845844722451700,8.50245166015625,0.12745558256804942,0.0057486266545951365,-0.012020546530932187
1782845844732456700,8.512456787109375,0.06257014568150043,-0.008181114498525857,-0.012491378913074731
1782845844742461700,8.522461669921874,0.012099018594622611,-0.01832972967773676,0.013098989417403936
1782845844752466700,8.532466796875,-0.022333996883034706,-0.006034311728179455,0.020696312678605316
1782845844762471700,8.5424716796875,-0.025129765081405638,-0.015133856245875358,0.01607669005393982
1782845844772476700,8.5524765625,-0.006290624576807022,-0.013138006253540516,-0.008702069632709026
1782845844782481700,8.562481689453126,0.046913726866245266,0.004737549915909767,-0.03459025186598301
1782845844792486700,8.572486572265625,0.06866144829392433,0.0025547990493476388,-0.04877236034497619
1782845844802491600,8.58249169921875,0.08908347407579421,0.008878595243394374,-0.061219607855379575
1782845844812496600,8.59249658203125,0.10278349812626839,0.02761120663359761,-0.07061258236169815
1782845844822501600,8.602501708984375,0.09760697227120399,0.03826572550833225,-0.06997574576288461
1782845844832506600,8.612506591796874,0.0925350758343935,0.0373377970084548,-0.05803147933855653
1782845844842511600,8.62251171875,0.09974223073422908,0.04370674751847982,-0.07389467277228831
1782845844852516600,8.6325166015625,0.0772328772842884,0.04438493904098868,-0.06073430855646729
1782845844862521600,8.642521484375,0.04344283588528633,0.044563948869705196,-0.03897665025666356
1782845844872526600,8.652526611328126,0.045861587464809415,0.03824862824305892,0.004729658870398998
1782845844882531600,8.662531494140625,0.023386720806360242,0.006991027931123972,0.013717851968109606
1782845844892535800,8.672535888671876,0.019704817423224448,0.03398249523118138,0.018328268373012543
1782845844902540800,8.682540771484375,0.3540256193608045,0.021774755565077065,0.030696313167363404
1782845844912545800,8.6925458984375,0.39050621501803395,-0.08706132059842348,0.08500263450294733
1782845844922550800,8.70255078125,0.3912444661647081,-0.06905176278576254,0.19500117857456206
1782845844932555800,8.7125556640625,0.23520751675665377,0.03663812430649996,0.13680413341075182
1782845844942560800,8.722560791015624,0.0751595781415701,0.0004598725967109203,0.014111089069396256
1782845844952565800,8.732565673828125,0.06442950981259346,0.09826061387434601,-0.02288140163272619
1782845844962570800,8.74257080078125,0.026645430341362953,0.1435379717104137,-0.0816223444148898
1782845844972575700,8.75257568359375,0.0520230327039957,0.06660773063451052,-0.09925473947823046
