time,seconds_elapsed,z,y,x
1782845836288269800,0.068269775390625,0.022645337507128716,-0.027886513620615005,-0.05542128533124924
1782845836298274800,0.07827490234375,0.019134366884827614,-0.022654857486486435,-0.06068117544054985
1782845836308279800,0.08827978515625,0.017167089506983757,-0.00793849490582943,-0.06139969825744629
1782845836318284800,0.098284912109375,0.014201055280864239,-0.0008272035047411919,-0.05063461512327194
1782845836328289800,0.108289794921875,0.008960486389696598,-0.0030714492313563824,-0.03177623823285103
1782845836338294800,0.118294677734375,0.006649564020335674,-0.003941429778933525,-0.010784030891954899
1782845836348299800,0.1282998046875,0.003211423521861434,-0.008133245632052422,0.008902587927877903
1782845836358304800,0.1383046875,-0.0015931430971249938,-0.0073138391599059105,0.022802650928497314
1782845836368309800,0.148309814453125,-0.004473351873457432,-0.007726895622909069,0.030092788860201836
1782845836378314800,0.158314697265625,-0.005532321520149708,-0.0075806137174367905,0.03110223263502121
1782845836388319700,0.16831982421875,-0.007183215115219355,-0.0025829256046563387,0.022729787975549698
1782845836398324700,0.17832470703125,-0.012036530300974846,0.0005536752287298441,0.014698212966322899
1782845836408328700,0.18832861328125,-0.01675218902528286,0.0029838099144399166,0.006130291149020195
1782845836418333700,0.198333740234375,-0.024670764803886414,0.005883722100406885,0.0000017314450815320015
1782845836428338700,0.208338623046875,-0.02754191868007183,0.009739712812006474,-0.0013658016687259078
1782845836438343700,0.21834375,-0.03322318568825722,0.009607594460248947,-0.0005844978732056916
1782845836448348700,0.2283486328125,-0.033204276114702225,0.009910661727190018,0.006392717827111483
1782845836458353700,0.238353759765625,-0.03420088812708855,0.006298376247286797,0.012510065920650959
1782845836468358700,0.248358642578125,-0.028478553518652916,-0.0008591355290263891,0.01994854211807251
1782845836478363600,0.25836376953125,-0.021992648020386696,-0.007523743435740471,0.018119174987077713
1782845836488368600,0.26836865234375,-0.01942855678498745,-0.0024746570270508528,0.012997385114431381
1782845836498373600,0.27837353515625,-0.012563037686049938,0.00400912668555975,0.006821647752076387
1782845836508378600,0.288378662109375,-0.006822327151894569,0.008513065055012703,0.002925177337601781
1782845836518383600,0.298383544921875,0.001735989935696125,0.013680754229426384,0.0017794708255678415
1782845836528388900,0.308388916015625,0.009532660245895386,0.012147041037678719,0.0003080744354519993
1782845836538393900,0.318393798828125,0.013448179699480534,0.010519194416701794,0.00268479879014194
1782845836548398800,0.32839892578125,0.018735086545348167,0.00986299104988575,0.0031170297879725695
1782845836558403800,0.33840380859375,0.022109003737568855,0.0049646878615021706,-0.0025037983432412148
1782845836568408800,0.348408935546875,0.023117275908589363,0.005778283812105656,-0.005890007596462965
1782845836578413800,0.358413818359375,0.020230567082762718,0.0033561899326741695,-0.01167372614145279
1782845836588418800,0.368418701171875,0.020276639610528946,0.0027311460580676794,-0.016221873462200165
1782845836598423800,0.378423828125,0.021731747314333916,0.005514996126294136,-0.017738768830895424
1782845836608428800,0.3884287109375,0.01863795332610607,0.004845211282372475,-0.019239991903305054
1782845836618433800,0.398433837890625,0.018520575016736984,0.003388725221157074,-0.014917510561645031
1782845836628438800,0.408438720703125,0.014972710981965065,0.0021130710374563932,-0.013222143054008484
1782845836638443800,0.41844384765625,0.010863526724278927,0.00310657755471766,-0.0036947359330952168
1782845836648448800,0.42844873046875,0.005695396102964878,0.004329234827309847,0.00219724141061306
1782845836658453800,0.438453857421875,0.00309770624153316,0.004900265019387007,0.01252182386815548
1782845836668458800,0.448458740234375,-0.0013242061249911785,0.0010852867271751165,0.01105495449155569
1782845836678463700,0.458463623046875,-0.004063799977302551,-0.0064586494117975235,0.018208738416433334
1782845836688467700,0.4684677734375,-0.0045106783509254456,-0.009985473938286304,0.018828988075256348
1782845836698472700,0.47847265625,-0.004463831894099712,-0.0055984933860599995,0.0150359021499753
1782845836708477700,0.488477783203125,-0.0006419293349608779,-0.000045269494876265526,0.016123536974191666
1782845836718482700,0.498482666015625,-0.0018297163769602776,0.004547976888716221,0.011824915185570717
1782845836728487700,0.50848779296875,0.0006773835048079491,0.0057248277589678764,0.0064194961450994015
1782845836738492700,0.51849267578125,0.004232187755405903,0.005707957316190004,0.0016860082978382707
1782845836748497700,0.52849755859375,0.0019440001342445612,0.0008040124084800482,-0.00012147909728810191
1782845836758502700,0.538502685546875,0.00625093188136816,-0.0003419495187699795,0.00014527584426105022
1782845836768507600,0.548507568359375,-0.000016551697626709938,-0.0014761898200958967,-0.005512609612196684
1782845836778512600,0.5585126953125,0.0010557044297456741,-0.00003036297857761383,-0.004469545558094978
1782845836788517600,0.568517578125,0.001320156268775463,-0.000515324529260397,-0.008293046616017818
1782845836798522600,0.578522705078125,0.0038316315039992332,0.0022675117943435907,-0.00564089510589838
1782845836808527600,0.588527587890625,0.005490248091518879,0.003305878257378936,-0.006398564204573631
1782845836818532600,0.59853271484375,0.008555309846997261,0.0026695786509662867,-0.002744719386100769
1782845836828537600,0.60853759765625,0.01086799893528223,0.000996581045910716,-0.001194493379443884
1782845836838542600,0.61854248046875,0.011609405279159546,0.0006339515093713999,0.004117165692150593
1782845836848547600,0.628547607421875,0.012523935176432133,0.0009684443939477205,0.007843993604183197
1782845836858552600,0.638552490234375,0.012672637589275837,-0.005677548237144947,0.014715906232595444
1782845836868557600,0.6485576171875,0.012097127735614777,-0.008558821864426136,0.01661473885178566
1782845836878562800,0.658562744140625,0.008374663069844246,-0.004975993651896715,0.013937933370471
1782845836888567800,0.66856787109375,0.004820674657821655,0.005887572653591633,0.007841958664357662
1782845836898572800,0.67857275390625,-0.002605241257697344,0.01408473402261734,0.005251727532595396
1782845836908577800,0.688577880859375,-0.00005206884816288948,0.008561871014535427,0.005766250193119049
1782845836918582800,0.698582763671875,0.003310814267024398,0.0007670132908970118,0.0054414765909314156
1782845836928587800,0.708587890625,0.005549733527004719,-0.004449320491403341,0.008307836949825287
1782845836938592800,0.7185927734375,0.009878536686301231,-0.007906025275588036,0.006939705926924944
1782845836948597800,0.72859765625,0.00956801325082779,-0.008756639435887337,0.007104821968823671
1782845836958602800,0.738602783203125,0.01444539800286293,-0.006771370768547058,0.0058501530438661575
1782845836968607700,0.748607666015625,0.011170508340001106,-0.007427041418850422,0.002123858081176877
1782845836978611700,0.75861181640625,0.012828267179429531,-0.008947566151618958,0.00000267720315605402
1782845836988616700,0.76861669921875,0.01176486723124981,-0.003019902389496565,-0.006053883582353592
1782845836998621700,0.77862158203125,0.007951110601425171,0.000464895972982049,-0.008525696583092213
1782845837008626700,0.788626708984375,0.0035473075695335865,-0.0015039790887385607,-0.010116136632859707
1782845837018631700,0.798631591796875,0.00466765696182847,0.0005227343644946814,-0.01138748973608017
1782845837028636700,0.80863671875,0.0021009021438658237,-0.004515700042247772,-0.004452617838978767
1782845837038641700,0.8186416015625,0.0019934503361582756,-0.00994866993278265,-0.0021821532864123583
1782845837048646700,0.828646728515625,0.0035998690873384476,-0.008489257656037807,-0.004378994926810265
1782845837058651600,0.838651611328125,0.0029394894372671843,-0.012293413281440735,-0.0016408124938607216
1782845837068656600,0.84865673828125,0.004087578505277634,-0.01582103595137596,0.005649857223033905
1782845837078661600,0.85866162109375,-0.0035824819933623075,-0.010173855349421501,0.01166900061070919
1782845837088666600,0.86866650390625,-0.00432949885725975,-0.005690423771739006,0.014075965620577335
1782845837098671600,0.878671630859375,-0.010641524568200111,-0.0032533614430576563,0.02152225747704506
1782845837108676600,0.888676513671875,-0.006134124472737312,-0.00414019450545311,0.022479664534330368
1782845837118681600,0.898681640625,-0.0047540487721562386,-0.0036306872498244047,0.021684391424059868
1782845837128686600,0.9086865234375,-0.0012828848557546735,-0.00295584206469357,0.02024228870868683
1782845837138691600,0.918691650390625,0.005289162043482065,-0.006589003838598728,0.017792241647839546
1782845837148696300,0.9286962890625,0.0042089843191206455,-0.004984183236956596,0.010164416395127773
1782845837158701300,0.938701416015625,0.009402583353221416,-0.0036519954446703196,0.000508435070514679
1782845837168706300,0.948706298828125,0.012989595532417297,-0.0062448494136333466,-0.008611826226115227
1782845837178711300,0.958711181640625,0.010446619242429733,-0.007529525551944971,-0.005528961308300495
1782845837188716300,0.96871630859375,0.014362264424562454,-0.005896741058677435,-0.0008306127274408937
1782845837198721500,0.978721435546875,0.011865263804793358,-0.0022253659553825855,0.011159679852426052
1782845837208726500,0.9887265625,0.00799648929387331,0.00046842126175761223,0.019378725439310074
1782845837218731500,0.9987314453125,0.008802548050880432,0.0024897416587918997,0.0197873804718256
1782845837228736500,1.008736572265625,0.007654459215700626,-0.002656550845131278,0.0198957696557045
1782845837238741500,1.018741455078125,0.006923785898834467,0.00024595437571406364,0.01886049285531044
1782845837248746500,1.02874658203125,0.003339703194797039,-0.0008467405568808317,0.015831680968403816
1782845837258751500,1.03875146484375,0.002301911823451519,-0.0015059211291372776,0.013228933326900005
1782845837268755500,1.04875537109375,-0.003832413349300623,-0.000748784514144063,0.010954859666526318
1782845837278760400,1.058760498046875,-0.005344011355191469,-0.0005418341606855392,0.008367571048438549
1782845837288765400,1.068765380859375,-0.01156701985746622,-0.0011658130679279566,0.00996387004852295
1782845837298770400,1.0787705078125,-0.017401443794369698,-0.000648431247100234,0.010726586915552616
1782845837308775400,1.088775390625,-0.02180498093366623,-0.0018010474741458893,0.012579347938299179
1782845837318780400,1.098780517578125,-0.024468407034873962,-0.002364039421081543,0.01044775452464819
1782845837328785400,1.108785400390625,-0.024183716624975204,0.002098353113979101,0.004616496618837118
1782845837338790400,1.118790283203125,-0.02541906014084816,0.0020279716700315475,0.002666156506165862
1782845837348795400,1.12879541015625,-0.021423252299427986,0.0004154276102781296,0.002018475905060768
1782845837358800400,1.13880029296875,-0.018006106838583946,-0.0017151492647826672,-0.0002849319716915488
1782845837368805400,1.148805419921875,-0.01592990756034851,-0.0037018675357103348,0.0020874119363725185
1782845837378810400,1.158810302734375,-0.012780871242284775,-0.005630961619317532,0.006809637416154146
1782845837388815400,1.1688154296875,-0.011500955559313297,-0.005251461640000343,0.007803529035300016
1782845837398820400,1.1788203125,-0.011447178199887276,-0.004193294793367386,0.006599497981369495
1782845837408825300,1.188825439453125,-0.01493591908365488,0.007581871934235096,0.002068662317469716
1782845837418830300,1.198830322265625,-0.015404127538204193,0.014499921351671219,0.002378709614276886
1782845837428835300,1.20883544921875,-0.0091899074614048,0.014419494196772575,0.007148430682718754
1782845837438840300,1.21884033203125,-0.0021463539451360703,0.005222311709076166,0.01484650932252407
1782845837448845300,1.22884521484375,0.006211444735527039,-0.0001452895812690258,0.01605132222175598
1782845837458850300,1.238850341796875,0.014813539572060108,-0.004489534068852663,0.013143870048224926
1782845837468855300,1.248855224609375,0.017719848081469536,-0.005545743275433779,0.00012607325334101915
1782845837478860300,1.2588603515625,0.01875496283173561,0.00041017518378794193,-0.01094222255051136
1782845837488865300,1.268865234375,0.015847856178879738,0.004187336657196283,-0.02490943670272827
1782845837498870300,1.278870361328125,0.010854877531528473,0.01134307961910963,-0.033820029348134995
1782845837508875300,1.288875244140625,0.010075902566313744,0.017672881484031677,-0.03892983868718147
1782845837518880300,1.29888037109375,0.004448098596185446,0.017409471794962883,-0.031169621273875237
1782845837528885200,1.30888525390625,0.008689182810485363,0.014003822579979897,-0.022368140518665314
1782845837538890200,1.31889013671875,0.00954336766153574,0.008787702769041061,-0.01073958445340395
1782845837548894500,1.32889453125,0.011322625912725925,0.0014853156171739101,-0.000010240939445793629
1782845837558900500,1.338900390625,0.012795129790902138,-0.00639689015224576,0.008777085691690445
1782845837568904400,1.348904541015625,0.01580876298248768,-0.012298455461859703,0.012297251261770725
1782845837578909400,1.358909423828125,0.01724698394536972,-0.004192225635051727,0.006080277264118195
1782845837588914400,1.36891455078125,0.012475664727389812,0.004161844030022621,0.004950031638145447
1782845837598919400,1.37891943359375,0.007977567613124847,0.00703415647149086,0.0016149389557540417
1782845837608924400,1.38892431640625,0.0033220965415239334,0.00853990763425827,-0.0038248340133577585
1782845837618929400,1.398929443359375,-0.0035590336192399263,0.013831101357936859,-0.003115299856290221
1782845837628934400,1.408934326171875,-0.0033545028418302536,0.01371871680021286,-0.003214902011677623
1782845837638939400,1.418939453125,-0.009275509044528008,0.011757297441363335,0.007638811133801937
1782845837648944400,1.4289443359375,-0.009733039885759354,0.008077342063188553,0.012575246393680573
1782845837658949400,1.438949462890625,-0.008455466479063034,-0.0037551079876720905,0.01726207509636879
1782845837668954400,1.448954345703125,-0.008941760286688805,-0.00897517055273056,0.01745595410466194
1782845837678959400,1.45895947265625,-0.008390135131776333,-0.00936115812510252,0.01616424135863781
1782845837688964400,1.46896435546875,-0.006844436749815941,-0.008241298608481884,0.012251525186002254
1782845837698969300,1.47896923828125,-0.004949427675455809,-0.006872626952826977,0.010526702739298344
1782845837708974300,1.488974365234375,-0.005981668829917908,-0.00824069231748581,0.009415898472070694
1782845837718979300,1.498979248046875,-0.007574716582894325,-0.009741409681737423,0.002157118869945407
1782845837728984300,1.508984375,-0.007666862569749355,-0.009022356942296028,-0.00607604393735528
1782845837738989300,1.5189892578125,-0.0049936361610889435,-0.0035146470181643963,-0.017892954871058464
1782845837748994300,1.528994384765625,-0.003323567798361182,0.0014132660580798984,-0.023127131164073944
1782845837758999300,1.538999267578125,-0.0019174064509570599,0.003311057109385729,-0.025362882763147354
1782845837769004300,1.54900439453125,0.0005449522286653519,-0.0014823665842413902,-0.022486401721835136
1782845837779009300,1.55900927734375,0.002196547808125615,-0.012137066572904587,-0.016797516494989395
1782845837789014300,1.56901416015625,0.0028351738583296537,-0.012321891263127327,-0.009688474237918854
1782845837799019300,1.579019287109375,0.0023613425437361,-0.01774459332227707,-0.004944517742842436
1782845837809024300,1.589024169921875,-0.00413091154769063,-0.01332907285541296,0.0004933907184749842
1782845837819029200,1.599029296875,-0.00585830956697464,-0.013429887592792511,0.009486670605838299
1782845837829034200,1.6090341796875,-0.007733174599707127,-0.00837121345102787,0.012826806865632534
1782845837839039200,1.619039306640625,-0.009067770093679428,-0.003923105075955391,0.0082459831610322
1782845837849044200,1.629044189453125,-0.008271750994026661,0.0020170751959085464,0.0092089818790555
1782845837859049200,1.63904931640625,-0.005125547293573618,-0.001043936237692833,0.010062593035399914
1782845837869053400,1.649053466796875,-0.005807583220303059,-0.004180607385933399,0.012471955269575119
1782845837879058400,1.659058349609375,-0.0012727099237963557,-0.0064776320941746235,0.005011869128793478
1782845837889063400,1.6690634765625,-0.0016878966707736254,-0.009779952466487885,0.00177399767562747
1782845837899068400,1.679068359375,0.0009375866502523422,-0.006254580803215504,0.00005344825331121683
1782845837909073400,1.689073486328125,0.002459050389006734,-0.00936355534940958,0.000008973467629402876
1782845837919078400,1.699078369140625,0.00525633804500103,-0.013414416462182999,0.0026030000299215317
1782845837929083400,1.70908349609375,0.0028408512007445097,-0.011771511286497116,0.005600387696176767
1782845837939088400,1.71908837890625,0.00011985702440142632,-0.009898729622364044,0.00422463845461607
1782845837949093400,1.72909326171875,-0.0012932162499055266,-0.009237732738256454,0.006246510427445173
1782845837959098400,1.739098388671875,-0.0027995300479233265,-0.006757725961506367,0.0026722929906100035
1782845837969103400,1.749103271484375,-0.008950899355113506,-0.0029912174213677645,-0.006389112211763859
1782845837979108400,1.7591083984375,-0.012480459176003933,-0.0031383715104311705,-0.00802104827016592
1782845837989113300,1.76911328125,-0.013487666845321655,-0.003982593305408955,-0.010947595350444317
1782845837999118300,1.779118408203125,-0.013460932299494743,-0.007574854884296656,-0.012331168167293072
1782845838009123300,1.789123291015625,-0.011172744445502758,-0.007491764146834612,-0.01259641908109188
1782845838019128300,1.79912841796875,-0.013553502038121223,-0.005461954511702061,-0.006181000731885433
1782845838029133300,1.80913330078125,-0.01184481754899025,-0.003282955614849925,-0.0075045921839773655
1782845838039138300,1.81913818359375,-0.009497730992734432,-0.00003527873195707798,0.0029690482188016176
1782845838049143300,1.829143310546875,-0.007100885733962059,0.002038791077211499,0.009510038420557976
1782845838059148300,1.839148193359375,-0.006730355322360992,0.00017954222857952118,0.015625109896063805
1782845838069153300,1.8491533203125,-0.0043673329055309296,-0.0023485964629799128,0.012159538455307484
1782845838079158300,1.859158203125,-0.005548305343836546,0.0010324306786060333,0.01147202868014574
1782845838089163300,1.869163330078125,-0.005032450892031193,0.00453288946300745,0.012921852990984917
1782845838099168300,1.879168212890625,-0.00414443900808692,-0.00023726467043161392,0.007849239744246006
1782845838109173200,1.88917333984375,0.0039774030447006226,-0.0035326601937413216,-0.00396480830386281
1782845838119178200,1.89917822265625,0.010273115709424019,-0.005956936161965132,-0.005884148646146059
1782845838129183200,1.909183349609375,0.0146425636485219,-0.0038786050863564014,-0.005460706073790789
1782845838139188200,1.919188232421875,0.014576547779142857,-0.002180910436436534,-0.009611254557967186
1782845838149194200,1.9291943359375,0.013974140398204327,0.0031195792835205793,-0.008279940113425255
1782845838159199200,1.93919921875,0.009290155954658985,0.005380962044000626,-0.0049193138256669044
1782845838169204200,1.949204345703125,0.007008359767496586,0.008224152959883213,-0.004725169390439987
1782845838179209200,1.959209228515625,0.000969266053289175,0.007689973805099726,-0.0029471071902662516
1782845838189213200,1.969213134765625,0.00030960096046328545,0.004655035678297281,0.005512956064194441
1782845838199218200,1.97921826171875,0.002203260315582156,-0.004297279752790928,0.0063684550113976
1782845838209223200,1.98922314453125,-0.0035009642597287893,-0.005234978161752224,0.005046994425356388
1782845838219228200,1.999228271484375,-0.004671478644013405,-0.0019853636622428894,-0.0016419992316514254
1782845838229233200,2.009233154296875,-0.003045884892344475,0.0019124388927593827,-0.011250152252614498
1782845838239238100,2.019238037109375,-0.0043123699724674225,0.005544024985283613,-0.014297432266175747
1782845838249243100,2.0292431640625,-0.0037315343506634235,0.0036401310935616493,-0.009044880047440529
1782845838259248400,2.039248291015625,0.00009102281183004379,0.003950626589357853,-0.0055163549259305
1782845838269253400,2.04925341796875,-0.0024206042289733887,0.005673158913850784,0.0011159812565892935
1782845838279258400,2.05925830078125,0.00036789453588426113,0.0038726693019270897,0.002707860665395856
1782845838289263400,2.069263427734375,0.00043979985639452934,0.005254583433270454,0.007749224081635475
1782845838299268400,2.079268310546875,0.0034010952804237604,0.00035848445259034634,0.0046587735414505005
1782845838309273300,2.0892734375,0.004822957329452038,0.0006692751776427031,0.005033480003476143
1782845838319278300,2.0992783203125,0.011422324925661087,-0.001933723920956254,-0.0028687193989753723
1782845838329283300,2.109283447265625,0.015633048489689827,-0.003936154767870903,-0.01257594209164381
1782845838339288300,2.119288330078125,0.019551176577806473,-0.004036120139062405,-0.01773642748594284
1782845838349293300,2.129293212890625,0.019458498805761337,-0.0033303825184702873,-0.027826612815260887
1782845838359298300,2.13929833984375,0.020334413275122643,0.0033379066735506058,-0.032863717526197433
1782845838369303300,2.14930322265625,0.016798000782728195,0.0030774495098739862,-0.028012501075863838
1782845838379308300,2.159308349609375,0.017746903002262115,0.004076574929058552,-0.017486341297626495
1782845838389313300,2.169313232421875,0.015587611123919487,0.004108000081032515,-0.01267108041793108
1782845838399318300,2.179318359375,0.015088571235537529,0.0029975289944559336,-0.003434788668528199
1782845838409323300,2.1893232421875,0.013863785192370415,0.00823916308581829,0.004597837571054697
1782845838419328300,2.199328369140625,0.011993784457445145,0.0026341555640101433,0.01271909661591053
1782845838429333200,2.209333251953125,0.007285848259925842,-0.003155556507408619,0.01790001057088375
1782845838439338200,2.219338134765625,0.006712384521961212,-0.0025277535896748304,0.020964588969945908
1782845838449343200,2.22934326171875,0.0059033166617155075,-0.0006326478905975819,0.017171980813145638
1782845838459348200,2.23934814453125,0.0031460069585591555,0.00337419961579144,0.019033145159482956
1782845838469353200,2.249353271484375,-0.005025636404752731,0.0035603544674813747,0.025047894567251205
1782845838479358200,2.259358154296875,-0.005957324523478746,0.006946996785700321,0.02583681419491768
1782845838489363200,2.26936328125,-0.01258859597146511,0.003165574511513114,0.028231794014573097
1782845838499368200,2.2793681640625,-0.01726750284433365,-0.0030220141634345055,0.026880506426095963
1782845838509372200,2.2893720703125,-0.017109043896198273,-0.00019799801521003246,0.02277977019548416
1782845838519377200,2.299377197265625,-0.020345501601696014,-0.0003688028082251549,0.018769502639770508
1782845838529382100,2.309382080078125,-0.0234422255307436,-0.0037182604428380728,0.01794338971376419
1782845838539387100,2.31938720703125,-0.017199084162712097,-0.008654644712805748,0.011912266723811626
1782845838549392100,2.32939208984375,-0.01468665897846222,-0.01336497813463211,0.0036165195051580667
1782845838559397000,2.339397216796875,-0.007750722113996744,-0.014068584889173508,-0.002943112514913082
1782845838569402000,2.349402099609375,-0.0060287220403552055,-0.012419821694493294,-0.007054500747472048
1782845838579407000,2.359406982421875,-0.0016541043296456337,-0.012700836174190044,-0.011407839134335518
1782845838589412000,2.369412109375,0.0016729829367250204,-0.011305074207484722,-0.01478659175336361
1782845838599417000,2.3794169921875,0.005740664899349213,-0.014662451110780239,-0.011762029491364956
1782845838609422000,2.389422119140625,0.01071891188621521,-0.016949839890003204,-0.013385226018726826
1782845838619427300,2.39942724609375,0.014408878050744534,-0.012751314789056778,-0.014508676715195179
1782845838629432300,2.409432373046875,0.014950298704206944,-0.008238588459789753,-0.013718783855438232
1782845838639437300,2.419437255859375,0.0154698695987463,-0.010681528598070145,-0.0059132962487638
1782845838649442300,2.4294423828125,0.017366839572787285,-0.010816018097102642,-0.004117260221391916
1782845838659447300,2.439447265625,0.01646910049021244,-0.011148357763886452,-0.0017726416699588299
1782845838669452300,2.449452392578125,0.017649147659540176,-0.015993446111679077,-0.0019287026952952147
1782845838679457300,2.459457275390625,0.015317955054342747,-0.01745963841676712,-0.006551565136760473
1782845838689462300,2.469462158203125,0.013721923343837261,-0.014273433946073055,-0.012691749259829521
1782845838699467300,2.47946728515625,0.008663048967719078,-0.0076493555679917336,-0.012487050145864487
1782845838709472300,2.48947216796875,0.002310610841959715,-0.003404543036594987,-0.01088009960949421
1782845838719477200,2.499477294921875,-0.002510407939553261,0.001829977030865848,-0.011352337896823883
1782845838729482200,2.509482177734375,-0.002820932539179921,0.0021618069149553776,-0.0031484700739383698
1782845838739487200,2.5194873046875,-0.0024290967267006636,-0.002659409772604704,0.00286566698923707
1782845838749492200,2.5294921875,0.001389343524351716,-0.005741485860198736,0.008294254541397095
1782845838759497200,2.539497314453125,0.004187429789453745,-0.0021453462541103363,0.010633416473865509
1782845838769502200,2.549502197265625,0.0029501253738999367,0.0034813806414604187,0.01689397543668747
1782845838779507200,2.559507080078125,0.000129414489492774,0.002020318992435932,0.024223390966653824
1782845838789512200,2.56951220703125,0.001758204074576497,-0.006258383393287659,0.016360940411686897
1782845838799517200,2.57951708984375,0.004934543743729591,-0.009109053760766983,0.015466413460671902
1782845838809522200,2.589522216796875,0.004286063835024834,-0.010661143809556961,0.007517144083976746
1782845838819526100,2.599526123046875,0.005646280013024807,-0.00689449068158865,0.0007208760944195092
1782845838829531100,2.60953125,0.003946118056774139,-0.005590341053903103,-0.003101558890193701
1782845838839536000,2.6195361328125,0.0014854837208986282,-0.007695180829614401,-0.0031038084998726845
1782845838849541000,2.629541015625,-0.0004967071581631899,-0.009773245081305504,-0.0023725044447928667
1782845838859546000,2.639546142578125,-0.0020289502572268248,-0.008919558487832546,0.00034776722895912826
1782845838869551000,2.649551025390625,-0.0012318661902099848,-0.010254068300127983,-0.0017646520864218473
1782845838879556000,2.65955615234375,-0.001141513348557055,-0.011947425082325935,-0.004012677818536758
1782845838889561000,2.66956103515625,0.0011530662886798382,-0.01236048061400652,-0.012122802436351776
1782845838899566000,2.679566162109375,0.003008933737874031,-0.018894068896770477,-0.01483466662466526
1782845838909571000,2.689571044921875,0.007898231968283653,-0.019886363297700882,-0.024974917992949486
1782845838919576000,2.699576171875,0.010161178186535835,-0.026343338191509247,-0.038258519023656845
1782845838929581000,2.7095810546875,0.016582326963543892,-0.025659970939159393,-0.04973168298602104
1782845838939586000,2.7195859375,0.018983667716383934,-0.017864560708403587,-0.054415907710790634
1782845838949591000,2.729591064453125,0.01937914825975895,-0.011540353298187256,-0.05112770199775696
1782845838959596000,2.739595947265625,0.019201938062906265,-0.009498456493020058,-0.0415862575173378
1782845838969601300,2.749601318359375,0.02248028852045536,-0.007810278329998255,-0.027070967480540276
1782845838979606300,2.759606201171875,0.024437502026557922,-0.009766927920281887,-0.013672670349478722
1782845838989611300,2.769611328125,0.023567181080579758,-0.009257731959223747,-0.006298111751675606
1782845838999616300,2.7796162109375,0.02104221284389496,-0.007934452034533024,-0.0025003880728036165
1782845839009621200,2.789621337890625,0.01991436257958412,-0.007297423668205738,0.00012069509830325842
1782845839019626200,2.799626220703125,0.013385480269789696,-0.007551252376288176,-0.0016997393686324358
1782845839029631200,2.80963134765625,0.009761450812220573,-0.003963973838835955,-0.009755002334713936
1782845839039636200,2.81963623046875,0.005268292501568794,-0.006456304341554642,-0.008498109877109528
1782845839049641200,2.82964111328125,-0.004813902545720339,-0.006269349716603756,-0.00308896298520267
1782845839059646200,2.839646240234375,-0.007399312220513821,-0.0065506030805408955,0.001637111185118556
1782845839069651200,2.849651123046875,-0.01651211641728878,-0.005918900948017836,0.010639660991728306
1782845839079656200,2.85965625,-0.01883530616760254,-0.0024022962898015976,0.01831125281751156
1782845839089661200,2.8696611328125,-0.024284666404128075,-0.000017435522750020027,0.03011757880449295
1782845839099666200,2.879666259765625,-0.02148827537894249,0.003728182055056095,0.03426646441221237
1782845839109671200,2.889671142578125,-0.024292849004268646,-0.0024689938873052597,0.03901834413409233
1782845839119676200,2.89967626953125,-0.020878955721855164,-0.010160491801798344,0.034171950072050095
1782845839129681200,2.90968115234375,-0.018838709220290184,-0.012805809266865253,0.02272701822221279
1782845839139686100,2.91968603515625,-0.015915216878056526,-0.014252560213208199,0.01227263081818819
1782845839149690600,2.929690673828125,-0.014113854616880417,-0.01396307535469532,0.005067183170467615
1782845839159694600,2.939694580078125,-0.00814667996019125,-0.01266858633607626,-0.00018920539878308773
1782845839169699600,2.949699462890625,-0.005545570515096188,-0.01249068696051836,-0.006043632514774799
1782845839179704600,2.95970458984375,0.0010063385125249624,-0.007260505110025406,-0.007072677835822105
1782845839189709600,2.96970947265625,0.006629337556660175,0.0014128775801509619,-0.008432221598923206
1782845839199714600,2.979714599609375,0.009066758677363396,0.0035859434865415096,-0.0038341155741363764
1782845839209719600,2.989719482421875,0.01528843492269516,0.0036645065993070602,0.0025785102043300867
1782845839219724500,2.999724609375,0.024283165112137794,-0.0009589337278157473,0.011969456449151039
1782845839229729500,3.0097294921875,0.029647303745150566,-0.008827509358525276,0.017135988920927048
1782845839239734500,3.019734619140625,0.03164903447031975,-0.013920079916715622,0.020824626088142395
1782845839249739500,3.029739501953125,0.03151853755116463,-0.01541091687977314,0.010377311147749424
1782845839259744800,3.039744873046875,0.0280582495033741,-0.010534888133406639,0.0034139833878725767
1782845839269749800,3.049749755859375,0.022377194836735725,-0.009825954213738441,-0.0008971416973508894
1782845839279754800,3.059754638671875,0.013521822169423103,-0.0060676271095871925,-0.006099252961575985
1782845839289759700,3.069759765625,0.008706825785338879,0.0009186433162540197,-0.004637976177036762
1782845839299764700,3.0797646484375,-0.0014298363821581006,0.002587768016383052,0.001035769353620708
1782845839309769700,3.089769775390625,-0.011100306175649166,0.00536704296246171,0.0026682871393859386
1782845839319774700,3.099774658203125,-0.015227969735860825,0.002853089477866888,0.0076143210753798485
1782845839329779700,3.10977978515625,-0.016130516305565834,0.0032416447065770626,0.009962430223822594
1782845839339784700,3.11978466796875,-0.014060464687645435,-0.004547347314655781,0.007843941450119019
1782845839349789700,3.129789794921875,-0.00798339769244194,-0.002426139311864972,0.003991945646703243
1782845839359794700,3.139794677734375,-0.0050487639382481575,0.0006193777080625296,-0.0026759179309010506
1782845839369799700,3.149799560546875,-0.0004159285454079509,0.00847756676375866,0.00007352948887273669
1782845839379804700,3.1598046875,-0.0006883576279506087,0.008737513795495033,0.001469530281610787
1782845839389809700,3.1698095703125,0.004698684439063072,0.004585379734635353,0.006536194123327732
1782845839399814700,3.179814697265625,0.003578800242394209,0.0037443088367581367,0.010257485322654247
1782845839409819600,3.189819580078125,0.00277132960036397,0.006001870147883892,0.009015653282403946
1782845839419824600,3.19982470703125,0.00036603049375116825,0.007837051525712013,0.009884280152618885
1782845839429830000,3.209829833984375,-0.0010941808577626944,0.00965119618922472,0.011768733151257038
1782845839439835000,3.2198349609375,0.0013075845781713724,0.008097363635897636,0.009416243992745876
1782845839449839900,3.22983984375,0.0024439555127173662,0.0013084339443594217,-0.00036874209763482213
1782845839459843600,3.239843505859375,0.0024787879083305597,-0.009260028600692749,-0.00627716351300478
1782845839469848600,3.2498486328125,0.00509001687169075,-0.013681675307452679,-0.01822463609278202
1782845839479853600,3.259853515625,0.0033012516796588898,-0.012574846856296062,-0.03074268251657486
1782845839489858600,3.269858642578125,-0.0016679405234754086,-0.0037813547533005476,-0.03557738661766052
1782845839499863600,3.279863525390625,-0.008185490034520626,0.0045904433354735374,-0.03561116382479668
1782845839509868500,3.28986865234375,-0.012296345084905624,0.010854996740818024,-0.02974129095673561
1782845839519873500,3.29987353515625,-0.013766862452030182,0.01168831903487444,-0.01595662720501423
1782845839529878500,3.30987841796875,-0.015954915434122086,0.00997723825275898,-0.00115983746945858
1782845839539883500,3.319883544921875,-0.017579976469278336,0.0022226455621421337,0.01524257194250822
1782845839549888500,3.329888427734375,-0.01687530428171158,-0.0024868883192539215,0.026261134073138237
1782845839559893500,3.3398935546875,-0.01636955700814724,-0.002794727450236678,0.031476374715566635
1782845839569898500,3.3498984375,-0.019719282165169716,-0.006134331226348877,0.03221673145890236
1782845839579903500,3.359903564453125,-0.02171885035932064,-0.006111957132816315,0.02236553095281124
1782845839589908500,3.369908447265625,-0.021309256553649902,0.004244809504598379,0.017106320708990097
1782845839599913700,3.379913818359375,-0.020636022090911865,0.010504547506570816,0.00783748272806406
1782845839609918700,3.389918701171875,-0.018647173419594765,0.017830902710556984,0.0017268597148358822
1782845839619923700,3.399923828125,-0.015970569103956223,0.021625762805342674,0.007439753506332636
1782845839629928700,3.4099287109375,-0.008631695993244648,0.015894107520580292,0.02111748233437538
1782845839639934000,3.419933837890625,0.001126350136473775,0.01829659380018711,0.026582328602671623
1782845839649939000,3.42993896484375,0.012548914179205894,0.009274336509406567,0.03231744468212128
1782845839659944000,3.43994384765625,0.021913232281804085,0.0017820143839344382,0.03246937692165375
1782845839669949000,3.449948974609375,0.03120633028447628,-0.010495157912373543,0.031557243317365646
1782845839679954000,3.459953857421875,0.03470436856150627,-0.009373213164508343,0.027356164529919624
1782845839689959000,3.469958984375,0.030768217518925667,-0.007890897803008556,0.026165464892983437
1782845839699964000,3.4799638671875,0.028929444029927254,-0.0013220664113759995,0.012270540930330753
1782845839709969000,3.489968994140625,0.022239049896597862,0.007006170693784952,0.0006394512602128088
1782845839719974000,3.499973876953125,0.01781417801976204,0.012571449391543865,-0.01271895319223404
1782845839729979000,3.509978759765625,0.013258041813969612,0.016033025458455086,-0.022549746558070183
1782845839739984000,3.51998388671875,0.010036936029791832,0.010578316636383533,-0.029704567044973373
1782845839749988900,3.52998876953125,0.007929577492177486,0.006812074221670628,-0.0366535522043705
1782845839759993900,3.539993896484375,0.008201387710869312,0.003020073054358363,-0.038893964141607285
1782845839769997800,3.549997802734375,0.007760634645819664,-0.008759087882936,-0.036489926278591156
1782845839780002800,3.5600029296875,0.0074382359161973,-0.008456338196992874,-0.03702855110168457
1782845839790007800,3.5700078125,0.007791104726493359,-0.0011358412448316813,-0.02910005673766136
1782845839800012800,3.5800126953125,0.00734596885740757,0.0029066000133752823,-0.02135009504854679
1782845839810017800,3.590017822265625,0.006605610251426697,0.010098200291395187,-0.011418369598686695
1782845839820022800,3.600022705078125,0.0032713322434574366,0.01255070511251688,-0.00014281109906733036
1782845839830027800,3.61002783203125,0.0024468174669891596,0.011145355179905891,0.007049588020890951
1782845839840032800,3.62003271484375,0.006265760399401188,0.01004420779645443,0.010133807547390461
1782845839850037800,3.630037841796875,0.005158684682101011,0.01221122220158577,0.0056892572902143
1782845839860042800,3.640042724609375,0.00241895136423409,0.012079518288373947,0.0004898490151390433
1782845839870047700,3.6500478515625,0.0013206638395786285,0.005933208856731653,-0.000040120037738233805
1782845839880052700,3.660052734375,0.002650295617058873,-0.0012737414799630642,-0.007736309431493282
1782845839890057700,3.6700576171875,0.006749432533979416,-0.002989349886775017,-0.00922954361885786
1782845839900062700,3.680062744140625,0.01172214187681675,-0.005582495126873255,-0.007994703948497772
1782845839910067700,3.690067626953125,0.018027709797024727,0.002392340451478958,-0.014040346257388592
1782845839920072700,3.70007275390625,0.01829381287097931,0.005410208832472563,-0.015895837917923927
1782845839930077700,3.71007763671875,0.021233942359685898,0.007398525252938271,-0.015624728053808212
1782845839940082700,3.720082763671875,0.019700707867741585,0.007747691124677658,-0.01200915314257145
1782845839950087700,3.730087646484375,0.0181728508323431,0.005735673010349274,-0.011581716127693653
1782845839960092700,3.7400927734375,0.017615748569369316,0.0024239616468548775,-0.016579948365688324
1782845839970097700,3.75009765625,0.01993509568274021,0.00034563057124614716,-0.019048698246479034
1782845839980102700,3.7601025390625,0.019746387377381325,-0.006254000589251518,-0.02291254699230194
1782845839990107600,3.770107666015625,0.019247043877840042,-0.007018327713012695,-0.02670275792479515
1782845840000113000,3.78011279296875,0.012025590986013412,-0.004334172233939171,-0.02602013386785984
1782845840010118000,3.790117919921875,0.006664647720754147,-0.0025107059627771378,-0.024260317906737328
1782845840020123000,3.800122802734375,0.003338625654578209,0.00017056474462151527,-0.018215207383036613
1782845840030127900,3.8101279296875,-0.0022327075712382793,0.0007442096248269081,-0.0123613141477108
1782845840040132900,3.8201328125,-0.005193901248276234,0.0035716434940695763,-0.010189453139901161
1782845840050137900,3.830137939453125,-0.0045012133195996284,0.00020540785044431686,0.0005699837347492576
1782845840060142800,3.840142822265625,-0.003240181365981698,-0.001645977608859539,0.005155627615749836
1782845840070146800,3.850146728515625,-0.0010537260677665472,-0.00405640434473753,0.006787346210330725
1782845840080151800,3.86015185546875,-0.0007838507881388068,-0.009211293421685696,0.005480692256242037
1782845840090156800,3.87015673828125,0.0011930137407034636,-0.008193965069949627,0.0012470653746277094
1782845840100161800,3.880161865234375,0.0012378944084048271,-0.005983397364616394,-0.012559708207845688
1782845840110166800,3.890166748046875,0.0015393642242997885,-0.004594292491674423,-0.01925276406109333
1782845840120171800,3.900171875,-0.00399628235027194,-0.0004794425331056118,-0.024995071813464165
1782845840130176800,3.9101767578125,-0.0043400963768363,0.003768565831705928,-0.02593863010406494
1782845840140181800,3.920181640625,-0.011282830499112606,0.0031351216603070498,-0.02255280688405037
1782845840150186800,3.930186767578125,-0.013055697083473206,0.006090165115892887,-0.020730406045913696
1782845840160191700,3.940191650390625,-0.01571836695075035,0.0002874515485018492,-0.010825269855558872
1782845840170196700,3.95019677734375,-0.015498656779527664,-0.01336231455206871,-0.0020195282995700836
1782845840180201700,3.96020166015625,-0.010932637378573418,-0.012415364384651184,-0.00006611208664253354
1782845840190206700,3.970206787109375,-0.011918272823095322,-0.004241856746375561,-0.008329102769494057
1782845840200211700,3.980211669921875,-0.012546737678349018,-0.0016320068389177322,-0.007307553198188543
1782845840210216700,3.990216796875,-0.014014138840138912,-0.005947126541286707,-0.009945680387318134
1782845840220221700,4.0002216796875,-0.008999630808830261,-0.009818878024816513,-0.01386722456663847
1782845840230226700,4.010226806640625,-0.006844334304332733,-0.009075057692825794,-0.012849630787968636
1782845840240231700,4.020231689453125,-0.007511964067816734,-0.008953306823968887,-0.01621432416141033
1782845840250236700,4.030236572265625,-0.006379321217536926,-0.005730615463107824,-0.013587115332484245
1782845840260241700,4.04024169921875,-0.006785956211388111,-0.0010349999647587538,-0.01036203932017088
1782845840270246700,4.05024658203125,-0.003816531738266349,0.004768294282257557,-0.004891906399279833
1782845840280251600,4.060251708984375,-0.00013199355453252792,0.003016440896317363,-0.003094340208917856
1782845840290256600,4.070256591796875,0.0005220789462327957,-0.0012779065873473883,0.0015992147382348776
1782845840300261600,4.08026171875,0.003042439464479685,-0.005866507068276405,-0.001026328420266509
1782845840310266600,4.0902666015625,0.002786776050925255,-0.009596530348062515,-0.003931304439902306
1782845840320271600,4.100271728515625,0.0010142857208848,-0.005140047520399094,-0.008704623207449913
1782845840330276600,4.110276611328125,-0.0011348852422088385,-0.0027583830524235964,-0.015379569493234158
1782845840340281600,4.120281494140625,-0.006536545231938362,-0.006306050345301628,-0.012409624643623829
1782845840350286800,4.130286865234375,-0.0138402646407485,-0.008687183260917664,-0.007170653901994228
1782845840360290800,4.140290771484375,-0.019596097990870476,-0.006572392303496599,-0.007531580049544573
1782845840370295800,4.1502958984375,-0.015876995399594307,-0.002361668273806572,-0.003774392418563366
1782845840380300800,4.16030078125,-0.016311343759298325,0.0024802470579743385,-0.0011083304416388273
1782845840390305800,4.170305908203125,-0.015151004306972027,0.00015930202789604664,0.0003875671827699989
1782845840400310800,4.180310791015625,-0.009896600618958473,-0.0022921599447727203,0.001363111543469131
1782845840410315800,4.190315673828125,-0.0029055364429950714,0.0030051339417696,-0.0011477167718112469
1782845840420320800,4.20032080078125,-0.0013062955113127828,0.0017329639522358775,-0.0035626997705549
1782845840430325800,4.21032568359375,0.003622949356213212,0.001505529973655939,-0.009577981196343899
1782845840440330800,4.220330810546875,0.004443262238055468,-0.0011447223369032145,-0.008970005437731743
1782845840450335700,4.230335693359375,0.003593980334699154,0.0016779621364548802,-0.005386455450206995
1782845840460340700,4.2403408203125,0.0008577092085033655,0.00014836410991847515,0.003595201764255762
1782845840470345700,4.250345703125,0.0010156345088034868,0.0005489035975188017,0.008226971141994
1782845840480350700,4.260350830078125,0.0016624571289867163,0.0038236670661717653,0.007970533333718777
1782845840490355700,4.270355712890625,0.0023942936677485704,0.003164534689858556,0.013929089531302452
1782845840500360700,4.280360595703125,0.0027267751283943653,0.005633270367980003,0.010718065313994884
1782845840510365700,4.29036572265625,0.004144375678151846,0.005536331329494715,0.008126809261739254
1782845840520370700,4.30037060546875,0.0018552998080849648,0.00207576435059309,0.005142510402947664
1782845840530375700,4.310375732421875,-0.00020731845870614052,0.0008131596259772778,-0.002294632839038968
1782845840540380700,4.320380615234375,-0.0008074979996308684,0.0008136185351759195,-0.007870600558817387
1782845840550385700,4.3303857421875,-0.0036911689676344395,-0.00036216690205037594,-0.009443197399377823
1782845840560390700,4.340390625,-0.005805016495287418,0.0012637663166970015,-0.008471301756799221
1782845840570395600,4.350395751953125,-0.0066585601307451725,0.000026728026568889618,-0.005746089853346348
1782845840580400600,4.360400634765625,-0.010041404515504837,0.0008635674603283405,-0.002133138244971633
1782845840590405600,4.370405517578125,-0.00778996804729104,0.0029799817129969597,-0.0009562873165123165
1782845840600410600,4.38041064453125,-0.007073704153299332,0.0018874306697398424,-0.00008185202023014426
1782845840610415600,4.39041552734375,-0.007527773268520832,0.007833470590412617,0.0030612105038017035
1782845840620420600,4.400420654296875,-0.009812304750084877,0.01107066124677658,0.0007158161024563015
1782845840630425600,4.410425537109375,-0.007578179240226746,0.009628026746213436,0.003181370673701167
1782845840640429800,4.420429931640625,-0.0047257221303880215,0.01146536786109209,0.005412102211266756
1782845840650434800,4.430434814453125,0.001409401884302497,0.008024297654628754,0.006724508013576269
1782845840660439800,4.440439697265625,0.005019176751375198,0.006120258942246437,0.007944915443658829
1782845840670444800,4.45044482421875,0.011464293114840984,0.005904809106141329,0.0014561235439032316
1782845840680449800,4.46044970703125,0.010764499194920063,0.009160960093140602,0.00027866032905876637
1782845840690454800,4.470454833984375,0.01221858523786068,0.008230984210968018,-0.004806645680218935
1782845840700459800,4.480459716796875,0.007855769246816635,0.009985163807868958,-0.007931012660264969
1782845840710464800,4.49046484375,0.008190262131392956,0.011488785035908222,-0.016499467194080353
1782845840720469800,4.5004697265625,0.006075877696275711,0.011448226869106293,-0.019318092614412308
1782845840730474800,4.510474853515625,0.007625836879014969,0.01119203120470047,-0.020811326801776886
1782845840740479700,4.520479736328125,0.010461993515491486,0.006793872453272343,-0.01893606036901474
1782845840750484700,4.530484619140625,0.01054614968597889,0.0038998150266706944,-0.015604977495968342
1782845840760489700,4.54048974609375,0.012621660716831684,0.0018600481562316418,-0.014580859802663326
1782845840770494700,4.55049462890625,0.012014193460345268,0.004582597874104977,-0.007879015058279037
1782845840780499700,4.560499755859375,0.010209902189671993,0.00046641589142382145,-0.007926153019070625
1782845840790504700,4.570504638671875,0.007630896754562855,0.002667252207174897,0.006549991201609373
1782845840800509700,4.580509765625,0.002148894127458334,0.006684997119009495,0.017179373651742935
1782845840810514700,4.5905146484375,-0.0026714273262768984,0.0058751292526721954,0.025188831612467766
1782845840820519700,4.600519775390625,-0.007885292172431946,0.007848680019378662,0.026733143255114555
1782845840830524700,4.610524658203125,-0.012855549342930317,0.008734181523323059,0.029037311673164368
1782845840840529700,4.62052978515625,-0.011681531555950642,0.010495255701243877,0.025733552873134613
1782845840850534700,4.63053466796875,-0.011508958414196968,0.007470970042049885,0.02409038320183754
1782845840860539600,4.64053955078125,-0.012380458414554596,0.009434152394533157,0.012161911465227604
1782845840870544600,4.650544677734375,-0.008766015991568565,0.00007713609375059605,0.005612399894744158
1782845840880549600,4.660549560546875,-0.005152626894414425,-0.006278475746512413,-0.0024428912438452244
1782845840890554600,4.6705546875,-0.001778934383764863,0.0007626558654010296,-0.013772244565188885
1782845840900559600,4.6805595703125,-0.003415459766983986,0.002495286287739873,-0.014108574017882347
1782845840910563600,4.6905634765625,-0.0012508423533290625,0.0027938266284763813,-0.019883371889591217
1782845840920568800,4.70056884765625,0.0024705620016902685,0.010227315127849579,-0.018413467332720757
1782845840930573800,4.71057373046875,0.0013485720846801996,0.010737044736742973,-0.012637603096663952
1782845840940578800,4.720578857421875,0.004370177164673805,0.0064515783451497555,-0.004284880589693785
1782845840950583800,4.730583740234375,0.005797365680336952,0.006711768917739391,-0.0021223940420895815
1782845840960588800,4.7405888671875,0.003503111656755209,0.00819474272429943,0.00007442297646775842
1782845840970593800,4.75059375,0.003981681540608406,0.0027057016268372536,0.0037666296120733023
1782845840980598800,4.760598876953125,0.007424827199429274,-0.005019303411245346,0.003619157010689378
1782845840990603800,4.770603759765625,0.007089535240083933,-0.0038251422811299562,0.0021818489767611027
1782845841000608800,4.78060888671875,0.0051692575216293335,-0.003033528570085764,-0.0017040895763784647
1782845841010613800,4.79061376953125,0.00528190890327096,-0.00019539776258170605,-0.00028489093529060483
1782845841020618800,4.80061865234375,0.004337898455560207,0.004283524584025145,-0.005234496667981148
1782845841030623700,4.810623779296875,0.001956499647349119,0.0024390192702412605,-0.008002852089703083
1782845841040628700,4.820628662109375,-0.0016391987446695566,0.0025789132341742516,-0.007386662997305393
1782845841050633700,4.8306337890625,-0.005282136611640453,-0.0025058600585907698,-0.008556589484214783
1782845841060638700,4.840638671875,-0.0102692861109972,-0.01004856452345848,-0.00773757416754961
1782845841070643700,4.850643798828125,-0.01399584673345089,-0.016946420073509216,-0.011575455777347088
1782845841080648700,4.860648681640625,-0.013543207198381424,-0.019325345754623413,-0.016276095062494278
1782845841090653700,4.87065380859375,-0.01490035466849804,-0.01731865480542183,-0.025587305426597595
1782845841100658700,4.88065869140625,-0.014213960617780685,-0.016928043216466904,-0.031314536929130554
1782845841110663700,4.89066357421875,-0.01978396065533161,-0.009551086463034153,-0.042089153081178665
1782845841120668700,4.900668701171875,-0.02264593355357647,-0.0033639089670032263,-0.036623407155275345
1782845841130673700,4.910673583984375,-0.023517319932579994,0.0003069923259317875,-0.03437330201268196
1782845841140678700,4.9206787109375,-0.022536296397447586,0.004522073548287153,-0.023361047729849815
1782845841150683600,4.93068359375,-0.023512346670031548,0.01035412959754467,-0.007040664553642273
1782845841160688600,4.940688720703125,-0.01771107129752636,0.0021707171108573675,0.0139427799731493
1782845841170692600,4.950692626953125,-0.012999673373997211,0.004201110918074846,0.034989211708307266
1782845841180697600,4.960697509765625,-0.006166226230561733,0.0001621129922568798,0.047464482486248016
1782845841190702600,4.97070263671875,0.00046584405936300755,-0.004677383229136467,0.0499446839094162
1782845841200707600,4.98070751953125,0.002979771001264453,-0.007966313511133194,0.04548079892992973
1782845841210712600,4.990712646484375,0.00691219512373209,-0.006220079027116299,0.025648240000009537
1782845841220717600,5.000717529296875,0.010071041993796825,0.0021035128738731146,0.00971316173672676
1782845841230722600,5.01072265625,0.0049167596735060215,0.010675163008272648,-0.009920460171997547
1782845841240727600,5.0207275390625,0.0019136399496346712,0.017666615545749664,-0.017032552510499954
1782845841250732500,5.030732666015625,-0.0015628505498170853,0.01673770509660244,-0.01922992616891861
1782845841260737500,5.040737548828125,0.00048619811423122883,0.01071818359196186,-0.015195530839264393
1782845841270742500,5.050742431640625,0.0032526899594813585,-0.0028016194701194763,-0.0041948105208575726
1782845841280747800,5.060747802734375,0.010602523572742939,-0.008454225957393646,0.0010238798568025231
1782845841290752800,5.070752685546875,0.012871803715825081,-0.008928269147872925,-0.0008541813585907221
1782845841300757800,5.0807578125,0.01482807844877243,-0.007199514657258987,0.00035843561636283994
1782845841310762800,5.0907626953125,0.016119444742798805,-0.007498322054743767,-0.0028980777133256197
1782845841320767700,5.100767822265625,0.01747742109000683,-0.010010285302996635,-0.011491845361888409
1782845841330772700,5.110772705078125,0.011614469811320305,-0.006011282559484243,-0.01828104257583618
1782845841340777700,5.12077783203125,0.007492957636713982,-0.005316082388162613,-0.018332216888666153
1782845841350782700,5.13078271484375,0.004005814902484417,-0.0011855203192681074,-0.013983008451759815
1782845841360787700,5.14078759765625,-0.0028687252197414637,-0.0011657837312668562,-0.009978516958653927
1782845841370792700,5.150792724609375,-0.0024399564135819674,-0.0018539445009082556,-0.002565342001616955
1782845841380797700,5.160797607421875,-0.0039508771151304245,-0.005322127602994442,0.0056740776635706425
1782845841390802700,5.170802734375,-0.005137315951287746,-0.004452338442206383,0.014053448103368282
1782845841400807700,5.1808076171875,-0.0031274575740098953,-0.004882635083049536,0.017558714374899864
1782845841410812700,5.190812744140625,0.00021480955183506012,-0.0031806090846657753,0.01873183622956276
1782845841420817700,5.200817626953125,0.0009848687332123518,-0.002714677946642041,0.01704617589712143
1782845841430821600,5.210821533203125,0.0036112782545387745,-0.0016480821650475264,0.015488226898014545
1782845841440826600,5.22082666015625,0.0008436788339167833,-0.0017004983965307474,0.017976725473999977
1782845841450831600,5.23083154296875,-0.0008847125573083758,0.0005107242614030838,0.016322901472449303
1782845841460836600,5.240836669921875,-0.001794642535969615,0.0026645706966519356,0.014016017317771912
1782845841470841600,5.250841552734375,-0.0028812121599912643,0.004145288374274969,0.010911304503679276
1782845841480846600,5.2608466796875,-0.002307554706931114,0.008744323626160622,0.009305126033723354
1782845841490851600,5.2708515625,0.00001631956547498703,0.009748867712914944,0.007821745239198208
1782845841500856600,5.280856689453125,-0.002099913079291582,0.006768886465579271,0.007063888944685459
1782845841510861600,5.290861572265625,0.0005222354084253311,0.006595781072974205,-0.00019429001258686185
1782845841520866600,5.300866455078125,0.0024221218191087246,0.0009346774313598871,-0.0053988792933523655
1782845841530871600,5.31087158203125,0.0009661717340350151,0.0013501306530088186,-0.015528479591012001
1782845841540876500,5.32087646484375,0.0007800168823450804,0.005790418945252895,-0.021308070048689842
1782845841550881500,5.330881591796875,0.0007363411132246256,0.0025288457982242107,-0.024030087515711784
1782845841560886500,5.340886474609375,0.0034662079997360706,0.0009233481250703335,-0.02321235090494156
1782845841570891500,5.3508916015625,0.0016866838559508324,0.002504733158275485,-0.015277463011443615
1782845841580896500,5.360896484375,-0.0028967433609068394,0.005164043512195349,-0.012777700088918209
1782845841590901500,5.370901611328125,-0.003472784999758005,0.00563702080398798,-0.004363175947219133
1782845841600906500,5.380906494140625,-0.006562487222254276,0.0021114544942975044,0.007498969789594412
1782845841610911500,5.390911376953125,-0.004278293810784817,0.0029205228202044964,0.010189028456807137
1782845841620916500,5.40091650390625,-0.00589435501024127,0.0006976081058382988,0.012519626878201962
1782845841630921700,5.410921630859375,-0.003032522276043892,-0.00150695675984025,0.013281824067234993
1782845841640926700,5.4209267578125,-0.001410395372658968,0.0001310019288212061,0.008053464815020561
1782845841650931700,5.430931640625,-0.0019773822277784348,0.0030775233171880245,0.0026203501038253307
1782845841660937000,5.44093701171875,-0.0004529717843979597,0.005238319747149944,-0.004978965036571026
1782845841670942000,5.45094189453125,0.0018887459300458431,0.009747584350407124,-0.011363893747329712
1782845841680947000,5.460947021484375,0.0014384051319211721,0.00638401135802269,-0.010962821543216705
1782845841690950700,5.47095068359375,0.0018650437705218792,0.0014638216234743595,-0.003386927302926779
1782845841700955600,5.48095556640625,-0.0010594410123303533,-0.0017330329865217209,0.003449233015999198
1782845841710960600,5.490960693359375,0.00021461513824760914,-0.006817007903009653,0.009326030500233173
1782845841720965600,5.500965576171875,-0.003634996712207794,-0.002059292048215866,0.008717789314687252
1782845841730970600,5.510970703125,-0.0057130614295601845,-0.0008723214268684387,0.0023507042787969112
1782845841740975600,5.5209755859375,-0.009846219792962074,0.0004786960780620575,-0.006197068840265274
1782845841750980600,5.530980712890625,-0.007318613585084677,-0.0008395686745643616,-0.015119723044335842
1782845841760985600,5.540985595703125,-0.00932534784078598,-0.003325314959511161,-0.024267109110951424
1782845841770990600,5.550990478515625,-0.011496090330183506,-0.002813721774145961,-0.02858595736324787
1782845841780995600,5.56099560546875,-0.00829041376709938,0.004212692379951477,-0.031153257936239243
1782845841791000600,5.57100048828125,-0.013440701179206371,0.004578344523906708,-0.02796225994825363
1782845841801005600,5.581005615234375,-0.00906891468912363,0.003199766157194972,-0.015890922397375107
1782845841811010600,5.591010498046875,-0.006277123466134071,-0.00012146192602813244,-0.002885640598833561
1782845841821015800,5.601015869140625,-0.0038032960146665573,0.0012497073039412498,0.006546223070472479
1782845841831020800,5.611020751953125,-0.0026868986897170544,-0.0011370177380740643,0.014550353400409222
1782845841841025800,5.62102587890625,-0.0012136255390942097,0.0003391946665942669,0.022738749161362648
1782845841851030800,5.63103076171875,-0.00021866848692297935,0.003743513487279415,0.017007892951369286
1782845841861035800,5.641035888671875,-0.0038299320731312037,0.008044344373047352,0.012703677639365196
1782845841871040800,5.651040771484375,-0.004692796152085066,0.004364921245723963,0.005368799902498722
1782845841881045800,5.661045654296875,-0.006178700365126133,0.009451436810195446,-0.003228031098842621
1782845841891050800,5.67105078125,-0.005834886804223061,0.006678287405520678,-0.008081908337771893
1782845841901055700,5.6810556640625,-0.0023606065660715103,0.004179690964519978,-0.009869035333395004
1782845841911060700,5.691060791015625,-0.0014772361610084772,0.005511804483830929,-0.008804569952189922
1782845841921064700,5.701064697265625,0.0024849006440490484,0.004870148841291666,-0.004990563262254
1782845841931069700,5.711069580078125,0.005565378814935684,0.004555363208055496,-0.0014632062520831823
1782845841941074700,5.72107470703125,0.004833475220948458,0.004704237915575504,-0.0005144955357536674
1782845841951079700,5.73107958984375,0.006059062201529741,0.003420594148337841,0.005002242513000965
1782845841961084700,5.741084716796875,0.010637526400387287,0.0006690642330795527,0.00895654410123825
1782845841971089700,5.751089599609375,0.00950621534138918,-0.0007128501310944557,0.0038094527553766966
1782845841981095000,5.761094970703125,0.008982917293906212,-0.002190083498135209,0.0018304315162822604
1782845841991100000,5.771099853515625,0.008219653740525246,-0.003593569388613105,0.0001374600687995553
1782845842001105000,5.78110498046875,0.0015356994699686766,-0.0046219779178500175,-0.004887661896646023
1782845842011110000,5.79110986328125,-0.0007487601833418012,-0.002731932792812586,-0.005332676228135824
1782845842021115000,5.801114990234375,0.0015423533041030169,-0.0018588341772556305,-0.009549561887979507
1782845842031120000,5.811119873046875,0.0022398349829018116,0.00007781642489135265,-0.012083560228347778
1782845842041124900,5.821124755859375,0.0021051508374512196,0.0030742872040718794,-0.011816765181720257
1782845842051129900,5.8311298828125,0.00252859340980649,0.006058891769498587,-0.00609203428030014
1782845842061134800,5.841134765625,0.008697958663105965,0.005405784584581852,-0.0019065160304307938
1782845842071139800,5.851139892578125,0.011685492470860481,-0.0025671871844679117,0.008607110939919949
1782845842081144800,5.861144775390625,0.017126739025115967,-0.009365675039589405,0.012708003632724285
1782845842091149800,5.87114990234375,0.02275027334690094,-0.014979352243244648,0.01241106167435646
1782845842101154800,5.88115478515625,0.020775772631168365,-0.013739846646785736,0.010923168621957302
1782845842111159800,5.891159912109375,0.0216495580971241,-0.01204927172511816,0.0056652892380952835
1782845842121164800,5.901164794921875,0.016754399985074997,-0.005768473260104656,0.004858351778239012
1782845842131169800,5.911169677734375,0.00994043704122305,-0.001308743143454194,-0.0046773627400398254
1782845842141174800,5.9211748046875,0.006551564671099186,0.004515590146183968,-0.007120014168322086
1782845842151179000,5.931178955078125,0.00503995455801487,0.00258240127004683,-0.008454523980617523
1782845842161184000,5.94118408203125,0.0007211610209196806,-0.005705914460122585,-0.0086330221965909
1782845842171189000,5.95118896484375,0.0004338058643043041,-0.008066274225711823,-0.01185411587357521
1782845842181194000,5.961194091796875,0.0013262610882520676,-0.011367598548531532,-0.014540193602442741
1782845842191199000,5.971198974609375,0.0002697850577533245,-0.010143609717488289,-0.013683987781405449
1782845842201204000,5.981203857421875,0.001630994025617838,-0.008373676799237728,-0.011882717721164227
1782845842211209000,5.991208984375,0.0005359023343771696,-0.010332431644201279,-0.009634743444621563
1782845842221214000,6.0012138671875,-0.0035419301129877567,-0.014147941954433918,-0.0027113233227282763
1782845842231219000,6.011218994140625,-0.0033067730255424976,-0.013344733975827694,0.0031937037128955126
1782845842241224000,6.021223876953125,-0.006169278174638748,-0.007402299903333187,-0.00030208146199584007
1782845842251229000,6.03122900390625,-0.007004445418715477,-0.003942853771150112,-0.0027098453138023615
1782845842261234000,6.04123388671875,-0.00783749483525753,-0.00398601870983839,0.0034085270017385483
1782845842271239200,6.0512392578125,-0.0038179857656359673,-0.002400372875854373,-0.002551361219957471
1782845842281244200,6.061244140625,0.0027298019267618656,-0.002502494491636753,0.0010640001855790615
1782845842291249200,6.071249267578125,0.004102128557860851,-0.004877234809100628,-0.0020004992838948965
1782845842301254100,6.081254150390625,0.008714638650417328,-0.007643364369869232,-0.007807175628840923
1782845842311259100,6.091259033203125,0.011570080183446407,-0.009399186819791794,-0.011722555384039879
1782845842321264000,6.10126416015625,0.013641432859003544,-0.008026833645999432,-0.018150294199585915
1782845842331269000,6.11126904296875,0.013478179462254047,-0.006728010252118111,-0.019294388592243195
1782845842341274000,6.121274169921875,0.010610361583530903,-0.004184546880424023,-0.019656991586089134
1782845842351279000,6.131279052734375,0.0076063163578510284,-0.004257783759385347,-0.017159478738904
1782845842361284000,6.1412841796875,0.0037426864728331566,-0.003506868379190564,-0.009911233559250832
1782845842371289000,6.1512890625,-0.0005628461949527264,-0.0009726046118885279,-0.007353266701102257
1782845842381294000,6.161294189453125,-0.004121869336813688,-0.0034951064735651016,-0.002046438632532954
1782845842391298000,6.171298095703125,-0.008915825746953487,-0.002544624265283346,0.004421047866344452
1782845842401303000,6.181302978515625,-0.009167912416160107,-0.001756228506565094,0.010715069249272346
1782845842411308000,6.19130810546875,-0.010406548157334328,0.002176727633923292,0.01160642970353365
1782845842421313000,6.20131298828125,-0.00860134419053793,0.000677201896905899,0.013825014233589172
1782845842431318000,6.211318115234375,-0.009469268843531609,0.0003184741362929344,0.015464723110198975
1782845842441323000,6.221322998046875,-0.008112193085253239,0.0031111829448491335,0.017570272088050842
1782845842451328000,6.231327880859375,-0.003946742974221706,0.0024951938539743423,0.022322149947285652
1782845842461333000,6.2413330078125,-0.0047025480307638645,-0.0025949059054255486,0.02230430766940117
1782845842471338000,6.251337890625,-0.0011434996267780662,-0.003759772516787052,0.02321271225810051
1782845842481343000,6.261343017578125,-0.00009152153506875038,0.001222665305249393,0.01222183182835579
1782845842491348000,6.271347900390625,-0.005038876086473465,0.009892585687339306,0.00954562146216631
1782845842501353000,6.28135302734375,-0.005371128674596548,0.009091988205909729,0.008604594506323338
1782845842511358000,6.29135791015625,-0.004256595857441425,0.00798038486391306,0.01228881161659956
1782845842521363000,6.301363037109375,-0.001229743706062436,-0.002505738288164139,0.012107023037970066
1782845842531368000,6.311367919921875,0.0038193431682884693,-0.009340474382042885,0.01210196316242218
1782845842541373000,6.321373046875,0.0026417230255901814,-0.009575968608260155,0.00954265147447586
1782845842551378000,6.3313779296875,0.006819689646363258,-0.008361833170056343,0.008448092266917229
1782845842561383000,6.3413828125,0.004040305502712727,-0.001447948394343257,-0.0025415783748030663
1782845842571388000,6.351387939453125,0.004682925995439291,0.003695947118103504,-0.009306540712714195
1782845842581393000,6.361392822265625,0.0012418681290000677,0.005102651193737984,-0.012801164761185646
1782845842591398000,6.37139794921875,-0.0027717817574739456,0.004198773764073849,-0.01156306080520153
1782845842601403000,6.38140283203125,-0.005339001305401325,0.003739374689757824,-0.006010194309055805
1782845842611408000,6.391407958984375,-0.01183738000690937,0.00037473696283996105,0.00178647565189749
1782845842621412000,6.401412109375,-0.018091589212417603,-0.0021152705885469913,0.005398561246693134
1782845842631417000,6.4114169921875,-0.019482292234897614,-0.0030681495554745197,0.007319765631109476
1782845842641422000,6.421422119140625,-0.023472605273127556,-0.0015663192607462406,0.0012824852019548416
1782845842651427000,6.431427001953125,-0.021243805065751076,-0.006263070274144411,0.0005226854118518531
1782845842661432000,6.44143212890625,-0.019846541807055473,-0.004664300009608269,0.0034088585525751114
1782845842671437000,6.45143701171875,-0.015933025628328323,-0.0010868760291486979,0.0030892794020473957
1782845842681442000,6.461442138671875,-0.012555466033518314,0.0059549324214458466,0.00606335187330842
1782845842691447000,6.471447021484375,-0.009821198880672455,0.00723671168088913,0.009892445057630539
1782845842701452000,6.4814521484375,-0.008167417719960213,0.002265170682221651,0.018132837489247322
1782845842711457000,6.49145703125,-0.0010517179034650326,-0.0011913459748029709,0.022727856412529945
1782845842721462000,6.5014619140625,0.005114201456308365,-0.0035303260665386915,0.026483286172151566
1782845842731467000,6.511467041015625,0.013727663084864616,-0.007977006956934929,0.024479523301124573
1782845842741472000,6.521471923828125,0.017396755516529083,-0.009849500842392445,0.014224156737327576
1782845842751477000,6.53147705078125,0.022420808672904968,-0.008364789187908173,-0.002266403054818511
1782845842761482000,6.54148193359375,0.022098874673247337,-0.004158373922109604,-0.01750771328806877
1782845842771487000,6.551487060546875,0.02764996699988842,0.002544536255300045,-0.02814384736120701
1782845842781492000,6.561491943359375,0.022322440519928932,-0.00011024693958461285,-0.03303033486008644
1782845842791497000,6.5714970703125,0.019698427990078926,-0.0034264151472598314,-0.036906033754348755
1782845842801502000,6.581501953125,0.01250266470015049,-0.002416352042928338,-0.03099285624921322
1782845842811507000,6.5915068359375,0.005510268732905388,-0.004754873923957348,-0.02925780601799488
1782845842821512000,6.601511962890625,-0.0037592099979519844,-0.00917041301727295,-0.020683912560343742
1782845842831517000,6.611516845703125,-0.010125762782990932,-0.010277489200234413,-0.01494746282696724
1782845842841522000,6.62152197265625,-0.01261911541223526,-0.00906289927661419,-0.009780858643352985
1782845842851526100,6.631526123046875,-0.015617302618920803,-0.006794418208301067,-0.00018575554713606834
1782845842861531100,6.64153125,-0.0170298982411623,-0.008815199136734009,0.00675291009247303
1782845842871536000,6.6515361328125,-0.017529774457216263,-0.007175757549703121,0.011115167289972305
1782845842881541000,6.661541015625,-0.014945446513593197,-0.008127190172672272,0.016733067110180855
1782845842891546000,6.671546142578125,-0.015455707907676697,-0.0056635006330907345,0.017507780343294144
1782845842901551000,6.681551025390625,-0.011862706393003464,0.0019667306914925575,0.021232396364212036
1782845842911556000,6.69155615234375,-0.011064290069043636,0.0008769652340561152,0.020984722301363945
1782845842921561000,6.70156103515625,-0.006227951962500811,0.0006061876192688942,0.019157184287905693
1782845842931566000,6.711566162109375,-0.00029762485064566135,0.003326872829347849,0.01969274692237377
1782845842941571000,6.721571044921875,0.00263261329382658,0.00006363587453961372,0.0166858471930027
1782845842951576000,6.731576171875,0.013558498583734035,-0.0011675436981022358,0.010285472497344017
1782845842961581000,6.7415810546875,0.017006337642669678,-0.004831839352846146,0.006869570817798376
1782845842971586000,6.7515859375,0.019144054502248764,-0.0019324554596096277,-0.0006725011044181883
1782845842981591000,6.761591064453125,0.021716570481657982,-0.006328728049993515,-0.005678605288267136
1782845842991596000,6.771595947265625,0.01869601383805275,-0.004905002191662788,-0.010066961869597435
1782845843001601000,6.78160107421875,0.01424393616616726,-0.0021738121286034584,-0.015197222121059895
1782845843011606000,6.79160595703125,0.016139041632413864,0.0006515353452414274,-0.0182111207395792
1782845843021611000,6.801611083984375,0.012302183546125889,0.003368274075910449,-0.019345320761203766
1782845843031616300,6.8116162109375,0.011185519397258759,0.002556009916588664,-0.011842131614685059
1782845843041621200,6.821621337890625,0.013651806861162186,-0.0036624670028686523,-0.004423271864652634
1782845843051626200,6.831626220703125,0.01133166067302227,-0.004094698466360569,-0.0020032573956996202
1782845843061631200,6.84163134765625,0.012190880253911018,-0.0008366829715669155,0.0013104334939271212
1782845843071635000,6.851635009765625,0.009663539938628674,-0.0043235598132014275,0.008685791864991188
1782845843081640000,6.861639892578125,0.006989447399973869,-0.007797941565513611,0.01237216405570507
1782845843091645000,6.87164501953125,0.006398491561412811,-0.004424781538546085,0.010656023398041725
1782845843101650000,6.88164990234375,0.0007463637739419937,-0.005321546457707882,0.01437439862638712
1782845843111655000,6.891655029296875,-0.0003641743678599596,0.0009933409746736288,0.013735506683588028
1782845843121660000,6.901659912109375,-0.004563530907034874,0.0016142200911417603,0.010855111293494701
1782845843131665000,6.911664794921875,-0.0052042873576283455,0.006560775451362133,0.008540292270481586
1782845843141670000,6.921669921875,-0.003658504690974951,0.004716173745691776,0.009003601968288422
1782845843151674000,6.931674072265625,-0.0005758957704529166,-0.0007558232173323631,0.008956996724009514
1782845843161679000,6.94167919921875,0.0023447040002793074,-0.008426581509411335,0.010173034854233265
1782845843171684000,6.95168408203125,0.006141305901110172,-0.0169814545661211,0.0060491301119327545
1782845843181689000,6.961689208984375,0.011976368725299835,-0.016854120418429375,0.002741736825555563
1782845843191694000,6.971694091796875,0.014375876635313034,-0.014565400779247284,-0.009247814305126667
1782845843201699000,6.981698974609375,0.01714205928146839,-0.010591649450361729,-0.019580839201807976
1782845843211704000,6.9917041015625,0.012230925261974335,-0.005176643840968609,-0.026023026555776596
1782845843221709000,7.001708984375,0.013871068134903908,-0.004504654556512833,-0.028407247737050056
1782845843231714000,7.011714111328125,0.0122321592643857,-0.0090610571205616,-0.02474833093583584
1782845843241719000,7.021718994140625,0.007664203643798828,-0.012275571003556252,-0.022102411836385727
1782845843251724000,7.03172412109375,0.004343774169683456,-0.015058306977152824,-0.019933532923460007
1782845843261729000,7.04172900390625,0.001202157698571682,-0.013828893192112446,-0.012954015284776688
1782845843271734000,7.051734130859375,-0.0020932378247380257,-0.017688613384962082,-0.015177753753960133
1782845843281738000,7.061738037109375,-0.0025984393432736397,-0.01635090634226799,-0.021129120141267776
1782845843291743000,7.071742919921875,-0.0014093380887061357,-0.011931922286748886,-0.027933232486248016
1782845843301748000,7.081748046875,-0.004914057906717062,-0.01415193360298872,-0.026881281286478043
1782845843311753000,7.0917529296875,-0.004198466427624226,-0.017346661537885666,-0.03179508075118065
1782845843321758000,7.101758056640625,-0.007660982199013233,-0.01809089258313179,-0.0286052655428648
1782845843331763000,7.111762939453125,-0.008491089567542076,-0.014928655698895454,-0.026035849004983902
1782845843341768000,7.121767822265625,-0.009206430986523628,-0.015019909478724003,-0.023000922054052353
1782845843351773000,7.13177294921875,-0.004030577838420868,-0.016862019896507263,-0.01629667915403843
1782845843361778000,7.14177783203125,0.000044693006202578545,-0.01759643852710724,-0.017045630142092705
1782845843371783000,7.151782958984375,-0.0015864931046962738,-0.016909077763557434,-0.012975521385669708
1782845843381788000,7.161787841796875,0.0016257562674582005,-0.016138864681124687,-0.01360955461859703
1782845843391793000,7.17179296875,0.003609811421483755,-0.00941678136587143,-0.01812467724084854
1782845843401798000,7.1817978515625,0.006550414953380823,-0.011131983250379562,-0.021930038928985596
1782845843411803000,7.191802978515625,0.007407419849187136,-0.014388762414455414,-0.027890991419553757
1782845843421808000,7.20180810546875,0.006833060644567013,-0.0101235406473279,-0.03100910224020481
1782845843431813000,7.211813232421875,0.005587766878306866,-0.011439674533903599,-0.030651437118649483
1782845843441818000,7.221818115234375,0.001290156040340662,-0.006411356385797262,-0.02085917256772518
1782845843451823000,7.231822998046875,-0.0015823296271264553,-0.010196506977081299,-0.015424991026520729
1782845843461828000,7.241828125,-0.002165126381441951,-0.013978654518723488,-0.011134001426398754
1782845843471833000,7.2518330078125,-0.0019320996943861246,-0.010703498497605324,-0.011241859756410122
1782845843481837000,7.261837158203125,0.0007135649211704731,-0.010421717539429665,-0.007215009070932865
1782845843491842000,7.271842041015625,0.0024587344378232956,-0.0030777850188314915,-0.005637618713080883
1782845843501847000,7.281846923828125,0.004934227094054222,-0.0017726661171764135,-0.00834293756633997
1782845843511852000,7.29185205078125,0.010114873759448528,-0.007438275031745434,-0.0070521035231649876
1782845843521857000,7.30185693359375,0.009200066328048706,-0.008309416472911835,-0.003503415733575821
1782845843531862000,7.311862060546875,0.005905735772103071,-0.01418301835656166,-0.0026160506531596184
1782845843541867000,7.321866943359375,0.007182734087109566,-0.01309935562312603,-0.0034637602511793375
1782845843551872000,7.3318720703125,0.00774785690009594,-0.009535514749586582,-0.009031631052494049
1782845843561877000,7.341876953125,0.005673241335898638,-0.00265659112483263,-0.011300086975097656
1782845843571882000,7.351882080078125,0.002682245336472988,0.001493412652052939,-0.01409001462161541
1782845843581887000,7.361886962890625,0.007166154682636261,0.0032306185457855463,-0.01963784545660019
1782845843591892000,7.37189208984375,0.010390710085630417,-0.0014355056919157505,-0.015961885452270508
1782845843601897000,7.38189697265625,0.010282441973686218,-0.006530695594847202,-0.009917731396853924
1782845843611902000,7.39190185546875,0.012963445857167244,-0.010918254032731056,-0.004576761741191149
1782845843621907000,7.401906982421875,0.014315269887447357,-0.011572440154850483,-0.001101034227758646
1782845843631912000,7.411911865234375,0.0127639789134264,-0.011225962080061436,0.005393084138631821
1782845843641917000,7.4219169921875,0.011472946964204311,-0.008598225191235542,0.007979456335306168
1782845843651922000,7.431921875,0.006403619423508644,-0.004756083246320486,0.018379099667072296
1782845843661927000,7.441927001953125,0.003391026519238949,-0.0003515251446515322,0.022815443575382233
1782845843671932000,7.451931884765625,-0.0008668352384120226,0.003198202233761549,0.023720651865005493
1782845843681937000,7.46193701171875,-0.0008169792126864195,0.008371632546186447,0.030058111995458603
1782845843691942000,7.47194189453125,-0.005212526768445969,0.013012990355491638,0.03514102101325989
1782845843701946000,7.481946044921875,-0.003281442914158106,0.009929093532264233,0.03293614089488983
1782845843711951000,7.491951171875,-0.001193791045807302,0.007299488410353661,0.03545522317290306
1782845843721956000,7.5019560546875,-0.0009173087310045958,-0.00226009008474648,0.029267095029354095
1782845843731961000,7.511961181640625,0.0028366832993924618,-0.0070338062942028046,0.024593248963356018
1782845843741966000,7.521966064453125,0.005672048777341843,-0.004530513193458319,0.01569063775241375
1782845843751971000,7.53197119140625,0.007844389416277409,-0.00153046241030097,0.012524939142167568
1782845843761976000,7.54197607421875,0.007341669872403145,-0.0012485298793762922,0.006688541732728481
1782845843771981000,7.55198095703125,0.009032243862748146,0.004126528277993202,0.00107353285420686
1782845843781986000,7.561986083984375,0.011532559059560299,0.009266306646168232,0.00026112288469448686
1782845843791991000,7.571990966796875,0.016939042136073112,0.009762453846633434,-0.001898434478789568
1782845843801996000,7.58199609375,0.023046189919114113,0.0031708418391644955,-0.0012350159231573343
1782845843812001000,7.5920009765625,0.02801484987139702,0.00042538903653621674,0.0005445083370432258
1782845843822006000,7.602006103515625,0.032009057700634,-0.007730274926871061,-0.0025623354595154524
1782845843832011000,7.612010986328125,0.033413343131542206,-0.00803627260029316,-0.011224799789488316
1782845843842016000,7.62201611328125,0.028952840715646744,-0.004567461553961039,-0.017988214269280434
1782845843852021000,7.63202099609375,0.01972791738808155,-0.0008520856499671936,-0.02000262774527073
1782845843862026000,7.64202587890625,0.015697617083787918,0.0009288925211876631,-0.021623283624649048
1782845843872031200,7.65203125,0.010061834007501602,0.0044591790065169334,-0.0198216550052166
1782845843882036200,7.6620361328125,0.0054885027930140495,0.0012520343298092484,-0.01742091029882431
1782845843892041200,7.672041259765625,0.000678833806887269,-0.0000015157274901866913,-0.010962744243443012
1782845843902045000,7.682044921875,-0.00037311483174562454,0.009174938313663006,-0.009613586589694023
1782845843912050000,7.6920498046875,0.0007933496963232756,0.011365387588739395,-0.0021633938886225224
1782845843922055000,7.702054931640625,0.0026914856862276793,0.0038220633286982775,0.0040001533925533295
1782845843932060000,7.712059814453125,0.006032421253621578,-0.007234849035739899,0.007614861708134413
1782845843942065000,7.72206494140625,0.008188022300601006,-0.011729400604963303,0.011325105093419552
1782845843952070000,7.73206982421875,0.0050018164329230785,-0.007996713742613792,0.010721899569034576
1782845843962075000,7.742074951171875,0.0014654595870524645,0.0024551022797822952,0.0059696887619793415
1782845843972079900,7.752079833984375,0.00517843896523118,0.007277022115886211,-0.0025116801261901855
1782845843982084900,7.7620849609375,0.007595807313919067,0.010949162766337395,-0.005625704303383827
1782845843992090000,7.772090087890625,0.0122688552364707,0.00875817984342575,-0.015920152887701988
1782845844002095000,7.78209521484375,0.019373256713151932,0.010471024550497532,-0.022000055760145187
1782845844012100000,7.79210009765625,0.027382446452975273,0.005975075997412205,-0.029625218361616135
1782845844022105000,7.80210498046875,0.027711965143680573,0.0026516213547438383,-0.03581022098660469
1782845844032110000,7.812110107421875,0.028625428676605225,-0.004011075012385845,-0.036143913865089417
1782845844042115300,7.822115234375,0.02796086110174656,-0.007610817439854145,-0.03801625594496727
1782845844052120300,7.832120361328125,0.03252658247947693,-0.008782342076301575,-0.03656616806983948
1782845844062125300,7.842125244140625,0.026639383286237717,-0.004532644059509039,-0.0343264564871788
1782845844072130300,7.85213037109375,0.02364439330995083,0.002953501883894205,-0.02768879197537899
1782845844082135300,7.86213525390625,0.017514368519186974,0.010323485359549522,-0.016931526362895966
1782845844092140300,7.872140380859375,0.010688422247767448,0.008361268788576126,-0.004287370480597019
1782845844102144000,7.88214404296875,0.0061699762009084225,0.002511512953788042,0.005839153658598661
1782845844112149000,7.89214892578125,-0.002391554182395339,-0.0034310645423829556,0.010884245857596397
1782845844122154000,7.902154052734375,-0.013355031609535217,-0.0027564375195652246,0.013158359564840794
1782845844132159000,7.912158935546875,-0.02479623630642891,-0.0038813569117337465,0.01725856401026249
1782845844142164000,7.9221640625,-0.03673211485147476,-0.007471268065273762,0.01710239052772522
1782845844152169700,7.932169677734375,-0.047856405377388,-0.00836129579693079,0.016073077917099
1782845844162174700,7.9421748046875,-0.05478312075138092,-0.008607717230916023,0.013764454983174801
1782845844172179700,7.9521796875,-0.060716912150382996,-0.010891644284129143,0.014387900941073895
1782845844182184700,7.962184814453125,-0.06408745050430298,-0.008361326530575752,0.014164768159389496
1782845844192189700,7.972189697265625,-0.0647154226899147,-0.001844038488343358,0.016553889960050583
1782845844202194700,7.982194580078125,-0.059909638017416,0.0033044845331460238,0.021762138232588768
1782845844212199700,7.99219970703125,-0.052656520158052444,0.0012559810420498252,0.03777119889855385
1782845844222204700,8.00220458984375,-0.04108766093850136,-0.0060401116497814655,0.04614249989390373
1782845844232209700,8.012209716796875,-0.03133995831012726,-0.01466049812734127,0.048991817981004715
1782845844242214700,8.022214599609375,-0.024623267352581024,-0.019240597262978554,0.046976953744888306
1782845844252219600,8.0322197265625,-0.018324358388781548,-0.013898828998208046,0.03417859971523285
1782845844262224600,8.042224609375,-0.012323292903602123,-0.010760904289782047,0.01757626235485077
1782845844272229600,8.052229736328124,-0.008798599243164062,-0.0032337461598217487,0.000848148949444294
1782845844282234600,8.062234619140625,-0.004970543086528778,-0.0013360471930354834,-0.011924920603632927
1782845844292239600,8.072239501953124,0.002423191210255027,0.0008512069471180439,-0.015927918255329132
1782845844302244600,8.08224462890625,0.007027234882116318,0.0016395722050219774,-0.014978750608861446
1782845844312248800,8.092248779296876,0.011384699493646622,0.0023596910759806633,-0.0054731303825974464
1782845844322253800,8.10225390625,0.013731028884649277,0.002520449925214052,0.006382649764418602
1782845844332258800,8.1122587890625,0.017163310199975967,-0.003608815371990204,0.020430291071534157
1782845844342263800,8.122263916015624,0.01608883962035179,-0.009932923130691051,0.03092437982559204
1782845844352268800,8.132268798828125,0.013417689129710197,-0.009259410202503204,0.03338887169957161
1782845844362273800,8.142273681640624,0.007257847581058741,-0.01370813325047493,0.03285480663180351
1782845844372278800,8.15227880859375,0.0032356753945350647,-0.009477701038122177,0.018115542829036713
1782845844382283800,8.16228369140625,-0.0019501543138176203,-0.0009595504961907864,-0.0016167274443432689
1782845844392288800,8.172288818359375,-0.007285797502845526,0.00832795724272728,-0.02069614641368389
1782845844402293800,8.182293701171876,-0.00874246284365654,0.016492580994963646,-0.028489699587225914
1782845844412298800,8.192298828125,-0.011556359007954597,0.016600172966718674,-0.020205138251185417
1782845844422303700,8.2023037109375,-0.009482892230153084,0.013394909910857677,-0.009773215278983116
1782845844432308700,8.212308837890625,-0.0038742756005376577,0.009058483876287937,0.0081956647336483
1782845844442313700,8.222313720703125,0.0033626279328018427,0.00402796920388937,0.023888591676950455
1782845844452318700,8.232318603515624,0.007347249425947666,-0.0032957238145172596,0.03391006961464882
1782845844462323700,8.24232373046875,0.011553501710295677,0.0004214902874082327,0.03309880569577217
1782845844472328700,8.25232861328125,0.011498106643557549,0.004880154505372047,0.025104526430368423
1782845844482333700,8.262333740234375,0.008356194011867046,0.007946155965328217,0.019989045336842537
1782845844492338700,8.272338623046876,0.008507728576660156,0.006936817895621061,0.012040575966238976
1782845844502343700,8.28234375,0.010554270818829536,0.008646375499665737,0.001141960616223514
1782845844512347600,8.29234765625,0.010319912806153297,0.01052683312445879,-0.0076350197196006775
1782845844522352600,8.3023525390625,0.013747528195381165,0.009268078953027725,-0.01242936309427023
1782845844532357600,8.312357666015625,0.013788273558020592,0.011195674538612366,-0.012159318663179874
1782845844542362600,8.322362548828124,0.015307940542697906,0.014379746280610561,-0.014147990383207798
1782845844552367600,8.33236767578125,0.021183406934142113,0.010969302617013454,-0.012350622564554214
1782845844562372600,8.34237255859375,0.025074733421206474,0.00843779742717743,-0.008928647264838219
1782845844572377600,8.352377685546875,0.027236154302954674,0.0064955540001392365,-0.004028697032481432
1782845844582382600,8.362382568359376,0.027573158964514732,0.003933693282306194,-0.002219973597675562
1782845844592387600,8.3723876953125,0.028240280225872993,0.010640597902238369,-0.0022599208168685436
1782845844602392600,8.382392578125,0.02653835341334343,0.013869074173271656,0.0032292811665683985
1782845844612397600,8.3923974609375,0.021979819983243942,0.013790776953101158,0.012052866630256176
1782845844622402600,8.402402587890625,0.022121194750070572,0.007893407717347145,0.01914546824991703
1782845844632407600,8.412407470703124,0.024355320259928703,0.0036603135522454977,0.025000695139169693
1782845844642412500,8.42241259765625,0.023920422419905663,0.004587739706039429,0.020070886239409447
1782845844652417500,8.43241748046875,0.022205080837011337,0.008355846628546715,0.013132551684975624
1782845844662422800,8.4424228515625,0.016169613227248192,0.0077006821520626545,0.00972683634608984
1782845844672427800,8.452427734375,0.012243581935763359,0.002351190662011504,0.005624236539006233
1782845844682432800,8.462432861328125,0.00786616001278162,0.0014767834218218923,0.0009924765909090638
1782845844692437800,8.472437744140626,0.0019595350604504347,-0.001232450595125556,-0.00892939604818821
1782845844702441700,8.482441650390625,0.002994579030200839,0.0033914735540747643,-0.013929360546171665
1782845844712446700,8.49244677734375,0.00004699244163930416,0.005389643367379904,-0.015688644722104073
1782845844722451700,8.50245166015625,0.0039358800277113914,0.00928865559399128,-0.015964427962899208
1782845844732456700,8.512456787109375,0.004956935532391071,0.0063088443130254745,-0.005671043414622545
1782845844742461700,8.522461669921874,0.008883783593773842,0.0015885662287473679,0.003709949553012848
1782845844752466700,8.532466796875,0.010571428574621677,-0.0004495508037507534,0.014091217890381813
1782845844762471700,8.5424716796875,0.0087371114641428,0.001626645098440349,0.021721351891756058
1782845844772476700,8.5524765625,0.005953042767941952,0.0015803060960024595,0.01987418346107006
1782845844782481700,8.562481689453126,0.004427651409059763,0.005873051006346941,0.021883182227611542
1782845844792486700,8.572486572265625,-0.0011519375257194042,0.008113035932183266,0.018293241038918495
1782845844802491600,8.58249169921875,-0.0034007360227406025,0.010987874120473862,0.016836008056998253
1782845844812496600,8.59249658203125,-0.00701011810451746,0.009726068004965782,0.017571840435266495
1782845844822501600,8.602501708984375,-0.009280323050916195,0.005272341892123222,0.018603669479489326
1782845844832506600,8.612506591796874,-0.008250478655099869,0.005176468752324581,0.014863792806863785
1782845844842511600,8.62251171875,-0.01315278373658657,0.006459531374275684,0.016401993110775948
1782845844852516600,8.6325166015625,-0.01495254784822464,0.00552982185035944,0.02328519895672798
1782845844862521600,8.642521484375,-0.012169616296887398,0.0014009749284014106,0.026863744482398033
1782845844872526600,8.652526611328126,-0.012833809480071068,-0.003349838312715292,0.032539743930101395
1782845844882531600,8.662531494140625,-0.013056867755949497,0.008275226689875126,0.08390003442764282
1782845844892535800,8.672535888671876,-0.009207001887261868,0.020507125183939934,0.04578833654522896
1782845844902540800,8.682540771484375,-0.003978303633630276,0.01971333660185337,-0.00799083337187767
1782845844912545800,8.6925458984375,0.012050995603203773,-0.022728128358721733,-0.04307984560728073
1782845844922550800,8.70255078125,0.021375898271799088,-0.04161478579044342,-0.05698700249195099
1782845844932555800,8.7125556640625,0.01887599006295204,-0.039350565522909164,-0.057869572192430496
1782845844942560800,8.722560791015624,0.008413300849497318,-0.04142874851822853,-0.03963443264365196
1782845844952565800,8.732565673828125,0.00022141681984066963,-0.015630973502993584,-0.01976032741367817
1782845844962570800,8.74257080078125,-0.007440074812620878,-0.0002820598892867565,-0.01879160664975643
1782845844972575700,8.75257568359375,-0.006396914832293987,0.000942728016525507,-0.01535532996058464
