time,seconds_elapsed,z,y,x
1782846750827189800,0.070189697265625,-1.1499912883788346,-3.0230382001265883,-0.6625907794035971
1782846750837193700,0.08019384765625,-3.204381732487678,-3.9770141644522545,0.0717227355606854
1782846750847198700,0.09019873046875,-6.614650194701552,-4.043651413442194,0.1872366089876741
1782846750857203700,0.10020361328125,-10.203432811069488,-3.4422014775693413,0.1115935216454789
1782846750867207700,0.110207763671875,-12.263753229749202,-3.241322931393981,0.5428741935897619
1782846750877212700,0.120212646484375,-13.310205233198403,-3.5724119118034836,1.1249556313216686
1782846750887216600,0.130216552734375,-13.79763336083293,-4.455770617592335,1.4470285077132283
1782846750897221600,0.1402216796875,-14.182647408175468,-5.470973496297002,1.557646352726966
1782846750907226600,0.1502265625,-14.693589682388305,-5.90636164009273,1.847350891085714
1782846750917230600,0.160230712890625,-14.5511124717772,-5.5832934690535065,2.3067653687655922
1782846750927235600,0.170235595703125,-14.397353988695144,-4.985432205322384,2.4600872139960526
1782846750937240600,0.180240478515625,-14.076100758123397,-4.324086603674292,1.7451057376198469
1782846750947244500,0.19024462890625,-13.442370308631657,-3.530845975705981,0.5245445004446432
1782846750957249500,0.20024951171875,-12.315894920396804,-2.8799276600480077,-0.8531311061117798
1782846750967253800,0.210253662109375,-10.491830066221953,-2.0828473077863454,-1.6830108082346618
1782846750977258800,0.2202587890625,-8.066479819086194,-1.0887842477440834,-1.8238444894224404
1782846750987263700,0.230263671875,-5.356503652030229,-0.2280631979599595,-1.6602397351086138
1782846750997267700,0.240267822265625,-2.6376211249411106,0.5288143232509493,-1.3925767865575849
1782846751007272700,0.250272705078125,-0.13937398389875888,1.2063367143265902,-1.1907491229638456
1782846751017277700,0.260277587890625,2.125812589287758,1.7458157855853438,-1.1470166564822197
1782846751027281700,0.27028173828125,3.940622708383202,2.1112344672285017,-1.159922461415082
1782846751037286700,0.28028662109375,5.169416899842023,2.2378825328059495,-1.2183863408215343
1782846751047290600,0.29029052734375,6.135314188107848,2.2071249909706414,-1.0473706526640802
1782846751057295600,0.300295654296875,7.138325693759322,2.0331240764573217,-0.6870435950715095
1782846751067300600,0.310300537109375,8.188311132031679,1.8213989959664643,-0.1831266529181972
1782846751077304600,0.3203046875,9.107216952019929,1.6552748061776161,0.33744635007958856
1782846751087309600,0.3303095703125,9.767570620021223,1.4577657364353536,0.7118387944363057
1782846751097314600,0.340314453125,10.273652594721316,1.396262927724421,0.995635423925519
1782846751107318500,0.350318603515625,10.472989756673574,1.4450292967200278,1.1054901756122708
1782846751117323500,0.360323486328125,10.356472332227229,1.4330620878115297,1.0690117719121277
1782846751127327700,0.37032763671875,10.04652375500202,1.510734087165445,0.9331786024253815
1782846751137332700,0.380332763671875,9.945473948800563,1.5071499450683592,0.9480969162244349
1782846751147337700,0.390337646484375,10.147644872874022,1.4710802682995796,1.0272381844133138
1782846751157341700,0.400341796875,10.367374834513663,1.5018097530841827,1.107089646698162
1782846751167346700,0.4103466796875,10.576701475560665,1.536589974564314,1.1326131603375076
1782846751177351700,0.4203515625,10.68090769996643,1.5737297647826374,1.0666151590991764
1782846751187355600,0.430355712890625,10.619573818081617,1.7331353138409553,0.9963871190756559
1782846751197360600,0.440360595703125,10.34981345885992,1.8859457024179398,0.8997310177884995
1782846751207364600,0.450364501953125,9.907094241523742,1.9688545795120298,0.7773829874925315
1782846751217369600,0.46036962890625,9.510021507596969,1.994061501482874,0.6303891031745821
1782846751227374600,0.47037451171875,9.20813114914298,2.026555950113386,0.46534306401126085
1782846751237378600,0.480378662109375,8.946104014521836,2.051726777857542,0.37540721088983114
1782846751247383600,0.490383544921875,8.818505224090813,2.0088732861675322,0.3410924880295992
1782846751257388500,0.500388427734375,8.86138925704956,1.9221632632248102,0.39375674124658105
1782846751267392500,0.510392578125,8.773819110146164,1.5655989191666244,0.5087677797179669
1782846751277397800,0.520397705078125,8.308278989192843,1.1766802656009792,0.36310141767673193
1782846751287401700,0.530401611328125,7.212191140437126,0.865939076693356,-0.16817980714440345
1782846751297406700,0.54040673828125,5.615187321442365,0.5134583486869931,-0.6612124037224799
1782846751307411700,0.55041162109375,3.849754688978195,0.15566753157377242,-0.9036012833505869
1782846751317415700,0.560415771484375,1.7681167569816112,-0.14803133760690687,-0.5435501200899482
1782846751327420700,0.570420654296875,-0.4820581250339746,-0.5250323204942047,-0.18920827438682317
1782846751337425700,0.58042578125,-3.249280612400174,-1.3397908066570758,-0.3226298161545768
1782846751347429600,0.5904296875,-6.053123980677127,-2.033691501081735,-0.24000841423235833
1782846751357434600,0.6004345703125,-7.751108632290363,-2.0322877717636523,0.53410044696033
1782846751367438600,0.6104384765625,-8.433404667508603,-1.5716827691249549,1.7205628325156868
1782846751377443600,0.620443603515625,-9.14377061291337,-0.8734042980074882,2.6762176898390053
1782846751387448600,0.630448486328125,-10.520112742376327,-0.6487589456669985,2.5323358731269834
1782846751397452500,0.64045263671875,-12.40958208887577,-1.1098512934312224,1.61873648898378
1782846751407457500,0.65045751953125,-14.011843097746372,-1.4859941981844602,0.40561592320334167
1782846751417462500,0.660462646484375,-14.818751016539334,-1.3906427497550844,-0.19214944240525364
1782846751427466800,0.670466796875,-14.890260255479811,-0.9857055660635232,0.01930664841849357
1782846751437471700,0.6804716796875,-14.098531201118229,-0.3969515917651355,0.7969660782322288
1782846751447475700,0.690475830078125,-12.83478435422182,-0.12053352821990847,1.6264513011448085
1782846751457480700,0.700480712890625,-11.27175996171832,-0.47278468525409695,2.0991829410374163
1782846751467485700,0.710485595703125,-9.312854675421118,-1.2140414434850215,2.290229244506359
1782846751477489700,0.72048974609375,-6.947693816310167,-2.1339226843766865,2.454618427196145
1782846751487494700,0.73049462890625,-4.372949711042643,-3.0995199667826294,2.702839447043836
1782846751497499600,0.740499755859375,-2.03656778717041,-3.5510856306582688,2.8513550610363483
1782846751507503900,0.75050390625,-0.27467034309506416,-3.2346479836747046,2.7093364078477022
1782846751517508900,0.7605087890625,0.9093658382266759,-2.515873106364906,2.3405811291277407
1782846751527512600,0.7705126953125,1.6119202330976723,-1.5653624800622463,1.688574725972116
1782846751537517600,0.780517578125,1.9712351910382508,-0.7506646380454302,0.6906899887498468
1782846751547522600,0.7905224609375,2.2084552166610956,0.02125672304034233,-0.21848312165001407
1782846751557526500,0.800526611328125,2.5056296525090933,0.5436686319030821,-1.0825695379476994
1782846751567531500,0.810531494140625,3.013286329180002,0.8838856522724032,-1.7276282408572732
1782846751577536500,0.82053662109375,3.667831018641591,1.141203440158814,-2.0723867040485144
1782846751587540700,0.830540771484375,4.357728176513314,1.3660099744103849,-2.2057897968441247
1782846751597545700,0.840545654296875,4.987978967195749,1.5857627324037253,-2.18611332873255
1782846751607549700,0.8505498046875,5.377326659828424,1.7224083142518996,-2.0766724185436964
1782846751617554700,0.8605546875,5.589094848808646,1.719435582051426,-1.9838257925421
1782846751627559700,0.8705595703125,5.701162308108806,1.6671547751940785,-1.8362799003645776
1782846751637563600,0.880563720703125,5.758657050222158,1.460422388423979,-1.6857812958613037
1782846751647568600,0.890568603515625,5.871289157667756,1.2174087279610335,-1.5074384066209197
1782846751657573600,0.90057373046875,5.989701602080464,0.9534073706574737,-1.3063763205721974
1782846751667577900,0.910577880859375,6.030588908264041,0.7251259999021887,-1.0590049032911657
1782846751677582800,0.920582763671875,5.897618361666798,0.6075095281727612,-0.6721141022913157
1782846751687586600,0.930586669921875,5.468303400304913,0.659972413598746,-0.32787725182138383
1782846751697591600,0.940591552734375,4.877790161249041,0.759191643372178,-0.16688147442955523
1782846751707596500,0.950596435546875,4.3628339752197265,0.8964647094689309,0.03278006063885987
1782846751717600500,0.9606005859375,3.9610628543436524,1.106061399628967,0.24313085710182786
1782846751727605500,0.97060546875,3.4967122354358433,1.5171699654318391,0.4220047479463741
1782846751737610500,0.980610595703125,2.9499662419140336,1.9642593606762586,0.568384336290881
1782846751747614700,0.99061474609375,2.539848732975125,2.3298300180107354,0.8458756550908089
1782846751757619700,1.00061962890625,2.337070490658283,2.4390583083622155,1.106891420712322
1782846751767623700,1.010623779296875,2.289085919690132,2.1828730316370724,1.2837272663906216
1782846751777628400,1.02062841796875,2.438698389008641,1.772712560339272,1.3489644393242894
1782846751787633400,1.03063330078125,2.476350951054692,1.161224483924359,1.240372693310678
1782846751797637400,1.040637451171875,2.2873785312503574,0.35561829537972806,0.8730648369200528
1782846751807642400,1.050642333984375,1.731336886116862,-0.6237172972604632,0.296296703165397
1782846751817647400,1.0606474609375,0.5262397965878248,-1.5739441381856798,-0.20736573450388385
1782846751827651600,1.070651611328125,-1.5879788010179996,-2.0091849824652073,-0.5565623080067337
1782846751837656600,1.080656494140625,-4.552210299649834,-2.12933798693493,-0.3767469715936109
1782846751847660500,1.09066064453125,-7.674394810444116,-2.396958703779429,0.3914196400685236
1782846751857665500,1.10066552734375,-10.583036523801088,-2.81621477407217,1.54446757607162
1782846751867670500,1.11067041015625,-12.864983093130588,-3.1986540024906396,2.536982237628102
1782846751877674500,1.120674560546875,-14.274094688773154,-3.543789336170256,3.0030422908023
1782846751887679500,1.130679443359375,-15.079592740768193,-3.88288655872941,2.623987151864171
1782846751897684500,1.1406845703125,-15.9409523807168,-4.50731814173907,1.3750060585536061
1782846751907688400,1.1506884765625,-16.874300567555427,-4.870495328065752,0.033129385533183814
1782846751917693400,1.160693359375,-17.38135226407051,-4.789469488239288,-0.971430226343125
1782846751927697400,1.170697509765625,-17.164069111061096,-4.690028286278247,-1.6290936323471366
1782846751937702400,1.180702392578125,-16.21568468313217,-4.518229996375739,-2.0035269567035137
1782846751947707400,1.190707275390625,-14.823410825043917,-4.1669086675375695,-2.030189192049205
1782846751957711400,1.20071142578125,-13.236778762459755,-3.6673207310318943,-1.88307759963572
1782846751967716400,1.21071630859375,-11.429488517475127,-2.872812275084853,-1.6439435570850967
1782846751977721300,1.220721435546875,-9.32545872092843,-2.029046451754868,-1.0305237819552422
1782846751987725600,1.2307255859375,-7.122481643417477,-0.8880173452496528,0.11698021965250373
1782846751997730600,1.24073046875,-4.8952352170467375,0.23329160013273356,1.2677046446114777
1782846752007734500,1.250734619140625,-2.5091093113183973,0.7687848166257143,2.180318378718197
1782846752017739500,1.260739501953125,-0.07113572945296764,0.851987854360789,2.8857208564966914
1782846752027744500,1.27074462890625,2.318040796017647,0.7836211512297392,3.2156334866032004
1782846752037748500,1.28074853515625,4.313302759331465,0.7259282561957836,2.960146859666705
1782846752047753500,1.29075341796875,5.821138933098315,0.6896151260599493,2.1680705993026494
1782846752057758500,1.300758544921875,6.770898156511783,1.0431943168275057,1.201107581501454
1782846752067762400,1.310762451171875,6.982240229034423,1.7411412179030477,0.06461543343928643
1782846752077767400,1.320767333984375,7.087123329788446,2.482069913223386,-0.782375535082817
1782846752087771400,1.330771484375,7.325427643516659,3.2998975776985287,-1.0690509348787367
1782846752097776400,1.3407763671875,7.810102088528871,3.942460152943432,-0.791740233342722
1782846752107781400,1.350781494140625,8.572116972628235,4.389237998020649,-0.316760010805726
1782846752117785300,1.360785400390625,9.308502909952402,4.615741983839869,0.14287718798043206
1782846752127790300,1.370790283203125,9.956364760649203,4.382235133521259,0.4548533437767997
1782846752137795300,1.38079541015625,10.674054765331745,4.065374584950506,0.7446621827602387
1782846752147799600,1.390799560546875,11.349841564786434,3.7525650653362272,0.9732774616450071
1782846752157804500,1.400804443359375,11.948506546115874,3.3649902275949715,1.078748445289582
1782846752167808500,1.41080859375,12.366354357045887,3.1446324894458053,1.0875370241619646
1782846752177813500,1.4208134765625,12.990740639609097,3.190989751473069,1.1178390773147344
1782846752187818500,1.430818603515625,13.224075932753085,3.2247830077424644,1.0405964092887938
1782846752197822500,1.440822509765625,12.913422422128916,3.120753893469274,0.9146824301395565
1782846752207827500,1.450827392578125,12.449226701521873,3.0299516327768563,0.8538879888936877
1782846752217832400,1.46083251953125,11.981714403712749,3.225671773275733,0.8214914476796984
1782846752227836700,1.470836669921875,11.5105932677567,3.1583307599306103,0.7708434296559542
1782846752237841700,1.480841552734375,10.993552092146873,3.0780443402945994,0.7755597175881266
1782846752247845400,1.490845458984375,10.557250925159453,2.9222940988734365,0.6820159761678427
1782846752257850400,1.500850341796875,10.21838488100767,2.8516809319898484,0.5968273175735026
1782846752267855400,1.51085546875,9.801798468315601,2.935757976080477,0.5509012865703553
1782846752277859300,1.520859375,9.16861162418127,3.066077423647046,0.43051257364861667
1782846752287864300,1.5308642578125,8.174027170613408,3.1119407646775246,0.16481995705617591
1782846752297869600,1.54086962890625,7.048792137828469,2.9513413296595212,-0.13424864024166017
1782846752307873500,1.55087353515625,5.7563546184986825,2.4782091461420057,-0.43088812896274026
1782846752317878500,1.56087841796875,4.302989455109834,1.786011894634366,-0.7351063458424061
1782846752327882500,1.570882568359375,2.633740484115481,1.0407435626745223,-0.9298190628644079
1782846752337887500,1.580887451171875,0.9586199907392263,-0.20041443579494952,-1.0264837127842008
1782846752347892500,1.590892578125,-0.7839578358381987,-1.8176184545144438,-0.8519726567916571
1782846752357896400,1.600896484375,-2.6147400155693292,-3.2537261936321853,-0.7384570445097982
1782846752367901400,1.6109013671875,-4.689026415759325,-4.071860439838469,-0.7018982690498232
1782846752377906700,1.62090673828125,-6.7858730228036634,-3.5964676179125905,0.25927772631514817
1782846752387910700,1.63091064453125,-9.009720454385876,-2.4119231948077675,1.5037494889751075
1782846752397915600,1.64091552734375,-11.256501602309942,-1.551548766504228,2.158327057792991
1782846752407919400,1.65091943359375,-13.348656252145766,-1.496512523458898,1.9037492162644862
1782846752417924400,1.66092431640625,-14.916762477958201,-3.0008073713570833,0.6141578801460563
1782846752427929300,1.670929443359375,-15.438948615241049,-5.003199332681298,-1.0386065506458282
1782846752437933600,1.68093359375,-15.086652596151827,-6.0410109335571525,-1.49955335245952
1782846752447938600,1.6909384765625,-14.45750830540657,-5.213392235168814,-0.48255252095479517
1782846752457943600,1.700943603515625,-14.29025087380409,-2.8571432890489694,1.051643434612453
1782846752467947500,1.710947509765625,-13.992626356101034,-0.4369951406009495,2.3519638161465526
1782846752477952500,1.720952392578125,-13.018166406673192,1.346473791552335,2.9817206858322023
1782846752487956500,1.73095654296875,-11.201610320693254,1.6029320399999618,2.6672362187430263
1782846752497961500,1.74096142578125,-8.663427475103735,0.218765208260715,1.6355533298805356
1782846752507966500,1.750966552734375,-5.458303399816155,-1.8030201664499936,0.97126005740799
1782846752517970700,1.760970703125,-1.5392068790644406,-3.484321540418267,1.0398477828785777
1782846752527975700,1.7709755859375,1.8841344152122734,-3.828499134981632,1.4486039403364062
1782846752537980700,1.780980712890625,4.060180231177807,-2.9889672959595917,1.2889504078663885
1782846752547984600,1.790984619140625,4.822996494787931,-1.845367462183535,0.3718872200701385
1782846752557989600,1.80098974609375,4.235134647023678,-1.0368886408120392,-0.9846798762775957
1782846752567993300,1.810993408203125,3.3926761068999767,-0.10254296736866235,-1.7001009131148457
1782846752577998300,1.820998291015625,2.713419585508108,0.8124018400341272,-2.2854612994521855
1782846752588003300,1.83100341796875,2.3113702322125436,1.6536641561105847,-2.6339821839168667
1782846752598007600,1.841007568359375,2.63713714081645,2.4226443491779266,-2.5856393010303376
1782846752608012500,1.851012451171875,3.3498312369078396,2.9604440890476105,-2.415875585695356
1782846752618016500,1.8610166015625,3.9163708951801057,3.1190371526792644,-2.1340068555288014
1782846752628021500,1.871021484375,4.52422514513731,2.9197292168214917,-1.690417138968408
1782846752638026500,1.881026611328125,5.2264785112351175,2.535042793998122,-1.2185561444304882
1782846752648030500,1.891030517578125,5.660917391481996,2.1605045479625464,-0.6396601318016648
1782846752658035500,1.901035400390625,5.968609714213013,1.985063809904456,-0.033855544383265074
1782846752668040400,1.91104052734375,6.19312515656352,1.8653233317583797,0.37794052875973283
1782846752678044700,1.921044677734375,6.317170053905248,1.7117764456003903,0.6195609812986105
1782846752688049700,1.931049560546875,6.410068117833137,1.5559404255919158,0.688633859937638
1782846752698054700,1.9410546875,6.374266736611723,1.8737500915810466,0.6203731013990939
1782846752708058600,1.95105859375,6.132056063094735,1.887658205424249,0.29405000195084136
1782846752718063600,1.961063720703125,5.7193216496557,1.5057261958755552,0.11065605813227593
1782846752728067300,1.9710673828125,5.400388386464119,1.6221198478117584,0.3448212992943823
1782846752738072300,1.981072265625,5.067098681139946,1.8662769792214036,0.40782874041460454
1782846752748077300,1.991077392578125,4.557064169421792,2.0266529807470737,0.3525455368708819
1782846752758081500,2.00108154296875,3.90122008779943,2.2541021384619175,0.1892867829831317
1782846752768086500,2.01108642578125,3.207302588370442,2.4039751584127544,0.03960481035867706
1782846752778092000,2.021092041015625,2.4851409912317988,2.4105912155516442,0.09359813848864286
1782846752788096000,2.031095947265625,1.8729408210247753,2.1515561023533345,0.12332275707963854
1782846752798101000,2.04110107421875,1.3427186768025159,1.531726606311649,0.07152513062935321
1782846752808105000,2.05110498046875,0.7387491593241691,0.8019619868233799,-0.14694114948371426
1782846752818110000,2.06110986328125,-0.2624362999439239,0.09686287590563297,-0.5455854253098368
1782846752828115000,2.071114990234375,-2.03414319037199,-0.7490013810083269,-1.1517998721707612
1782846752838119000,2.081118896484375,-4.4238831949442625,-1.699198557447642,-1.5062303460054098
1782846752848124000,2.0911240234375,-7.494507029849291,-2.4643919254526496,-1.1087529768005013
1782846752858129200,2.101129150390625,-10.823753159368037,-3.0222321444407103,0.2831557012371719
1782846752868132900,2.1111328125,-13.681670063138007,-3.2862615587949753,2.637405144102871
1782846752878137900,2.121137939453125,-15.606926177811621,-3.733579209837317,4.827664194338023
1782846752888141800,2.131141845703125,-16.66585889264941,-4.354510675771534,5.55268205769062
1782846752898146800,2.141146728515625,-17.2270922612071,-4.827592005884647,4.812715631531178
1782846752908151800,2.15115185546875,-17.977080607426167,-4.953193485018611,3.309543942444026
1782846752918156000,2.161156005859375,-18.9462646622777,-4.603063411791623,1.5889806715369224
1782846752928161000,2.1711611328125,-19.411376913207768,-3.8887601269379255,0.2667244255919009
1782846752938166000,2.181166015625,-18.79916388351917,-3.0979768289938567,-0.4770009512422606
1782846752948170000,2.191169921875,-17.256332384216783,-2.5199016312286258,-1.0610416698157787
1782846752958175000,2.201175048828125,-14.940996755504607,-1.8697307729370891,-1.4667698577545583
1782846752968179000,2.211178955078125,-12.249467514765263,-1.3568113534323871,-1.9061732285410165
1782846752978184000,2.221183837890625,-9.401486898598074,-0.662015463733673,-2.000293820001185
1782846752988189000,2.23118896484375,-6.553087180235981,0.1956562814824283,-1.633672630700469
1782846752998193200,2.241193115234375,-3.929839448562264,0.9483560786172747,-1.077851569515094
1782846753008198100,2.2511982421875,-1.2459411410927772,1.5663500297948718,-0.4294428620578721
1782846753018203100,2.261203125,1.367588329643011,1.9844906861916183,0.17586380404205992
1782846753028206800,2.271206787109375,3.7587475533634422,1.9994053467288613,0.6458545294623822
1782846753038211800,2.2812119140625,5.968114039650559,1.8213801451355218,1.0575716556176542
1782846753048215800,2.2912158203125,8.021136118015647,1.8554259148612617,1.4316595275372266
1782846753058220800,2.301220703125,9.644723408031464,1.926776748369634,1.6265541769973932
1782846753068225800,2.311225830078125,10.626809030032158,2.067066093547642,1.6146793225474654
1782846753078230000,2.32122998046875,10.967606334507465,2.4909099300220605,1.2787550309360027
1782846753088235000,2.331235107421875,10.487755948650836,2.9786823410496113,0.7501106574244797
1782846753098240000,2.341239990234375,9.947332728409766,3.33353973505944,0.4569877619896084
1782846753108244000,2.351243896484375,9.88585739222765,3.6019843355074523,0.44949810035396365
1782846753118249000,2.3612490234375,10.33144193586707,3.766572840161621,0.5570356976721436
1782846753128253000,2.3712529296875,10.846747081464528,3.695585287007689,0.5364958541968837
1782846753138258000,2.3812578125,11.186833607321978,3.6429508444070815,0.490232480998151
1782846753148263000,2.391262939453125,11.527280198663473,3.6180393982514736,0.44027913070768115
1782846753158267100,2.40126708984375,11.897176171851157,3.5076614994734525,0.3009600553339347
1782846753168272100,2.411272216796875,12.186804430103301,3.4293197841644285,0.18651666068267075
1782846753178277000,2.421277099609375,12.247307121860981,3.5256928307265043,0.09834522341787814
1782846753188280800,2.43128076171875,12.064508422255516,3.63029916036576,-0.036271766078984365
1782846753198285800,2.441285888671875,11.727077963864803,3.585326630695164,-0.11326024928130209
1782846753208289800,2.451289794921875,11.217180814790725,3.5867771217644213,-0.09301051132641733
1782846753218294800,2.461294677734375,10.810740533059835,3.476257476428151,-0.04765420650262385
1782846753228299800,2.4712998046875,10.592574751996993,3.3338051079973576,-0.1258244651017245
1782846753238304000,2.481303955078125,10.302453157269953,3.2040798269316553,-0.22198767743855713
1782846753248309000,2.49130908203125,9.948324077534675,3.0910753790423273,-0.293227798847761
1782846753258314000,2.50131396484375,9.499325341537594,2.9809365497171876,-0.3157560944601893
1782846753268318000,2.51131787109375,9.00725084940195,2.8544556574001905,-0.35675650562942024
1782846753278323000,2.521322998046875,8.532468852850794,2.7189991392061112,-0.35000933292414993
1782846753288327000,2.531326904296875,8.0194497723639,2.633620364867151,-0.2140287543233484
1782846753298332000,2.541331787109375,7.098555408906936,2.28748608327806,-0.21965598308797923
1782846753308337000,2.5513369140625,5.9620993094056844,1.7845894606158137,-0.24123243960198013
1782846753318341000,2.561341064453125,4.685967028188705,1.214008710259199,-0.28917722654901445
1782846753328346000,2.57134619140625,2.8935131178081033,0.48776072058975695,-0.3767163572596386
1782846753338351000,2.58135107421875,0.8005237707138061,-0.6085881171897053,-0.2550963124446571
1782846753348354800,2.591354736328125,-1.3128747426807879,-2.0890905860900877,-0.054003027540072794
1782846753358359800,2.60135986328125,-3.593200432810187,-3.4557881043732164,0.33994149136357005
1782846753368363800,2.61136376953125,-6.112305652964115,-4.133428422740102,1.1435280837140978
1782846753378368800,2.62136865234375,-8.333456685069203,-3.7018273962676522,2.6694325597435236
1782846753388373800,2.631373779296875,-10.132032293200492,-2.7945535618841646,4.205194266790151
1782846753398378000,2.6413779296875,-12.0918780752182,-3.3480686111494897,3.9713703133463856
1782846753408383000,2.651383056640625,-13.50530928762555,-5.379085486194491,1.9723254704929887
1782846753418388000,2.661387939453125,-15.409173070180415,-7.093645425033569,-0.45543213004544375
1782846753428392000,2.671391845703125,-17.64735882371664,-6.804040547657013,-1.904161888718605
1782846753438397000,2.68139697265625,-19.23979051249027,-4.053986637234687,-1.225769948266819
1782846753448401000,2.69140087890625,-19.562618445032832,-0.31009894548133016,0.9541170532967894
1782846753458406000,2.701406005859375,-18.90487583631277,2.560807349851727,2.5038836856245994
1782846753468411000,2.711410888671875,-17.606224849295614,3.34872999766767,2.7375594627693296
1782846753478415000,2.7214150390625,-15.114478176188468,1.8474071513175963,1.9821648735925554
1782846753488420000,2.731420166015625,-10.881356622552872,-1.4687376506961882,1.3242565529167651
1782846753498425000,2.741425048828125,-5.068814837408065,-5.7494666125506155,2.146012496751547
1782846753508428800,2.7514287109375,0.630415041333437,-8.516358845049142,3.996083314320445
1782846753518433800,2.761433837890625,4.054000081238151,-6.406826943954825,5.143214537093043
1782846753528437800,2.771437744140625,4.3601890136688946,-3.3161376416206356,4.5117973329797385
1782846753538442800,2.78144287109375,2.699211611935496,-1.8268541926324366,2.696649652493
1782846753548447700,2.79144775390625,1.9896604900449513,-0.3890604001238942,1.0244260496020317
1782846753558452000,2.801451904296875,1.9713368978470562,1.262455199650675,-0.4613516928201541
1782846753568457000,2.81145703125,1.451843652909994,2.036769739483297,-2.042057032236457
1782846753578462000,2.8214619140625,1.4323872572898864,2.5046874032229183,-3.076953914709389
1782846753588466000,2.8314658203125,2.250072006163001,2.983686432947218,-3.3937647789195178
1782846753598471000,2.841470947265625,3.444862221211195,3.1434558468818663,-3.2503914962515235
1782846753608476000,2.851475830078125,4.7001808469802135,2.979604424330592,-2.8489517992869016
1782846753618479900,2.86147998046875,5.843059673005342,2.7022043640106914,-2.37036602653861
1782846753628484900,2.87148486328125,6.768500447720289,2.3076319224670527,-2.0181123852863907
1782846753638489000,2.881489013671875,7.290092126241326,1.9089589137367904,-1.8918799147725105
1782846753648494000,2.891494140625,7.5747764983505,1.6968540401481091,-1.8800287334591148
1782846753658499000,2.9014990234375,7.650044797563552,1.5853835238277911,-2.039217278765887
1782846753668502800,2.911502685546875,7.422665197953582,1.373788499457389,-2.2994988848939535
1782846753678507800,2.9215078125,7.002626598981022,1.0525963514231145,-2.308144255903363
1782846753688512800,2.9315126953125,6.482138497787713,0.720677496060729,-1.9184429275274275
1782846753698516700,2.941516845703125,5.773978537994623,0.521314761275798,-1.1886403141163289
1782846753708521700,2.951521728515625,4.914271341428161,0.5680800195820629,-0.2699540551628917
1782846753718526000,2.96152587890625,3.9838241367280482,0.6986607484333217,0.8329965920343995
1782846753728531000,2.971531005859375,3.0544758331805464,0.8608489139474927,1.6871525842145085
1782846753738536000,2.981535888671875,2.2106828295826912,1.0134808772176505,2.0661665143594146
1782846753748540000,2.991539794921875,1.588390304428339,1.2848495484188198,2.1473507596179844
1782846753758545000,3.001544921875,1.166445579573512,1.6636723399057984,1.997196584638208
1782846753768550000,3.0115498046875,0.8828513407886027,1.9609616343051195,1.795931815624237
1782846753778553900,3.021553955078125,0.6823036340028047,2.0751503235429523,1.642703201635182
1782846753788558800,3.031558837890625,0.5740706382989883,2.109020152179897,1.5110469525068997
1782846753798563000,3.04156298828125,0.5720891090929507,2.037954126962274,1.3502651466593145
1782846753808568000,3.051568115234375,0.6271089855253696,1.7477479226917028,1.130542856869474
1782846753818573000,3.061572998046875,0.5658399855703116,1.3722311870127915,0.8047970641188323
1782846753828577000,3.071576904296875,0.40203415572643275,0.9386012850612402,0.4047954371333122
1782846753838582000,3.08158203125,0.1668009200066328,0.3544536355145275,-0.0700721918746829
1782846753848587000,3.0915869140625,-0.2159831763267517,-0.4268362962886691,-0.4595864732459187
1782846753858591000,3.101591064453125,-1.0232494070380926,-1.477924142844975,-0.7907282798212021
1782846753868596000,3.111595947265625,-2.3910657002180815,-2.6098046049937604,-1.23159887361601
1782846753878600200,3.12160009765625,-4.308354197013378,-3.8000478242620823,-1.4897224249273537
1782846753888605200,3.131605224609375,-7.0030772653579705,-4.415376940144598,-1.1555234227385371
1782846753898610200,3.141610107421875,-10.099358688610792,-4.048625986984372,0.12442790530994534
1782846753908614000,3.15161376953125,-12.828057676315307,-3.760153620769083,1.8158382930994033
1782846753918619000,3.161618896484375,-14.530753574359416,-4.059705599403381,3.096025694926083
1782846753928623900,3.171623779296875,-14.814980850350857,-4.7273397798016665,3.538955340142548
1782846753938627800,3.1816279296875,-14.348603694051503,-5.50173045361042,3.0125372643783686
1782846753948632800,3.1916328125,-14.035752381122112,-5.842246603056788,2.028972801996767
1782846753958637000,3.201636962890625,-13.545205244684219,-5.430015462964773,1.062815912946686
1782846753968642000,3.21164208984375,-12.975022845995426,-4.805389234165847,0.2741627588991076
1782846753978647000,3.22164697265625,-12.016741293430327,-4.233602030628919,-0.35851299390792846
1782846753988651000,3.231651123046875,-10.566568204081058,-3.4869407830059527,-0.7280866032734513
1782846753998656000,3.241656005859375,-8.798183151552081,-2.620072901029885,-0.7507274010833352
1782846754008661000,3.251660888671875,-6.900979411408305,-1.7898624325826764,-0.5257428068511187
1782846754018665000,3.2616650390625,-4.839626727071404,-1.0114067012920975,-0.07943257928565144
1782846754028670000,3.271669921875,-2.660203543627262,-0.37807431120723484,0.4781349602408707
1782846754038674200,3.281674072265625,-0.4546428793638944,0.11707301250249147,0.9469377362519502
1782846754048679200,3.29167919921875,1.6061398961305617,0.3316246947214007,1.2575136515952645
1782846754058684200,3.30168408203125,3.5202608688056465,0.5066556829348207,1.2391926897458732
1782846754068688000,3.31168798828125,5.183329105338454,0.7942156104803085,1.0104441398702562
1782846754078693000,3.321693115234375,6.31884529364109,1.2246712663099169,0.6206856014143676
1782846754088698000,3.331697998046875,6.738667619514465,1.8009753627493976,0.02641562190717086
1782846754098702000,3.3417021484375,6.608104134058952,2.5563664447948335,-0.6914984555885195
1782846754108707000,3.35170703125,6.344481839200854,3.175909671241045,-1.113679400352016
1782846754118712000,3.361712158203125,6.490436370533704,3.645608080917597,-1.1313668866034596
1782846754128716000,3.371716064453125,6.915582521778345,3.90388667666018,-0.8986539631415158
1782846754138721000,3.381720947265625,7.509472543790936,3.989598336215317,-0.5559451624890789
1782846754148725000,3.39172509765625,8.217834748157859,3.7287861303418874,-0.2502751758985221
1782846754158730000,3.40172998046875,9.004149960777163,3.4399048910647627,0.07076402833005413
1782846754168735000,3.41173486328125,9.866619607794284,3.178190183393657,0.2780084014765918
1782846754178739000,3.421739013671875,10.594155299186706,2.808249202020466,0.3177375506009906
1782846754188744200,3.431744140625,11.13440316286087,2.7033471043050286,0.24914664679262785
1782846754198749200,3.441749267578125,11.59041440796852,2.889987281769514,0.113809188400954
1782846754208753200,3.451753173828125,11.741291198134421,2.8750796354949473,-0.05657052167421207
1782846754218758100,3.461758056640625,11.52903727146387,2.8900010180339217,-0.14349990472234786
1782846754228762000,3.47176220703125,11.266260779780149,2.989467938958108,-0.22596794271375983
1782846754238767000,3.48176708984375,10.904805302679538,2.9970410045608875,-0.30349863390084353
1782846754248772000,3.491772216796875,10.597404071849583,2.9430180302113294,-0.24547749329321086
1782846754258776000,3.501776123046875,10.47967551804781,2.872519137357175,-0.1429135927343741
1782846754268781000,3.511781005859375,10.371675746577978,2.815416901692748,0.02570453276205808
1782846754278786000,3.5217861328125,10.084124879121779,2.785156787985563,0.25745968057513235
1782846754288790000,3.5317900390625,9.511713113945722,2.6843264697536826,0.3832628562936559
1782846754298795000,3.541794921875,8.862363655039667,2.702015271179378,0.35470220344811676
1782846754308800000,3.551800048828125,7.787997808748483,2.7350188383758067,-0.0675716072306037
1782846754318804000,3.561803955078125,6.192622467738389,2.0839882945150134,-0.6745896986246108
1782846754328809000,3.57180908203125,4.5070735193282365,1.2689318483188747,-1.1276853485465048
1782846754338813200,3.581813232421875,2.701857742530107,0.7888131669148802,-1.3153779576733708
1782846754348818200,3.591818115234375,0.7060574345558881,-0.08254998065382242,-1.6163218290574848
1782846754358823200,3.6018232421875,-1.5345833109170197,-1.4055267228931188,-1.607603246681392
1782846754368827100,3.6118271484375,-3.9074101746112104,-2.406928455260396,-0.9828537568289786
1782846754378832100,3.62183203125,-5.705970000651479,-2.0891993071615693,0.38551987797282633
1782846754388837000,3.631837158203125,-7.0894561566501855,-0.4381865423426032,2.6142332350909707
1782846754398841000,3.641841064453125,-8.984306611666083,1.4141925521686671,4.154511250518262
1782846754408846000,3.65184619140625,-10.837321081471442,1.3439181157201527,3.424565575374663
1782846754418850000,3.66185009765625,-11.787552598571777,-1.294276717455685,0.7446961580950766
1782846754428855000,3.67185498046875,-11.809063004112243,-4.195137859939038,-1.5500202417626976
1782846754438860000,3.681860107421875,-11.42543427364826,-5.676506005758047,-2.219625868364423
1782846754448864000,3.691864013671875,-11.459357586038111,-4.942494980871677,-0.9282114815372973
1782846754458869000,3.701868896484375,-12.06542962875366,-2.7102254656419156,1.2967588896602391
1782846754468874000,3.7118740234375,-12.490482256495952,-0.9047139207676053,3.2065263433009386
1782846754478878000,3.7218779296875,-12.102703420615196,0.003931055838614702,4.122575020292401
1782846754488883000,3.731883056640625,-10.87828203741312,-0.4368681532204151,3.613594401541352
1782846754498888000,3.741887939453125,-8.534198453122377,-2.26801507461071,2.359977026732266
1782846754508892200,3.75189208984375,-5.089919584757089,-4.423312409318983,1.7173837640881537
1782846754518897200,3.761897216796875,-1.5257400792479514,-5.353908374840021,2.039853676973283
1782846754528901000,3.771901123046875,0.6926473333626986,-4.7426714967072,2.5251456693619487
1782846754538906000,3.781906005859375,1.025747653594613,-3.463308563005924,2.4238480258792636
1782846754548911000,3.7919111328125,0.5506657973140477,-2.209977896183729,1.57574358882308
1782846754558915000,3.8019150390625,-0.04771685994267463,-0.7450890298701822,0.5858097375400364
1782846754568920000,3.811920166015625,-0.9006231443226337,0.602452975435555,-0.7811478929840028
1782846754578925000,3.821925048828125,-1.1876093636333942,1.4709334071747957,-1.777255464465916
1782846754588929000,3.831928955078125,-0.41524084330201144,2.1020606884308157,-2.095182034832984
1782846754598934000,3.84193408203125,0.8042015824437141,2.6323072364419695,-2.0298131983436645
1782846754608939000,3.85193896484375,2.0782629026055335,2.797712318176031,-1.7401568830408154
1782846754618943000,3.86194287109375,3.234608528447151,2.642590145525336,-1.2793700940944253
1782846754628948000,3.871947998046875,4.20808823466599,2.1471585980467496,-0.975006112068519
1782846754638952000,3.881951904296875,4.911345809370279,1.6528637995131312,-0.9306075098283588
1782846754648957000,3.89195703125,5.485104312980175,1.06741281228289,-0.9269210033353418
1782846754658962000,3.9019619140625,6.099190735325217,0.576945316952467,-0.9253414059937
1782846754668966100,3.911966064453125,6.458336181917786,0.3502830718316138,-0.9435106113474816
1782846754678971100,3.92197119140625,6.249024738439918,0.20051541195139289,-1.07839290985018
1782846754688976100,3.93197607421875,5.59253709821701,0.24793548090457915,-1.2617678019084035
1782846754698980000,3.94197998046875,4.88875871450901,0.4118421407744288,-1.3530433792009948
1782846754708985000,3.951985107421875,4.193161299169064,0.5899146886408329,-1.3408543442353607
1782846754718990000,3.961989990234375,3.534665826255083,0.8570046596094966,-1.2223301830764859
1782846754728994000,3.971994140625,2.99404328404963,1.163021742604673,-0.9866281608011573
1782846754738999000,3.9819990234375,2.6749124524593353,1.4805457235202193,-0.7481770590133965
1782846754749003000,3.9920029296875,2.6139731228500604,1.7975491876929997,-0.5509152420304715
1782846754759008000,4.002008056640625,2.6407974168896673,2.129119960270077,-0.47697205394133924
1782846754769013000,4.012012939453125,2.7836995749145745,2.368883240634948,-0.6648582128789275
1782846754779017000,4.022016845703125,3.048624184542894,2.4490765751600265,-0.9442069961138069
1782846754789022000,4.03202197265625,3.2299171557605266,2.3428872141130266,-1.1455755908284335
1782846754799027000,4.04202685546875,3.2379718674004074,2.099163797945529,-1.129703775696829
1782846754809030700,4.05203076171875,3.076489512068033,1.613640773279965,-0.95486443759799
1782846754819035600,4.06203564453125,2.806227633064985,0.8317974453777074,-0.6398657373763621
1782846754829040600,4.07204052734375,2.58252993683815,0.07061039040461183,-0.29497561062946914
1782846754839044900,4.082044921875,1.9827356592178345,-0.6941575917951762,0.0236625420730561
1782846754849049900,4.0920498046875,0.9764040692329407,-1.2382345122382044,0.4313623223457485
1782846754859054800,4.102054931640625,-0.317267375805974,-1.7005077403500675,0.7205022125590592
1782846754869058800,4.112058837890625,-1.8865175109565258,-2.158575479596108,0.8331745789498091
1782846754879063800,4.122063720703125,-3.742617671817541,-2.272046083692461,1.0516780675344168
1782846754889067800,4.13206787109375,-5.802883729961514,-1.7262326948456466,1.5964336178913712
1782846754899072800,4.14207275390625,-8.025883604803681,-1.0075428654707967,2.3013128024481238
1782846754909077800,4.152077880859375,-10.430645821940898,-0.5487509036034345,2.977077536201477
1782846754919082000,4.16208203125,-12.76268474817276,-0.5751366600953042,3.488939555607736
1782846754929087000,4.1720869140625,-13.662445138186216,-1.200096943154186,4.022846818083525
1782846754939092000,4.182092041015625,-12.73642334871292,-2.5982395471453663,4.388389856758714
1782846754949096000,4.192095947265625,-11.582720930856466,-4.023480439811944,4.438923235426843
1782846754959101000,4.202100830078125,-10.804137773793935,-4.782513677752018,3.924166371361911
1782846754969104600,4.212104736328125,-10.558766005897521,-5.006760824555158,2.5725822510585186
1782846754979110000,4.22210986328125,-11.020304489994048,-4.955653153130412,0.6315956294201314
1782846754989115000,4.232114990234375,-11.510580408275127,-4.4354108433917165,-1.0681702795866876
1782846754999118800,4.242118896484375,-11.866446687066555,-3.9310470707863567,-1.7861729304149745
1782846755009123800,4.252123779296875,-11.768366252064704,-3.5518373258084055,-2.132753786727786
1782846755019128800,4.26212890625,-11.414087534725665,-2.7220903832197187,-1.8184756558656692
1782846755029132800,4.2721328125,-10.535118588328361,-1.4483878133676946,-1.0949816410794853
1782846755039137800,4.2821376953125,-9.143979287227987,-0.3871142344921827,-0.11233180932477116
1782846755049142800,4.292142822265625,-7.178392915731668,0.1261389470115304,0.8969682750768959
1782846755059147000,4.30214697265625,-4.782407879289984,0.31105346972718834,1.610951095804572
1782846755069152000,4.312152099609375,-2.3014795373171566,0.34639790096133943,1.8878388226881622
1782846755079157000,4.322156982421875,0.07739595889151096,0.2974639203138649,1.7113859849780797
1782846755089161000,4.332160888671875,2.1236890212625266,0.40365488879606126,1.2307792277961969
1782846755099166000,4.342166015625,3.7673745119333266,0.6799864431016147,0.6395418391842395
1782846755109170000,4.352169921875,5.1072448135674,1.0643052016563712,0.03966660528220236
1782846755119175000,4.3621748046875,6.259453777995705,1.4515109138242899,-0.5188913335211575
1782846755129180000,4.372179931640625,7.332033909913897,1.9269323773227631,-0.8773363767594099
1782846755139183900,4.382183837890625,8.172390509322286,2.372538548272103,-1.203119359715283
1782846755149188900,4.39218896484375,8.600477390193939,2.9163591558665036,-1.4548060098469255
1782846755159193900,4.40219384765625,9.014856648230552,3.324932650233805,-1.3880067021630704
1782846755169197800,4.41219775390625,9.67400912374854,3.3149761966258287,-1.12067042828314
1782846755179202800,4.422202880859375,10.410030903935432,3.1173335636317727,-0.7914200614776462
1782846755189207800,4.432207763671875,11.192456707900762,2.8277167035564776,-0.492410007700324
1782846755199211800,4.442211669921875,11.856597493225335,2.4132801623746754,-0.3493817025450989
1782846755209216800,4.452216796875,12.247920869845151,2.138082288274169,-0.241766802207008
1782846755219221000,4.462220947265625,12.381022349345683,2.0253855911597607,-0.35749672953747214
1782846755229226000,4.47222607421875,12.302270884191989,1.906444738958776,-0.6611774054743349
1782846755239231000,4.48223095703125,11.975511457419394,1.9890017338752746,-0.7802802433039993
1782846755249235000,4.49223486328125,11.409811172580719,2.223715329635143,-0.785013628501445
1782846755259240000,4.502239990234375,10.637971060037613,2.5609955659002064,-0.7569577468402683
1782846755269245000,4.512244873046875,9.996284098583459,2.804489849486947,-0.48724170168433334
1782846755279249000,4.522248779296875,9.698753104382753,2.9358734191536904,-0.18543061901163307
1782846755289254000,4.53225390625,9.56518576093614,2.993387158228457,-0.011551431181840597
1782846755299259000,4.5422587890625,9.326267699223756,3.0158637784525753,0.2538116063963622
1782846755309262800,4.552262939453125,9.11210238597393,2.8803461777210235,0.2905339383875951
1782846755319267800,4.562267822265625,8.970667962414026,2.7102964850515128,0.17155330216549336
1782846755329272800,4.57227294921875,8.442921852916479,2.6325214637145398,0.4083225518135354
1782846755339276800,4.58227685546875,7.5266802837014195,2.5264053140342235,0.1906518973238766
1782846755349281800,4.59228173828125,6.610299598276614,2.1562337387755512,0.02484678342156112
1782846755359285800,4.60228564453125,5.690060483857989,1.6115381019122899,-0.12920746773667632
1782846755369290800,4.612290771484375,4.305091980347037,0.905407309859246,-0.18338347722347825
1782846755379295700,4.622295654296875,2.419750527432561,0.2706641761936247,-0.23341979308966546
1782846755389300000,4.632300048828125,0.5043459446877241,-0.44917906100004906,-0.43904162480197845
1782846755399305000,4.642304931640625,-1.432177413931489,-1.1934016832992433,-0.2817293216958642
1782846755409310000,4.65231005859375,-3.42982071942389,-1.7276187423765659,0.379306775611639
1782846755419314000,4.66231396484375,-5.315960044717788,-2.152707025954127,1.3790486119426786
1782846755429319000,4.67231884765625,-6.343553033918142,-1.9478785731092094,2.780690456226468
1782846755439324000,4.682323974609375,-7.15688601732254,-1.1712360287204384,3.9974417431920766
1782846755449327900,4.692327880859375,-8.779096758288144,-1.0817547874987126,3.4796611473917958
1782846755459332900,4.702332763671875,-10.360397981238364,-2.753273164729774,1.0599731638014316
1782846755469336800,4.7123369140625,-11.837414653849601,-4.890356212833524,-1.6454261968582868
1782846755479342000,4.722342041015625,-13.246007194054126,-5.756954922479391,-3.017180414009094
1782846755489347000,4.73234716796875,-14.382006781959532,-4.195118278455734,-1.857960109513998
1782846755499350800,4.742350830078125,-14.465268418014048,-0.981034067121148,1.0312049691524356
1782846755509355800,4.752355712890625,-13.85499950813055,1.8354864118993282,3.653225862444937
1782846755519360800,4.76236083984375,-12.860821297276019,3.3933822093427177,4.931060563665628
1782846755529364700,4.77236474609375,-11.336098286116123,3.1604478982150552,4.219720512531698
1782846755539369700,4.78236962890625,-9.056354779788851,1.122930116843432,2.2008440110050143
1782846755549374700,4.792374755859375,-5.7746893166124815,-2.1648311789900063,0.7322537328902632
1782846755559379000,4.80237890625,-1.1184586705178021,-6.026341772213578,0.868214693475142
1782846755569384000,4.812384033203125,3.5949639353513714,-8.004669551861285,2.4913535821363326
1782846755579389000,4.822388916015625,6.163458917096257,-6.4013482202827925,3.845163269534707
1782846755589393000,4.832392822265625,5.4282642353832715,-3.7773651600718496,3.413402668586373
1782846755599398000,4.84239794921875,2.8900907421439883,-2.2822895375482735,1.7482878747873007
1782846755609401900,4.85240185546875,1.0326859284251928,-1.4798362600766122,0.12442315606959163
1782846755619406800,4.86240673828125,-0.012571896803379059,-0.2723597280651331,-1.0781536212015896
1782846755629411800,4.872411865234375,-0.6162871472597122,0.7016057158440351,-1.6612342991039155
1782846755639416000,4.882416015625,-0.2758744581878185,1.642746310124546,-1.5954089510187506
1782846755649421000,4.892421142578125,0.4416933814197778,2.195873529116064,-1.468825621240586
1782846755659426000,4.902426025390625,1.106547283449769,2.224613593649119,-1.37909698112905
1782846755669429800,4.9124296875,1.7298142065942286,2.0378645489826797,-1.264521484530717
1782846755679434800,4.922434814453125,2.295966326853633,1.6131177723191679,-1.0326756992921233
1782846755689439700,4.932439697265625,2.8834400520831345,1.0632441482961177,-0.9045392948530614
1782846755699443700,4.942443603515625,3.2951907151818274,0.6165003516189753,-0.8332713173225521
1782846755709448700,4.95244873046875,3.523893087828159,0.2096880217052996,-0.9097362789742648
1782846755719453700,4.96245361328125,3.5731694521725177,-0.06494125872701406,-1.1584071614813058
1782846755729458000,4.9724580078125,3.4800896019369363,-0.1628882766075432,-1.39055799408108
1782846755739463000,4.982462890625,3.2337644788384434,-0.1896528032839298,-1.58321290179044
1782846755749468000,4.992468017578125,2.993081161019206,-0.14778890715315937,-1.5941200802519917
1782846755759471900,5.002471923828125,2.7324545408457515,-0.057293520452827214,-1.3665426199823618
1782846755769476900,5.012476806640625,2.5198756200045347,0.10174041881412267,-1.004378044764325
1782846755779481000,5.022481201171875,2.412382629013061,0.29890140577107666,-0.4866823507685214
1782846755789486000,5.032486083984375,2.335737196227908,0.5998113748855889,0.1978807525988668
1782846755799491000,5.042490966796875,2.180305811497569,0.9470078788787126,0.7198949673809111
1782846755809495300,5.052495361328125,1.9608599274963139,1.3293762340180575,0.9624447366591542
1782846755819500300,5.062500244140625,1.8584855946928263,1.672548304800689,0.8748417103994637
1782846755829505300,5.07250537109375,1.9868886872440574,1.893923841690272,0.5372165331542491
1782846755839509200,5.08250927734375,2.378697801554203,2.0483624159909786,0.09757029352262615
1782846755849514200,5.09251416015625,2.898082909941673,2.0986188774138688,-0.2683584565345198
1782846755859519200,5.102519287109375,3.436531030717492,2.013168645273894,-0.5049458833422511
1782846755869523200,5.112523193359375,3.9343525420725345,1.8788291484110056,-0.7101619472652674
1782846755879528200,5.122528076171875,4.269406334459782,1.850955929840356,-0.5339017095178366
1782846755889532400,5.132532470703125,4.243566959804296,1.8774143131770193,-0.33607860539034007
1782846755899537400,5.142537353515625,3.9462452244400974,1.7162880778059362,-0.35921383565366266
1782846755909542400,5.15254248046875,3.515332764753699,1.3858005704209209,-0.36337365874685346
1782846755919546000,5.162546142578125,2.8586539858728646,1.1186207292117178,-0.3596556611370295
1782846755929551000,5.172551025390625,1.7700480173051356,0.6632583034016192,-0.5742063204426318
1782846755939556000,5.18255615234375,0.46608781796395776,-0.08699892288669943,-0.8342453499864786
1782846755949560000,5.19256005859375,-1.3011077325195073,-0.8753604005113244,-0.6821338303938508
1782846755959565000,5.20256494140625,-3.0916970180720087,-1.6337056561872363,-0.29041802039034664
1782846755969570000,5.212570068359375,-4.602421899017691,-2.3135620431683956,0.5799316392868757
1782846755979574300,5.22257421875,-6.11375059107542,-2.7594898472875355,1.7229627332642674
1782846755989579300,5.232579345703125,-7.905351684018969,-2.912374762405455,2.8615856554105874
1782846755999584300,5.242584228515625,-9.906493353021144,-2.9196774866342543,3.4409219591528175
1782846756009588200,5.252588134765625,-11.62113220231533,-3.1981115661770105,3.390217607831955
1782846756019593200,5.26259326171875,-13.072270921826362,-3.9089974438026545,2.926214194926619
1782846756029597200,5.27259716796875,-14.185806164467333,-4.507753318285942,2.3158722198069093
1782846756039602200,5.282602294921875,-15.213268220764398,-4.723476382371783,1.5502572653889655
1782846756049607200,5.292607177734375,-16.024045674467086,-4.517313758313656,0.8113200361467897
1782846756059611400,5.302611328125,-16.25201388761997,-4.093256571349501,0.23503179486356673
1782846756069616400,5.312616455078125,-15.738163032484053,-3.626993981340527,-0.23018472015857694
1782846756079621400,5.322621337890625,-14.784709630727766,-2.7726369136303664,-0.353098713774234
1782846756089625300,5.332625244140625,-13.498289179730415,-1.5998821509100496,-0.2510849579114467
1782846756099630300,5.34263037109375,-12.092504682683945,-0.5967343055278063,-0.2294018992178142
1782846756109635300,5.35263525390625,-10.407332750892639,0.4613435460463166,-0.013683145980909465
1782846756119639000,5.36263916015625,-8.22596252503395,1.4356269698634743,0.34859131935238835
1782846756129644000,5.37264404296875,-5.758097078251838,1.8949591760873794,0.5883634406108409
1782846756139649300,5.382649169921875,-3.110221685799956,1.8586345016442238,0.7004109531015157
1782846756149653200,5.3926533203125,-0.35857495322823524,1.4933816780872642,0.7569036785654724
1782846756159658200,5.402658203125,2.4173639245569705,0.9494484038986265,0.8765267408769577
1782846756169663200,5.412663330078125,4.928287591820955,0.4351084500715136,1.0574036055743694
1782846756179667200,5.422667236328125,6.9757087814390655,0.2754365051619708,1.0962340522933751
1782846756189672200,5.432672119140625,8.42624719696939,0.534300061185658,0.8875921786401421
1782846756199676200,5.44267626953125,9.256857478389144,1.0166966243937612,0.37642062571607526
1782846756209681200,5.45268115234375,9.540800092220305,1.4976992490254342,-0.15038599270796402
1782846756219686100,5.46268603515625,9.598516368129848,2.0180458959214387,-0.40997908684890716
1782846756229690400,5.4726904296875,9.712756495293974,2.5125246727198363,-0.47029169939458365
1782846756239695400,5.4826953125,9.820143103301525,2.9481837424114343,-0.38984117523804307
1782846756249700400,5.492700439453125,9.81442414113283,3.5081145039379593,-0.33203933993689716
1782846756259704300,5.502704345703125,9.899217224538326,3.823655786603689,-0.4290871439553797
1782846756269709300,5.512709228515625,10.299144763374327,3.905676774947345,-0.5901034161459654
1782846756279714300,5.52271435546875,10.691508588957786,3.83555256062448,-0.8911578352324664
1782846756289718300,5.53271826171875,11.011936474621296,3.6238583136633036,-1.1558466633435338
1782846756299723300,5.54272314453125,11.323236466455459,3.446503558677435,-1.3707127452738583
1782846756309728300,5.552728271484375,11.642020676565169,3.3170930426493284,-1.4733829922839998
1782846756319732200,5.562732177734375,11.88984392926693,3.1508515100911256,-1.4196407345719635
1782846756329737200,5.5727373046875,11.781202352762222,3.005585837805271,-1.289524846753478
1782846756339741200,5.5827412109375,11.589626472461223,3.0037331956759092,-1.0558044998146594
1782846756349746200,5.59274609375,11.428864248096943,3.0145567875072357,-0.7941356040466576
1782846756359751200,5.602751220703125,11.188795262783765,2.9562279326573013,-0.6229118260964751
1782846756369755400,5.61275537109375,10.957958216196298,2.9490248694106933,-0.44566977423746135
1782846756379760400,5.622760498046875,10.607870520806312,2.922953147304058,-0.3222813680430874
1782846756389765400,5.632765380859375,9.95620343260765,2.8357521259739995,-0.2673553439065814
1782846756399769300,5.642769287109375,9.0336420127213,2.6920605711370706,-0.4113931183652952
1782846756409774300,5.6527744140625,8.12435859208107,2.5234879652827975,-0.5255787023305892
1782846756419779300,5.662779296875,7.25530138336718,2.2842750122770665,-0.6155867439053953
1782846756429783300,5.672783203125,5.986728139227628,1.7572545867055653,-0.5935031050542369
1782846756439788300,5.682788330078125,4.310753074848652,1.0372159730702637,-0.679664956062287
1782846756449793300,5.692793212890625,2.3239736931979653,0.2744303968593478,-0.7196938187856227
1782846756459797200,5.70279736328125,-0.03326630978584289,-0.8566220900326966,-0.6199641552720219
1782846756469802200,5.71280224609375,-2.2231945206314325,-2.320429736980796,-0.48712534529566764
1782846756479806200,5.72280615234375,-3.9563475162595507,-3.287242678786814,0.062439212778210636
1782846756489811200,5.732811279296875,-5.086344648879766,-3.1740976533830163,1.2227612679701299
1782846756499816200,5.742816162109375,-6.3202896472305055,-2.2043486581251024,2.703534735831618
1782846756509820200,5.752820068359375,-8.48980693821013,-0.8842600385427475,3.566287875965237
1782846756519825200,5.7628251953125,-11.405378158569336,-1.2491715013161302,2.424190847967565
1782846756529830100,5.772830078125,-13.564862715834378,-3.1624276738554236,0.25279746091775596
1782846756539834400,5.78283447265625,-14.559514389419554,-5.026092717012763,-1.4317510052129625
1782846756549839400,5.79283935546875,-14.856080922502278,-5.432288084071875,-0.8708405849993228
1782846756559844400,5.80284423828125,-14.977960750764607,-3.0409476585656403,1.887046503266692
1782846756569848300,5.812848388671875,-14.884756397366523,0.5698959829628467,4.410452050963044
1782846756579853300,5.822853271484375,-14.264289918595551,2.982705897477269,4.755421672686934
1782846756589858300,5.8328583984375,-13.283866676849126,3.31105697735548,2.8391446910217404
1782846756599862300,5.8428623046875,-11.524421886622905,2.1921526088967918,0.08021912655346095
1782846756609867300,5.8528671875,-9.070548140314221,0.26927242957428094,-1.9314459092244505
1782846756619871200,5.862871337890625,-5.380497106558084,-2.555455175168812,-2.6045918387815354
1782846756629876200,5.872876220703125,-0.7268482936501502,-5.7858139372169965,-1.8729484198093413
1782846756639881200,5.882881103515625,3.650859425574541,-7.6518655832499265,-0.18791114724837243
1782846756649885200,5.89288525390625,5.725748467832803,-6.912695568165183,1.5255886880785225
1782846756659890200,5.90289013671875,4.604921314617991,-4.521415932935476,1.984952604614943
1782846756669895200,5.912895263671875,2.061909733697772,-2.5550305200159547,1.134194365114346
1782846756679899100,5.922899169921875,0.19032383441329,-1.102256746648997,0.25788535864129664
1782846756689904000,5.932904052734375,-1.0973013161987066,0.42459333966746926,-0.24649430565293876
1782846756699909000,5.9429091796875,-1.6026894634157418,1.6691462412722409,-0.1559272784885019
1782846756709913300,5.952913330078125,-1.0709528229773044,2.5354712485432622,0.3056282298080623
1782846756719918300,5.96291845703125,0.09210545224547385,2.9461309015348554,0.6539435817632824
1782846756729923300,5.97292333984375,1.1946896772831677,2.9230279661059377,0.6088042441584169
1782846756739927300,5.98292724609375,2.24276314445436,2.6482521168097852,0.45328379290513693
1782846756749932300,5.992932373046875,3.222834504023194,2.1107414230145514,0.23955555589832364
1782846756759936300,6.002936279296875,4.108671582624316,1.494434840402007,-0.02515935650207102
1782846756769941200,6.012941162109375,4.904260235023498,0.9378758933961391,-0.40959699219614265
1782846756779945700,6.02294580078125,5.5401861487329,0.4731123097732663,-0.8811463635016232
1782846756789949700,6.03294970703125,5.963011163553595,-0.008656476925313471,-1.2806610106877983
1782846756799954700,6.04295458984375,6.148778649836778,-0.4135270251214504,-1.4866712206631898
1782846756809959700,6.052959716796875,6.113261930775642,-0.6123503923326731,-1.4987544571667908
1782846756819963600,6.062963623046875,5.642156576910614,-0.5507318482875824,-1.4026456144988535
1782846756829968600,6.07296875,4.6955596169203515,-0.3344951355911791,-1.0350738464750349
1782846756839973600,6.0829736328125,3.8572657952606675,-0.0011924246549606323,-0.4133628475356847
1782846756849977900,6.092977783203125,3.301935513266921,0.5080005216725171,0.1906612496741116
1782846756859982800,6.10298291015625,2.6956612259775397,1.051086239121109,0.7353764680206776
1782846756869987800,6.11298779296875,2.277616431170702,1.5868297771133482,1.0193729309309274
1782846756879991600,6.122991455078125,2.0291683245688676,2.149047042141855,0.9830426304645836
1782846756889996500,6.13299658203125,1.9074971706211565,2.53202549200356,0.6312655937481672
1782846756900000500,6.14300048828125,1.8802549434304237,2.5239994219362734,0.05681362798139453
1782846756910005500,6.153005615234375,2.0891139669656753,2.266571890065074,-0.38906010786294937
1782846756920010500,6.163010498046875,2.5636358512759205,1.8826580590493975,-0.5623395031686872
1782846756930014700,6.1730146484375,3.096495358264446,1.4141303005874155,-0.4467984494738281
1782846756940019700,6.183019775390625,3.4977485927462575,0.906525354103744,-0.21863917072825131
1782846756950024700,6.193024658203125,3.7495319812506436,0.34332623843103643,-0.02781392613146454
1782846756960028700,6.203028564453125,3.768544724756479,-0.23353593028262257,0.049483285093307496
1782846756970033700,6.21303369140625,3.363989526119828,-0.4434432938270271,0.026295374794676897
1782846756980038700,6.22303857421875,2.4576421589314936,-0.4156988162025809,-0.14153076007384807
1782846756990042600,6.233042724609375,1.0347264943420886,-0.3853784967407584,-0.41689346934724597
1782846757000047600,6.243047607421875,-0.6872346606642007,-0.3646978200227022,-0.7471738733202219
1782846757010052600,6.253052490234375,-2.745040466174483,-0.44068084337636826,-0.6326238034240901
1782846757020056800,6.263056884765625,-4.956791801771521,-0.5328954550847411,-0.2359733134973794
1782846757030061800,6.273061767578125,-7.520918066912889,-0.6083252284698188,0.44584063729234036
1782846757040066800,6.28306689453125,-9.804542214065789,-0.6680851390361785,1.4223925174981356
1782846757050070500,6.293070556640625,-11.521127521252632,-0.7024025653101503,2.6212086270615456
1782846757060075500,6.303075439453125,-12.746771724247932,-1.0435238410428165,3.6081364283964037
1782846757070079500,6.31307958984375,-13.32490829681158,-1.7934380991123615,4.086349860700965
1782846757080084500,6.32308447265625,-13.600449577522276,-2.6225012972205874,4.0391140622735024
1782846757090089500,6.33308935546875,-13.690158490020035,-3.463610760822892,3.527248535735905
1782846757100093700,6.34309375,-13.386384802037476,-4.342950294098258,2.9787893085554242
1782846757110098700,6.3530986328125,-12.636678195369242,-4.938900755771995,2.5189360010668636
1782846757120103700,6.363103759765625,-12.013563832437992,-5.2889095407068725,1.825116262923926
1782846757130107600,6.373107666015625,-11.572467247867584,-5.242367569762468,0.8748017437152564
1782846757140112600,6.383112548828125,-11.127978098249434,-4.775367897650599,-0.09710705992504953
1782846757150117600,6.39311767578125,-10.846339085185527,-3.9729599206253883,-0.9216712661135941
1782846757160121600,6.40312158203125,-10.550221464914083,-2.844447181344032,-1.495314399715513
1782846757170126600,6.413126708984375,-9.897491715919971,-1.5930141648367047,-1.856881228236109
1782846757180131600,6.423131591796875,-8.524814538705348,-0.18507468171343205,-1.7254408138155937
1782846757190135800,6.4331357421875,-6.510361552709341,1.3283767015866934,-0.8781729006487876
1782846757200140800,6.443140869140625,-4.132795970055461,2.6780957586705685,0.11240005225539207
1782846757210144500,6.45314453125,-1.780741260755062,3.5742812128067016,0.5565193456478417
1782846757220149500,6.4631494140625,0.39780923150777814,4.018510250183939,0.376602119762823
1782846757230154500,6.473154541015625,2.488373397281766,4.187347936715185,-0.10604929498918354
1782846757240158500,6.483158447265625,4.428226777106524,4.045803915300965,-0.6268673587892204
1782846757250163500,6.49316357421875,6.263994928556681,3.522472115114331,-1.1910438681267201
1782846757260168400,6.50316845703125,8.146613678508997,2.6215128707051276,-1.7372750439941882
1782846757270172700,6.513172607421875,10.356012898021936,1.4358330138295887,-1.9324492410480976
1782846757280177700,6.523177734375,12.289696649301051,0.5262438882410526,-1.7441819007731973
1782846757290182700,6.5331826171875,13.80393567584753,0.33304975908845663,-1.2834516643196343
1782846757300186600,6.5431865234375,14.61228385657668,0.7862088296353816,-0.7150783608794212
1782846757310191600,6.553191650390625,14.501141695427894,1.5031117755934595,-0.33112865483276543
1782846757320196600,6.563196533203125,13.712237050837278,1.9960662654340267,-0.2817861299170181
1782846757330200600,6.57320068359375,12.630237933188676,2.22732066065073,-0.6297548238590359
1782846757340205600,6.58320556640625,12.034749243807791,2.6660475934803483,-0.6721084032028913
1782846757350209800,6.593209716796875,11.774407870316505,3.0586297379896044,-0.6841723504841327
1782846757360214800,6.60321484375,11.724831061720847,3.245289496937394,-0.7566448084335774
1782846757370219800,6.6132197265625,11.599790139079094,3.2568031168594955,-0.9307223683796823
1782846757380223500,6.623223388671875,11.379489684075116,3.2371175886586308,-1.0532146294519305
1782846757390228500,6.633228515625,11.114548123311996,3.3044647394835946,-1.0143959462359546
1782846757400233500,6.6432333984375,10.626294650769234,3.425367247146368,-1.0142156942982226
1782846757410237400,6.653237548828125,9.829525848674773,3.4734894730195403,-0.9958180139508098
1782846757420242400,6.663242431640625,9.025130789485573,3.5116865172058342,-0.9285534999080002
1782846757430247400,6.673247314453125,8.470852062371373,3.473397995343804,-0.9257589007534086
1782846757440251600,6.683251708984375,8.09401489174366,3.3009961865901944,-0.9170566849902272
1782846757450256600,6.693256591796875,7.751510783350467,3.0349720912873743,-0.8285401240821927
1782846757460261600,6.70326171875,7.635865465563535,2.723658070927858,-0.6978330654375254
1782846757470265600,6.713265625,7.329668934348225,2.4131724642165002,-0.5288761364407837
1782846757480270600,6.7232705078125,6.465375579035282,2.055478531606495,-0.5132278278667479
1782846757490275600,6.733275634765625,4.922708330383896,1.5462803245820105,-0.7371453043241053
1782846757500279600,6.743279541015625,2.9693630163013935,1.0040857107542454,-0.8783286026671528
1782846757510284500,6.753284423828125,0.29308628975152967,0.6602189357057213,-0.9579401187162846
1782846757520288800,6.763288818359375,-2.2191174804508687,0.39437574992775914,-0.7323989135146141
1782846757530293800,6.773293701171875,-3.809843534350395,-0.12299290407076477,-0.09717661802992224
1782846757540298800,6.783298828125,-5.129021176567673,-0.5312222611755132,0.9096463356684893
1782846757550302500,6.793302490234375,-6.4460454401433465,-0.7263467738687992,2.1735370480149983
1782846757560307500,6.803307373046875,-7.40138918569088,-1.0955112179115414,3.243491215343773
1782846757570312400,6.8133125,-7.983020030111074,-1.6494664121598004,3.5709856783926486
1782846757580316400,6.82331640625,-8.677805544546246,-2.1137042183429,2.982560936048627
1782846757590321700,6.83332177734375,-9.497445519140362,-2.9304271364465353,1.6400149854645132
1782846757600326700,6.84332666015625,-10.735822362458705,-3.9086473151907324,0.5924030713904649
1782846757610330600,6.85333056640625,-11.954493219310045,-3.6800495719626545,0.408854064874351
1782846757620335600,6.863335693359375,-12.73304831932187,-2.124364436306059,0.9315558965943753
1782846757630340600,6.873340576171875,-13.078389696967601,-0.45352761159837246,1.4979266280405223
1782846757640344600,6.883344482421875,-12.905457726860046,0.5198588633790612,1.792829319564253
1782846757650349600,6.893349609375,-12.100201666927337,0.5579902949832379,1.6209046268031
1782846757660354600,6.9033544921875,-10.32206386666894,0.04409896170645952,1.187531329961121
1782846757670358800,6.91335888671875,-8.006722392737865,-1.064842961794883,0.5646436884578317
1782846757680363800,6.92336376953125,-5.469672350570559,-2.408708908936381,0.35420112205818294
1782846757690368800,6.93336865234375,-3.0167841081678866,-3.505423949679732,0.45277635483965273
1782846757700372700,6.943372802734375,-1.154818854665756,-3.957050696092844,0.7496773805737496
1782846757710377700,6.953377685546875,0.012728548669815062,-3.7577234710127114,1.0995451496027409
1782846757720381400,6.96338134765625,0.6115285545557737,-2.9807442420154806,1.4041910903751849
1782846757730386700,6.97338671875,0.7006593749046325,-1.830536242146045,1.5416985497497022
1782846757740391700,6.9833916015625,0.5346078119605779,-0.7301124100126326,1.2315011123299597
1782846757750395600,6.993395751953125,0.2689578106671572,0.13693667374923824,0.684781714554131
1782846757760400600,7.003400634765625,0.3526549155294895,0.8568583830066024,0.48395606760978693
1782846757770405600,7.013405517578125,0.8587982650279998,1.3694336652487515,0.465188202243112
1782846757780410000,7.02341015625,1.4918366406023502,1.6741028407663106,0.41872758943922816
1782846757790415000,7.0334150390625,2.0711650532990693,1.8842723623782396,0.0326911402463913
1782846757800420000,7.043420166015625,2.7144588654279707,2.020527337473631,-0.47117856523171064
1782846757810424000,7.053424072265625,3.3894758495539423,2.032033504741639,-1.0238093790084124
1782846757820429000,7.063428955078125,3.9448879646122452,2.0312349017098543,-1.4769956298232079
1782846757830434000,7.07343408203125,4.41730381655395,1.9592131832025943,-1.7541525290369986
1782846757840438000,7.08343798828125,4.823971477299929,1.7759698085695503,-1.9431870542921126
1782846757850443000,7.093443115234375,5.0202001518428325,1.5259063757255673,-1.9467910701334474
1782846757860448000,7.103447998046875,5.0050242100209,1.3214571314565837,-1.7651336495175958
1782846757870452000,7.113451904296875,4.910078565913438,1.2117980484724045,-1.4419482818394898
1782846757880457000,7.12345703125,4.675530389848351,1.0814042204953729,-1.1283089603375642
1782846757890461000,7.1334609375,4.464688083541393,0.9067755294725298,-0.8161872768569737
1782846757900466000,7.1434658203125,4.247076429229974,0.8470132808186114,-0.5702419468563049
1782846757910471000,7.153470947265625,3.954232716062665,0.8289549154281616,-0.3281051422931254
1782846757920475000,7.163474853515625,3.454078377845883,0.938395387225598,-0.2091257116474211
1782846757930480000,7.173480224609375,2.8229969815582034,1.0998775964275003,-0.16089754118174313
1782846757940485000,7.183485107421875,2.277543365934491,1.2044522157542408,-0.14884075429365037
1782846757950489000,7.193489013671875,1.880248513689637,1.3885991150982677,-0.03286116305105388
1782846757960494000,7.203494140625,1.622623997941613,1.5955014516077934,0.1432571820076555
1782846757970499000,7.2134990234375,1.5389970357060432,1.6736790623962878,0.26607282981537284
1782846757980503000,7.2235029296875,1.7780033602237701,1.7113889075875282,0.2393424976695329
1782846757990508000,7.233508056640625,2.1997902641683815,1.678811164587736,0.17321305207125842
1782846758000513000,7.243512939453125,2.4779876123458147,1.6591444872178136,0.047505080355517565
1782846758010517000,7.25351708984375,2.570677586480975,1.4778214131228624,-0.10944529410302638
1782846758020522000,7.26352197265625,2.676343362045288,1.1027319629453123,-0.2447486675620079
1782846758030527000,7.27352685546875,2.642088625743985,0.5604698368392884,-0.2355020427238196
1782846758040531000,7.283531005859375,2.1592320438086987,0.024380992540717124,-0.30896340211275963
1782846758050536000,7.293535888671875,1.324941612571478,-0.5184349680557847,-0.52468204575181
1782846758060541000,7.303541015625,0.04730418748855591,-1.0767254150293766,-0.41243663606885816
1782846758070545000,7.313544921875,-1.9353624981462954,-1.4353585281856358,0.0913401669614017
1782846758080550000,7.3235498046875,-4.276941990661621,-1.6006773929409681,1.130132522502914
1782846758090554000,7.33355419921875,-6.688650081413984,-1.8477363832719622,2.2952394738838073
1782846758100559000,7.34355908203125,-9.219294932714105,-2.187177596963197,3.24733912294358
1782846758110564000,7.353564208984375,-11.42929796333909,-2.818533572408557,3.6944139051407574
1782846758120568000,7.363568115234375,-12.797323515355586,-3.365492624159157,3.7654093493402003
1782846758130573000,7.373572998046875,-13.456194251322746,-4.061166904127598,3.2951381082117557
1782846758140578000,7.383578125,-13.860283586013317,-5.119022929644585,2.313479771712422
1782846758150582000,7.39358203125,-14.029566970485448,-5.958816049951315,1.1262274778883903
1782846758160587000,7.4035869140625,-14.01564950429201,-6.275555602490901,-0.13634089981317518
1782846758170592000,7.413592041015625,-14.077107304817437,-5.9296460695683955,-1.0240629884433001
1782846758180596000,7.423595947265625,-13.900119921839236,-5.067538826122879,-1.3273907592892646
1782846758190601000,7.43360107421875,-13.604798420381545,-3.9458556406006213,-0.9463853630661964
1782846758200606200,7.443606201171875,-13.145112870675325,-2.5717957768559456,-0.13025515015870331
1782846758210610000,7.45360986328125,-12.392027727484702,-1.1563999863773584,0.5217816481351852
1782846758220615000,7.463614990234375,-11.0680283641994,0.09308788741156458,0.957082844299823
1782846758230620000,7.473619873046875,-9.083355599439143,1.020699868685752,1.1585774765469132
1782846758240623900,7.483623779296875,-6.526086945107579,1.31993927423954,1.1731018956575543
1782846758250628900,7.49362890625,-3.5602415815383193,0.8703747210532427,1.2151389563981443
1782846758260633900,7.5036337890625,-0.33064123664200307,-0.11645356542989611,1.393543439632654
1782846758270638000,7.51363818359375,2.935416907557845,-0.9714075761198997,1.7570719236150383
1782846758280643000,7.52364306640625,5.7664107330888505,-0.8415428865835071,2.0638295958444477
1782846758290648000,7.53364794921875,7.523768780168891,0.11720993675515055,1.7996208794005215
1782846758300652000,7.543652099609375,8.382769289770723,1.050549355765432,0.8275492864139378
1782846758310657000,7.553656982421875,8.633101310423015,1.615185226242989,-0.19673660579873248
1782846758320661000,7.563660888671875,8.96305164219141,2.3227687013223766,-0.7649616781409829
1782846758330666000,7.573666015625,9.425220825406909,3.0153607973664998,-1.1748324457772075
1782846758340671000,7.5836708984375,9.759995216330886,3.7421503465667363,-1.4457617026478051
1782846758350675200,7.59367529296875,9.749669052627683,4.581604444177448,-1.7519544344708322
1782846758360680200,7.60368017578125,9.7276495285213,5.132480961632728,-2.029671013393998
1782846758370685200,7.613685302734375,9.942972195112704,5.1242684290826315,-2.1661508832864462
1782846758380689000,7.62368896484375,10.353739107871055,4.856600365965068,-2.1050965489953755
1782846758390694000,7.63369384765625,11.018358032101393,4.4673497039660806,-1.909244744940847
1782846758400699000,7.643698974609375,11.600142021256685,3.9252959599137305,-1.7052300926968453
1782846758410702800,7.653702880859375,12.018838557970524,3.467842407043278,-1.448886702800542
1782846758420707800,7.663707763671875,12.332027724552153,3.185771724563837,-1.019376657257974
1782846758430712800,7.673712890625,12.302093189537525,2.831968808043003,-0.7447620629381388
1782846758440717000,7.683717041015625,12.047316464436053,2.6231276124253866,-0.6078323303863405
1782846758450722000,7.69372216796875,11.764195103859901,2.594386086587608,-0.4456335704129189
1782846758460727000,7.70372705078125,11.250134989887476,2.6830662405595183,-0.2426579058278352
1782846758470731000,7.71373095703125,10.57146883560419,2.785201503910124,-0.12789390092007816
1782846758480736000,7.723736083984375,9.985048418819904,2.8225734954491255,-0.07800009879712015
1782846758490741000,7.733740966796875,9.275333046278357,2.9394258509382603,0.027449111407063898
1782846758500745000,7.743744873046875,8.547165486723184,2.9592990106657147,0.2680333892986178
1782846758510750000,7.75375,7.780769026538729,3.0131174023538825,0.5331801903102547
1782846758520755000,7.7637548828125,6.973138638690114,2.933011015459895,0.5267190680047497
1782846758530759200,7.77375927734375,6.142701375749707,2.4558710576057434,0.2747839960699901
1782846758540764200,7.78376416015625,5.072843946793675,1.7470228232875464,-0.08680709010902792
1782846758550767900,7.793767822265625,3.2290783668488263,0.9294532252267003,-0.6873452814318239
1782846758560772900,7.80377294921875,0.6545955428659915,0.33443507596701383,-1.2940138287357985
1782846758570777900,7.81377783203125,-2.2087802108317613,-0.35050562854111195,-1.540866044448316
1782846758580781800,7.82378173828125,-4.248902475613355,-0.604817658740282,-0.6477673042811453
1782846758590786800,7.833786865234375,-5.281746224948764,-0.6736851510003209,1.2661441172964871
1782846758600791800,7.843791748046875,-6.279020063731074,-0.6788654762476682,3.3610587333649393
1782846758610796000,7.853796142578125,-7.036524192407727,-0.8819421169891953,5.035062789931893
1782846758620801000,7.863801025390625,-7.915403706955909,-2.122003552393615,5.013230897352099
1782846758630806000,7.873805908203125,-8.572568808048963,-4.299495183253288,3.1324446235239503
1782846758640810000,7.88381005859375,-8.908530947452784,-6.112618956696987,1.0635272760864347
1782846758650815000,7.89381494140625,-9.875144275033474,-7.135182719558477,-0.11782872624062
1782846758660820000,7.903820068359375,-11.420359454602002,-5.684903247225284,0.6507971004310995
1782846758670824000,7.913823974609375,-12.753150027108191,-2.010685450156033,2.797739790704846
1782846758680829000,7.923828857421875,-12.919149567604064,1.5938457933552563,4.6901647721394895
1782846758690834000,7.933833984375,-12.318125455927849,3.2983354429483414,4.716123096999525
1782846758700838100,7.943838134765625,-10.909635791575909,2.7773791397213934,2.7810122355267404
1782846758710843100,7.953843017578125,-8.683596987429262,0.7140439032651483,0.16381050601899622
1782846758720848100,7.96384814453125,-5.5654515228927135,-2.637535784745216,-1.7331696545019746
1782846758730851800,7.973851806640625,-1.2760656457215547,-6.533090101867914,-1.9231958211429416
1782846758740856800,7.98385693359375,3.3240707727074623,-7.600968339705466,-0.2128467049319297
1782846758750861800,7.99386181640625,5.358183567941189,-6.076138945561647,1.3551242771282792
1782846758760866000,8.003865966796875,3.671368545117974,-4.334679017098248,1.2375816012874246
1782846758770871000,8.01387109375,0.9921633639007806,-2.751613414824009,0.16216420011669397
1782846758780879400,8.02387939453125,-1.4323019170939921,-0.9415919913098215,-0.751755940413475
1782846758790883300,8.03388330078125,-3.447672602456808,0.6561648380093276,-1.3046720008723438
1782846758800888300,8.043888427734375,-3.8402515320956705,1.9007608481034635,-1.2182425484366715
1782846758810893300,8.053893310546876,-3.0081431210726497,2.732425899273157,-0.8954379967696964
1782846758820897300,8.063897216796875,-1.4777631070643662,2.905904397347569,-0.7997203453764319
1782846758830902300,8.07390234375,0.22628069845736026,2.5359873813718554,-1.0577562184043228
1782846758840906200,8.08390625,1.975981508782506,2.094761617463827,-1.2277134104847907
1782846758850911200,8.0939111328125,3.0929952411890027,1.6162087240718304,-0.17242825836911796
1782846758860916200,8.103916259765626,4.068867395502329,1.0323163644604385,0.35247444439604875
1782846758870920200,8.113920166015625,4.419899678266048,0.65944283676669,2.4053999305188656
1782846758880925200,8.12392529296875,5.125888723760843,0.003513999470323324,1.5329875661581753
1782846758890930200,8.13393017578125,4.608066042384505,0.32146745784431696,0.8180565047949552
1782846758900934100,8.14393408203125,4.547660965782404,0.5286985879167914,-0.5170807769678533
1782846758910939100,8.153939208984376,4.6656455401718615,0.9477323937609792,-1.3964993668287993
1782846758920944000,8.163944091796875,4.628134432423114,1.1326685437865556,-1.742049711050093
1782846758930948400,8.1739482421875,4.574602164199948,0.981652345149964,-1.6366187671549617
1782846758940953300,8.183953369140625,4.559337375050783,1.0629019107297062,-1.22900651903525
1782846758950958300,8.193958251953125,4.6201919489860535,1.1838071948714555,-0.7577721319630741
1782846758960962300,8.20396240234375,4.515640272143483,1.5547501928940415,-0.48526028207615013
1782846758970967300,8.21396728515625,4.4869279724001885,2.0016241918221116,-0.14301774722859262
1782846758980972300,8.22397216796875,4.100200691398978,2.3559150379903615,-0.030999972289055586
1782846758990976300,8.233976318359375,3.557085163334012,2.597171625652909,-0.19948153885900974
1782846759000981200,8.243981201171875,2.759061977264285,2.6719237920373677,-0.4094974773444235
1782846759010986200,8.253986328125,1.958694273895025,2.5697493657201527,-0.587394814774394
1782846759020990200,8.263990234375,1.5869909590244293,2.290539041107893,-0.691050857951492
1782846759030995200,8.2739951171875,1.1081038652420043,1.8176146551221608,-0.652729748994112
1782846759041000200,8.284000244140625,0.40381110227107997,1.1772034126922488,-1.0395892780728637
1782846759051004200,8.294004150390625,-0.41893619068861004,0.41314387102276084,-1.1806881860680878
1782846759061009200,8.304009033203124,-1.0515431891083717,-0.6982081823602319,-0.8960610971041023
1782846759071014100,8.31401416015625,-1.663394984269142,-1.0983376735091208,-0.9333400035321712
1782846759081018000,8.32401806640625,-2.3215140250861643,-1.1965832359448074,-0.878451352263987
1782846759091023000,8.334023193359375,-3.308082345458865,-1.4239070137143135,-0.5660454450145364
1782846759101027300,8.34402734375,-4.468959769511223,-1.627294035579264,-0.024997224742919204
1782846759111032300,8.3540322265625,-5.462433046966791,-1.7455846071779726,0.3674354282930493
1782846759121037300,8.364037353515625,-6.534026505935191,-1.9050228894621133,0.4526857539467513
1782846759131041300,8.374041259765624,-7.7440335793375965,-2.0412240885436534,0.548883443941921
1782846759141046300,8.38404638671875,-8.017588654667138,-2.136147520819306,0.9762079621389508
1782846759151051300,8.39405126953125,-8.405625264701246,-2.7596909228175877,1.2679564274154602
1782846759161055200,8.40405517578125,-8.682399302077293,-3.1882430831134316,1.0956354288130998
1782846759171060200,8.414060302734375,-8.655770238348842,-3.3110017400369047,1.0463773307777942
1782846759181065200,8.424065185546874,-8.79993788626492,-3.501508822062611,0.8770036376737058
1782846759191069200,8.434069091796875,-8.704906317439676,-3.7433474473968147,0.8710093656949699
