time,seconds_elapsed,z,y,x
1782846750827189800,0.070189697265625,-0.4874730408191681,0.15668985247612,-0.06617487967014313
1782846750837193700,0.08019384765625,-0.398791640996933,0.23190711438655853,-0.3458525836467743
1782846750847198700,0.09019873046875,-0.35496512055397034,0.13481470942497253,-0.45623844861984253
1782846750857203700,0.10020361328125,-0.40844884514808655,-0.15506424009799957,-0.4524453282356262
1782846750867207700,0.110207763671875,-0.5114707946777344,-0.425771027803421,-0.5144767165184021
1782846750877212700,0.120212646484375,-0.6150986552238464,-0.6020525693893433,-0.6798369288444519
1782846750887216600,0.130216552734375,-0.6865690350532532,-0.7608334422111511,-0.8818114995956421
1782846750897221600,0.1402216796875,-0.6897158026695251,-0.991560161113739,-0.976344108581543
1782846750907226600,0.1502265625,-0.5377210974693298,-0.954237699508667,-1.0307146310806274
1782846750917230600,0.160230712890625,-0.222135990858078,-0.7055701017379761,-0.9758792519569397
1782846750927235600,0.170235595703125,0.1327441781759262,-0.45003795623779297,-0.7955740094184875
1782846750937240600,0.180240478515625,0.423881471157074,-0.26174795627593994,-0.5836918354034424
1782846750947244500,0.19024462890625,0.546949028968811,-0.20998603105545044,-0.3837980628013611
1782846750957249500,0.20024951171875,0.5060200095176697,-0.27344807982444763,-0.24081988632678986
1782846750967253800,0.210253662109375,0.37457019090652466,-0.3972252905368805,-0.18696580827236176
1782846750977258800,0.2202587890625,0.20310015976428986,-0.5357019305229187,-0.21112121641635895
1782846750987263700,0.230263671875,0.039283983409404755,-0.6782951951026917,-0.295600950717926
1782846750997267700,0.240267822265625,-0.08736317604780197,-0.7810940146446228,-0.4181748032569885
1782846751007272700,0.250272705078125,-0.19402754306793213,-0.7933929562568665,-0.5534131526947021
1782846751017277700,0.260277587890625,-0.2752835154533386,-0.7068157196044922,-0.6807045340538025
1782846751027281700,0.27028173828125,-0.33126479387283325,-0.5645498633384705,-0.7500273585319519
1782846751037286700,0.28028662109375,-0.3611305356025696,-0.4070880711078644,-0.7474914789199829
1782846751047290600,0.29029052734375,-0.37845826148986816,-0.26214367151260376,-0.6950165629386902
1782846751057295600,0.300295654296875,-0.38134512305259705,-0.15833629667758942,-0.6236475706100464
1782846751067300600,0.310300537109375,-0.3622731864452362,-0.10084205865859985,-0.5511050820350647
1782846751077304600,0.3203046875,-0.3301847577095032,-0.06305606663227081,-0.47006163001060486
1782846751087309600,0.3303095703125,-0.3066082298755646,-0.017682870849967003,-0.3850466310977936
1782846751097314600,0.340314453125,-0.3023868501186371,0.06236083060503006,-0.29220616817474365
1782846751107318500,0.350318603515625,-0.31461599469184875,0.16313745081424713,-0.16624151170253754
1782846751117323500,0.360323486328125,-0.334474116563797,0.27685338258743286,0.003953386563807726
1782846751127327700,0.37032763671875,-0.3371712565422058,0.37169304490089417,0.17868757247924805
1782846751137332700,0.380332763671875,-0.32211825251579285,0.4122902750968933,0.3143186569213867
1782846751147337700,0.390337646484375,-0.28478384017944336,0.41091686487197876,0.3836182951927185
1782846751157341700,0.400341796875,-0.23728901147842407,0.37890249490737915,0.38306328654289246
1782846751167346700,0.4103466796875,-0.19005613029003143,0.3451910614967346,0.31859496235847473
1782846751177351700,0.4203515625,-0.14348888397216797,0.33985835313796997,0.2125910371541977
1782846751187355600,0.430355712890625,-0.09701777249574661,0.33285483717918396,0.08476375043392181
1782846751197360600,0.440360595703125,-0.049481406807899475,0.2925713360309601,-0.011616582982242107
1782846751207364600,0.450364501953125,-0.00674463901668787,0.21386460959911346,-0.06094599515199661
1782846751217369600,0.46036962890625,0.028583791106939316,0.13606701791286469,-0.07407165318727493
1782846751227374600,0.47037451171875,0.0333799384534359,0.09592413902282715,-0.05442991480231285
1782846751237378600,0.480378662109375,0.01419825479388237,0.08710560947656631,-0.009216362610459328
1782846751247383600,0.490383544921875,-0.01709470897912979,0.06293703615665436,0.05451490730047226
1782846751257388500,0.500388427734375,-0.0322001576423645,0.04058246314525604,0.09769753366708755
1782846751267392500,0.510392578125,-0.03629367798566818,0.07023532688617706,0.1320285052061081
1782846751277397800,0.520397705078125,-0.0469476543366909,0.16623829305171967,0.1649816632270813
1782846751287401700,0.530401611328125,-0.06728163361549377,0.37046921253204346,0.23387882113456726
1782846751297406700,0.54040673828125,-0.0960693359375,0.5979121923446655,0.3121427595615387
1782846751307411700,0.55041162109375,-0.11863972246646881,0.8351261615753174,0.39014291763305664
1782846751317415700,0.560415771484375,-0.10107005387544632,0.9950172901153564,0.4535501301288605
1782846751327420700,0.570420654296875,-0.06895200163125992,1.0523951053619385,0.4949229955673218
1782846751337425700,0.58042578125,0.00048486003652215004,1.0604867935180664,0.5248513221740723
1782846751347429600,0.5904296875,0.07809367030858994,0.9380702972412109,0.4915596544742584
1782846751357434600,0.6004345703125,0.14023533463478088,0.6613069176673889,0.2827398478984833
1782846751367438600,0.6104384765625,0.1863057166337967,0.3871242105960846,-0.14088954031467438
1782846751377443600,0.620443603515625,0.14161041378974915,0.166099414229393,-0.5864542722702026
1782846751387448600,0.630448486328125,-0.017236756160855293,-0.10637097805738449,-0.7677273750305176
1782846751397452500,0.64045263671875,-0.1971532553434372,-0.36254337430000305,-0.7301299571990967
1782846751407457500,0.65045751953125,-0.31346720457077026,-0.4924657642841339,-0.6086935997009277
1782846751417462500,0.660462646484375,-0.3605114221572876,-0.44603434205055237,-0.45429527759552
1782846751427466800,0.670466796875,-0.3507717549800873,-0.2866863012313843,-0.3219774067401886
1782846751437471700,0.6804716796875,-0.2813732624053955,-0.14287106692790985,-0.2119148224592209
1782846751447475700,0.690475830078125,-0.18081000447273254,-0.10120479017496109,-0.09483461827039719
1782846751457480700,0.700480712890625,-0.08570131659507751,-0.14936593174934387,0.012733915820717812
1782846751467485700,0.710485595703125,-0.008703270927071571,-0.25012102723121643,0.058947090059518814
1782846751477489700,0.72048974609375,0.08091636002063751,-0.3919026553630829,0.032347701489925385
1782846751487494700,0.73049462890625,0.18835552036762238,-0.5033063888549805,-0.05869685485959053
1782846751497499600,0.740499755859375,0.33119630813598633,-0.5299800634384155,-0.14664003252983093
1782846751507503900,0.75050390625,0.4855601191520691,-0.4175146818161011,-0.1900922656059265
1782846751517508900,0.7605087890625,0.629555881023407,-0.1858700066804886,-0.17930060625076294
1782846751527512600,0.7705126953125,0.7208937406539917,0.07580886781215668,-0.09646207839250565
1782846751537517600,0.780517578125,0.7799038290977478,0.29438167810440063,0.04373390972614288
1782846751547522600,0.7905224609375,0.8037150502204895,0.41913101077079773,0.22042959928512573
1782846751557526500,0.800526611328125,0.7987130880355835,0.469770222902298,0.40162521600723267
1782846751567531500,0.810531494140625,0.7359679341316223,0.475952684879303,0.5449597835540771
1782846751577536500,0.82053662109375,0.6200991272926331,0.44213372468948364,0.6321809887886047
1782846751587540700,0.830540771484375,0.4642679989337921,0.36717185378074646,0.6632508039474487
1782846751597545700,0.840545654296875,0.29963964223861694,0.2662942409515381,0.6454470157623291
1782846751607549700,0.8505498046875,0.1322406828403473,0.1709994226694107,0.6006338000297546
1782846751617554700,0.8605546875,-0.014698701910674572,0.07958883047103882,0.5406469106674194
1782846751627559700,0.8705595703125,-0.14936693012714386,0.0011000912636518478,0.47720545530319214
1782846751637563600,0.880563720703125,-0.26276326179504395,-0.07709963619709015,0.40064436197280884
1782846751647568600,0.890568603515625,-0.36291080713272095,-0.1320103108882904,0.2952507436275482
1782846751657573600,0.90057373046875,-0.44683581590652466,-0.1737188696861267,0.16326208412647247
1782846751667577900,0.910577880859375,-0.5188068151473999,-0.19985805451869965,0.0007841609185561538
1782846751677582800,0.920582763671875,-0.5656840205192566,-0.21952444314956665,-0.16634118556976318
1782846751687586600,0.930586669921875,-0.5924609303474426,-0.23889188468456268,-0.31122809648513794
1782846751697591600,0.940591552734375,-0.5858299136161804,-0.26719093322753906,-0.42101210355758667
1782846751707596500,0.950596435546875,-0.5466300845146179,-0.3034419119358063,-0.49910223484039307
1782846751717600500,0.9606005859375,-0.4878562390804291,-0.3128005266189575,-0.540054976940155
1782846751727605500,0.97060546875,-0.4295409619808197,-0.2675212025642395,-0.5283104181289673
1782846751737610500,0.980610595703125,-0.3699599504470825,-0.1796635240316391,-0.4661918878555298
1782846751747614700,0.99061474609375,-0.30949464440345764,-0.11726152896881104,-0.35356929898262024
1782846751757619700,1.00061962890625,-0.258398175239563,-0.10600966960191727,-0.21834677457809448
1782846751767623700,1.010623779296875,-0.21841628849506378,-0.14537204802036285,-0.08752476423978806
1782846751777628400,1.02062841796875,-0.19836081564426422,-0.18925347924232483,0.011297686956822872
1782846751787633400,1.03063330078125,-0.2056284099817276,-0.20145441591739655,0.09303966164588928
1782846751797637400,1.040637451171875,-0.23814986646175385,-0.16281594336032867,0.14385703206062317
1782846751807642400,1.050642333984375,-0.2833693325519562,-0.04627615958452225,0.16068600118160248
1782846751817647400,1.0606474609375,-0.3320508301258087,0.1835852563381195,0.15870487689971924
1782846751827651600,1.070651611328125,-0.3595201373100281,0.46217674016952515,0.2096927911043167
1782846751837656600,1.080656494140625,-0.3335244953632355,0.6574665904045105,0.36175239086151123
1782846751847660500,1.09066064453125,-0.23827631771564484,0.7628708481788635,0.5454318523406982
1782846751857665500,1.10066552734375,-0.06882364302873611,0.7391338348388672,0.6880518794059753
1782846751867670500,1.11067041015625,0.1421821117401123,0.5406728982925415,0.7337656021118164
1782846751877674500,1.120674560546875,0.3180815279483795,0.23516251146793365,0.6458948850631714
1782846751887679500,1.130679443359375,0.3316744863986969,-0.045844666659832,0.4909459054470062
1782846751897684500,1.1406845703125,0.18287116289138794,-0.26927295327186584,0.42757174372673035
1782846751907688400,1.1506884765625,0.002178180031478405,-0.3452471196651459,0.5295369029045105
1782846751917693400,1.160693359375,-0.11998661607503891,-0.3031928539276123,0.7020482420921326
1782846751927697400,1.170697509765625,-0.20144958794116974,-0.21520347893238068,0.8180258274078369
1782846751937702400,1.180702392578125,-0.2733730673789978,-0.12213052064180374,0.7954824566841125
1782846751947707400,1.190707275390625,-0.3563062846660614,-0.05831971392035484,0.6621392369270325
1782846751957711400,1.20071142578125,-0.46447136998176575,-0.04549259692430496,0.4622444808483124
1782846751967716400,1.21071630859375,-0.5911633968353271,-0.08128002285957336,0.22426025569438934
1782846751977721300,1.220721435546875,-0.6807926297187805,-0.19163022935390472,-0.015282287262380123
1782846751987725600,1.2307255859375,-0.6978872418403625,-0.3775181174278259,-0.2059929072856903
1782846751997730600,1.24073046875,-0.6522113680839539,-0.6185075640678406,-0.32852840423583984
1782846752007734500,1.250734619140625,-0.5409120321273804,-0.8383410573005676,-0.4168110191822052
1782846752017739500,1.260739501953125,-0.36464884877204895,-0.9853276014328003,-0.47966188192367554
1782846752027744500,1.27074462890625,-0.15857915580272675,-1.0312153100967407,-0.501372218132019
1782846752037748500,1.28074853515625,0.019405759871006012,-1.016762137413025,-0.46617454290390015
1782846752047753500,1.29075341796875,0.16150248050689697,-0.9472644925117493,-0.3795096278190613
1782846752057758500,1.300758544921875,0.2537456154823303,-0.8000832796096802,-0.21636195480823517
1782846752067762400,1.310762451171875,0.2832331657409668,-0.583007276058197,0.022779328748583794
1782846752077767400,1.320767333984375,0.26554977893829346,-0.3400563895702362,0.30783823132514954
1782846752087771400,1.330771484375,0.2232043594121933,-0.1269536316394806,0.5964625477790833
1782846752097776400,1.3407763671875,0.1554703265428543,0.04196002706885338,0.8479347229003906
1782846752107781400,1.350781494140625,0.07842341810464859,0.11141174286603928,1.0352163314819336
1782846752117785300,1.360785400390625,-0.004026985727250576,0.06808184832334518,1.1916402578353882
1782846752127790300,1.370790283203125,-0.06201041489839554,-0.02112911269068718,1.3185431957244873
1782846752137795300,1.38079541015625,-0.10292775183916092,-0.09250795841217041,1.3911076784133911
1782846752147799600,1.390799560546875,-0.11900806427001953,-0.10309816151857376,1.3781591653823853
1782846752157804500,1.400804443359375,-0.10873997956514359,-0.044586651027202606,1.287197470664978
1782846752167808500,1.41080859375,-0.06804022192955017,0.03354277089238167,1.0922576189041138
1782846752177813500,1.4208134765625,-0.01556289754807949,0.10895204544067383,0.7989718914031982
1782846752187818500,1.430818603515625,0.03481030464172363,0.19034349918365479,0.47868281602859497
1782846752197822500,1.440822509765625,0.08066514134407043,0.252640962600708,0.18474999070167542
1782846752207827500,1.450827392578125,0.12233367562294006,0.2583834230899811,-0.06550581008195877
1782846752217832400,1.46083251953125,0.14016060531139374,0.22372104227542877,-0.27093324065208435
1782846752227836700,1.470836669921875,0.1471160501241684,0.182050883769989,-0.42739081382751465
1782846752237841700,1.480841552734375,0.146811380982399,0.1614510715007782,-0.5419110059738159
1782846752247845400,1.490845458984375,0.12894007563591003,0.14536897838115692,-0.6289805769920349
1782846752257850400,1.500850341796875,0.10560119897127151,0.12862753868103027,-0.7001658082008362
1782846752267855400,1.51085546875,0.08689133077859879,0.12657137215137482,-0.7561039924621582
1782846752277859300,1.520859375,0.05706338956952095,0.16500265896320343,-0.7648088335990906
1782846752287864300,1.5308642578125,0.03322840481996536,0.2278725802898407,-0.697358250617981
1782846752297869600,1.54086962890625,-0.001499748439528048,0.3405589163303375,-0.5556125640869141
1782846752307873500,1.55087353515625,-0.047896645963191986,0.49946945905685425,-0.3777381479740143
1782846752317878500,1.56087841796875,-0.10908489674329758,0.6409413814544678,-0.19483409821987152
1782846752327882500,1.570882568359375,-0.19176310300827026,0.6715883016586304,-0.03128093108534813
1782846752337887500,1.580887451171875,-0.2326391637325287,0.632246196269989,0.08840392529964447
1782846752347892500,1.590892578125,-0.2083924561738968,0.6038047671318054,0.10107982158660889
1782846752357896400,1.600896484375,-0.13722507655620575,0.6463538408279419,-0.0374186709523201
1782846752367901400,1.6109013671875,-0.010782422497868538,0.6686890721321106,-0.30756527185440063
1782846752377906700,1.62090673828125,0.14472141861915588,0.5998716950416565,-0.5852410793304443
1782846752387910700,1.63091064453125,0.2353784292936325,0.5074478983879089,-0.8061020970344543
1782846752397915600,1.64091552734375,0.21019211411476135,0.34112414717674255,-0.8818437457084656
1782846752407919400,1.65091943359375,0.08464951813220978,0.05704868957400322,-0.7557556629180908
1782846752417924400,1.66092431640625,-0.10412972420454025,-0.2859446108341217,-0.5999487638473511
1782846752427929300,1.670929443359375,-0.2754168212413788,-0.49653860926628113,-0.6163179874420166
1782846752437933600,1.68093359375,-0.37542545795440674,-0.546196699142456,-0.7962027788162231
1782846752447938600,1.6909384765625,-0.3774488866329193,-0.45358434319496155,-0.8926621675491333
1782846752457943600,1.700943603515625,-0.27738648653030396,-0.34250152111053467,-0.7561285495758057
1782846752467947500,1.710947509765625,-0.07950516790151596,-0.3030868172645569,-0.39729082584381104
1782846752477952500,1.720952392578125,0.09467222541570663,-0.3249814510345459,0.12988324463367462
1782846752487956500,1.73095654296875,0.16654112935066223,-0.31959423422813416,0.7017260789871216
1782846752497961500,1.74096142578125,0.20734314620494843,-0.2711670398712158,1.177589774131775
1782846752507966500,1.750966552734375,0.30897557735443115,-0.23862290382385254,1.3595795631408691
1782846752517970700,1.760970703125,0.4887179136276245,-0.1749536544084549,1.1816699504852295
1782846752527975700,1.7709755859375,0.6811826825141907,-0.028609221801161766,0.7514923214912415
1782846752537980700,1.780980712890625,0.7800536155700684,0.19557993113994598,0.25674059987068176
1782846752547984600,1.790984619140625,0.7154564261436462,0.4193427264690399,-0.1440969556570053
1782846752557989600,1.80098974609375,0.5575695633888245,0.5503729581832886,-0.3472018539905548
1782846752567993300,1.810993408203125,0.38106516003608704,0.5172618627548218,-0.3745189607143402
1782846752577998300,1.820998291015625,0.20910535752773285,0.3771553039550781,-0.2691296935081482
1782846752588003300,1.83100341796875,0.05321094021201134,0.2021636962890625,-0.11186609417200089
1782846752598007600,1.841007568359375,-0.09925529360771179,0.055893298238515854,0.023300517350435257
1782846752608012500,1.851012451171875,-0.24262772500514984,-0.0220266692340374,0.11690913140773773
1782846752618016500,1.8610166015625,-0.3617442548274994,-0.08959479629993439,0.1706882119178772
1782846752628021500,1.871021484375,-0.437520295381546,-0.17878486216068268,0.17634622752666473
1782846752638026500,1.881026611328125,-0.4675873816013336,-0.23970253765583038,0.13510717451572418
1782846752648030500,1.891030517578125,-0.4492465555667877,-0.2627681791782379,0.07137833535671234
1782846752658035500,1.901035400390625,-0.4086037874221802,-0.2617625594139099,0.014629567973315716
1782846752668040400,1.91104052734375,-0.3653636872768402,-0.23867422342300415,-0.046775154769420624
1782846752678044700,1.921044677734375,-0.338780015707016,-0.2065945863723755,-0.11316961795091629
1782846752688049700,1.931049560546875,-0.3175904452800751,-0.1764189600944519,-0.202474445104599
1782846752698054700,1.9410546875,-0.3330570161342621,-0.167781263589859,-0.30117732286453247
1782846752708058600,1.95105859375,-0.3769753873348236,-0.1598677635192871,-0.3781077563762665
1782846752718063600,1.961063720703125,-0.40236011147499084,-0.130771666765213,-0.4497728943824768
1782846752728067300,1.9710673828125,-0.3966774344444275,-0.10333471745252609,-0.5284064412117004
1782846752738072300,1.981072265625,-0.36538824439048767,-0.07746050506830215,-0.6088554859161377
1782846752748077300,1.991077392578125,-0.3196637034416199,-0.06371580809354782,-0.664972186088562
1782846752758081500,2.00108154296875,-0.2626158595085144,-0.06683383882045746,-0.6818782091140747
1782846752768086500,2.01108642578125,-0.21766740083694458,-0.0731724202632904,-0.6427493691444397
1782846752778092000,2.021092041015625,-0.19181662797927856,-0.08651938289403915,-0.5648598670959473
1782846752788096000,2.031095947265625,-0.18199166655540466,-0.10694365948438644,-0.4718128442764282
1782846752798101000,2.04110107421875,-0.18650013208389282,-0.12944604456424713,-0.4027695953845978
1782846752808105000,2.05110498046875,-0.21471910178661346,-0.11991395801305771,-0.382778137922287
1782846752818110000,2.06110986328125,-0.29188764095306396,0.03221405670046806,-0.4067031741142273
1782846752828115000,2.071114990234375,-0.41703444719314575,0.29775092005729675,-0.43969908356666565
1782846752838119000,2.081118896484375,-0.5244299173355103,0.6243628263473511,-0.4081731140613556
1782846752848124000,2.0911240234375,-0.5755487680435181,0.9580473899841309,-0.25332555174827576
1782846752858129200,2.101129150390625,-0.4897180199623108,1.2021052837371826,-0.014853057451546192
1782846752868132900,2.1111328125,-0.20945993065834045,1.1617393493652344,0.21622741222381592
1782846752878137900,2.121137939453125,0.18758782744407654,0.8515530228614807,0.2854118049144745
1782846752888141800,2.131141845703125,0.49420663714408875,0.42365047335624695,0.15029969811439514
1782846752898146800,2.141146728515625,0.5658432841300964,0.021502211689949036,-0.01345753949135542
1782846752908151800,2.15115185546875,0.43355125188827515,-0.31346121430397034,0.007015330716967583
1782846752918156000,2.161156005859375,0.2600766718387604,-0.5076253414154053,0.23460721969604492
1782846752928161000,2.1711611328125,0.1667519509792328,-0.5906866788864136,0.5395751595497131
1782846752938166000,2.181166015625,0.15718267858028412,-0.5596954822540283,0.8164722919464111
1782846752948170000,2.191169921875,0.17182184755802155,-0.46604180335998535,0.9841564297676086
1782846752958175000,2.201175048828125,0.14793330430984497,-0.3610815703868866,1.0237187147140503
1782846752968179000,2.211178955078125,0.07085014879703522,-0.3235560953617096,0.9614121913909912
1782846752978184000,2.221183837890625,-0.022202035412192345,-0.3779924511909485,0.8345914483070374
1782846752988189000,2.23118896484375,-0.10499293357133865,-0.5013372302055359,0.7019903063774109
1782846752998193200,2.241193115234375,-0.16825444996356964,-0.6532569527626038,0.5734219551086426
1782846753008198100,2.2511982421875,-0.19482934474945068,-0.7736294865608215,0.4524976909160614
1782846753018203100,2.261203125,-0.19367513060569763,-0.8350792527198792,0.35480576753616333
1782846753028206800,2.271206787109375,-0.1620023250579834,-0.8213080763816833,0.2759442925453186
1782846753038211800,2.2812119140625,-0.09941909462213516,-0.7439510226249695,0.20727789402008057
1782846753048215800,2.2912158203125,-0.018161404877901077,-0.6319950222969055,0.12406553328037262
1782846753058220800,2.301220703125,0.05413303151726723,-0.4854644536972046,0.03634553775191307
1782846753068225800,2.311225830078125,0.11056758463382721,-0.35338637232780457,-0.002045310800895095
1782846753078230000,2.32122998046875,0.1463005542755127,-0.21188224852085114,0.06864777207374573
1782846753088235000,2.331235107421875,0.1728276163339615,-0.04445003718137741,0.2557533383369446
1782846753098240000,2.341239990234375,0.18538442254066467,0.1238875761628151,0.5116146802902222
1782846753108244000,2.351243896484375,0.18041281402111053,0.23788917064666748,0.7624562978744507
1782846753118249000,2.3612490234375,0.16286897659301758,0.31458261609077454,0.9532928466796875
1782846753128253000,2.3712529296875,0.1428937017917633,0.36121106147766113,1.0781718492507935
1782846753138258000,2.3812578125,0.14176452159881592,0.3813599944114685,1.132925271987915
1782846753148263000,2.391262939453125,0.1443578004837036,0.3870992660522461,1.075122594833374
1782846753158267100,2.40126708984375,0.15952716767787933,0.38959944248199463,0.906511127948761
1782846753168272100,2.411272216796875,0.1829623430967331,0.38947612047195435,0.6423072814941406
1782846753178277000,2.421277099609375,0.20114001631736755,0.36549514532089233,0.34247449040412903
1782846753188280800,2.43128076171875,0.20625722408294678,0.2973235249519348,0.04861984774470329
1782846753198285800,2.441285888671875,0.21225358545780182,0.20251740515232086,-0.19899767637252808
1782846753208289800,2.451289794921875,0.21739424765110016,0.10788017511367798,-0.38993963599205017
1782846753218294800,2.461294677734375,0.21463973820209503,0.01507833693176508,-0.5408217906951904
1782846753228299800,2.4712998046875,0.18950530886650085,-0.041198983788490295,-0.650310754776001
1782846753238304000,2.481303955078125,0.15224875509738922,-0.056116148829460144,-0.7218658924102783
1782846753248309000,2.49130908203125,0.10142739117145538,-0.026396337896585464,-0.7506133317947388
1782846753258314000,2.50131396484375,0.05533002316951752,0.0430033802986145,-0.7384861707687378
1782846753268318000,2.51131787109375,0.016831833869218826,0.12623433768749237,-0.7003559470176697
1782846753278323000,2.521322998046875,-0.009723342955112457,0.20559920370578766,-0.640040397644043
1782846753288327000,2.531326904296875,-0.031288884580135345,0.28790920972824097,-0.5509345531463623
1782846753298332000,2.541331787109375,-0.045133326202631,0.37342116236686707,-0.42327880859375
1782846753308337000,2.5513369140625,-0.0670122355222702,0.45431822538375854,-0.28094467520713806
1782846753318341000,2.561341064453125,-0.11573556810617447,0.5792471170425415,-0.13282977044582367
1782846753328346000,2.57134619140625,-0.1828267127275467,0.7238417267799377,0.021977949887514114
1782846753338351000,2.58135107421875,-0.2304123342037201,0.8500148057937622,0.16299977898597717
1782846753348354800,2.591354736328125,-0.21397517621517181,0.9241959452629089,0.24779148399829865
1782846753358359800,2.60135986328125,-0.10626682639122009,0.9572902321815491,0.22212527692317963
1782846753368363800,2.61136376953125,0.0932413712143898,0.8947391510009766,0.06259860843420029
1782846753378368800,2.62136865234375,0.3577859401702881,0.6684713959693909,-0.19110263884067535
1782846753388373800,2.631373779296875,0.5909762978553772,0.48105543851852417,-0.5509092807769775
1782846753398378000,2.6413779296875,0.632392168045044,0.2735869288444519,-1.0145748853683472
1782846753408383000,2.651383056640625,0.4405907690525055,0.03427240252494812,-1.4676039218902588
1782846753418388000,2.661387939453125,0.08025335520505905,-0.1258336454629898,-1.6891906261444092
1782846753428392000,2.671391845703125,-0.23481515049934387,-0.17548821866512299,-1.558929681777954
1782846753438397000,2.68139697265625,-0.32346752285957336,-0.09308495372533798,-1.2356855869293213
1782846753448401000,2.69140087890625,-0.20498038828372955,0.07012853026390076,-0.8259541392326355
1782846753458406000,2.701406005859375,-0.03581453487277031,0.10519703477621078,-0.21802477538585663
1782846753468411000,2.711410888671875,-0.0017229004297405481,0.0011165253818035126,0.5441920161247253
1782846753478415000,2.7214150390625,-0.12619958817958832,-0.10650447756052017,1.1267517805099487
1782846753488420000,2.731420166015625,-0.2040402889251709,-0.3004661202430725,1.1908166408538818
1782846753498425000,2.741425048828125,-0.10931458324193954,-0.6098945140838623,0.6849576830863953
1782846753508428800,2.7514287109375,0.1211046651005745,-0.8106062412261963,-0.040929824113845825
1782846753518433800,2.761433837890625,0.38496267795562744,-0.6725852489471436,-0.6089972853660583
1782846753528437800,2.771437744140625,0.5629381537437439,-0.18305286765098572,-0.8391705751419067
1782846753538442800,2.78144287109375,0.685171365737915,0.3182128965854645,-0.7880480289459229
1782846753548447700,2.79144775390625,0.7827396392822266,0.5809892416000366,-0.6129044890403748
1782846753558452000,2.801451904296875,0.7980527877807617,0.6919381022453308,-0.3538643717765808
1782846753568457000,2.81145703125,0.7289209365844727,0.7118480801582336,-0.027471940964460373
1782846753578462000,2.8214619140625,0.6145139336585999,0.6470531225204468,0.29919856786727905
1782846753588466000,2.8314658203125,0.46875566244125366,0.5476975440979004,0.5450048446655273
1782846753598471000,2.841470947265625,0.3096722662448883,0.4106401205062866,0.6919905543327332
1782846753608476000,2.851475830078125,0.17978796362876892,0.21915604174137115,0.7244380116462708
1782846753618479900,2.86147998046875,0.09364854544401169,0.016026362776756287,0.6783762574195862
1782846753628484900,2.87148486328125,0.04520834982395172,-0.15930978953838348,0.5795155763626099
1782846753638489000,2.881489013671875,0.01607176847755909,-0.27297431230545044,0.46686357259750366
1782846753648494000,2.891494140625,-0.015785476192831993,-0.3017805516719818,0.35052940249443054
1782846753658499000,2.9014990234375,-0.10590871423482895,-0.2546018660068512,0.24892929196357727
1782846753668502800,2.911502685546875,-0.24812397360801697,-0.145768404006958,0.1707271784543991
1782846753678507800,2.9215078125,-0.41137629747390747,-0.022374821826815605,0.09674669057130814
1782846753688512800,2.9315126953125,-0.5417123436927795,0.10902266949415207,0.014906407333910465
1782846753698516700,2.941516845703125,-0.6183363199234009,0.221952423453331,-0.0814715251326561
1782846753708521700,2.951521728515625,-0.6135902404785156,0.24843783676624298,-0.1786474883556366
1782846753718526000,2.96152587890625,-0.5277262330055237,0.16853314638137817,-0.25528979301452637
1782846753728531000,2.971531005859375,-0.39360955357551575,0.024479234591126442,-0.30467769503593445
1782846753738536000,2.981535888671875,-0.25037968158721924,-0.12752893567085266,-0.335048109292984
1782846753748540000,2.991539794921875,-0.13452120125293732,-0.24792440235614777,-0.3542383909225464
1782846753758545000,3.001544921875,-0.05583970248699188,-0.3111009895801544,-0.3434792160987854
1782846753768550000,3.0115498046875,-0.0030825461726635695,-0.30462896823883057,-0.2736131548881531
1782846753778553900,3.021553955078125,0.04699207469820976,-0.2426380217075348,-0.15085583925247192
1782846753788558800,3.031558837890625,0.10671878606081009,-0.15224575996398926,0.02328173629939556
1782846753798563000,3.04156298828125,0.17596949636936188,-0.05175111070275307,0.22377541661262512
1782846753808568000,3.051568115234375,0.24228927493095398,0.057523325085639954,0.4346429705619812
1782846753818573000,3.061572998046875,0.29267948865890503,0.1709529459476471,0.6322447061538696
1782846753828577000,3.071576904296875,0.2957632541656494,0.2871681749820709,0.7965716123580933
1782846753838582000,3.08158203125,0.25452739000320435,0.4000161588191986,0.8976755738258362
1782846753848587000,3.0915869140625,0.1761980652809143,0.5072308778762817,0.9206589460372925
1782846753858591000,3.101591064453125,0.07738865166902542,0.6280624866485596,0.8284134268760681
1782846753868596000,3.111595947265625,-0.041409119963645935,0.751693844795227,0.637886643409729
1782846753878600200,3.12160009765625,-0.1408076137304306,0.8481362462043762,0.44012725353240967
1782846753888605200,3.131605224609375,-0.1593669354915619,0.8798261880874634,0.3124050796031952
1782846753898610200,3.141610107421875,-0.0798441544175148,0.7726651430130005,0.2904379963874817
1782846753908614000,3.15161376953125,0.0658547505736351,0.47341668605804443,0.330935537815094
1782846753918619000,3.161618896484375,0.2027984857559204,-0.025865036994218826,0.3406991958618164
1782846753928623900,3.171623779296875,0.2606242001056671,-0.5658211708068848,0.27534928917884827
1782846753938627800,3.1816279296875,0.23324157297611237,-0.8963383436203003,0.19691918790340424
1782846753948632800,3.1916328125,0.18294855952262878,-0.9772762060165405,0.156955748796463
1782846753958637000,3.201636962890625,0.15572331845760345,-0.8492255806922913,0.17629829049110413
1782846753968642000,3.21164208984375,0.1742505580186844,-0.6276997923851013,0.23400597274303436
1782846753978647000,3.22164697265625,0.2091238647699356,-0.413296103477478,0.25090426206588745
1782846753988651000,3.231651123046875,0.21749339997768402,-0.2682626247406006,0.18857888877391815
1782846753998656000,3.241656005859375,0.16967208683490753,-0.23170463740825653,0.073536716401577
1782846754008661000,3.251660888671875,0.09452629834413528,-0.31732264161109924,-0.06055070087313652
1782846754018665000,3.2616650390625,0.02313441038131714,-0.47383955121040344,-0.20664772391319275
1782846754028670000,3.271669921875,-0.004631789401173592,-0.6502546668052673,-0.3639921247959137
1782846754038674200,3.281674072265625,0.02214869111776352,-0.8145266771316528,-0.5235146880149841
1782846754048679200,3.29167919921875,0.08230054378509521,-0.9340258836746216,-0.6655876040458679
1782846754058684200,3.30168408203125,0.15002819895744324,-0.9575328230857849,-0.7885726094245911
1782846754068688000,3.31168798828125,0.2228112816810608,-0.8728429079055786,-0.866003692150116
1782846754078693000,3.321693115234375,0.2820913791656494,-0.6937839388847351,-0.8670109510421753
1782846754088698000,3.331697998046875,0.31523722410202026,-0.46268343925476074,-0.7625085711479187
1782846754098702000,3.3417021484375,0.30353155732154846,-0.2085302621126175,-0.5519694685935974
1782846754108707000,3.35170703125,0.2574065923690796,0.013930771499872208,-0.2717483937740326
1782846754118712000,3.361712158203125,0.1933618187904358,0.17407649755477905,0.027227390557527542
1782846754128716000,3.371716064453125,0.13571837544441223,0.2652550935745239,0.300234854221344
1782846754138721000,3.381720947265625,0.08420085906982422,0.2926230728626251,0.5261920690536499
1782846754148725000,3.39172509765625,0.06286274641752243,0.26573890447616577,0.6896023154258728
1782846754158730000,3.40172998046875,0.07417505979537964,0.21778282523155212,0.7737129330635071
1782846754168735000,3.41173486328125,0.09667734056711197,0.16205225884914398,0.7806463837623596
1782846754178739000,3.421739013671875,0.1241326630115509,0.127774178981781,0.7252840399742126
1782846754188744200,3.431744140625,0.1436043679714203,0.11640114337205887,0.6000518202781677
1782846754198749200,3.441749267578125,0.13341404497623444,0.14102952182292938,0.42453038692474365
1782846754208753200,3.451753173828125,0.1120060607790947,0.18283742666244507,0.2442832887172699
1782846754218758100,3.461758056640625,0.08427030593156815,0.20335575938224792,0.07332060486078262
1782846754228762000,3.47176220703125,0.05530686676502228,0.18191856145858765,-0.06410655379295349
1782846754238767000,3.48176708984375,0.03072136454284191,0.14046485722064972,-0.1624070256948471
1782846754248772000,3.491772216796875,-0.0023421677760779858,0.08737814426422119,-0.24431905150413513
1782846754258776000,3.501776123046875,-0.021955017000436783,0.02941364422440529,-0.3203360438346863
1782846754268781000,3.511781005859375,-0.029904799535870552,0.0010582422837615013,-0.39528998732566833
1782846754278786000,3.5217861328125,-0.01647101528942585,0.012310097925364971,-0.4480895698070526
1782846754288790000,3.5317900390625,0.022377846762537956,0.027148699387907982,-0.45754244923591614
1782846754298795000,3.541794921875,0.05921682342886925,0.05932474136352539,-0.41803285479545593
1782846754308800000,3.551800048828125,0.046823207288980484,0.16938380897045135,-0.30636653304100037
1782846754318804000,3.561803955078125,0.002350281924009323,0.36506354808807373,-0.1392454206943512
1782846754328809000,3.57180908203125,-0.04840381443500519,0.6022388935089111,0.044549621641635895
1782846754338813200,3.581813232421875,-0.1400602161884308,0.8416557908058167,0.20518164336681366
1782846754348818200,3.591818115234375,-0.2314329892396927,1.0073734521865845,0.3171323239803314
1782846754358823200,3.6018232421875,-0.24884474277496338,1.035003662109375,0.34223929047584534
1782846754368827100,3.6118271484375,-0.15519581735134125,0.9303358793258667,0.20193582773208618
1782846754378832100,3.62183203125,0.022442622110247612,0.7630832195281982,-0.1283525973558426
1782846754388837000,3.631837158203125,0.20849810540676117,0.6026152968406677,-0.4102403521537781
1782846754398841000,3.641841064453125,0.3036363422870636,0.383664071559906,-0.4769946336746216
1782846754408846000,3.65184619140625,0.20827695727348328,0.07270273566246033,-0.4130145311355591
1782846754418850000,3.66185009765625,-0.011316917836666107,-0.207484170794487,-0.46977049112319946
1782846754428855000,3.67185498046875,-0.28284063935279846,-0.35069459676742554,-0.7784315347671509
1782846754438860000,3.681860107421875,-0.568854033946991,-0.28063881397247314,-1.22488534450531
1782846754448864000,3.691864013671875,-0.7536258697509766,-0.1252662092447281,-1.4598320722579956
1782846754458869000,3.701868896484375,-0.7083311080932617,-0.08224310725927353,-1.4010601043701172
1782846754468874000,3.7118740234375,-0.4422370195388794,-0.22508440911769867,-1.0890144109725952
1782846754478878000,3.7218779296875,-0.1155230924487114,-0.41698941588401794,-0.6449440121650696
1782846754488883000,3.731883056640625,0.10878097265958786,-0.5258103013038635,-0.24922284483909607
1782846754498888000,3.741887939453125,0.21900814771652222,-0.5629475116729736,-0.10728432983160019
1782846754508892200,3.75189208984375,0.31588196754455566,-0.5764831900596619,-0.305910587310791
1782846754518897200,3.761897216796875,0.4339425563812256,-0.5348593592643738,-0.7025479078292847
1782846754528901000,3.771901123046875,0.5330960750579834,-0.38632649183273315,-1.0437541007995605
1782846754538906000,3.781906005859375,0.580359697341919,-0.21480721235275269,-1.1596263647079468
1782846754548911000,3.7919111328125,0.5970629453659058,-0.08134902268648148,-1.0555503368377686
1782846754558915000,3.8019150390625,0.5798029899597168,0.03170269727706909,-0.7789936065673828
1782846754568920000,3.811920166015625,0.5211603045463562,0.09485537558794022,-0.35702237486839294
1782846754578925000,3.821925048828125,0.44856521487236023,0.07876162976026535,0.11614276468753815
1782846754588929000,3.831928955078125,0.36643359065055847,0.0926872193813324,0.527725338935852
1782846754598934000,3.84193408203125,0.30158430337905884,0.13780462741851807,0.8447432518005371
1782846754608939000,3.85193896484375,0.2641325891017914,0.182304248213768,1.054260492324829
1782846754618943000,3.86194287109375,0.25258272886276245,0.17353233695030212,1.1736209392547607
1782846754628948000,3.871947998046875,0.2597190737724304,0.13031136989593506,1.2172983884811401
1782846754638952000,3.881951904296875,0.255755752325058,0.1017412394285202,1.1861375570297241
1782846754648957000,3.89195703125,0.2301654815673828,0.08352342993021011,1.080818772315979
1782846754658962000,3.9019619140625,0.18265122175216675,0.08431385457515717,0.9056054949760437
1782846754668966100,3.911966064453125,0.10371002554893494,0.11857820302248001,0.6836268901824951
1782846754678971100,3.92197119140625,0.016986582428216934,0.16915908455848694,0.45607152581214905
1782846754688976100,3.93197607421875,-0.07217233628034592,0.1860329657793045,0.2593388557434082
1782846754698980000,3.94197998046875,-0.15456415712833405,0.15337222814559937,0.0884198546409607
1782846754708985000,3.951985107421875,-0.21813932061195374,0.09385640919208527,-0.04498361051082611
1782846754718990000,3.961989990234375,-0.24510301649570465,0.025847263634204865,-0.14356638491153717
1782846754728994000,3.971994140625,-0.24056924879550934,-0.054929398000240326,-0.20441173017024994
1782846754738999000,3.9819990234375,-0.20350044965744019,-0.14068558812141418,-0.24671684205532074
1782846754749003000,3.9920029296875,-0.14644114673137665,-0.21699006855487823,-0.27531754970550537
1782846754759008000,4.002008056640625,-0.09155739098787308,-0.27197131514549255,-0.29159000515937805
1782846754769013000,4.012012939453125,-0.0547679103910923,-0.3179210126399994,-0.3069080114364624
1782846754779017000,4.022016845703125,-0.06149771809577942,-0.3187500536441803,-0.3290996253490448
1782846754789022000,4.03202197265625,-0.10895612090826035,-0.264344722032547,-0.35601767897605896
1782846754799027000,4.04202685546875,-0.15830424427986145,-0.18992137908935547,-0.3803110420703888
1782846754809030700,4.05203076171875,-0.21762974560260773,-0.14439482986927032,-0.37840941548347473
1782846754819035600,4.06203564453125,-0.27504244446754456,-0.15456756949424744,-0.3930179476737976
1782846754829040600,4.07204052734375,-0.3489677309989929,-0.15706446766853333,-0.41760897636413574
1782846754839044900,4.082044921875,-0.40230897068977356,-0.13913686573505402,-0.4434698820114136
1782846754849049900,4.0920498046875,-0.4465769827365875,-0.12286598235368729,-0.45009467005729675
1782846754859054800,4.102054931640625,-0.501413881778717,-0.13055585324764252,-0.4299428164958954
1782846754869058800,4.112058837890625,-0.5355108976364136,-0.1310053914785385,-0.39397603273391724
1782846754879063800,4.122063720703125,-0.5025888681411743,-0.04149441793560982,-0.3522144556045532
1782846754889067800,4.13206787109375,-0.3868432343006134,0.18263967335224152,-0.26555535197257996
1782846754899072800,4.14207275390625,-0.19713829457759857,0.48505839705467224,-0.05805915966629982
1782846754909077800,4.152077880859375,0.048740725964307785,0.7513222694396973,0.3444668650627136
1782846754919082000,4.16208203125,0.31605154275894165,0.8616679906845093,0.855958878993988
1782846754929087000,4.1720869140625,0.5176854133605957,0.7729891538619995,1.2291926145553589
1782846754939092000,4.182092041015625,0.6544927954673767,0.5459001064300537,1.3323477506637573
1782846754949096000,4.192095947265625,0.758598804473877,0.3119351267814636,1.189103364944458
1782846754959101000,4.202100830078125,0.7953296899795532,0.14529183506965637,0.9005194306373596
1782846754969104600,4.212104736328125,0.7247005701065063,0.06750994920730591,0.6026757955551147
1782846754979110000,4.22210986328125,0.5656227469444275,0.060612358152866364,0.33913469314575195
1782846754989115000,4.232114990234375,0.41703805327415466,0.144587442278862,0.13764874637126923
1782846754999118800,4.242118896484375,0.2807113826274872,0.19497153162956238,-0.028207071125507355
1782846755009123800,4.252123779296875,0.15908266603946686,0.17712587118148804,-0.16904106736183167
1782846755019128800,4.26212890625,0.03720949962735176,0.1227308064699173,-0.25217509269714355
1782846755029132800,4.2721328125,-0.061527688056230545,0.05960695818066597,-0.2870422303676605
1782846755039137800,4.2821376953125,-0.09848731011152267,-0.07972457259893417,-0.2859266400337219
1782846755049142800,4.292142822265625,-0.07088674604892731,-0.29777899384498596,-0.2792065143585205
1782846755059147000,4.30214697265625,-0.006510426290333271,-0.5299259424209595,-0.29423606395721436
1782846755069152000,4.312152099609375,0.07459001243114471,-0.724591851234436,-0.31979015469551086
1782846755079157000,4.322156982421875,0.14358879625797272,-0.8476290702819824,-0.3391515910625458
1782846755089161000,4.332160888671875,0.19304537773132324,-0.8859771490097046,-0.334667444229126
1782846755099166000,4.342166015625,0.2279311865568161,-0.8545422554016113,-0.28768208622932434
1782846755109170000,4.352169921875,0.240236297249794,-0.760770857334137,-0.21418650448322296
1782846755119175000,4.3621748046875,0.2289077490568161,-0.642647385597229,-0.13829253613948822
1782846755129180000,4.372179931640625,0.2033250629901886,-0.5090851187705994,-0.06770362704992294
1782846755139183900,4.382183837890625,0.179295614361763,-0.3512193262577057,0.018915683031082153
1782846755149188900,4.39218896484375,0.15687942504882812,-0.18462549149990082,0.1291491538286209
1782846755159193900,4.40219384765625,0.11698926240205765,-0.06239624693989754,0.28008806705474854
1782846755169197800,4.41219775390625,0.06015714257955551,0.017519306391477585,0.4347041845321655
1782846755179202800,4.422202880859375,-0.0022820003796368837,0.047060418874025345,0.5757936239242554
1782846755189207800,4.432207763671875,-0.06979319453239441,0.04231758788228035,0.6667207479476929
1782846755199211800,4.442211669921875,-0.1218329593539238,0.05181815102696419,0.6934524774551392
1782846755209216800,4.452216796875,-0.16559988260269165,0.07613100111484528,0.6508521437644958
1782846755219221000,4.462220947265625,-0.22175823152065277,0.09774814546108246,0.5451323986053467
1782846755229226000,4.47222607421875,-0.2782692015171051,0.1286364197731018,0.37564530968666077
1782846755239231000,4.48223095703125,-0.3123648464679718,0.18069137632846832,0.17990218102931976
1782846755249235000,4.49223486328125,-0.3323380649089813,0.20940351486206055,0.010013667866587639
1782846755259240000,4.502239990234375,-0.3277270495891571,0.22697079181671143,-0.11071674525737762
1782846755269245000,4.512244873046875,-0.3036985397338867,0.22488166391849518,-0.1886264979839325
1782846755279249000,4.522248779296875,-0.27991625666618347,0.1832338273525238,-0.24796731770038605
1782846755289254000,4.53225390625,-0.25566980242729187,0.1488150656223297,-0.30024802684783936
1782846755299259000,4.5422587890625,-0.23254530131816864,0.10070080310106277,-0.3270633816719055
1782846755309262800,4.552262939453125,-0.25352197885513306,0.017605576664209366,-0.3305690884590149
1782846755319267800,4.562267822265625,-0.2590440511703491,-0.05603056028485298,-0.3130079209804535
1782846755329272800,4.57227294921875,-0.2691941261291504,-0.04893583059310913,-0.2517332136631012
1782846755339276800,4.58227685546875,-0.29167625308036804,0.0007337236311286688,-0.12401146441698074
1782846755349281800,4.59228173828125,-0.3208904564380646,0.08834387362003326,0.03141278401017189
1782846755359285800,4.60228564453125,-0.3388979434967041,0.22631505131721497,0.17452333867549896
1782846755369290800,4.612290771484375,-0.3247382640838623,0.4338608682155609,0.32734426856040955
1782846755379295700,4.622295654296875,-0.29728826880455017,0.6522272825241089,0.4677530527114868
1782846755389300000,4.632300048828125,-0.25863051414489746,0.8299779891967773,0.5575185418128967
1782846755399305000,4.642304931640625,-0.202267125248909,0.9307120442390442,0.5451327562332153
1782846755409310000,4.65231005859375,-0.10882098227739334,0.9229820370674133,0.4343002438545227
1782846755419314000,4.66231396484375,0.034551892429590225,0.7112516760826111,0.22027423977851868
1782846755429319000,4.67231884765625,0.22225548326969147,0.3754793107509613,-0.08336968719959259
1782846755439324000,4.682323974609375,0.3471476137638092,0.1355109065771103,-0.3477424681186676
1782846755449327900,4.692327880859375,0.29595765471458435,-0.024284478276968002,-0.5850368142127991
1782846755459332900,4.702332763671875,0.10842103511095047,-0.12084457278251648,-0.8781786561012268
1782846755469336800,4.7123369140625,-0.20460699498653412,-0.16411760449409485,-1.1459176540374756
1782846755479342000,4.722342041015625,-0.5393757224082947,-0.11864147335290909,-1.2505197525024414
1782846755489347000,4.73234716796875,-0.6908631920814514,-0.03161568194627762,-1.2132915258407593
1782846755499350800,4.742350830078125,-0.6012731194496155,-0.013375689275562763,-1.0845322608947754
1782846755509355800,4.752355712890625,-0.35389408469200134,-0.19122865796089172,-0.775780439376831
1782846755519360800,4.76236083984375,-0.14370675384998322,-0.49061086773872375,-0.257364422082901
1782846755529364700,4.77236474609375,-0.13929715752601624,-0.7233325242996216,0.3332536220550537
1782846755539369700,4.78236962890625,-0.28319251537323,-0.7762873768806458,0.7688170671463013
1782846755549374700,4.792374755859375,-0.37358561158180237,-0.7553329467773438,0.7686921954154968
1782846755559379000,4.80237890625,-0.24935421347618103,-0.7704434394836426,0.22044877707958221
1782846755569384000,4.812384033203125,0.028720634058117867,-0.7157467007637024,-0.5897197127342224
1782846755579389000,4.822388916015625,0.2949323356151581,-0.4092456102371216,-1.2392563819885254
1782846755589393000,4.832392822265625,0.4616647958755493,0.09573999047279358,-1.4876753091812134
1782846755599398000,4.84239794921875,0.5244166254997253,0.5299095511436462,-1.3826465606689453
1782846755609401900,4.85240185546875,0.5435951948165894,0.7451607584953308,-1.072265386581421
1782846755619406800,4.86240673828125,0.5171825289726257,0.8073709011077881,-0.6570759415626526
1782846755629411800,4.872411865234375,0.4808955490589142,0.7490721940994263,-0.22745124995708466
1782846755639416000,4.882416015625,0.4385574162006378,0.6395611763000488,0.14293347299098969
1782846755649421000,4.892421142578125,0.37407687306404114,0.5711504817008972,0.41180193424224854
1782846755659426000,4.902426025390625,0.3056171238422394,0.5234330296516418,0.5867713689804077
1782846755669429800,4.9124296875,0.2695640027523041,0.4333382248878479,0.6965762376785278
1782846755679434800,4.922434814453125,0.2511511743068695,0.31759539246559143,0.7365223169326782
1782846755689439700,4.932439697265625,0.24008850753307343,0.17807608842849731,0.7182273864746094
1782846755699443700,4.942443603515625,0.21464067697525024,0.06016409397125244,0.6584242582321167
1782846755709448700,4.95244873046875,0.16650716960430145,-0.016326021403074265,0.5811783075332642
1782846755719453700,4.96245361328125,0.08335235714912415,-0.04964882507920265,0.49278318881988525
1782846755729458000,4.9724580078125,-0.02578865736722946,-0.03599797934293747,0.3963751792907715
1782846755739463000,4.982462890625,-0.14088594913482666,-0.0008868651930242777,0.2948395013809204
1782846755749468000,4.992468017578125,-0.24045111238956451,0.04744177684187889,0.18489892780780792
1782846755759471900,5.002471923828125,-0.310511976480484,0.07179532200098038,0.08144630491733551
1782846755769476900,5.012476806640625,-0.345968097448349,0.06341774016618729,-0.020543033257126808
1782846755779481000,5.022481201171875,-0.3313353359699249,0.02317711152136326,-0.12663884460926056
1782846755789486000,5.032486083984375,-0.27635815739631653,-0.03265679255127907,-0.22830070555210114
1782846755799491000,5.042490966796875,-0.1766081154346466,-0.0941862016916275,-0.30505725741386414
1782846755809495300,5.052495361328125,-0.06410661339759827,-0.17236727476119995,-0.33358025550842285
1782846755819500300,5.062500244140625,0.036777883768081665,-0.2408035397529602,-0.3211916983127594
1782846755829505300,5.07250537109375,0.09116438776254654,-0.2758308947086334,-0.2825155258178711
1782846755839509200,5.08250927734375,0.09745290875434875,-0.2760322391986847,-0.2287582904100418
1782846755849514200,5.09251416015625,0.07503613829612732,-0.2609477639198303,-0.17058861255645752
1782846755859519200,5.102519287109375,0.03262316435575485,-0.23915430903434753,-0.1168510839343071
1782846755869523200,5.112523193359375,-0.01876121200621128,-0.18597756326198578,-0.0748012438416481
1782846755879528200,5.122528076171875,-0.06123676896095276,-0.08385679125785828,-0.06259197741746902
1782846755889532400,5.132532470703125,-0.10543448477983475,-0.0019414217676967382,-0.033218447118997574
1782846755899537400,5.142537353515625,-0.1534811109304428,-0.0008449985180050135,0.012294976972043514
1782846755909542400,5.15254248046875,-0.2259092926979065,-0.02748013287782669,0.05038858577609062
1782846755919546000,5.162546142578125,-0.331747829914093,-0.009202859364449978,0.10390480607748032
1782846755929551000,5.172551025390625,-0.4600406587123871,0.04319842532277107,0.17846116423606873
1782846755939556000,5.18255615234375,-0.5307238698005676,0.11134978383779526,0.2673526704311371
1782846755949560000,5.19256005859375,-0.5377898812294006,0.1809091567993164,0.3384128212928772
1782846755959565000,5.20256494140625,-0.45217615365982056,0.2561352252960205,0.3753806948661804
1782846755969570000,5.212570068359375,-0.2801596522331238,0.32682138681411743,0.3379167914390564
1782846755979574300,5.22257421875,-0.03035915642976761,0.4120393693447113,0.2406964898109436
1782846755989579300,5.232579345703125,0.24286730587482452,0.4683913290500641,0.12890870869159698
1782846755999584300,5.242584228515625,0.4825696647167206,0.42704254388809204,0.022923415526747704
1782846756009588200,5.252588134765625,0.6159136891365051,0.30328479409217834,-0.0663120225071907
1782846756019593200,5.26259326171875,0.6257418394088745,0.13287551701068878,-0.14447738230228424
1782846756029597200,5.27259716796875,0.539279580116272,-0.014244693331420422,-0.18070776760578156
1782846756039602200,5.282602294921875,0.4247654676437378,-0.12016952782869339,-0.14013983309268951
1782846756049607200,5.292607177734375,0.3481798768043518,-0.17593665421009064,-0.024513637647032738
1782846756059611400,5.302611328125,0.3196326494216919,-0.1929183006286621,0.07748357206583023
1782846756069616400,5.312616455078125,0.3231319785118103,-0.1812392771244049,0.11374982446432114
1782846756079621400,5.322621337890625,0.3339707851409912,-0.1866292506456375,0.08241294324398041
1782846756089625300,5.332625244140625,0.3016831874847412,-0.19837617874145508,0.03556321561336517
1782846756099630300,5.34263037109375,0.2302827537059784,-0.2648204267024994,0.036665234714746475
1782846756109635300,5.35263525390625,0.1479758769273758,-0.3799896538257599,0.09864544123411179
1782846756119639000,5.36263916015625,0.05931125953793526,-0.5156444311141968,0.19175967574119568
1782846756129644000,5.37264404296875,-0.029786432161927223,-0.6432763934135437,0.2943616211414337
1782846756139649300,5.382649169921875,-0.0862337276339531,-0.7662545442581177,0.36100006103515625
1782846756149653200,5.3926533203125,-0.0779004693031311,-0.8905484676361084,0.36026424169540405
1782846756159658200,5.402658203125,-0.0032118544913828373,-0.9771326184272766,0.3055213689804077
1782846756169663200,5.412663330078125,0.12696480751037598,-0.9886447787284851,0.23150257766246796
1782846756179667200,5.422667236328125,0.2805895209312439,-0.8839088082313538,0.15891997516155243
1782846756189672200,5.432672119140625,0.4103063941001892,-0.64607834815979,0.11129405349493027
1782846756199676200,5.44267626953125,0.4789826571941376,-0.33090704679489136,0.11262350529432297
1782846756209681200,5.45268115234375,0.5020074248313904,0.001985145965591073,0.17110680043697357
1782846756219686100,5.46268603515625,0.4958725869655609,0.2384626716375351,0.28217047452926636
1782846756229690400,5.4726904296875,0.49144217371940613,0.3291914463043213,0.4344728887081146
1782846756239695400,5.4826953125,0.49507737159729004,0.31661704182624817,0.601410984992981
1782846756249700400,5.492700439453125,0.4811336100101471,0.277101069688797,0.7750014066696167
1782846756259704300,5.502704345703125,0.45031362771987915,0.24278171360492706,0.9295686483383179
1782846756269709300,5.512709228515625,0.4059878885746002,0.22824211418628693,1.0383539199829102
1782846756279714300,5.52271435546875,0.34803804755210876,0.2536017894744873,1.0814625024795532
1782846756289718300,5.53271826171875,0.2787039577960968,0.27851593494415283,1.044959306716919
1782846756299723300,5.54272314453125,0.19405537843704224,0.29790428280830383,0.9228091239929199
1782846756309728300,5.552728271484375,0.1044815182685852,0.27591395378112793,0.7049964666366577
1782846756319732200,5.562732177734375,0.01242509949952364,0.23563922941684723,0.43441104888916016
1782846756329737200,5.5727373046875,-0.06670239567756653,0.1672707051038742,0.14419803023338318
1782846756339741200,5.5827412109375,-0.11959756910800934,0.06297066062688828,-0.13659821450710297
1782846756349746200,5.59274609375,-0.1546677201986313,-0.07343991100788116,-0.3832259774208069
1782846756359751200,5.602751220703125,-0.18468208611011505,-0.2125655710697174,-0.5834967494010925
1782846756369755400,5.61275537109375,-0.20124506950378418,-0.3231615126132965,-0.7338826060295105
1782846756379760400,5.622760498046875,-0.2168879359960556,-0.388570636510849,-0.8251885771751404
1782846756389765400,5.632765380859375,-0.24292555451393127,-0.37438151240348816,-0.847745954990387
1782846756399769300,5.642769287109375,-0.2821011543273926,-0.28942641615867615,-0.7916530966758728
1782846756409774300,5.6527744140625,-0.3354431688785553,-0.1814628541469574,-0.6843003034591675
1782846756419779300,5.662779296875,-0.40433380007743835,-0.008692672476172447,-0.5323110222816467
1782846756429783300,5.672783203125,-0.47045478224754333,0.19838793575763702,-0.32047227025032043
1782846756439788300,5.682788330078125,-0.5320292115211487,0.4070868194103241,-0.0731961652636528
1782846756449793300,5.692793212890625,-0.5585278272628784,0.5803298354148865,0.1765725016593933
1782846756459797200,5.70279736328125,-0.5164927840232849,0.6193283796310425,0.3824646770954132
1782846756469802200,5.71280224609375,-0.37666812539100647,0.5658962726593018,0.42709094285964966
1782846756479806200,5.72280615234375,-0.17352113127708435,0.5151728987693787,0.22455008327960968
1782846756489811200,5.732811279296875,0.011665461584925652,0.4779249131679535,-0.14777575433254242
1782846756499816200,5.742816162109375,0.1506025642156601,0.45846331119537354,-0.47883838415145874
1782846756509820200,5.752820068359375,0.1602470874786377,0.4354337751865387,-0.6575561761856079
1782846756519825200,5.7628251953125,0.012603039853274822,0.35447606444358826,-0.7156937718391418
1782846756529830100,5.772830078125,-0.18978014588356018,0.27084171772003174,-0.8642430901527405
1782846756539834400,5.78283447265625,-0.3964550197124481,0.2044735997915268,-1.1811730861663818
1782846756549839400,5.79283935546875,-0.502444863319397,0.0913114845752716,-1.4502073526382446
1782846756559844400,5.80284423828125,-0.3897305727005005,-0.16749796271324158,-1.4431906938552856
1782846756569848300,5.812848388671875,-0.12738037109375,-0.5079630017280579,-1.1592952013015747
1782846756579853300,5.822853271484375,0.06276959180831909,-0.7885640263557434,-0.592641294002533
1782846756589858300,5.8328583984375,0.04824084788560867,-0.8734128475189209,0.17649459838867188
1782846756599862300,5.8428623046875,-0.11437469720840454,-0.6692423820495605,0.9523296356201172
1782846756609867300,5.8528671875,-0.2753090560436249,-0.2872699201107025,1.417776346206665
1782846756619871200,5.862871337890625,-0.32167840003967285,0.039304204285144806,1.3130677938461304
1782846756629876200,5.872876220703125,-0.24659807980060577,0.11714653670787811,0.6167152523994446
1782846756639881200,5.882881103515625,-0.09016400575637817,-0.00973204243928194,-0.3496569097042084
1782846756649885200,5.89288525390625,0.04542553797364235,-0.14091528952121735,-1.0990841388702393
1782846756659890200,5.90289013671875,0.08496762067079544,-0.150131955742836,-1.4001606702804565
1782846756669895200,5.912895263671875,0.06275368481874466,-0.07169294357299805,-1.3344964981079102
1782846756679899100,5.922899169921875,0.04025635868310928,0.043608877807855606,-1.0254063606262207
1782846756689904000,5.932904052734375,0.052126359194517136,0.157667338848114,-0.5612467527389526
1782846756699909000,5.9429091796875,0.09153767675161362,0.2517147362232208,-0.04328697919845581
1782846756709913300,5.952913330078125,0.15080490708351135,0.28922390937805176,0.41984108090400696
1782846756719918300,5.96291845703125,0.19678039848804474,0.2983047366142273,0.7653226256370544
1782846756729923300,5.97292333984375,0.23039183020591736,0.29192107915878296,1.000654697418213
1782846756739927300,5.98292724609375,0.2548401951789856,0.24240520596504211,1.1552187204360962
1782846756749932300,5.992932373046875,0.2703089416027069,0.14913257956504822,1.248175024986267
1782846756759936300,6.002936279296875,0.2677459418773651,0.04360109195113182,1.254451870918274
1782846756769941200,6.012941162109375,0.22937019169330597,-0.03313310071825981,1.1714653968811035
1782846756779945700,6.02294580078125,0.15183837711811066,-0.04616714268922806,1.0051567554473877
1782846756789949700,6.03294970703125,0.04784403741359711,-0.0033929815981537104,0.7471969723701477
1782846756799954700,6.04295458984375,-0.05377420037984848,0.05090966820716858,0.4216436445713043
1782846756809959700,6.052959716796875,-0.1492883265018463,0.09840169548988342,0.060398656874895096
1782846756819963600,6.062963623046875,-0.2131141871213913,0.13243156671524048,-0.26626014709472656
1782846756829968600,6.07296875,-0.2418380081653595,0.13085131347179413,-0.5080668330192566
1782846756839973600,6.0829736328125,-0.23036672174930573,0.07972687482833862,-0.6881295442581177
1782846756849977900,6.092977783203125,-0.1778029054403305,0.006495003122836351,-0.805576741695404
1782846756859982800,6.10298291015625,-0.08559973537921906,-0.08733908087015152,-0.8484885096549988
1782846756869987800,6.11298779296875,0.020620936527848244,-0.18042901158332825,-0.8424034118652344
1782846756879991600,6.122991455078125,0.11185736954212189,-0.24201221764087677,-0.7894381880760193
1782846756889996500,6.13299658203125,0.13800212740898132,-0.2661627531051636,-0.6860776543617249
1782846756900000500,6.14300048828125,0.09576038271188736,-0.2517600953578949,-0.542160153388977
1782846756910005500,6.153005615234375,0.014678215608000755,-0.22765609622001648,-0.3995073437690735
1782846756920010500,6.163010498046875,-0.07030938565731049,-0.20953568816184998,-0.28572219610214233
1782846756930014700,6.1730146484375,-0.11641234159469604,-0.21018004417419434,-0.22221094369888306
1782846756940019700,6.183019775390625,-0.13122405111789703,-0.21086233854293823,-0.20712627470493317
1782846756950024700,6.193024658203125,-0.13939742743968964,-0.20156091451644897,-0.2515990734100342
1782846756960028700,6.203028564453125,-0.1603735387325287,-0.1710307002067566,-0.3247009813785553
1782846756970033700,6.21303369140625,-0.1820070445537567,-0.1399558186531067,-0.4040033519268036
1782846756980038700,6.22303857421875,-0.21395857632160187,-0.0891842469573021,-0.4301247000694275
1782846756990042600,6.233042724609375,-0.2838039696216583,-0.03810848295688629,-0.40076717734336853
1782846757000047600,6.243047607421875,-0.37283584475517273,0.096612848341465,-0.3264772295951843
1782846757010052600,6.253052490234375,-0.4666796624660492,0.2801838219165802,-0.20767375826835632
1782846757020056800,6.263056884765625,-0.5152343511581421,0.4732041358947754,-0.038891926407814026
1782846757030061800,6.273061767578125,-0.4856281280517578,0.5922858715057373,0.1556403785943985
1782846757040066800,6.28306689453125,-0.378618061542511,0.5951713919639587,0.3070290684700012
1782846757050070500,6.293070556640625,-0.21439053118228912,0.5058675408363342,0.4023911952972412
1782846757060075500,6.303075439453125,-0.04589419811964035,0.3204915523529053,0.4355267882347107
1782846757070079500,6.31307958984375,0.09043098986148834,0.0789576843380928,0.4181630611419678
1782846757080084500,6.32308447265625,0.1745317578315735,-0.1767324060201645,0.4164924621582031
1782846757090089500,6.33308935546875,0.20908215641975403,-0.37732863426208496,0.45639005303382874
1782846757100093700,6.34309375,0.25813543796539307,-0.4368862509727478,0.48732346296310425
1782846757110098700,6.3530986328125,0.3789483606815338,-0.3810395896434784,0.4943362772464752
1782846757120103700,6.363103759765625,0.5472137928009033,-0.23115770518779755,0.4995369017124176
1782846757130107600,6.373107666015625,0.6923316717147827,0.0027541927993297577,0.45696839690208435
1782846757140112600,6.383112548828125,0.7795083522796631,0.27822890877723694,0.3632237911224365
1782846757150117600,6.39311767578125,0.7934962511062622,0.536373496055603,0.2782447338104248
1782846757160121600,6.40312158203125,0.7150003910064697,0.7280539870262146,0.26513800024986267
1782846757170126600,6.413126708984375,0.5807251930236816,0.8016680479049683,0.30305764079093933
1782846757180131600,6.423131591796875,0.46303611993789673,0.7471802830696106,0.3489800989627838
1782846757190135800,6.4331357421875,0.4050675630569458,0.5339809656143188,0.37935712933540344
1782846757200140800,6.443140869140625,0.3921176791191101,0.19551078975200653,0.39820432662963867
1782846757210144500,6.45314453125,0.39311736822128296,-0.1930447369813919,0.43448522686958313
1782846757220149500,6.4631494140625,0.3685036301612854,-0.5452922582626343,0.4862147271633148
1782846757230154500,6.473154541015625,0.3155181109905243,-0.8084031343460083,0.556369960308075
1782846757240158500,6.483158447265625,0.22917497158050537,-0.9427508115768433,0.6363446712493896
1782846757250163500,6.49316357421875,0.11399845033884048,-0.8959721922874451,0.7062549591064453
1782846757260168400,6.50316845703125,0.006780386436730623,-0.7343276143074036,0.7259623408317566
1782846757270172700,6.513172607421875,-0.0678597241640091,-0.48339980840682983,0.6753178834915161
1782846757280177700,6.523177734375,-0.10922926664352417,-0.2345322072505951,0.538001298904419
1782846757290182700,6.5331826171875,-0.12591738998889923,-0.0005411317106336355,0.33164793252944946
1782846757300186600,6.5431865234375,-0.1389908492565155,0.23976413905620575,0.11226365715265274
1782846757310191600,6.553191650390625,-0.1654098480939865,0.4559008479118347,-0.05268225446343422
1782846757320196600,6.563196533203125,-0.2085336148738861,0.5926674604415894,-0.09883430600166321
1782846757330200600,6.57320068359375,-0.23840011656284332,0.6051311492919922,-0.0811980739235878
1782846757340205600,6.58320556640625,-0.2562243938446045,0.5081878304481506,-0.05477631837129593
1782846757350209800,6.593209716796875,-0.2798086106777191,0.36193740367889404,-0.06775511056184769
1782846757360214800,6.60321484375,-0.3216697573661804,0.24988780915737152,-0.13129466772079468
1782846757370219800,6.6132197265625,-0.3868069350719452,0.17666113376617432,-0.24128666520118713
1782846757380223500,6.623223388671875,-0.4454159140586853,0.12957938015460968,-0.39898520708084106
1782846757390228500,6.633228515625,-0.47950100898742676,0.07950136810541153,-0.5749756693840027
1782846757400233500,6.6432333984375,-0.48022645711898804,0.03197060152888298,-0.7147178649902344
1782846757410237400,6.653237548828125,-0.4476892948150635,-0.018416211009025574,-0.7829729914665222
1782846757420242400,6.663242431640625,-0.4038526117801666,-0.08628873527050018,-0.7806150317192078
1782846757430247400,6.673247314453125,-0.36303192377090454,-0.1785111427307129,-0.7231353521347046
1782846757440251600,6.683251708984375,-0.3312079608440399,-0.24434101581573486,-0.6276612877845764
1782846757450256600,6.693256591796875,-0.3216368556022644,-0.2859572172164917,-0.5419425964355469
1782846757460261600,6.70326171875,-0.3322378396987915,-0.29864025115966797,-0.47227880358695984
1782846757470265600,6.713265625,-0.36374610662460327,-0.2646687626838684,-0.39675068855285645
1782846757480270600,6.7232705078125,-0.4292526841163635,-0.1890147626399994,-0.2622455954551697
1782846757490275600,6.733275634765625,-0.5254868865013123,-0.08955522626638412,-0.06767141819000244
1782846757500279600,6.743279541015625,-0.5968832969665527,0.09370487183332443,0.18235625326633453
1782846757510284500,6.753284423828125,-0.6209094524383545,0.33161279559135437,0.47538620233535767
1782846757520288800,6.763288818359375,-0.5866146087646484,0.5247383117675781,0.7301865220069885
1782846757530293800,6.773293701171875,-0.5088046193122864,0.654793381690979,0.8764247298240662
1782846757540298800,6.783298828125,-0.39895668625831604,0.6660431027412415,0.8989244699478149
1782846757550302500,6.793302490234375,-0.2643773555755615,0.564058780670166,0.7632836699485779
1782846757560307500,6.803307373046875,-0.12812736630439758,0.34612512588500977,0.43352070450782776
1782846757570312400,6.8133125,-0.031594861298799515,0.12982092797756195,-0.0627649649977684
1782846757580316400,6.82331640625,-0.06910575181245804,-0.07008738070726395,-0.6303807497024536
1782846757590321700,6.83332177734375,-0.2055494487285614,-0.30215010046958923,-1.080371618270874
1782846757600326700,6.84332666015625,-0.35512644052505493,-0.4949187636375427,-1.3016846179962158
1782846757610330600,6.85333056640625,-0.43700113892555237,-0.6118525266647339,-1.283962607383728
1782846757620335600,6.863335693359375,-0.42482542991638184,-0.5763030052185059,-1.1439772844314575
1782846757630340600,6.873340576171875,-0.3253684937953949,-0.47962769865989685,-0.9003608226776123
1782846757640344600,6.883344482421875,-0.21892142295837402,-0.41077327728271484,-0.5293004512786865
1782846757650349600,6.893349609375,-0.1493643969297409,-0.3728176951408386,-0.13663341104984283
1782846757660354600,6.9033544921875,-0.11226283758878708,-0.3186596632003784,0.10302232205867767
1782846757670358800,6.91335888671875,-0.08488541096448898,-0.32633429765701294,0.1314607411623001
1782846757680363800,6.92336376953125,-0.05869455635547638,-0.39399483799934387,-0.02823597751557827
1782846757690368800,6.93336865234375,-0.038486797362565994,-0.46475785970687866,-0.3108423352241516
1782846757700372700,6.943372802734375,-0.022553104907274246,-0.5064097046852112,-0.6041256189346313
1782846757710377700,6.953377685546875,0.007796320132911205,-0.521428108215332,-0.8149934411048889
1782846757720381400,6.96338134765625,0.057534050196409225,-0.4814269542694092,-0.8895187973976135
1782846757730386700,6.97338671875,0.11049926280975342,-0.36256980895996094,-0.8068984746932983
1782846757740391700,6.9833916015625,0.15617673099040985,-0.1824551373720169,-0.5796139240264893
1782846757750395600,6.993395751953125,0.1931590884923935,0.01246613822877407,-0.2628405690193176
1782846757760400600,7.003400634765625,0.24365848302841187,0.15551437437534332,0.06523797661066055
1782846757770405600,7.013405517578125,0.312591552734375,0.22195152938365936,0.37253981828689575
1782846757780410000,7.02341015625,0.3843107521533966,0.22483280301094055,0.625432014465332
1782846757790415000,7.0334150390625,0.44308707118034363,0.18278294801712036,0.7973245978355408
1782846757800420000,7.043420166015625,0.4628479778766632,0.1224580854177475,0.9005185961723328
1782846757810424000,7.053424072265625,0.4243294298648834,0.10252239555120468,0.9433812499046326
1782846757820429000,7.063428955078125,0.34654757380485535,0.11564379185438156,0.9286624789237976
1782846757830434000,7.07343408203125,0.2376420646905899,0.11763010919094086,0.8500096201896667
1782846757840438000,7.08343798828125,0.12321749329566956,0.1144321858882904,0.7135180830955505
1782846757850443000,7.093443115234375,0.013028137385845184,0.11710919439792633,0.5399391055107117
1782846757860448000,7.103447998046875,-0.06499955803155899,0.09949025511741638,0.35580360889434814
1782846757870452000,7.113451904296875,-0.11540690064430237,0.06328856945037842,0.1876429170370102
1782846757880457000,7.12345703125,-0.15982577204704285,0.0017658215947449207,0.04747888445854187
1782846757890461000,7.1334609375,-0.18433502316474915,-0.07646147161722183,-0.09000664204359055
1782846757900466000,7.1434658203125,-0.19627077877521515,-0.12105584144592285,-0.21714727580547333
1782846757910471000,7.153470947265625,-0.20127157866954803,-0.13119888305664062,-0.3286568820476532
1782846757920475000,7.163474853515625,-0.18545480072498322,-0.11368992924690247,-0.3865465223789215
1782846757930480000,7.173480224609375,-0.1520882397890091,-0.09104759991168976,-0.3939605951309204
1782846757940485000,7.183485107421875,-0.11365562677383423,-0.0760316327214241,-0.35772135853767395
1782846757950489000,7.193489013671875,-0.061340101063251495,-0.0799090638756752,-0.28488850593566895
1782846757960494000,7.203494140625,0.004041832871735096,-0.11157618463039398,-0.18524444103240967
1782846757970499000,7.2134990234375,0.05962405726313591,-0.15247561037540436,-0.06776469945907593
1782846757980503000,7.2235029296875,0.08928927034139633,-0.1790132075548172,0.030662009492516518
1782846757990508000,7.233508056640625,0.09583865851163864,-0.16139428317546844,0.1030682772397995
1782846758000513000,7.243512939453125,0.08539054542779922,-0.11260143667459488,0.16295291483402252
1782846758010517000,7.25351708984375,0.06112382188439369,-0.06967347115278244,0.2111925184726715
1782846758020522000,7.26352197265625,0.027337364852428436,-0.04905315116047859,0.23931311070919037
1782846758030527000,7.27352685546875,-0.013198774307966232,-0.022242307662963867,0.23841261863708496
1782846758040531000,7.283531005859375,-0.09218946099281311,0.006817305460572243,0.23366527259349823
1782846758050536000,7.293535888671875,-0.20434238016605377,0.05615229532122612,0.2361157238483429
1782846758060541000,7.303541015625,-0.2965703308582306,0.16592726111412048,0.25553786754608154
1782846758070545000,7.313544921875,-0.3162167966365814,0.29598692059516907,0.3120989203453064
1782846758080550000,7.3235498046875,-0.23645803332328796,0.36925873160362244,0.38915136456489563
1782846758090554000,7.33355419921875,-0.06180085241794586,0.39559483528137207,0.4798031449317932
1782846758100559000,7.34355908203125,0.18798421323299408,0.39834585785865784,0.5577285885810852
1782846758110564000,7.353564208984375,0.4674147665500641,0.3574323058128357,0.5733121633529663
1782846758120568000,7.363568115234375,0.6721953749656677,0.27337682247161865,0.4875562787055969
1782846758130573000,7.373572998046875,0.7039069533348083,0.1357121765613556,0.3371865153312683
1782846758140578000,7.383578125,0.5763961672782898,-0.035604722797870636,0.21339720487594604
1782846758150582000,7.39358203125,0.3737511932849884,-0.18016882240772247,0.12967488169670105
1782846758160587000,7.4035869140625,0.16600090265274048,-0.21261411905288696,0.0711902603507042
1782846758170592000,7.413592041015625,0.01378275640308857,-0.1288711577653885,0.017547056078910828
1782846758180596000,7.423595947265625,-0.052853524684906006,0.025686468929052353,-0.0773586854338646
1782846758190601000,7.43360107421875,-0.008983256295323372,0.16231662034988403,-0.19609515368938446
1782846758200606200,7.443606201171875,0.07483414560556412,0.2081640064716339,-0.26317858695983887
1782846758210610000,7.45360986328125,0.13634558022022247,0.12679997086524963,-0.2254854142665863
1782846758220615000,7.463614990234375,0.17343755066394806,-0.011934476904571056,-0.0996294841170311
1782846758230620000,7.473619873046875,0.1722620576620102,-0.1645941287279129,0.062303174287080765
1782846758240623900,7.483623779296875,0.16351570188999176,-0.3133865296840668,0.19649986922740936
1782846758250628900,7.49362890625,0.1836429387331009,-0.45917078852653503,0.2636226713657379
1782846758260633900,7.5036337890625,0.2694894075393677,-0.5980026721954346,0.2468559294939041
1782846758270638000,7.51363818359375,0.42643341422080994,-0.7068045139312744,0.16196033358573914
1782846758280643000,7.52364306640625,0.6076231598854065,-0.7074064016342163,0.07724811136722565
1782846758290648000,7.53364794921875,0.740362823009491,-0.5619571208953857,0.03878738358616829
1782846758300652000,7.543652099609375,0.7808857560157776,-0.319851279258728,0.07623009383678436
1782846758310657000,7.553656982421875,0.7781878709793091,-0.06672162562608719,0.18032687902450562
1782846758320661000,7.563660888671875,0.7454464435577393,0.10584694892168045,0.31289610266685486
1782846758330666000,7.573666015625,0.6837747693061829,0.1794918179512024,0.445243775844574
1782846758340671000,7.5836708984375,0.5889947414398193,0.21179115772247314,0.5776857137680054
1782846758350675200,7.59367529296875,0.46211668848991394,0.22970391809940338,0.7269946932792664
1782846758360680200,7.60368017578125,0.29971686005592346,0.23760391771793365,0.885269820690155
1782846758370685200,7.613685302734375,0.1142742931842804,0.19359251856803894,1.0295907258987427
1782846758380689000,7.62368896484375,-0.05692349374294281,0.11213900148868561,1.0973337888717651
1782846758390694000,7.63369384765625,-0.20987845957279205,0.018007243052124977,1.0627930164337158
1782846758400699000,7.643698974609375,-0.3340100049972534,-0.0614849217236042,0.9273717403411865
1782846758410702800,7.653702880859375,-0.4074840545654297,-0.12048599123954773,0.6996599435806274
1782846758420707800,7.663707763671875,-0.43685099482536316,-0.12822964787483215,0.4028788208961487
1782846758430712800,7.673712890625,-0.44303542375564575,-0.08203539997339249,0.06993360817432404
1782846758440717000,7.683717041015625,-0.44204285740852356,-0.048807673156261444,-0.2572711408138275
1782846758450722000,7.69372216796875,-0.44417738914489746,-0.03869425505399704,-0.5319899916648865
1782846758460727000,7.70372705078125,-0.4442250728607178,-0.03128853440284729,-0.7203508615493774
1782846758470731000,7.71373095703125,-0.4410136044025421,-0.029642635956406593,-0.8294365406036377
1782846758480736000,7.723736083984375,-0.4244695007801056,-0.016411786898970604,-0.8674132227897644
1782846758490741000,7.733740966796875,-0.39678195118904114,0.03077496960759163,-0.8342525959014893
1782846758500745000,7.743744873046875,-0.36060237884521484,0.09932366758584976,-0.7403812408447266
1782846758510750000,7.75375,-0.3331052362918854,0.1560041904449463,-0.5941054821014404
1782846758520755000,7.7637548828125,-0.3245013654232025,0.17610466480255127,-0.41136014461517334
1782846758530759200,7.77375927734375,-0.330841064453125,0.1787864714860916,-0.2183566689491272
1782846758540764200,7.78376416015625,-0.3716513514518738,0.2680303156375885,-0.031939659267663956
1782846758550767900,7.793767822265625,-0.4319778084754944,0.49475720524787903,0.169039785861969
1782846758560772900,7.80377294921875,-0.48064786195755005,0.7801311612129211,0.3913666009902954
1782846758570777900,7.81377783203125,-0.47135844826698303,0.9721099734306335,0.6196157932281494
1782846758580781800,7.82378173828125,-0.38861003518104553,1.0314831733703613,0.7436724901199341
1782846758590786800,7.833786865234375,-0.27077415585517883,1.0030943155288696,0.6975947022438049
1782846758600791800,7.843791748046875,-0.07400701940059662,0.8050635457038879,0.48138725757598877
1782846758610796000,7.853796142578125,0.1675327867269516,0.4695509970188141,0.15520796179771423
1782846758620801000,7.863801025390625,0.3135930299758911,0.1312243491411209,-0.2749412953853607
1782846758630806000,7.873805908203125,0.30116569995880127,-0.0812142863869667,-0.8738446235656738
1782846758640810000,7.88381005859375,0.14169719815254211,-0.15157847106456757,-1.5406959056854248
1782846758650815000,7.89381494140625,-0.08070298284292221,-0.13623012602329254,-1.980320692062378
1782846758660820000,7.903820068359375,-0.14788681268692017,-0.10924431681632996,-2.0031213760375977
1782846758670824000,7.913823974609375,0.03565654158592224,-0.13108325004577637,-1.746662974357605
1782846758680829000,7.923828857421875,0.3303387761116028,-0.24666044116020203,-1.203822374343872
1782846758690834000,7.933833984375,0.5214343070983887,-0.4067816138267517,-0.40107491612434387
1782846758700838100,7.943838134765625,0.5229323506355286,-0.3930050730705261,0.4261325001716614
1782846758710843100,7.953843017578125,0.4088982939720154,-0.1317630112171173,0.998849093914032
1782846758720848100,7.96384814453125,0.3255370855331421,0.19223076105117798,1.0854381322860718
1782846758730851800,7.973851806640625,0.383193701505661,0.4315143823623657,0.5127298831939697
1782846758740856800,7.98385693359375,0.4928371012210846,0.55626380443573,-0.44621744751930237
1782846758750861800,7.99386181640625,0.5023902058601379,0.684772253036499,-1.304823398590088
1782846758760866000,8.003865966796875,0.3908844292163849,0.8041287064552307,-1.758592963218689
1782846758770871000,8.01387109375,0.2598949074745178,0.9149105548858643,-1.807997703552246
1782846758780879400,8.02387939453125,0.1818815916776657,0.9676030278205872,-1.5084607601165771
1782846758790883300,8.03388330078125,0.16784946620464325,0.919363796710968,-1.0029199123382568
1782846758800888300,8.043888427734375,0.21157191693782806,0.7654927968978882,-0.4690760374069214
1782846758810893300,8.053893310546876,0.2646687626838684,0.5555983185768127,-0.02641630545258522
1782846758820897300,8.063897216796875,0.28048020601272583,0.37561285495758057,0.2591584324836731
1782846758830902300,8.07390234375,0.2514311671257019,0.21280668675899506,0.3949121832847595
1782846758840906200,8.08390625,0.2741204798221588,0.009851175360381603,0.4505078196525574
1782846758850911200,8.0939111328125,0.33896225690841675,-0.18977831304073334,0.46698030829429626
1782846758860916200,8.103916259765626,0.5002193450927734,-0.30476588010787964,0.4357885718345642
1782846758870920200,8.113920166015625,0.6407715678215027,-0.21611104905605316,0.4416324198246002
1782846758880925200,8.12392529296875,0.7513241767883301,-0.1574791669845581,0.5600906610488892
1782846758890930200,8.13393017578125,0.7472226023674011,-0.062007367610931396,0.6628748774528503
1782846758900934100,8.14393408203125,0.6371152400970459,0.01179867796599865,0.6928042769432068
1782846758910939100,8.153939208984376,0.449812650680542,0.1813168078660965,0.6535224318504333
1782846758920944000,8.163944091796875,0.29452455043792725,0.39963820576667786,0.5909098982810974
1782846758930948400,8.1739482421875,0.22551262378692627,0.5429679155349731,0.5173092484474182
1782846758940953300,8.183953369140625,0.2261616438627243,0.5675569176673889,0.43427082896232605
1782846758950958300,8.193958251953125,0.22612059116363525,0.41635847091674805,0.3602104187011719
1782846758960962300,8.20396240234375,0.2360192984342575,0.20240384340286255,0.26627781987190247
1782846758970967300,8.21396728515625,0.26712825894355774,-0.0016458230093121529,0.19731447100639343
1782846758980972300,8.22397216796875,0.298562616109848,-0.14054112136363983,0.16211733222007751
1782846758990976300,8.233976318359375,0.3441881537437439,-0.18793126940727234,0.18203511834144592
1782846759000981200,8.243981201171875,0.39511629939079285,-0.11039866507053375,0.2550494074821472
1782846759010986200,8.253986328125,0.4433225393295288,0.005179992876946926,0.3519553542137146
1782846759020990200,8.263990234375,0.47653481364250183,0.11157940328121185,0.4322770833969116
1782846759030995200,8.2739951171875,0.4559302031993866,0.18170902132987976,0.4800364673137665
1782846759041000200,8.284000244140625,0.3278167247772217,0.21199209988117218,0.5184504389762878
1782846759051004200,8.294004150390625,0.2480618953704834,0.2209225296974182,0.5150224566459656
1782846759061009200,8.304009033203124,0.1598830372095108,0.11531994491815567,0.471060574054718
1782846759071014100,8.31401416015625,0.03988560289144516,0.020392101258039474,0.3949523866176605
1782846759081018000,8.32401806640625,-0.11000403016805649,-0.051817115396261215,0.2969011664390564
1782846759091023000,8.334023193359375,-0.24699264764785767,-0.11372136324644089,0.2275947630405426
1782846759101027300,8.34402734375,-0.3197643458843231,-0.20768700540065765,0.17045265436172485
1782846759111032300,8.3540322265625,-0.3461044430732727,-0.29416424036026,0.11479609459638596
1782846759121037300,8.364037353515625,-0.35428035259246826,-0.10877787321805954,0.31437525153160095
1782846759131041300,8.374041259765624,-0.24942398071289062,0.07603971660137177,0.3661269545555115
1782846759141046300,8.38404638671875,-0.11759883165359497,0.15733110904693604,0.34830987453460693
1782846759151051300,8.39405126953125,-0.08681569993495941,0.03249869495630264,0.36041125655174255
1782846759161055200,8.40405517578125,-0.11374185979366302,-0.1236024871468544,0.35272112488746643
1782846759171060200,8.414060302734375,-0.16807860136032104,-0.2286602109670639,0.33980318903923035
1782846759181065200,8.424065185546874,-0.19121401011943817,-0.25782766938209534,0.3333841860294342
1782846759191069200,8.434069091796875,-0.17874224483966827,-0.3183864951133728,0.29145121574401855
