time,seconds_elapsed,z,y,x
1782846750823439600,0.066439697265625,-0.5077569484710693,0.10378924757242203,0.0457211509346962
1782846750833443600,0.076443603515625,-0.42967867851257324,0.2109156996011734,-0.25735509395599365
1782846750843448600,0.086448486328125,-0.3563799560070038,0.1947777420282364,-0.4386255443096161
1782846750853453600,0.09645361328125,-0.3772159814834595,-0.03737906366586685,-0.45479387044906616
1782846750863457800,0.106457763671875,-0.4698351323604584,-0.34045636653900146,-0.4745444059371948
1782846750873462800,0.116462890625,-0.5748843550682068,-0.5511270761489868,-0.6095235347747803
1782846750883466800,0.126466796875,-0.6635321974754333,-0.6859576106071472,-0.8168429136276245
1782846750893471700,0.1364716796875,-0.7019463777542114,-0.9331657886505127,-0.9439164400100708
1782846750903476700,0.146476806640625,-0.6111502051353455,-1.0008140802383423,-1.0269641876220703
1782846750913480700,0.156480712890625,-0.35420575737953186,-0.8116252422332764,-1.0164806842803955
1782846750923485700,0.166485595703125,0.00407570181414485,-0.5461354851722717,-0.8717391490936279
1782846750933490700,0.17649072265625,0.3351724147796631,-0.3231583535671234,-0.6648133993148804
1782846750943494700,0.18649462890625,0.5275013446807861,-0.21445290744304657,-0.4530468285083771
1782846750953499600,0.196499755859375,0.5383145809173584,-0.24176070094108582,-0.28528180718421936
1782846750963503600,0.206503662109375,0.4308334290981293,-0.34827861189842224,-0.19857461750507355
1782846750973508600,0.216508544921875,0.2691715359687805,-0.48514166474342346,-0.1916261613368988
1782846750983513600,0.226513671875,0.10103686898946762,-0.6287528872489929,-0.26017245650291443
1782846750993517600,0.236517578125,-0.03993916139006615,-0.7536926865577698,-0.36922651529312134
1782846751003522600,0.2465224609375,-0.15537920594215393,-0.8072651028633118,-0.5031172037124634
1782846751013527600,0.256527587890625,-0.24349601566791534,-0.7538948059082031,-0.6370542049407959
1782846751023531800,0.26653173828125,-0.3108798563480377,-0.6224912405014038,-0.7356936931610107
1782846751033536800,0.276536865234375,-0.35114070773124695,-0.4707092046737671,-0.7578389644622803
1782846751043540700,0.286540771484375,-0.3709447681903839,-0.31399068236351013,-0.7177477478981018
1782846751053545700,0.296545654296875,-0.3812189996242523,-0.19264374673366547,-0.6540558338165283
1782846751063550700,0.30655078125,-0.36935752630233765,-0.12186305224895477,-0.5810276865959167
1782846751073554700,0.3165546875,-0.3430521488189697,-0.08119392395019531,-0.5010346174240112
1782846751083559700,0.3265595703125,-0.31432411074638367,-0.04194824770092964,-0.4173431694507599
1782846751093564700,0.336564697265625,-0.29794034361839294,0.020855747163295746,-0.32699331641197205
1782846751103568600,0.346568603515625,-0.30588480830192566,0.12070191651582718,-0.21655814349651337
1782846751113573600,0.35657373046875,-0.32399246096611023,0.22781771421432495,-0.06527194380760193
1782846751123577600,0.36657763671875,-0.3365902602672577,0.33928459882736206,0.11636868864297867
1782846751133582600,0.37658251953125,-0.32695016264915466,0.39764776825904846,0.2682833969593048
1782846751143587600,0.386587646484375,-0.2998189330101013,0.4106850028038025,0.3632519841194153
1782846751153591600,0.396591552734375,-0.25423920154571533,0.390362948179245,0.3895759880542755
1782846751163596500,0.406596435546875,-0.20445381104946136,0.35063230991363525,0.34913375973701477
1782846751173601500,0.4166015625,-0.15756405889987946,0.3363175690174103,0.2540740966796875
1782846751183605800,0.426605712890625,-0.11201974749565125,0.33605629205703735,0.1284613013267517
1782846751193610800,0.43661083984375,-0.06638967245817184,0.30589041113853455,0.019748670980334282
1782846751203614700,0.44661474609375,-0.018257301300764084,0.24105948209762573,-0.05096784234046936
1782846751213619700,0.45661962890625,0.021989988163113594,0.15901894867420197,-0.07492164522409439
1782846751223624700,0.466624755859375,0.03388020396232605,0.1058819591999054,-0.06767331808805466
1782846751233628700,0.476628662109375,0.025250760838389397,0.08712345361709595,-0.029859628528356552
1782846751243633700,0.486633544921875,-0.002119077369570732,0.07523670047521591,0.031030086800456047
1782846751253638700,0.496638671875,-0.02689073607325554,0.03688770905137062,0.08206211030483246
1782846751263642600,0.506642578125,-0.03570207208395004,0.053052034229040146,0.1181625947356224
1782846751273647600,0.516647705078125,-0.04053570702672005,0.11436305940151215,0.1464030146598816
1782846751283651600,0.526651611328125,-0.057313092052936554,0.284342497587204,0.20118743181228638
1782846751293656600,0.536656494140625,-0.07946605980396271,0.5064506530761719,0.28219175338745117
1782846751303661600,0.54666162109375,-0.11187140643596649,0.7460004091262817,0.3616543412208557
1782846751313665500,0.55666552734375,-0.11172866076231003,0.9423169493675232,0.4331655502319336
1782846751323670500,0.56667041015625,-0.08144186437129974,1.036385416984558,0.4794744551181793
1782846751333675500,0.576675537109375,-0.027296070009469986,1.062563419342041,0.5155147314071655
1782846751343679700,0.5866796875,0.05228983610868454,0.9992915391921997,0.5159560441970825
1782846751353684700,0.596684814453125,0.1213005930185318,0.7725822329521179,0.38465607166290283
1782846751363688700,0.606688720703125,0.17637397348880768,0.4772741496562958,0.03743152692914009
1782846751373693700,0.616693603515625,0.1779731959104538,0.2480769157409668,-0.43989482522010803
1782846751383698700,0.62669873046875,0.05213484168052673,-0.0035057852510362864,-0.7361627221107483
1782846751393702700,0.63670263671875,-0.12916651368141174,-0.2811485826969147,-0.7585050463676453
1782846751403707600,0.646707763671875,-0.2790822386741638,-0.46747905015945435,-0.6597678065299988
1782846751413712600,0.656712646484375,-0.3483814299106598,-0.4869491457939148,-0.5119506120681763
1782846751423716600,0.666716552734375,-0.3570851683616638,-0.3539644777774811,-0.36791038513183594
1782846751433721600,0.6767216796875,-0.3116529583930969,-0.18978990614414215,-0.25304317474365234
1782846751443725600,0.6867255859375,-0.21781274676322937,-0.10516689717769623,-0.14100079238414764
1782846751453730600,0.69673046875,-0.11625976115465164,-0.12545432150363922,-0.0246060099452734
1782846751463735600,0.706735595703125,-0.03461789712309837,-0.20952020585536957,0.04834303259849548
1782846751473739500,0.716739501953125,0.047022368758916855,-0.3398593068122864,0.049919623881578445
1782846751483744500,0.72674462890625,0.1474035680294037,-0.473448246717453,-0.020265856757760048
1782846751493749500,0.73674951171875,0.2808939814567566,-0.5374770164489746,-0.11815060675144196
1782846751503753700,0.746753662109375,0.433472603559494,-0.47736284136772156,-0.17986243963241577
1782846751513758700,0.7567587890625,0.5845071077346802,-0.2846144139766693,-0.1931859701871872
1782846751523762700,0.7667626953125,0.6933020353317261,-0.022898390889167786,-0.13887132704257965
1782846751533767700,0.776767578125,0.7610054612159729,0.2197299599647522,-0.018517492339015007
1782846751543772700,0.786772705078125,0.7989919781684875,0.3768191933631897,0.1500062793493271
1782846751553776600,0.796776611328125,0.807249128818512,0.45362767577171326,0.3334381580352783
1782846751563781600,0.80678173828125,0.7690609693527222,0.47270309925079346,0.4946014881134033
1782846751573786600,0.81678662109375,0.6716849207878113,0.4596861004829407,0.6049482226371765
1782846751583790600,0.82679052734375,0.52899569272995,0.3994334042072296,0.6583651304244995
1782846751593795800,0.8367958984375,0.3645031154155731,0.29873448610305786,0.6567208766937256
1782846751603799600,0.846799560546875,0.1998710334300995,0.20366284251213074,0.6191084980964661
1782846751613804500,0.856804443359375,0.04150909185409546,0.10805456340312958,0.5615637302398682
1782846751623809500,0.8668095703125,-0.09961607307195663,0.023754065856337547,0.4990212619304657
1782846751633813500,0.8768134765625,-0.22153106331825256,-0.05452555790543556,0.43070876598358154
1782846751643818500,0.886818603515625,-0.32474371790885925,-0.11956021934747696,0.3348024785518646
1782846751653823500,0.896823486328125,-0.41195639967918396,-0.1630307286977768,0.21474985778331757
1782846751663827700,0.90682763671875,-0.49259984493255615,-0.19337478280067444,0.06449936330318451
1782846751673832700,0.916832763671875,-0.548353374004364,-0.2142566293478012,-0.10890278220176697
1782846751683836700,0.926836669921875,-0.5825731158256531,-0.23292139172554016,-0.2638409733772278
1782846751693841700,0.936841552734375,-0.5902408957481384,-0.2587530016899109,-0.38537004590034485
1782846751703846700,0.9468466796875,-0.5605155229568481,-0.29254716634750366,-0.4725997745990753
1782846751713850600,0.9568505859375,-0.5108603239059448,-0.31728795170783997,-0.5344679355621338
1782846751723855600,0.966855712890625,-0.447818785905838,-0.2918108105659485,-0.5401048064231873
1782846751733860600,0.976860595703125,-0.38998639583587646,-0.21621139347553253,-0.49737489223480225
1782846751743864800,0.98686474609375,-0.33137285709381104,-0.13831712305545807,-0.3996235728263855
1782846751753869800,0.996869873046875,-0.27484461665153503,-0.10714828968048096,-0.26928046345710754
1782846751763873500,1.00687353515625,-0.22999857366085052,-0.13177508115768433,-0.13184352219104767
1782846751773878500,1.01687841796875,-0.19971710443496704,-0.17922034859657288,-0.023918116465210915
1782846751783883500,1.026883544921875,-0.19902893900871277,-0.20613399147987366,0.06596836447715759
1782846751793887500,1.036887451171875,-0.2192644476890564,-0.18807083368301392,0.12824425101280212
1782846751803892500,1.046892578125,-0.2653970420360565,-0.10629448294639587,0.15801972150802612
1782846751813897700,1.056897705078125,-0.31095361709594727,0.08258329331874847,0.16160407662391663
1782846751823901400,1.0669013671875,-0.3545045554637909,0.3569413423538208,0.17890477180480957
1782846751833906400,1.076906494140625,-0.3488219082355499,0.5941743850708008,0.29566147923469543
1782846751843910400,1.086910400390625,-0.2800934314727783,0.7297961711883545,0.480697363615036
1782846751853915400,1.096915283203125,-0.13989292085170746,0.7649104595184326,0.6402233839035034
1782846751863920400,1.10692041015625,0.06541123241186142,0.6321148872375488,0.7249598503112793
1782846751873924600,1.116924560546875,0.26801812648773193,0.3496754467487335,0.6914663314819336
1782846751883929600,1.1269296875,0.35142168402671814,0.052746035158634186,0.5453879833221436
1782846751893934600,1.1369345703125,0.2538096308708191,-0.20179730653762817,0.42710551619529724
1782846751903938600,1.1469384765625,0.07141239941120148,-0.33472710847854614,0.472552627325058
1782846751913943600,1.156943603515625,-0.0802980363368988,-0.3296830952167511,0.6345551013946533
1782846751923947500,1.166947509765625,-0.1702934354543686,-0.2533915340900421,0.7883443832397461
1782846751933952500,1.176952392578125,-0.2424967885017395,-0.15820161998271942,0.8166908621788025
1782846751943957500,1.18695751953125,-0.32171517610549927,-0.08090043812990189,0.7224112153053284
1782846751953961500,1.19696142578125,-0.41686806082725525,-0.04797738045454025,0.5422585010528564
1782846751963966700,1.206966796875,-0.5399079918861389,-0.0659707635641098,0.312726229429245
1782846751973971700,1.2169716796875,-0.6561858654022217,-0.1470336616039276,0.06847146898508072
1782846751983975400,1.226975341796875,-0.6994597911834717,-0.304436057806015,-0.1392441689968109
1782846751993980400,1.23698046875,-0.6736971735954285,-0.5304548144340515,-0.28948986530303955
1782846752003984400,1.246984375,-0.5895687341690063,-0.7644135355949402,-0.38798394799232483
1782846752013989400,1.2569892578125,-0.4352063238620758,-0.947633683681488,-0.4585667848587036
1782846752023994400,1.266994384765625,-0.2340090274810791,-1.0272376537322998,-0.502322256565094
1782846752033998600,1.27699853515625,-0.03856683149933815,-1.0314526557922363,-0.48701387643814087
1782846752044003600,1.287003662109375,0.11610130220651627,-0.9851258993148804,-0.4185914099216461
1782846752054008600,1.297008544921875,0.22712555527687073,-0.8697628378868103,-0.286166250705719
1782846752064012500,1.307012451171875,0.28149718046188354,-0.6731683015823364,-0.0753546729683876
1782846752074017500,1.317017578125,0.2791765034198761,-0.43188217282295227,0.19246558845043182
1782846752084021500,1.327021484375,0.24263900518417358,-0.20762430131435394,0.49072444438934326
1782846752094026500,1.337026611328125,0.18268805742263794,-0.015137141570448875,0.7599292993545532
1782846752104031500,1.347031494140625,0.10692404955625534,0.09458828717470169,0.9693728089332581
1782846752114035700,1.35703564453125,0.026436667889356613,0.09070460498332977,1.133846402168274
1782846752124040700,1.367040771484375,-0.042264100164175034,0.01085770782083273,1.274455189704895
1782846752134045700,1.377045654296875,-0.08745954185724258,-0.0729953795671463,1.3731982707977295
1782846752144049400,1.38704931640625,-0.11313747614622116,-0.11066552996635437,1.3925567865371704
1782846752154054400,1.397054443359375,-0.11418808996677399,-0.07570274919271469,1.3300976753234863
1782846752164058400,1.407058349609375,-0.08269434422254562,0.001787779969163239,1.17447030544281
1782846752174063400,1.4170634765625,-0.033790454268455505,0.07709558308124542,0.9168105125427246
1782846752184068400,1.427068359375,0.02028023824095726,0.1576993465423584,0.5964894890785217
1782846752194072600,1.437072509765625,0.06666345149278641,0.2306087166070938,0.2877998352050781
1782846752204077600,1.44707763671875,0.1127915307879448,0.2582744359970093,0.023243270814418793
1782846752214082600,1.45708251953125,0.13935309648513794,0.23525992035865784,-0.2025432586669922
1782846752224086500,1.46708642578125,0.14693644642829895,0.19493220746517181,-0.3773347735404968
1782846752234091500,1.477091552734375,0.1511644870042801,0.16403794288635254,-0.5030346512794495
1782846752244095500,1.487095458984375,0.1370827555656433,0.1475745439529419,-0.5968500971794128
1782846752254100500,1.4971005859375,0.11836845427751541,0.1329500675201416,-0.6749472618103027
1782846752264105500,1.50710546875,0.09163510799407959,0.12016209214925766,-0.7400474548339844
1782846752274109700,1.517109619140625,0.06860249489545822,0.1423342376947403,-0.7704319953918457
1782846752284114700,1.52711474609375,0.04214132949709892,0.19627922773361206,-0.7332761287689209
1782846752294119700,1.53711962890625,0.018786737695336342,0.28784191608428955,-0.6157819628715515
1782846752304123400,1.547123291015625,-0.026574619114398956,0.4363035559654236,-0.4470960199832916
1782846752314128400,1.55712841796875,-0.0821065902709961,0.5930519104003906,-0.2642449736595154
1782846752324132400,1.56713232421875,-0.15832306444644928,0.6663985252380371,-0.09034188091754913
1782846752334137300,1.577137451171875,-0.22221389412879944,0.649360179901123,0.050828561186790466
1782846752344142300,1.587142333984375,-0.22079762816429138,0.6020435094833374,0.11092571914196014
1782846752354146600,1.597146484375,-0.16532957553863525,0.6220231056213379,0.031092671677470207
1782846752364151600,1.607151611328125,-0.06547008454799652,0.6674126386642456,-0.19966064393520355
1782846752374156500,1.617156494140625,0.09154296666383743,0.632398784160614,-0.4907050132751465
1782846752384160500,1.627160400390625,0.21325555443763733,0.5434334874153137,-0.7311362624168396
1782846752394165500,1.63716552734375,0.23769591748714447,0.41389918327331543,-0.8753016591072083
1782846752404169500,1.64716943359375,0.14432601630687714,0.17057786881923676,-0.8207388520240784
1782846752414174500,1.657174560546875,-0.028450017794966698,-0.16593757271766663,-0.6488320827484131
1782846752424179500,1.667179443359375,-0.21648676693439484,-0.4420658349990845,-0.5841315984725952
1782846752434183700,1.67718359375,-0.34554702043533325,-0.5445559620857239,-0.7248839735984802
1782846752444188700,1.687188720703125,-0.3858529031276703,-0.5027046799659729,-0.8839159607887268
1782846752454193700,1.697193603515625,-0.32624122500419617,-0.3805188536643982,-0.839515745639801
1782846752464197400,1.707197265625,-0.15656031668186188,-0.31159862875938416,-0.5560083985328674
1782846752474202400,1.717202392578125,0.041478466242551804,-0.3169936537742615,-0.0831926241517067
1782846752484206300,1.727206298828125,0.15292802453041077,-0.3302682042121887,0.4861065149307251
1782846752494211300,1.73721142578125,0.19075636565685272,-0.29188430309295654,1.021384596824646
1782846752504216300,1.74721630859375,0.265213280916214,-0.2501467168331146,1.3351470232009888
1782846752514220500,1.757220458984375,0.41672345995903015,-0.21064326167106628,1.2860924005508423
1782846752524225500,1.7672255859375,0.6160288453102112,-0.09512704610824585,0.9294368028640747
1782846752534230500,1.77723046875,0.7638137936592102,0.10204194486141205,0.44094622135162354
1782846752544234500,1.787234375,0.7589929103851318,0.33781400322914124,-0.014223410747945309
1782846752554239500,1.797239501953125,0.6207548975944519,0.5179632306098938,-0.2942824959754944
1782846752564243500,1.807243408203125,0.44933733344078064,0.5419202446937561,-0.38722336292266846
1782846752574248400,1.81724853515625,0.2758859097957611,0.43592217564582825,-0.3215479254722595
1782846752584253400,1.82725341796875,0.11311031132936478,0.26538240909576416,-0.1739928275346756
1782846752594257700,1.837257568359375,-0.03927896171808243,0.10232317447662354,-0.021951371803879738
1782846752604262700,1.8472626953125,-0.18905088305473328,-0.0025515747256577015,0.0871138647198677
1782846752614266400,1.857266357421875,-0.3228488862514496,-0.06892979890108109,0.15559226274490356
1782846752624271400,1.867271240234375,-0.41306161880493164,-0.14898282289505005,0.17860117554664612
1782846752634276400,1.8772763671875,-0.461191326379776,-0.22705897688865662,0.14972583949565887
1782846752644280300,1.8872802734375,-0.4570152163505554,-0.26366519927978516,0.09278400242328644
1782846752654285300,1.897285400390625,-0.42270544171333313,-0.2671033442020416,0.03350842371582985
1782846752664290300,1.907290283203125,-0.3801547884941101,-0.2565907835960388,-0.024213993921875954
1782846752674294500,1.91729443359375,-0.34532836079597473,-0.2205512821674347,-0.08661052584648132
1782846752684299500,1.927299560546875,-0.32175514101982117,-0.18582552671432495,-0.16791337728500366
1782846752694304500,1.937304443359375,-0.32011115550994873,-0.17230039834976196,-0.2663528621196747
1782846752704308500,1.94730859375,-0.3582729399204254,-0.1672300100326538,-0.3517284691333771
1782846752714313500,1.9573134765625,-0.39547330141067505,-0.14605467021465302,-0.4208707809448242
1782846752724317400,1.9673173828125,-0.3973798453807831,-0.11433296650648117,-0.4976058006286621
1782846752734322400,1.977322509765625,-0.37610092759132385,-0.09379466623067856,-0.581741988658905
1782846752744327400,1.987327392578125,-0.33608001470565796,-0.07020065933465958,-0.6481897234916687
1782846752754331600,1.99733154296875,-0.28102847933769226,-0.06515397131443024,-0.6810839772224426
1782846752764336600,2.007336669921875,-0.22884222865104675,-0.0737953931093216,-0.6637188792228699
1782846752774342000,2.017341796875,-0.19627469778060913,-0.08163174241781235,-0.596096396446228
1782846752784345900,2.027345947265625,-0.18275170028209686,-0.10455010831356049,-0.5063601136207581
1782846752794350800,2.037350830078125,-0.1773550808429718,-0.1250002533197403,-0.4234868288040161
1782846752804354800,2.047354736328125,-0.19714263081550598,-0.14072009921073914,-0.3833622932434082
1782846752814359800,2.05735986328125,-0.25407248735427856,-0.042446259409189224,-0.39348363876342773
1782846752824364800,2.06736474609375,-0.36634230613708496,0.1835935264825821,-0.4337274730205536
1782846752834369000,2.077369140625,-0.48759815096855164,0.49440625309944153,-0.4317479431629181
1782846752844374000,2.0873740234375,-0.5640679001808167,0.8338812589645386,-0.32889533042907715
1782846752854379000,2.09737890625,-0.5403212904930115,1.1340466737747192,-0.11167939007282257
1782846752864383000,2.107383056640625,-0.33372125029563904,1.2055374383926392,0.1420133262872696
1782846752874388000,2.117387939453125,0.04173998907208443,0.9895731210708618,0.28638356924057007
1782846752884392000,2.127391845703125,0.40696802735328674,0.582942545413971,0.2156769037246704
1782846752894397000,2.13739697265625,0.5715420842170715,0.16332846879959106,0.035957735031843185
1782846752904402000,2.14740185546875,0.4978039264678955,-0.20306043326854706,-0.02972087822854519
1782846752914406000,2.157406005859375,0.3221761882305145,-0.4565025568008423,0.13405820727348328
1782846752924411000,2.167410888671875,0.18958750367164612,-0.5763469338417053,0.42480960488319397
1782846752934416000,2.177415771484375,0.1603076457977295,-0.5891761779785156,0.7223100066184998
1782846752944419800,2.187419921875,0.17135123908519745,-0.5066613554954529,0.9358156323432922
1782846752954424800,2.1974248046875,0.16597405076026917,-0.4013415575027466,1.0189744234085083
1782846752964428800,2.2074287109375,0.10277298092842102,-0.3331047296524048,0.990683913230896
1782846752974433800,2.217433837890625,0.015081214718520641,-0.3507753312587738,0.884273886680603
1782846752984438800,2.227438720703125,-0.07630302757024765,-0.4543755054473877,0.7485405206680298
1782846752994443000,2.237443115234375,-0.14683417975902557,-0.6004799604415894,0.621273398399353
1782846753004448000,2.247447998046875,-0.18610835075378418,-0.7373635172843933,0.4962598383426666
1782846753014453000,2.257452880859375,-0.1982869952917099,-0.8254656791687012,0.38753628730773926
1782846753024457000,2.26745703125,-0.17577847838401794,-0.8399292826652527,0.3001723289489746
1782846753034462000,2.2774619140625,-0.12236559391021729,-0.7829065322875977,0.23468920588493347
1782846753044466000,2.2874658203125,-0.04919950291514397,-0.6818749904632568,0.15268169343471527
1782846753054471000,2.297470947265625,0.030101176351308823,-0.5435476899147034,0.06644213944673538
1782846753064476000,2.307475830078125,0.09413715451955795,-0.40721622109413147,0.0026900589000433683
1782846753074479900,2.31747998046875,0.13689127564430237,-0.270255446434021,0.027307787910103798
1782846753084484900,2.32748486328125,0.16585128009319305,-0.11210549622774124,0.1710851937532425
1782846753094489900,2.33748974609375,0.18177032470703125,0.06202475354075432,0.4109193682670593
1782846753104493800,2.347493896484375,0.185543492436409,0.1973263919353485,0.6743922829627991
1782846753114498800,2.357498779296875,0.17541176080703735,0.28376248478889465,0.8898723721504211
1782846753124502800,2.367502685546875,0.1511668860912323,0.34541890025138855,1.0337121486663818
1782846753134507800,2.3775078125,0.14104554057121277,0.3751983940601349,1.1243418455123901
1782846753144512800,2.3875126953125,0.14312812685966492,0.37960749864578247,1.1063125133514404
1782846753154517000,2.39751708984375,0.15486495196819305,0.38632747530937195,0.9786818623542786
1782846753164522000,2.40752197265625,0.1746666133403778,0.38810911774635315,0.7519112825393677
1782846753174527000,2.41752685546875,0.19787073135375977,0.3758585751056671,0.45270994305610657
1782846753184531000,2.427531005859375,0.20936307311058044,0.32898083329200745,0.15349501371383667
1782846753194536000,2.437535888671875,0.2135825902223587,0.23479600250720978,-0.11703047901391983
1782846753204540000,2.447539794921875,0.21822181344032288,0.136076882481575,-0.32562071084976196
1782846753214545000,2.457544921875,0.22229218482971191,0.04749268293380737,-0.48793503642082214
1782846753224550000,2.4675498046875,0.20369213819503784,-0.03073980286717415,-0.6145140528678894
1782846753234553900,2.477553955078125,0.17088864743709564,-0.05931658670306206,-0.7007676959037781
1782846753244558800,2.487558837890625,0.12436216324567795,-0.04837046191096306,-0.7442067861557007
1782846753254563800,2.497563720703125,0.07549235969781876,0.01082788035273552,-0.7509962320327759
1782846753264567800,2.50756787109375,0.030672159045934677,0.09501226246356964,-0.718561053276062
1782846753274572800,2.51757275390625,-0.00020266656065359712,0.17095176875591278,-0.6630282998085022
1782846753284576800,2.52757666015625,-0.018918298184871674,0.24896986782550812,-0.5884824395179749
1782846753294582000,2.53758203125,-0.03723818063735962,0.3384494185447693,-0.47687387466430664
1782846753304587000,2.5475869140625,-0.05547577515244484,0.4168164134025574,-0.33412498235702515
1782846753314591000,2.557591064453125,-0.09125135093927383,0.524288535118103,-0.19001440703868866
1782846753324596000,2.567595947265625,-0.15246038138866425,0.6688656806945801,-0.03796948492527008
1782846753334601000,2.57760107421875,-0.21431629359722137,0.8008924126625061,0.11048789322376251
1782846753344605000,2.58760498046875,-0.2282869666814804,0.8999133110046387,0.22485202550888062
1782846753354610000,2.59760986328125,-0.15596403181552887,0.9484757781028748,0.2419402003288269
1782846753364614000,2.60761376953125,0.013945110142230988,0.936811089515686,0.13108105957508087
1782846753374619000,2.617618896484375,0.2551470696926117,0.7557784914970398,-0.08601611107587814
1782846753384624000,2.6276240234375,0.5220592021942139,0.5370466709136963,-0.4043796956539154
1782846753394627800,2.6376279296875,0.6466506719589233,0.36009320616722107,-0.832724928855896
1782846753404632800,2.6476328125,0.5411966443061829,0.11268579959869385,-1.312484622001648
1782846753414637800,2.657637939453125,0.22830161452293396,-0.08570878207683563,-1.645186185836792
1782846753424641800,2.667641845703125,-0.1362590342760086,-0.17486421763896942,-1.6460775136947632
1782846753434646800,2.677646728515625,-0.3243511915206909,-0.143963024020195,-1.3599621057510376
1782846753444651000,2.687651123046875,-0.26104411482810974,0.009472597390413284,-1.0031688213348389
1782846753454656000,2.697656005859375,-0.08915277570486069,0.10780129581689835,-0.4728327989578247
1782846753464661000,2.707660888671875,0.011381018906831741,0.042400721460580826,0.2574693560600281
1782846753474665000,2.7176650390625,-0.06679900735616684,-0.06877054274082184,0.9495993256568909
1782846753484670000,2.727669921875,-0.1909819394350052,-0.2159208506345749,1.2398242950439453
1782846753494675000,2.737675048828125,-0.15924930572509766,-0.4940752387046814,0.9214279055595398
1782846753504679000,2.747678955078125,0.026280073449015617,-0.7659528255462646,0.22961029410362244
1782846753514684000,2.757683837890625,0.29503190517425537,-0.776174008846283,-0.4293516278266907
1782846753524688100,2.767688232421875,0.5110265016555786,-0.3956511914730072,-0.796258270740509
1782846753534693000,2.777693115234375,0.6410308480262756,0.14757214486598969,-0.8254824876785278
1782846753544698000,2.787697998046875,0.7578698396682739,0.5083209872245789,-0.6878588199615479
1782846753554701800,2.797701904296875,0.8080387711524963,0.6607922911643982,-0.4642121493816376
1782846753564706800,2.807706787109375,0.7656005024909973,0.7101215124130249,-0.15221457183361053
1782846753574711800,2.8177119140625,0.6660107970237732,0.6730045080184937,0.18308167159557343
1782846753584715800,2.8277158203125,0.5295069813728333,0.5835196375846863,0.4640158712863922
1782846753594720800,2.837720703125,0.3684203624725342,0.4639732539653778,0.6453712582588196
1782846753604725800,2.847725830078125,0.22506481409072876,0.29422256350517273,0.7222223877906799
1782846753614730000,2.85772998046875,0.1240183487534523,0.08663689345121384,0.7021461725234985
1782846753624735000,2.86773486328125,0.06005028635263443,-0.10512988269329071,0.617767870426178
1782846753634739000,2.877739013671875,0.02672562003135681,-0.23953881859779358,0.5105487704277039
1782846753644744000,2.887743896484375,0.003231213428080082,-0.3050912022590637,0.3978123366832733
1782846753654749000,2.8977490234375,-0.06379149854183197,-0.2851100265979767,0.2846572995185852
1782846753664753000,2.9077529296875,-0.18702341616153717,-0.19594047963619232,0.19885210692882538
1782846753674758000,2.9177578125,-0.3488062024116516,-0.0730861946940422,0.12268011271953583
1782846753684763000,2.927762939453125,-0.493323415517807,0.05692906305193901,0.04704047739505768
1782846753694767000,2.93776708984375,-0.5927940607070923,0.1847299039363861,-0.042998332530260086
1782846753704772000,2.947772216796875,-0.627021312713623,0.24923166632652283,-0.14325623214244843
1782846753714775800,2.95777587890625,-0.5641595125198364,0.20464102923870087,-0.2316252440214157
1782846753724780800,2.96778076171875,-0.4427894055843353,0.08171670138835907,-0.2905796468257904
1782846753734785800,2.977785888671875,-0.30323418974876404,-0.07448435574769974,-0.3226989507675171
1782846753744789800,2.987789794921875,-0.17133286595344543,-0.21169760823249817,-0.34862297773361206
1782846753754794800,2.997794677734375,-0.07911559194326401,-0.30307120084762573,-0.34836864471435547
1782846753764799700,3.0077998046875,-0.01985919289290905,-0.31407856941223145,-0.3112918436527252
1782846753774804200,3.01780419921875,0.030612770467996597,-0.2763679325580597,-0.20548391342163086
1782846753784809200,3.027809326171875,0.0867583304643631,-0.1894703209400177,-0.05072576180100441
1782846753794813000,3.03781298828125,0.15160337090492249,-0.09517285227775574,0.1426684707403183
1782846753804818000,3.04781787109375,0.2208905667066574,0.015366972424089909,0.3544941544532776
1782846753814823200,3.0578232421875,0.27851763367652893,0.12339384108781815,0.5602079033851624
1782846753824827000,3.067826904296875,0.30313777923583984,0.24085469543933868,0.7414490580558777
1782846753834832000,3.077831787109375,0.27621081471443176,0.35626891255378723,0.8711106777191162
1782846753844836900,3.0878369140625,0.21028825640678406,0.46279507875442505,0.921776533126831
1782846753854841000,3.097841064453125,0.11902252584695816,0.5759850144386292,0.8761498928070068
1782846753864846000,3.10784619140625,0.00564110791310668,0.7040330171585083,0.7119127511978149
1782846753874850000,3.11785009765625,-0.10937149822711945,0.809871256351471,0.5049201846122742
1782846753884855000,3.12785498046875,-0.1616019457578659,0.8783496618270874,0.34705862402915955
1782846753894860000,3.137860107421875,-0.12055544555187225,0.8319579362869263,0.2869473397731781
1782846753904864000,3.147864013671875,0.009321063756942749,0.606490969657898,0.311648428440094
1782846753914869000,3.157868896484375,0.16054654121398926,0.17708663642406464,0.3469909727573395
1782846753924874000,3.1678740234375,0.2530442476272583,-0.38186880946159363,0.3087892532348633
1782846753934878200,3.177878173828125,0.25337526202201843,-0.8001188039779663,0.223514586687088
1782846753944883200,3.18788330078125,0.20432810485363007,-0.9825021624565125,0.16708992421627045
1782846753954887000,3.197886962890625,0.16722148656845093,-0.9183378219604492,0.1585819274187088
1782846753964892200,3.20789208984375,0.16479746997356415,-0.7182816863059998,0.2072695642709732
1782846753974897200,3.217897216796875,0.19751760363578796,-0.4929433763027191,0.2503190338611603
1782846753984900900,3.22790087890625,0.22279393672943115,-0.315529465675354,0.21902503073215485
1782846753994905900,3.23790576171875,0.1927526742219925,-0.23411263525485992,0.1216643825173378
1782846754004910800,3.247910888671875,0.12709829211235046,-0.277242511510849,-0.006147374864667654
1782846754014915000,3.2579150390625,0.050213634967803955,-0.41251593828201294,-0.15225665271282196
1782846754024920000,3.267920166015625,0.000969656917732209,-0.5883466005325317,-0.3039931654930115
1782846754034924000,3.277924072265625,0.008327172137796879,-0.7620859146118164,-0.4680585563182831
1782846754044929000,3.287928955078125,0.056778859347105026,-0.9033655524253845,-0.6133880615234375
1782846754054934000,3.29793408203125,0.12356747686862946,-0.9678137898445129,-0.7488039135932922
1782846754064938000,3.30793798828125,0.19957676529884338,-0.9189876317977905,-0.842963695526123
1782846754074943000,3.31794287109375,0.2673850953578949,-0.7739353775978088,-0.8788871169090271
1782846754084948000,3.327947998046875,0.3072177469730377,-0.5539292693138123,-0.8142348527908325
1782846754094952200,3.3379521484375,0.3147028088569641,-0.3044930398464203,-0.6413168907165527
1782846754104957200,3.347957275390625,0.278210312128067,-0.06848398596048355,-0.3815995454788208
1782846754114962200,3.357962158203125,0.22072279453277588,0.11816898733377457,-0.08810961991548538
1782846754124966100,3.367966064453125,0.15833450853824615,0.2389979362487793,0.19929978251457214
1782846754134971100,3.37797119140625,0.10628702491521835,0.28488871455192566,0.44770321249961853
1782846754144974800,3.387974853515625,0.0697077065706253,0.2760981619358063,0.6364960074424744
1782846754154979800,3.397979736328125,0.06848158687353134,0.2303333431482315,0.7519733309745789
1782846754164984800,3.40798486328125,0.09071365743875504,0.17694814503192902,0.7828572392463684
1782846754174989000,3.417989013671875,0.1162581667304039,0.13536980748176575,0.7535904049873352
1782846754184994000,3.427994140625,0.14150840044021606,0.11331723630428314,0.6576758623123169
1782846754194999000,3.4379990234375,0.14222212135791779,0.12397760152816772,0.4893401265144348
1782846754205003000,3.4480029296875,0.12412514537572861,0.16373726725578308,0.3113996982574463
1782846754215008000,3.458008056640625,0.10052234679460526,0.19541476666927338,0.1348627358675003
1782846754225012000,3.468011962890625,0.06732071936130524,0.19246931374073029,-0.01824318617582321
1782846754235017000,3.478016845703125,0.038713838905096054,0.15270859003067017,-0.13179610669612885
1782846754245022000,3.48802197265625,0.01155838556587696,0.10489898175001144,-0.2167525440454483
1782846754255026200,3.498026123046875,-0.013042565435171127,0.04308435320854187,-0.28852421045303345
1782846754265031200,3.50803125,-0.029831930994987488,0.003911917097866535,-0.36822062730789185
1782846754275036200,3.5180361328125,-0.023542610928416252,0.00011851066665258259,-0.4316089153289795
1782846754285040000,3.5280400390625,0.008359662257134914,0.021809957921504974,-0.4635663330554962
1782846754295045000,3.538045166015625,0.05043014883995056,0.032753683626651764,-0.4434754550457001
1782846754305050000,3.548050048828125,0.058283280581235886,0.11514416337013245,-0.360138475894928
1782846754315053800,3.5580537109375,0.023376429453492165,0.28174352645874023,-0.2096768021583557
1782846754325058800,3.568058837890625,-0.027346136048436165,0.5063585042953491,-0.023334350436925888
1782846754335063000,3.57806298828125,-0.0981484055519104,0.7540932297706604,0.1464885026216507
1782846754345068000,3.588068115234375,-0.19942522048950195,0.957050621509552,0.27789953351020813
1782846754355073000,3.598072998046875,-0.2469911426305771,1.0404754877090454,0.3454527258872986
1782846754365077000,3.608076904296875,-0.2003842294216156,0.9814866781234741,0.2771778106689453
1782846754375082000,3.61808203125,-0.04520502686500549,0.8219084739685059,0.0008878979133442044
1782846754385087000,3.6280869140625,0.14340776205062866,0.6628810167312622,-0.3315904438495636
1782846754395091000,3.638091064453125,0.2918853759765625,0.4782922863960266,-0.48248621821403503
1782846754405096000,3.648095947265625,0.2648945152759552,0.18977020680904388,-0.43520498275756836
1782846754415100200,3.65810009765625,0.08105117827653885,-0.11320006102323532,-0.42330464720726013
1782846754425105200,3.668105224609375,-0.17590072751045227,-0.32312798500061035,-0.6317617297172546
1782846754435110100,3.678110107421875,-0.46363237500190735,-0.3296186327934265,-1.0689209699630737
1782846754445114000,3.688114013671875,-0.7027818560600281,-0.18570594489574432,-1.4123380184173584
1782846754455119000,3.698119140625,-0.7568075060844421,-0.08027459681034088,-1.4586337804794312
1782846754465124000,3.7081240234375,-0.5586417317390442,-0.1610994040966034,-1.227020025253296
1782846754475127800,3.7181279296875,-0.23228676617145538,-0.35303449630737305,-0.820171058177948
1782846754485133000,3.728133056640625,0.04434988647699356,-0.49774613976478577,-0.3805848956108093
1782846754495138000,3.738137939453125,0.1882183700799942,-0.5599762201309204,-0.11976315081119537
1782846754505142000,3.74814208984375,0.28030675649642944,-0.5737119913101196,-0.19395188987255096
1782846754515147000,3.75814697265625,0.391259104013443,-0.5641012191772461,-0.5500250458717346
1782846754525151000,3.76815087890625,0.5018322467803955,-0.4595758616924286,-0.9372148513793945
1782846754535156000,3.778156005859375,0.5723644495010376,-0.27768567204475403,-1.1477643251419067
1782846754545161000,3.788160888671875,0.5980280041694641,-0.13177907466888428,-1.1198432445526123
1782846754555165000,3.7981650390625,0.5967006683349609,-0.01233522966504097,-0.9027245044708252
1782846754565170200,3.808170166015625,0.5497525930404663,0.07700823247432709,-0.5306612253189087
1782846754575175200,3.818175048828125,0.4794811010360718,0.08561929315328598,-0.059672385454177856
1782846754585179100,3.82817919921875,0.3973284661769867,0.07702793926000595,0.3834528625011444
1782846754595184000,3.83818408203125,0.3284037113189697,0.11227753758430481,0.7372122406959534
1782846754605189000,3.848189208984375,0.27579963207244873,0.16409839689731598,0.9833141565322876
1782846754615193000,3.858193115234375,0.2548424005508423,0.1817799210548401,1.1363071203231812
1782846754625198000,3.868197998046875,0.25638118386268616,0.14190679788589478,1.2071422338485718
1782846754635202000,3.8782021484375,0.26155516505241394,0.11044501513242722,1.2036223411560059
1782846754645207000,3.88820703125,0.2448939085006714,0.08939991891384125,1.1311092376708984
1782846754655212000,3.8982119140625,0.20566847920417786,0.07846391201019287,0.9784173965454102
1782846754665216000,3.908216064453125,0.13787664473056793,0.09793747961521149,0.7682449817657471
1782846754675221000,3.918220947265625,0.05270342528820038,0.1443774253129959,0.5362533330917358
1782846754685226000,3.92822607421875,-0.03567730262875557,0.18321828544139862,0.3230118751525879
1782846754695230000,3.93822998046875,-0.12347133457660675,0.1682521253824234,0.14574815332889557
1782846754705235000,3.94823486328125,-0.19338810443878174,0.11487465351819992,0.0004900216590613127
1782846754715240000,3.958239990234375,-0.24024055898189545,0.0514642558991909,-0.11326823383569717
1782846754725244200,3.968244140625,-0.24419908225536346,-0.026737604290246964,-0.18791557848453522
1782846754735249200,3.978249267578125,-0.2165890336036682,-0.11488557606935501,-0.23021961748600006
1782846754745253000,3.988253173828125,-0.16748087108135223,-0.1959274262189865,-0.26450809836387634
1782846754755258000,3.998258056640625,-0.10875684022903442,-0.25489380955696106,-0.2839592695236206
1782846754765263000,4.00826318359375,-0.06456141918897629,-0.308173269033432,-0.3006677031517029
1782846754775266800,4.018266845703125,-0.05070925131440163,-0.3327641189098358,-0.3162575662136078
1782846754785271800,4.028271728515625,-0.08353670686483383,-0.29251575469970703,-0.34559521079063416
1782846754795276800,4.03827685546875,-0.13898079097270966,-0.21983303129673004,-0.3741821050643921
1782846754805281000,4.048281005859375,-0.19206663966178894,-0.15588067471981049,-0.379751592874527
1782846754815286000,4.0582861328125,-0.24871288239955902,-0.1496448814868927,-0.38634824752807617
1782846754825291000,4.068291015625,-0.3199732005596161,-0.16537271440029144,-0.40991029143333435
1782846754835295000,4.078294921875,-0.38081738352775574,-0.14687998592853546,-0.43433573842048645
1782846754845300000,4.088300048828125,-0.4286333918571472,-0.12957264482975006,-0.4465436637401581
1782846754855305000,4.098304931640625,-0.47963210940361023,-0.12946851551532745,-0.4407654106616974
1782846754865308700,4.10830859375,-0.5259767174720764,-0.14139734208583832,-0.4081187844276428
1782846754875313700,4.118313720703125,-0.5193228125572205,-0.08976610749959946,-0.3711192309856415
1782846754885318000,4.12831787109375,-0.4363884925842285,0.08086608350276947,-0.3048374056816101
1782846754895323000,4.138322998046875,-0.27289730310440063,0.3665183484554291,-0.16028714179992676
1782846754905327900,4.148327880859375,-0.04697762802243233,0.6629140377044678,0.1685650497674942
1782846754915331800,4.158331787109375,0.22086367011070251,0.8391734957695007,0.6668885350227356
1782846754925336800,4.1683369140625,0.45287346839904785,0.828236997127533,1.1166541576385498
1782846754935341800,4.178341796875,0.6075730323791504,0.6329329609870911,1.3248379230499268
1782846754945345800,4.188345703125,0.7254743576049805,0.39168334007263184,1.2659543752670288
1782846754955350800,4.198350830078125,0.7941831350326538,0.19057022035121918,1.0185712575912476
1782846754965355000,4.20835498046875,0.7656756043434143,0.08804570138454437,0.7093427777290344
1782846754975360000,4.218360107421875,0.6341503262519836,0.039694417268037796,0.4350486695766449
1782846754985365000,4.228364990234375,0.4682401716709137,0.10504812002182007,0.20545648038387299
1782846754995369000,4.238368896484375,0.333575040102005,0.18072956800460815,0.029799174517393112
1782846755005374000,4.2483740234375,0.205116406083107,0.18868203461170197,-0.12413553148508072
1782846755015379000,4.25837890625,0.08547735214233398,0.14233903586864471,-0.2274552583694458
1782846755025382700,4.268382568359375,-0.02882552333176136,0.08167435973882675,-0.2778657078742981
1782846755035387600,4.2783876953125,-0.08858419209718704,-0.018131066113710403,-0.29115673899650574
1782846755045392600,4.288392578125,-0.08251458406448364,-0.21421030163764954,-0.2831307649612427
1782846755055396900,4.29839697265625,-0.031437549740076065,-0.4493037760257721,-0.2888443171977997
1782846755065401900,4.30840185546875,0.04517094045877457,-0.6621939539909363,-0.31375205516815186
1782846755075406800,4.31840673828125,0.11874715983867645,-0.8140750527381897,-0.33804622292518616
1782846755085410800,4.328410888671875,0.177791565656662,-0.8842520117759705,-0.3409043252468109
1782846755095415800,4.338415771484375,0.2214287966489792,-0.8741487860679626,-0.30806729197502136
1782846755105419800,4.348419677734375,0.24064190685749054,-0.8032546639442444,-0.24548113346099854
1782846755115424800,4.3584248046875,0.23645222187042236,-0.6921611428260803,-0.16810990869998932
1782846755125429800,4.3684296875,0.21663084626197815,-0.5636940002441406,-0.09500294178724289
1782846755135434000,4.37843408203125,0.19029511511325836,-0.41694504022598267,-0.01641812175512314
1782846755145439000,4.38843896484375,0.17030489444732666,-0.24931395053863525,0.0838853120803833
1782846755155444000,4.39844384765625,0.13743455708026886,-0.10523800551891327,0.22028949856758118
1782846755165448000,4.408447998046875,0.08390209078788757,-0.008651278913021088,0.37544021010398865
1782846755175453000,4.418452880859375,0.021505825221538544,0.03874420002102852,0.5239260792732239
1782846755185458000,4.4284580078125,-0.04289793223142624,0.04134025052189827,0.6364914774894714
1782846755195461600,4.438461669921875,-0.10040143877267838,0.042151182889938354,0.6886505484580994
1782846755205466600,4.448466552734375,-0.14637185633182526,0.06148146837949753,0.6710020899772644
1782846755215470800,4.458470947265625,-0.19836555421352386,0.08579692989587784,0.5880411267280579
1782846755225475800,4.468475830078125,-0.25930720567703247,0.11052517592906952,0.4439598619937897
1782846755235480800,4.478480712890625,-0.3006061613559723,0.15432459115982056,0.2507030665874481
1782846755245484800,4.48848486328125,-0.32502442598342896,0.19532422721385956,0.0668136477470398
1782846755255489800,4.49848974609375,-0.3292338252067566,0.21873793005943298,-0.07590115815401077
1782846755265494800,4.508494873046875,-0.3099709153175354,0.22552287578582764,-0.16416576504707336
1782846755275498800,4.518498779296875,-0.28454118967056274,0.19973228871822357,-0.2262648344039917
1782846755285503700,4.528503662109375,-0.2633155286312103,0.15735474228858948,-0.2842508852481842
1782846755295508700,4.5385087890625,-0.23549215495586395,0.11638200283050537,-0.3208075761795044
1782846755305513000,4.548512939453125,-0.24028609693050385,0.05293858051300049,-0.3288942575454712
1782846755315518000,4.55851806640625,-0.2560080885887146,-0.04066726937890053,-0.32416048645973206
1782846755325523000,4.56852294921875,-0.26310938596725464,-0.06479310989379883,-0.2829297184944153
1782846755335527000,4.57852685546875,-0.28032779693603516,-0.024055268615484238,-0.18148963153362274
1782846755345532000,4.588531982421875,-0.30723318457603455,0.04999179393053055,-0.03007853962481022
1782846755355536000,4.598535888671875,-0.3337995409965515,0.16384539008140564,0.11889016628265381
1782846755365540900,4.608540771484375,-0.3324514627456665,0.34569188952445984,0.26873692870140076
1782846755375545900,4.6185458984375,-0.3058755099773407,0.5699966549873352,0.41737112402915955
1782846755385549800,4.6285498046875,-0.27328187227249146,0.7674124836921692,0.5303243398666382
1782846755395554800,4.638554931640625,-0.22647282481193542,0.9027910828590393,0.5616646409034729
1782846755405559800,4.648559814453125,-0.14805364608764648,0.9402729868888855,0.4874764680862427
1782846755415563800,4.658563720703125,-0.023328492417931557,0.8126036524772644,0.31348735094070435
1782846755425568800,4.66856884765625,0.15313202142715454,0.4927934408187866,0.029574137181043625
1782846755435573800,4.67857373046875,0.3185542821884155,0.21170400083065033,-0.2570842504501343
1782846755445578000,4.688577880859375,0.3358815908432007,0.030904652550816536,-0.48960191011428833
1782846755455583000,4.6985830078125,0.19835622608661652,-0.0989588052034378,-0.7645221948623657
1782846755465587000,4.7085869140625,-0.0736854076385498,-0.1581619381904602,-1.0581492185592651
1782846755475592000,4.718592041015625,-0.42396432161331177,-0.14952556788921356,-1.2352508306503296
1782846755485597000,4.728596923828125,-0.6645960807800293,-0.06979505717754364,-1.2363171577453613
1782846755495601000,4.738600830078125,-0.6569080948829651,-0.005657086614519358,-1.151239037513733
1782846755505606000,4.74860595703125,-0.4546862840652466,-0.10438286513090134,-0.919547975063324
1782846755515611000,4.75861083984375,-0.20415925979614258,-0.3813447058200836,-0.47312015295028687
1782846755525615000,4.768614990234375,-0.11245730519294739,-0.6597203612327576,0.11385492980480194
1782846755535620000,4.7786201171875,-0.2228834182024002,-0.7752227783203125,0.6414330005645752
1782846755545625000,4.788625,-0.3566928803920746,-0.7631725072860718,0.8350168466567993
1782846755555628800,4.79862890625,-0.32004350423812866,-0.763534665107727,0.47952744364738464
1782846755565633800,4.8086337890625,-0.08005941659212112,-0.7573529481887817,-0.2875678539276123
1782846755575638800,4.818638671875,0.20664425194263458,-0.5620694756507874,-1.0371121168136597
1782846755585642800,4.828642822265625,0.4195626378059387,-0.10102967917919159,-1.450027585029602
1782846755595647700,4.838647705078125,0.509054958820343,0.3861868381500244,-1.4521887302398682
1782846755605652000,4.84865185546875,0.5455957055091858,0.6875850558280945,-1.2062852382659912
1782846755615657000,4.858656982421875,0.533038854598999,0.7951272130012512,-0.8191888928413391
1782846755625662000,4.868661865234375,0.49604251980781555,0.7781215906143188,-0.3857990801334381
1782846755635666000,4.878666015625,0.4591534733772278,0.6763970851898193,0.01149766519665718
1782846755645671000,4.8886708984375,0.40262892842292786,0.5890536904335022,0.3225322365760803
1782846755655676000,4.898676025390625,0.3322461247444153,0.5375595688819885,0.5309544205665588
1782846755665680000,4.908679931640625,0.28081461787223816,0.4721693992614746,0.6601960062980652
1782846755675684900,4.918684814453125,0.25846269726753235,0.3585083484649658,0.7286611199378967
1782846755685689900,4.92868994140625,0.2444038838148117,0.22649678587913513,0.7295271754264832
1782846755695694000,4.938694091796875,0.22932906448841095,0.09791191667318344,0.6813037395477295
1782846755705699000,4.948698974609375,0.19201605021953583,0.004387824330478907,0.611936628818512
1782846755715704000,4.9587041015625,0.12176984548568726,-0.04659546539187431,0.5227351188659668
1782846755725707800,4.968707763671875,0.020365992560982704,-0.049615491181612015,0.43495863676071167
1782846755735712800,4.978712646484375,-0.09571746736764908,-0.01907702162861824,0.3297286331653595
1782846755745717800,4.9887177734375,-0.20474489033222198,0.02467631734907627,0.22476068139076233
1782846755755721700,4.9987216796875,-0.2847241461277008,0.06279920041561127,0.11585922539234161
1782846755765726700,5.008726806640625,-0.3335566520690918,0.06326472014188766,0.017239173874258995
1782846755775731200,5.018731201171875,-0.339438796043396,0.040351949632167816,-0.08671998232603073
1782846755785736400,5.028736328125,-0.30032601952552795,-0.015560584142804146,-0.1893392950296402
1782846755795741400,5.038741455078125,-0.2166641354560852,-0.0740412026643753,-0.28285035490989685
1782846755805745200,5.0487451171875,-0.10566118359565735,-0.14590127766132355,-0.3291184902191162
1782846755815750100,5.058750244140625,0.0026085663121193647,-0.22164717316627502,-0.3293752372264862
1782846755825755400,5.06875537109375,0.07884953916072845,-0.2726147472858429,-0.29941999912261963
1782846755835759000,5.078759033203125,0.1013689637184143,-0.2806955873966217,-0.25226926803588867
1782846755845764000,5.08876416015625,0.09140980988740921,-0.2686122953891754,-0.19249701499938965
1782846755855769000,5.09876904296875,0.05534927546977997,-0.2488953024148941,-0.13825161755084991
1782846755865773300,5.108773193359375,0.0029859361238777637,-0.2165147215127945,-0.08552901446819305
1782846755875778300,5.1187783203125,-0.04153652489185333,-0.1264713853597641,-0.06712577491998672
1782846755885782300,5.1287822265625,-0.08489464968442917,-0.02689845860004425,-0.05103841796517372
1782846755895787300,5.138787353515625,-0.128437340259552,0.004341751337051392,-0.004263720940798521
1782846755905792300,5.148792236328125,-0.19311299920082092,-0.022252840921282768,0.032159000635147095
1782846755915796200,5.158796142578125,-0.2867976725101471,-0.02754906937479973,0.0772889256477356
1782846755925801200,5.16880126953125,-0.41405364871025085,0.022250443696975708,0.14783793687820435
1782846755935806200,5.17880615234375,-0.5087080001831055,0.07964369654655457,0.23057542741298676
1782846755945810400,5.188810546875,-0.5407583117485046,0.1534140557050705,0.3129613697528839
1782846755955815400,5.1988154296875,-0.4915481507778168,0.22374947369098663,0.3675713539123535
1782846755965820400,5.2088203125,-0.3515670895576477,0.2929346561431885,0.3565634489059448
1782846755975824400,5.218824462890625,-0.12688951194286346,0.375083863735199,0.28176191449165344
1782846755985829400,5.228829345703125,0.14161598682403564,0.4549802839756012,0.17046254873275757
1782846755995834400,5.23883447265625,0.40643298625946045,0.45199570059776306,0.05538443103432655
1782846756005838000,5.248838134765625,0.5873729586601257,0.35671472549438477,-0.03675854578614235
1782846756015843000,5.258843017578125,0.6374353170394897,0.1908080279827118,-0.11416678875684738
1782846756025847300,5.268847412109375,0.5805163979530334,0.03229935094714165,-0.17542853951454163
1782846756035852300,5.278852294921875,0.4676729142665863,-0.09006491303443909,-0.16618631780147552
1782846756045857300,5.288857177734375,0.37759894132614136,-0.16143976151943207,-0.07292773574590683
1782846756055861200,5.298861328125,0.3281658887863159,-0.19483312964439392,0.04616696387529373
1782846756065866200,5.3088662109375,0.3199881315231323,-0.18851211667060852,0.10703644156455994
1782846756075871200,5.318871337890625,0.3317214846611023,-0.18815100193023682,0.09852710366249084
1782846756085875200,5.328875244140625,0.32050397992134094,-0.19316813349723816,0.0500812754034996
1782846756095880200,5.338880126953125,0.2631003260612488,-0.23347321152687073,0.026945063844323158
1782846756105885200,5.34888525390625,0.18364013731479645,-0.33744221925735474,0.06772924959659576
1782846756115889400,5.358889404296875,0.09451425820589066,-0.4676055312156677,0.1554175466299057
1782846756125894400,5.368894287109375,0.00027803401462733746,-0.6008376479148865,0.25981613993644714
1782846756135899400,5.3788994140625,-0.06750980019569397,-0.7234416007995605,0.34323298931121826
1782846756145903400,5.3889033203125,-0.08562462031841278,-0.8521409630775452,0.36614710092544556
1782846756155908400,5.398908447265625,-0.037523671984672546,-0.9520294666290283,0.327708899974823
1782846756165913300,5.408913330078125,0.07715630531311035,-0.9975373148918152,0.25593963265419006
1782846756175917000,5.4189169921875,0.2247907668352127,-0.94158935546875,0.18439914286136627
1782846756185922000,5.428922119140625,0.36940306425094604,-0.7525265216827393,0.1251174360513687
1782846756195926300,5.43892626953125,0.46283209323883057,-0.4595806300640106,0.10852860659360886
1782846756205931300,5.44893115234375,0.4995078146457672,-0.12256879359483719,0.14215873181819916
1782846756215936300,5.458936279296875,0.4991735816001892,0.16007594764232635,0.23527616262435913
1782846756225940200,5.468940185546875,0.49444568157196045,0.31041431427001953,0.3733386993408203
1782846756235945200,5.4789453125,0.49374979734420776,0.3242020308971405,0.5338921546936035
1782846756245950200,5.4889501953125,0.4905095398426056,0.2874954342842102,0.7154582142829895
1782846756255954200,5.4989541015625,0.46587875485420227,0.2518077492713928,0.8758055567741394
1782846756265959200,5.508959228515625,0.4268501102924347,0.22662808001041412,1.0012340545654297
1782846756275964200,5.518964111328125,0.3723011314868927,0.24000461399555206,1.0741362571716309
1782846756285968400,5.528968505859375,0.3096795678138733,0.27032655477523804,1.0679904222488403
1782846756295973400,5.538973388671875,0.22982068359851837,0.2935378849506378,0.9803053140640259
1782846756305978400,5.548978271484375,0.13870595395565033,0.2842157483100891,0.7944023013114929
1782846756315982300,5.558982421875,0.04770200699567795,0.24944151937961578,0.5372072458267212
1782846756325987300,5.5689873046875,-0.03882782161235809,0.19480010867118835,0.2500620484352112
1782846756335991000,5.578990966796875,-0.0991968885064125,0.10113487392663956,-0.03520166128873825
1782846756345996000,5.58899609375,-0.1387948989868164,-0.022349247708916664,-0.2954212725162506
1782846756356001000,5.5990009765625,-0.16903056204319,-0.1666174829006195,-0.5159408450126648
1782846756366005200,5.609005126953125,-0.18950574100017548,-0.28377047181129456,-0.6857131123542786
1782846756376010200,5.61901025390625,-0.20833057165145874,-0.37399357557296753,-0.7976428270339966
1782846756386015200,5.62901513671875,-0.2303498536348343,-0.3919951915740967,-0.8476841449737549
1782846756396019200,5.639019287109375,-0.2668820321559906,-0.32936590909957886,-0.8217822909355164
1782846756406024200,5.649024169921875,-0.3122689425945282,-0.2272549867630005,-0.731482207775116
1782846756416029200,5.659029296875,-0.3750271499156952,-0.08356226980686188,-0.5937150120735168
1782846756426033200,5.669033203125,-0.4414336085319519,0.11477825045585632,-0.40693846344947815
1782846756436038100,5.6790380859375,-0.5099708437919617,0.32368218898773193,-0.16789498925209045
1782846756446043100,5.689043212890625,-0.5530384182929993,0.5181347727775574,0.08271538466215134
1782846756456047400,5.69904736328125,-0.541619598865509,0.6184472441673279,0.3181454837322235
1782846756466052400,5.70905224609375,-0.43891212344169617,0.5853758454322815,0.4368194043636322
1782846756476056300,5.719056396484375,-0.2523864507675171,0.5299887657165527,0.3297826945781708
1782846756486061300,5.729061279296875,-0.051119908690452576,0.4860074520111084,-0.003299123840406537
1782846756496066300,5.73906640625,0.11128364503383636,0.4626280963420868,-0.3695753812789917
1782846756506070000,5.749070068359375,0.1814984232187271,0.4480832517147064,-0.6120293140411377
1782846756516075000,5.759074951171875,0.08133533596992493,0.383375346660614,-0.6944994330406189
1782846756526080300,5.769080322265625,-0.10679941624403,0.2982378304004669,-0.7850341200828552
1782846756536084200,5.779084228515625,-0.31902647018432617,0.22177261114120483,-1.0496950149536133
1782846756546089200,5.789089111328125,-0.4845869243144989,0.14350976049900055,-1.3758697509765625
1782846756556094200,5.79909423828125,-0.45349717140197754,-0.055812664330005646,-1.47514808177948
1782846756566098200,5.80909814453125,-0.2259276658296585,-0.38280782103538513,-1.3014750480651855
1782846756576103200,5.819103271484375,0.01571478135883808,-0.7017616033554077,-0.8367081880569458
1782846756586108200,5.829108154296875,0.08351992815732956,-0.8800977468490601,-0.1260916292667389
1782846756596112100,5.839112060546875,-0.04429342970252037,-0.7825120687484741,0.6778024435043335
1782846756606117400,5.849117431640625,-0.2213347852230072,-0.44250285625457764,1.3010340929031372
1782846756616121300,5.859121337890625,-0.31955456733703613,-0.06606663763523102,1.4253288507461548
1782846756626126300,5.869126220703125,-0.2880411148071289,0.11684459447860718,0.9314743876457214
1782846756636131300,5.87913134765625,-0.1493689864873886,0.046368565410375595,0.012136291712522507
1782846756646135300,5.88913525390625,0.006046707276254892,-0.10790303349494934,-0.8692469596862793
1782846756656140300,5.899140380859375,0.08497321605682373,-0.16027222573757172,-1.3435757160186768
1782846756666145300,5.909145263671875,0.07566972821950912,-0.11274439096450806,-1.393485426902771
1782846756676149200,5.919149169921875,0.04884104058146477,-0.0037199032958596945,-1.1670880317687988
1782846756686154200,5.929154296875,0.048285506665706635,0.11112332344055176,-0.7491748929023743
1782846756696159200,5.9391591796875,0.07179269939661026,0.21671313047409058,-0.2359643280506134
1782846756706163200,5.9491630859375,0.1316823959350586,0.27742549777030945,0.2589316964149475
1782846756716168200,5.959168212890625,0.18410885334014893,0.2937418818473816,0.6485388278961182
1782846756726173200,5.969173095703125,0.22049589455127716,0.29429662227630615,0.9201226830482483
1782846756736177200,5.97917724609375,0.24822817742824554,0.26404255628585815,1.0995100736618042
1782846756746182100,5.98918212890625,0.2711026072502136,0.1846742480993271,1.2180761098861694
1782846756756186400,5.999186279296875,0.27383261919021606,0.0809321328997612,1.2568724155426025
1782846756766191400,6.00919140625,0.2505166232585907,-0.015530490316450596,1.2098639011383057
1782846756776195600,6.019195556640625,0.18698586523532867,-0.051063451915979385,1.0761452913284302
1782846756786199600,6.029199462890625,0.09121699631214142,-0.026520024985074997,0.8515726327896118
1782846756796204500,6.03920458984375,-0.01332858856767416,0.028553880751132965,0.5499494075775146
1782846756806209500,6.04920947265625,-0.11414201557636261,0.07984103262424469,0.19427840411663055
1782846756816213500,6.059213623046875,-0.1901632845401764,0.12157090753316879,-0.1523413360118866
1782846756826218500,6.069218505859375,-0.23241779208183289,0.13332290947437286,-0.4258362650871277
1782846756836223500,6.079223388671875,-0.23496776819229126,0.10066802054643631,-0.6282500624656677
1782846756846227700,6.089227783203125,-0.19994400441646576,0.034325748682022095,-0.7715702056884766
1782846756856232700,6.099232666015625,-0.12313604354858398,-0.053285859525203705,-0.841170072555542
1782846756866237700,6.10923779296875,-0.015533419325947762,-0.15052984654903412,-0.8513782620429993
1782846756876241700,6.11924169921875,0.08255266398191452,-0.22811359167099,-0.8198703527450562
1782846756886246700,6.12924658203125,0.13719913363456726,-0.26654088497161865,-0.7297441959381104
1782846756896250600,6.139250732421875,0.11976794898509979,-0.26217222213745117,-0.5998852849006653
1782846756906255600,6.149255615234375,0.0484040193259716,-0.23815478384494781,-0.45388761162757874
1782846756916260600,6.159260498046875,-0.03917296975851059,-0.21896617114543915,-0.3261972963809967
1782846756926264600,6.1692646484375,-0.10160012543201447,-0.21235114336013794,-0.24347364902496338
1782846756936269600,6.17926953125,-0.12410437315702438,-0.2155437469482422,-0.2072804868221283
1782846756946274600,6.189274658203125,-0.13300305604934692,-0.21156205236911774,-0.22916367650032043
1782846756956278500,6.199278564453125,-0.14938069880008698,-0.18560634553432465,-0.29137590527534485
1782846756966283500,6.209283447265625,-0.17243355512619019,-0.15679813921451569,-0.379826158285141
1782846756976288500,6.21928857421875,-0.19801267981529236,-0.11164077371358871,-0.42797479033470154
1782846756986292500,6.22929248046875,-0.25338777899742126,-0.06577049195766449,-0.42076027393341064
1782846756996297500,6.23929736328125,-0.3357287347316742,0.03181545436382294,-0.358980268239975
1782846757006302700,6.249302734375,-0.43258416652679443,0.20233899354934692,-0.25338777899742126
1782846757016306700,6.259306640625,-0.5041225552558899,0.39990267157554626,-0.10483559966087341
1782846757026311700,6.269311767578125,-0.5053942203521729,0.5572630167007446,0.08731280267238617
1782846757036316700,6.279316650390625,-0.4252721965312958,0.6034001111984253,0.2525619566440582
1782846757046320600,6.289320556640625,-0.27746862173080444,0.5448777079582214,0.37319087982177734
1782846757056325600,6.29932568359375,-0.10268616676330566,0.39697957038879395,0.42909595370292664
1782846757066329600,6.30932958984375,0.05211007222533226,0.168262779712677,0.42433395981788635
1782846757076334600,6.31933447265625,0.15381300449371338,-0.08675646781921387,0.41190871596336365
1782846757086339800,6.32933984375,0.19940897822380066,-0.3193894326686859,0.43695443868637085
1782846757096343600,6.339343505859375,0.23505033552646637,-0.43341854214668274,0.4794379770755768
1782846757106348500,6.3493486328125,0.32937735319137573,-0.41391700506210327,0.49146267771720886
1782846757116353500,6.359353515625,0.483529657125473,-0.2991827130317688,0.4983304440975189
1782846757126357500,6.369357421875,0.6438742876052856,-0.09718167781829834,0.47701847553253174
1782846757136362500,6.379362548828125,0.7599284648895264,0.17214860022068024,0.3981441855430603
1782846757146367500,6.389367431640625,0.8015526533126831,0.4424615800380707,0.30200645327568054
1782846757156371700,6.399371826171875,0.756285548210144,0.6658733487129211,0.26347529888153076
1782846757166376700,6.409376708984375,0.6395048499107361,0.7830865383148193,0.2854839563369751
1782846757176381700,6.419381591796875,0.5054929852485657,0.7816390991210938,0.3302096128463745
1782846757186385700,6.4293857421875,0.4184342622756958,0.6291009783744812,0.36654922366142273
1782846757196390700,6.439390625,0.3950064480304718,0.3325044512748718,0.38861724734306335
1782846757206394600,6.44939453125,0.39576730132102966,-0.048893507570028305,0.4178667366504669
1782846757216399600,6.459399658203125,0.3811177909374237,-0.4265936613082886,0.46472880244255066
1782846757226404600,6.469404541015625,0.34000924229621887,-0.729398787021637,0.5271061658859253
1782846757236408800,6.479408935546875,0.26760560274124146,-0.9183671474456787,0.6033985018730164
1782846757246413800,6.489413818359375,0.16005465388298035,-0.9329646825790405,0.6809255480766296
1782846757256418800,6.499418701171875,0.04349687695503235,-0.8107197880744934,0.7293391227722168
1782846757266422500,6.509422607421875,-0.04216769337654114,-0.5862115621566772,0.7037081122398376
1782846757276427500,6.519427490234375,-0.09574863314628601,-0.33288660645484924,0.5979334712028503
1782846757286432500,6.5294326171875,-0.11951228231191635,-0.08971443772315979,0.41101789474487305
1782846757296436500,6.5394365234375,-0.13137826323509216,0.14414092898368835,0.18895366787910461
1782846757306441500,6.54944140625,-0.14674070477485657,0.37839922308921814,-0.005184908397495747
1782846757316446500,6.559446533203125,-0.18681809306144714,0.5509307980537415,-0.09397230297327042
1782846757326450700,6.56945068359375,-0.2316145896911621,0.6104439496994019,-0.09115361422300339
1782846757336455700,6.57945556640625,-0.24873791635036469,0.5510684847831726,-0.0641065463423729
1782846757346459600,6.589459716796875,-0.266630619764328,0.4118594527244568,-0.05886038765311241
1782846757356464600,6.599464599609375,-0.3014535903930664,0.2832476794719696,-0.10246378928422928
1782846757366469600,6.6094697265625,-0.3612458109855652,0.2002715766429901,-0.19334548711776733
1782846757376473600,6.6194736328125,-0.4247984290122986,0.14159254729747772,-0.3350381851196289
1782846757386478600,6.629478515625,-0.46475863456726074,0.09402529895305634,-0.5109703540802002
1782846757396483600,6.639483642578125,-0.48136502504348755,0.05059872940182686,-0.6720777153968811
1782846757406487800,6.64948779296875,-0.4593958258628845,0.0001994707708945498,-0.7661373615264893
1782846757416492800,6.659492919921875,-0.4198334813117981,-0.06081914156675339,-0.7911447286605835
1782846757426497800,6.669497802734375,-0.3749038279056549,-0.1513999104499817,-0.7530530095100403
1782846757436501500,6.67950146484375,-0.3395026922225952,-0.22675351798534393,-0.6637715697288513
1782846757446506500,6.689506591796875,-0.3174663782119751,-0.2771839201450348,-0.5687689185142517
1782846757456511500,6.699511474609375,-0.32043924927711487,-0.300777405500412,-0.49740684032440186
1782846757466515500,6.709515380859375,-0.34817156195640564,-0.2871875762939453,-0.42870473861694336
1782846757476520400,6.7195205078125,-0.39840489625930786,-0.2271769642829895,-0.32120785117149353
1782846757486525400,6.729525390625,-0.4875049591064453,-0.13025175034999847,-0.14884620904922485
1782846757496529700,6.73952978515625,-0.5722688436508179,0.007546865846961737,0.08095450699329376
1782846757506534700,6.74953466796875,-0.617686927318573,0.24073565006256104,0.36178216338157654
1782846757516538600,6.75953857421875,-0.6031729578971863,0.4577864706516266,0.641596257686615
1782846757526543600,6.769543701171875,-0.5419216156005859,0.6142171025276184,0.8382294178009033
1782846757536548600,6.779548583984375,-0.44014808535575867,0.6734228730201721,0.9045868515968323
1782846757546552600,6.789552490234375,-0.3147883117198944,0.6171031594276428,0.8368512392044067
1782846757556557600,6.7995576171875,-0.17456568777561188,0.42977985739707947,0.5815829634666443
1782846757566562600,6.8095625,-0.05198303982615471,0.201138436794281,0.14018774032592773
1782846757576566800,6.81956689453125,-0.03672126308083534,0.008828379213809967,-0.42219120264053345
1782846757586571800,6.82957177734375,-0.1426604837179184,-0.22126421332359314,-0.9372614622116089
1782846757596576800,6.83957666015625,-0.3030240535736084,-0.43129652738571167,-1.2496979236602783
1782846757606580700,6.849580810546875,-0.4136653542518616,-0.5843744874000549,-1.3122140169143677
1782846757616585700,6.859585693359375,-0.437432199716568,-0.6095557808876038,-1.2072737216949463
1782846757626590700,6.8695908203125,-0.3675817549228668,-0.5201566219329834,-1.0053797960281372
1782846757636594400,6.879594482421875,-0.2565590739250183,-0.4347565174102783,-0.6753976345062256
1782846757646599400,6.889599365234375,-0.17126202583312988,-0.3908255398273468,-0.27171486616134644
1782846757656604400,6.8996044921875,-0.12070511281490326,-0.3389306664466858,0.03608530014753342
1782846757666608600,6.909608642578125,-0.09410945326089859,-0.31463995575904846,0.14142823219299316
1782846757676613600,6.919613525390625,-0.06256670504808426,-0.3694518208503723,0.05213111266493797
1782846757686618600,6.92961865234375,-0.04333389177918434,-0.4453500509262085,-0.20083563029766083
1782846757696622600,6.93962255859375,-0.02484569512307644,-0.4967477023601532,-0.504344642162323
1782846757706627600,6.949627685546875,-0.003528155852109194,-0.524139404296875,-0.7516782879829407
1782846757716631600,6.959631591796875,0.03936338424682617,-0.5092470049858093,-0.879941999912262
1782846757726636500,6.969636474609375,0.09503410011529922,-0.42094695568084717,-0.8563908338546753
1782846757736641500,6.9796416015625,0.14289909601211548,-0.25640809535980225,-0.6777156591415405
1782846757746645800,6.989645751953125,0.18035486340522766,-0.05955547094345093,-0.38719937205314636
1782846757756650800,6.999650634765625,0.22444190084934235,0.10402893275022507,-0.05462782457470894
1782846757766655700,7.00965576171875,0.2861654460430145,0.20116026699543,0.26277491450309753
1782846757776660000,7.019659912109375,0.36217817664146423,0.22482432425022125,0.5379090309143066
1782846757786665000,7.0296650390625,0.4246183931827545,0.202727809548378,0.7372937202453613
1782846757796670000,7.039669921875,0.46352532505989075,0.13877412676811218,0.8670594692230225
1782846757806674000,7.049673828125,0.4500710368156433,0.10188588500022888,0.9321870803833008
1782846757816679000,7.059678955078125,0.3791270852088928,0.10590459406375885,0.9381831884384155
1782846757826684000,7.069683837890625,0.27992406487464905,0.11644352227449417,0.885709285736084
1782846757836688100,7.079688232421875,0.1626483052968979,0.1120210736989975,0.7697116136550903
1782846757846693000,7.089693115234375,0.053890660405159,0.11385013908147812,0.6079384088516235
1782846757856698000,7.099697998046875,-0.031498536467552185,0.10667292028665543,0.4213232696056366
1782846757866702000,7.1097021484375,-0.0957891121506691,0.07744472473859787,0.24647769331932068
1782846757876707000,7.11970703125,-0.1435483694076538,0.02285844460129738,0.09512411803007126
1782846757886710800,7.129710693359375,-0.17351746559143066,-0.05440971255302429,-0.04207687824964523
1782846757896715800,7.1397158203125,-0.19129060208797455,-0.1156725361943245,-0.17041008174419403
1782846757906720800,7.149720703125,-0.2016018182039261,-0.13374581933021545,-0.291023850440979
1782846757916725000,7.15972509765625,-0.19250260293483734,-0.12233629822731018,-0.3717735707759857
1782846757926730000,7.16972998046875,-0.16607366502285004,-0.1047370657324791,-0.3981409966945648
1782846757936735000,7.17973486328125,-0.13083843886852264,-0.0856696292757988,-0.37191763520240784
1782846757946739000,7.189739013671875,-0.077818363904953,-0.07587292790412903,-0.3197851777076721
1782846757956744000,7.199743896484375,-0.015414908528327942,-0.09951434284448624,-0.22613780200481415
1782846757966749000,7.2097490234375,0.04319354146718979,-0.139870285987854,-0.11237527430057526
1782846757976753000,7.2197529296875,0.0815393328666687,-0.17452333867549896,-0.004003263544291258
1782846757986758000,7.2297578125,0.096749447286129,-0.17410282790660858,0.0788189172744751
1782846757996763000,7.239762939453125,0.09447909891605377,-0.134118914604187,0.14060159027576447
1782846758006767000,7.24976708984375,0.07494614273309708,-0.08962016552686691,0.19351007044315338
1782846758016772000,7.259772216796875,0.04519251361489296,-0.0580100379884243,0.22801105678081512
1782846758026777000,7.269777099609375,0.009440107271075249,-0.03587491065263748,0.2420203536748886
1782846758036781000,7.279781005859375,-0.06011819839477539,-0.012945093214511871,0.23503302037715912
1782846758046786000,7.2897861328125,-0.1563432663679123,0.028600219637155533,0.23405297100543976
1782846758056791000,7.299791015625,-0.26437440514564514,0.1123742088675499,0.2459104359149933
1782846758066794800,7.309794677734375,-0.3170549273490906,0.25212040543556213,0.28561151027679443
1782846758076800000,7.319800048828125,-0.2781839370727539,0.3430092930793762,0.35943832993507385
1782846758086804000,7.329803955078125,-0.13388243317604065,0.38721537590026855,0.4480941593647003
1782846758096809000,7.33980908203125,0.08561529964208603,0.39722752571105957,0.5282856822013855
1782846758106814000,7.34981396484375,0.36578330397605896,0.37141457200050354,0.5759317278862
1782846758116818000,7.35981787109375,0.6133971214294434,0.30596923828125,0.5308385491371155
1782846758126823000,7.369822998046875,0.7165844440460205,0.18915288150310516,0.39393559098243713
1782846758136828000,7.379827880859375,0.6401243209838867,0.02672162465751171,0.25219815969467163
1782846758146832000,7.389831787109375,0.4563654065132141,-0.14322586357593536,0.15633581578731537
1782846758156836900,7.3998369140625,0.24215936660766602,-0.21796321868896484,0.08887900412082672
1782846758166841900,7.409841796875,0.06388044357299805,-0.17576943337917328,0.03862249478697777
1782846758176846000,7.41984619140625,-0.041186053305864334,-0.038188666105270386,-0.036544959992170334
1782846758186851000,7.42985107421875,-0.034279678016901016,0.1145353689789772,-0.1548369824886322
1782846758196856000,7.43985595703125,0.044866807758808136,0.20326177775859833,-0.2519499361515045
1782846758206860000,7.449860107421875,0.11987340450286865,0.16613171994686127,-0.2565838396549225
1782846758216865000,7.459864990234375,0.16706807911396027,0.041900843381881714,-0.15204891562461853
1782846758226870000,7.4698701171875,0.17757585644721985,-0.10878267139196396,0.0008551410282962024
1782846758236874000,7.4798740234375,0.16937944293022156,-0.2620004415512085,0.1486283540725708
1782846758246879000,7.48987890625,0.1740705966949463,-0.40802955627441406,0.24660392105579376
1782846758256884200,7.49988427734375,0.22835807502269745,-0.5498916506767273,0.261698454618454
1782846758266888000,7.509887939453125,0.36430418491363525,-0.6811205148696899,0.19800309836864471
1782846758276893000,7.519892822265625,0.5455576181411743,-0.7302818894386292,0.10235060751438141
1782846758286898000,7.52989794921875,0.7020207047462463,-0.6342283487319946,0.04295039549469948
1782846758296902000,7.53990185546875,0.7782797813415527,-0.4210633337497711,0.05095372721552849
1782846758306907000,7.549906982421875,0.7848189473152161,-0.15863944590091705,0.1347801834344864
1782846758316911000,7.5599111328125,0.762943685054779,0.05269543454051018,0.2579609751701355
1782846758326916000,7.569916015625,0.7110365629196167,0.15773263573646545,0.3954820930957794
1782846758336921000,7.579921142578125,0.6298927068710327,0.19701692461967468,0.5285237431526184
1782846758346925000,7.589925048828125,0.5164095759391785,0.21954433619976044,0.6704289317131042
1782846758356930000,7.599929931640625,0.36412736773490906,0.23573608696460724,0.8211311101913452
1782846758366935000,7.60993505859375,0.18550488352775574,0.2135849893093109,0.9745497107505798
1782846758376939000,7.61993896484375,0.007704258430749178,0.14167430996894836,1.0826927423477173
1782846758386944000,7.629944091796875,-0.15230271220207214,0.05150526762008667,1.0897172689437866
1782846758396949000,7.639948974609375,-0.29016923904418945,-0.03617797791957855,0.9869914650917053
1782846758406953200,7.649953125,-0.38339054584503174,-0.1057107150554657,0.7932379841804504
1782846758416958200,7.659958251953125,-0.42809170484542847,-0.13566941022872925,0.5179046392440796
1782846758426963200,7.669963134765625,-0.44221416115760803,-0.10410642623901367,0.19713197648525238
1782846758436967000,7.679966796875,-0.4378681480884552,-0.06160930171608925,-0.1338627189397812
1782846758446972000,7.689971923828125,-0.4416535794734955,-0.04613633453845978,-0.4376519024372101
1782846758456977000,7.699976806640625,-0.44027990102767944,-0.038963112980127335,-0.659519612789154
1782846758466980900,7.70998095703125,-0.4412972331047058,-0.035362519323825836,-0.7950339913368225
1782846758476985900,7.71998583984375,-0.4297148883342743,-0.02827744372189045,-0.8625656366348267
1782846758486990800,7.729990966796875,-0.4044604003429413,0.008085623383522034,-0.8557314276695251
1782846758496995000,7.7399951171875,-0.3736385703086853,0.07322148233652115,-0.7838718891143799
1782846758507000000,7.75,-0.3383532762527466,0.1335175782442093,-0.6590492725372314
1782846758517005000,7.760005126953125,-0.3213902711868286,0.16711069643497467,-0.48726579546928406
1782846758527009000,7.770009033203125,-0.322147935628891,0.17332571744918823,-0.2918965816497803
1782846758537014000,7.780013916015625,-0.3516637682914734,0.21565425395965576,-0.10134579241275787
1782846758547018000,7.79001806640625,-0.4080604612827301,0.39549246430397034,0.08682677149772644
1782846758557023000,7.80002294921875,-0.46558526158332825,0.6684001684188843,0.3031761348247528
1782846758567028000,7.810028076171875,-0.48442208766937256,0.9145628213882446,0.5374197959899902
1782846758577032200,7.8200322265625,-0.4215696156024933,1.0167770385742188,0.7121937274932861
1782846758587037200,7.830037109375,-0.3166162967681885,1.0288678407669067,0.7314201593399048
1782846758597042200,7.840042236328125,-0.1572311669588089,0.8945425152778625,0.5783834457397461
1782846758607046000,7.8500458984375,0.07987326383590698,0.5976191759109497,0.2875787913799286
1782846758617051000,7.86005078125,0.2791954278945923,0.2483682632446289,-0.09771697223186493
1782846758627055900,7.870055908203125,0.3241623640060425,-0.021975073963403702,-0.6312093734741211
1782846758637059800,7.880059814453125,0.21867108345031738,-0.14570234715938568,-1.2999773025512695
1782846758647064800,7.89006494140625,-0.000597879639826715,-0.1534273773431778,-1.8642561435699463
1782846758657069800,7.90006982421875,-0.1487005203962326,-0.11632341146469116,-2.0357210636138916
1782846758667074000,7.910073974609375,-0.05669976398348808,-0.11853650212287903,-1.8725756406784058
1782846758677079000,7.9200791015625,0.22622354328632355,-0.19354470074176788,-1.4446288347244263
1782846758687084000,7.930083984375,0.47521740198135376,-0.3554241359233856,-0.7212039828300476
1782846758697088000,7.940087890625,0.5463155508041382,-0.4341897964477539,0.13174204528331757
1782846758707093000,7.950093017578125,0.45639151334762573,-0.2497512400150299,0.8287584185600281
1782846758717098000,7.960097900390625,0.3456498086452484,0.0686965063214302,1.1290980577468872
1782846758727102000,7.97010205078125,0.3479268252849579,0.35481560230255127,0.7966628074645996
1782846758737107000,7.98010693359375,0.45895853638648987,0.5121796727180481,-0.07739518582820892
1782846758747112000,7.99011181640625,0.5151240825653076,0.6319180727005005,-1.021468997001648
1782846758757116200,8.0001162109375,0.4439002275466919,0.757718563079834,-1.6328495740890503
1782846758767121200,8.01012109375,0.3080340027809143,0.87771075963974,-1.8356738090515137
1782846758777129200,8.020129150390625,0.2064192146062851,0.952357292175293,-1.6554845571517944
1782846758787133200,8.03013330078125,0.1683541238307953,0.9504337310791016,-1.2047053575515747
1782846758797138200,8.04013818359375,0.1939377784729004,0.8311488628387451,-0.6626141667366028
1782846758807143200,8.05014306640625,0.25105005502700806,0.6301763653755188,-0.1745012253522873
1782846758817147100,8.060147216796874,0.2829696536064148,0.4315929412841797,0.16903935372829437
1782846758827152100,8.070152099609375,0.2691513001918793,0.26940351724624634,0.3577544093132019
1782846758837156400,8.08015625,0.24418790638446808,0.0869455486536026,0.42753109335899353
1782846758847161300,8.090161376953125,0.3344653248786926,-0.08789630234241486,0.47137418389320374
1782846758857166300,8.100166259765626,0.39736467599868774,-0.35049277544021606,0.432874470949173
1782846758867170300,8.11017041015625,0.6038107872009277,-0.20204976201057434,0.4236282408237457
1782846758877175300,8.12017529296875,0.7248413562774658,-0.21306593716144562,0.5110560655593872
1782846758887180300,8.13018017578125,0.7718780636787415,-0.08279048651456833,0.627561628818512
1782846758897184300,8.140184326171875,0.6886979937553406,-0.029889455065131187,0.6918639540672302
1782846758907189200,8.150189208984376,0.5232338905334473,0.10402893275022507,0.6707195043563843
1782846758917194200,8.1601943359375,0.3545311987400055,0.3203987777233124,0.6143390536308289
1782846758927198200,8.1701982421875,0.2476726472377777,0.49673333764076233,0.5433689951896667
1782846758937203200,8.180203125,0.22415614128112793,0.5808460712432861,0.46668729186058044
1782846758947208200,8.190208251953125,0.23087503015995026,0.47441017627716064,0.3934412896633148
1782846758957212200,8.200212158203126,0.23109154403209686,0.29316583275794983,0.3012557029724121
1782846758967217200,8.210217041015625,0.2575351297855377,0.06310094147920609,0.21833713352680206
1782846758977222100,8.22022216796875,0.29120174050331116,-0.09631535410881042,0.16637645661830902
1782846758987226400,8.230226318359374,0.3298242390155792,-0.18717335164546967,0.16693173348903656
1782846758997231400,8.2402314453125,0.38023602962493896,-0.15542420744895935,0.22372044622898102
1782846759007236400,8.250236328125,0.4278474748134613,-0.0439690537750721,0.31694838404655457
1782846759017240300,8.260240234375,0.47134435176849365,0.07038281857967377,0.40444308519363403
1782846759027245300,8.270245361328126,0.47989416122436523,0.16104987263679504,0.4648728668689728
1782846759037250300,8.280250244140625,0.3652685284614563,0.1845245659351349,0.5048019289970398
1782846759047254300,8.290254150390625,0.2656513750553131,0.22572606801986694,0.5226064920425415
1782846759057259300,8.30025927734375,0.19381633400917053,0.1435752809047699,0.4944651126861572
1782846759067264300,8.31026416015625,0.09289238601922989,0.055150337517261505,0.4248991012573242
1782846759077268200,8.320268310546876,-0.052377987653017044,-0.03464586287736893,0.3333849012851715
1782846759087273500,8.3302734375,-0.1992121785879135,-0.09084548056125641,0.2516615390777588
1782846759097277200,8.340277099609375,-0.29351338744163513,-0.17045216262340546,0.1879480630159378
1782846759107282200,8.3502822265625,-0.33659079670906067,-0.268569678068161,0.13114416599273682
1782846759117287200,8.360287109375,-0.3491305708885193,-0.17138266563415527,0.23486630618572235
1782846759127291100,8.370291015625,-0.30056941509246826,-0.014060957357287407,0.35311490297317505
1782846759137296100,8.380296142578125,-0.16090287268161774,0.1546521633863449,0.36267805099487305
1782846759147301000,8.390301025390626,-0.08444005250930786,0.08553087711334229,0.3535862863063812
1782846759157305300,8.400305419921875,-0.09961367398500443,-0.07146912068128586,0.3560342788696289
1782846759167310300,8.410310302734375,-0.14358192682266235,-0.20572200417518616,0.3372206389904022
1782846759177315300,8.4203154296875,-0.18357302248477936,-0.25046736001968384,0.3355657458305359
1782846759187319300,8.4303193359375,-0.1856960952281952,-0.2932944595813751,0.31486794352531433
