time,seconds_elapsed,z,y,x
1782845422134368000,0.061367919921875,-0.911834716796875,-0.1894378662109375,-0.033233642578125
1782845422144373000,0.071373046875,-0.916046142578125,-0.214447021484375,-0.0460205078125
1782845422154377000,0.081376953125,-0.9314727783203125,-0.2263031005859375,-0.04766845703125
1782845422164382000,0.0913818359375,-0.9489898681640625,-0.2301025390625,-0.041259765625
1782845422174385700,0.1013857421875,-0.98065185546875,-0.2338104248046875,-0.0334014892578125
1782845422184390700,0.111390625,-1.013641357421875,-0.23443603515625,-0.0283660888671875
1782845422194395000,0.121394775390625,-1.024932861328125,-0.22442626953125,-0.0146636962890625
1782845422204399900,0.13139990234375,-1.0282745361328125,-0.2187042236328125,-0.0052337646484375
1782845422214403800,0.14140380859375,-1.063873291015625,-0.196868896484375,-0.0206146240234375
1782845422224408800,0.151408935546875,-1.07257080078125,-0.1871337890625,-0.0166778564453125
1782845422234413800,0.161413818359375,-1.0768585205078125,-0.18695068359375,-0.0111236572265625
1782845422244417800,0.171417724609375,-1.0827789306640625,-0.179290771484375,-0.0102081298828125
1782845422254422800,0.1814228515625,-1.0654144287109375,-0.1703948974609375,-0.0094757080078125
1782845422264427000,0.191427001953125,-1.0311126708984375,-0.1715545654296875,-0.0062255859375
1782845422274432000,0.201431884765625,-0.996337890625,-0.1807708740234375,0.0057220458984375
1782845422284436000,0.21143603515625,-0.9678497314453125,-0.187225341796875,0.016265869140625
1782845422294441000,0.22144091796875,-0.939056396484375,-0.1950225830078125,0.0149078369140625
1782845422304444700,0.231444580078125,-0.9148406982421875,-0.198974609375,0.0173492431640625
1782845422314449700,0.24144970703125,-0.909759521484375,-0.19921875,0.02093505859375
1782845422324454000,0.251453857421875,-0.9243621826171875,-0.1976776123046875,0.027191162109375
1782845422334459000,0.261458984375,-0.9373321533203125,-0.20001220703125,0.0276031494140625
1782845422344462800,0.271462890625,-0.950347900390625,-0.200408935546875,0.0276641845703125
1782845422354467800,0.2814677734375,-0.95465087890625,-0.2019805908203125,0.0287933349609375
1782845422364471800,0.291471923828125,-0.959136962890625,-0.2174224853515625,0.020782470703125
1782845422374476800,0.301476806640625,-0.9596710205078125,-0.238006591796875,0.017852783203125
1782845422384481000,0.31148095703125,-0.961395263671875,-0.2509307861328125,0.0200958251953125
1782845422394486000,0.321486083984375,-0.966461181640625,-0.260772705078125,0.0153350830078125
1782845422404491000,0.331490966796875,-0.9762725830078125,-0.2649993896484375,0.005126953125
1782845422414495000,0.341494873046875,-0.997406005859375,-0.26568603515625,-0.003692626953125
1782845422424500000,0.3515,-1.025238037109375,-0.265625,-0.0172271728515625
1782845422434503700,0.361503662109375,-1.0392913818359375,-0.264801025390625,-0.0318450927734375
1782845422444508700,0.3715087890625,-1.0503387451171875,-0.2646331787109375,-0.0429229736328125
1782845422454513000,0.381512939453125,-1.0552520751953125,-0.26678466796875,-0.0531463623046875
1782845422464518000,0.391517822265625,-1.0432281494140625,-0.2683258056640625,-0.0576171875
1782845422474521900,0.40152197265625,-1.0373992919921875,-0.25048828125,-0.064544677734375
1782845422484526800,0.41152685546875,-1.00787353515625,-0.2331390380859375,-0.0746917724609375
1782845422494530800,0.42153076171875,-0.977813720703125,-0.2272796630859375,-0.0740509033203125
1782845422504535800,0.431535888671875,-0.95745849609375,-0.215118408203125,-0.0696563720703125
1782845422514540000,0.4415400390625,-0.9400177001953125,-0.2116241455078125,-0.05902099609375
1782845422524545000,0.451544921875,-0.9221038818359375,-0.2179107666015625,-0.050140380859375
1782845422534549000,0.461549072265625,-0.922119140625,-0.2231292724609375,-0.0353546142578125
1782845422544554000,0.471553955078125,-0.92462158203125,-0.221282958984375,-0.0133514404296875
1782845422554557700,0.4815576171875,-0.929901123046875,-0.2230072021484375,0.0050811767578125
1782845422564562700,0.491562744140625,-0.9329833984375,-0.217071533203125,0.0207672119140625
1782845422574567700,0.501567626953125,-0.948028564453125,-0.2213897705078125,0.0358734130859375
1782845422584572000,0.511572021484375,-0.9774322509765625,-0.226104736328125,0.0440521240234375
1782845422594577000,0.521576904296875,-1.0120086669921875,-0.2332763671875,0.0398101806640625
1782845422604580900,0.531580810546875,-1.03790283203125,-0.23699951171875,0.0357818603515625
1782845422614585900,0.5415859375,-1.0650787353515625,-0.2378082275390625,0.0327911376953125
1782845422624589800,0.55158984375,-1.082977294921875,-0.236541748046875,0.0355682373046875
1782845422634594800,0.5615947265625,-1.0952606201171875,-0.220367431640625,0.042266845703125
1782845422644599000,0.57159912109375,-1.1069488525390625,-0.215240478515625,0.0408172607421875
1782845422654604000,0.58160400390625,-1.11883544921875,-0.221435546875,0.0426483154296875
1782845422664608000,0.59160791015625,-1.1459808349609375,-0.21661376953125,0.0533447265625
1782845422674613000,0.601613037109375,-1.1711273193359375,-0.19940185546875,0.061492919921875
1782845422684616700,0.61161669921875,-1.1736907958984375,-0.196136474609375,0.062530517578125
1782845422694621700,0.62162158203125,-1.159698486328125,-0.19659423828125,0.0590057373046875
1782845422704626000,0.6316259765625,-1.1320953369140625,-0.192138671875,0.05169677734375
1782845422714631000,0.641630859375,-1.092987060546875,-0.186279296875,0.0433502197265625
1782845422724635000,0.651634765625,-1.0475921630859375,-0.1826171875,0.033966064453125
1782845422734639900,0.661639892578125,-1.00054931640625,-0.180267333984375,0.0253143310546875
1782845422744644900,0.671644775390625,-0.954833984375,-0.18475341796875,0.019805908203125
1782845422754648800,0.68164892578125,-0.9171295166015625,-0.18621826171875,0.0095062255859375
1782845422764653800,0.69165380859375,-0.8796234130859375,-0.177825927734375,0.010498046875
1782845422774658000,0.701657958984375,-0.8494720458984375,-0.1723175048828125,0.0168609619140625
1782845422784663000,0.7116630859375,-0.8289642333984375,-0.1675872802734375,0.0205230712890625
1782845422794667000,0.7216669921875,-0.8211212158203125,-0.158111572265625,0.0151824951171875
1782845422804672000,0.731672119140625,-0.8136444091796875,-0.14935302734375,0.009735107421875
1782845422814675700,0.74167578125,-0.803375244140625,-0.1405181884765625,0.008880615234375
1782845422824680700,0.7516806640625,-0.8067779541015625,-0.136993408203125,0.008453369140625
1782845422834685000,0.761684814453125,-0.8189239501953125,-0.135162353515625,0.0131988525390625
1782845422844690000,0.77168994140625,-0.83380126953125,-0.14385986328125,0.025970458984375
1782845422854694000,0.78169384765625,-0.851654052734375,-0.15228271484375,0.042266845703125
1782845422864699000,0.791698974609375,-0.8712921142578125,-0.157073974609375,0.0643463134765625
1782845422874702800,0.801702880859375,-0.888458251953125,-0.1602325439453125,0.084381103515625
1782845422884707800,0.811707763671875,-0.909088134765625,-0.159515380859375,0.1015777587890625
1782845422894712000,0.821712158203125,-0.9380645751953125,-0.15545654296875,0.114166259765625
1782845422904717000,0.831717041015625,-0.967041015625,-0.146759033203125,0.12408447265625
1782845422914722000,0.84172216796875,-0.9993133544921875,-0.140838623046875,0.13677978515625
1782845422924726000,0.85172607421875,-1.03240966796875,-0.1387176513671875,0.15216064453125
1782845422934731000,0.86173095703125,-1.059478759765625,-0.141357421875,0.160125732421875
1782845422944734700,0.871734619140625,-1.0728912353515625,-0.1499786376953125,0.159881591796875
1782845422954739700,0.88173974609375,-1.0733184814453125,-0.159149169921875,0.1581878662109375
1782845422964744000,0.891743896484375,-1.0636444091796875,-0.1712799072265625,0.1532440185546875
1782845422974749000,0.9017490234375,-1.039581298828125,-0.18572998046875,0.1483001708984375
1782845422984753000,0.9117529296875,-1.0109405517578125,-0.204559326171875,0.146392822265625
1782845422994758000,0.9217578125,-0.9915924072265625,-0.218902587890625,0.1446075439453125
1782845423004761900,0.931761962890625,-0.977294921875,-0.2314910888671875,0.134124755859375
1782845423014766800,0.941766845703125,-0.9663543701171875,-0.24591064453125,0.120330810546875
1782845423024771000,0.95177099609375,-0.962371826171875,-0.2527008056640625,0.1049652099609375
1782845423034776000,0.961776123046875,-0.96533203125,-0.255279541015625,0.0923614501953125
1782845423044779800,0.97177978515625,-0.961700439453125,-0.248046875,0.0816497802734375
1782845423054784800,0.98178466796875,-0.9525604248046875,-0.2410736083984375,0.0710906982421875
1782845423064788700,0.991788818359375,-0.9519195556640625,-0.2413330078125,0.06256103515625
1782845423074793700,1.001793701171875,-0.956024169921875,-0.2372283935546875,0.0491180419921875
1782845423084798000,1.0117978515625,-0.9555511474609375,-0.233642578125,0.040008544921875
1782845423094803000,1.021802978515625,-0.9624176025390625,-0.23211669921875,0.035064697265625
1782845423104808000,1.031807861328125,-0.9709014892578125,-0.224945068359375,0.038116455078125
1782845423114812000,1.04181201171875,-0.9822540283203125,-0.224884033203125,0.049468994140625
1782845423124817000,1.05181689453125,-0.9952239990234375,-0.22821044921875,0.06170654296875
1782845423134820900,1.06182080078125,-1.0023956298828125,-0.22930908203125,0.0783233642578125
1782845423144825900,1.071825927734375,-1.0021820068359375,-0.227020263671875,0.09100341796875
1782845423154830000,1.081830078125,-0.9983978271484375,-0.2286834716796875,0.0938262939453125
1782845423164835000,1.0918349609375,-0.9880523681640625,-0.2368621826171875,0.08868408203125
1782845423174838800,1.1018388671875,-0.9710235595703125,-0.24383544921875,0.0852508544921875
1782845423184843800,1.11184375,-0.9514007568359375,-0.247283935546875,0.08111572265625
1782845423194847700,1.12184765625,-0.932220458984375,-0.25335693359375,0.0800018310546875
1782845423204852700,1.131852783203125,-0.9255218505859375,-0.255096435546875,0.078369140625
1782845423214857000,1.14185693359375,-0.9281158447265625,-0.247894287109375,0.077301025390625
1782845423224862000,1.151862060546875,-0.9288482666015625,-0.2427825927734375,0.078094482421875
1782845423234866000,1.161865966796875,-0.91680908203125,-0.2447662353515625,0.0782012939453125
1782845423244871000,1.171870849609375,-0.9046783447265625,-0.248046875,0.0908966064453125
1782845423254875000,1.181875,-0.8937530517578125,-0.25384521484375,0.0992431640625
1782845423264879900,1.1918798828125,-0.8788909912109375,-0.2552642822265625,0.1082000732421875
1782845423274884900,1.201884765625,-0.876190185546875,-0.251068115234375,0.1146697998046875
1782845423284889000,1.21188916015625,-0.883026123046875,-0.249786376953125,0.1193084716796875
1782845423294894000,1.22189404296875,-0.8849945068359375,-0.258636474609375,0.1174468994140625
1782845423304897800,1.231897705078125,-0.887939453125,-0.2714385986328125,0.1111907958984375
1782845423314902800,1.24190283203125,-0.899444580078125,-0.2600555419921875,0.1126708984375
1782845423324906800,1.25190673828125,-0.9162750244140625,-0.238677978515625,0.1245880126953125
1782845423334911700,1.261911865234375,-0.923980712890625,-0.2445220947265625,0.12548828125
1782845423344916000,1.271916015625,-0.9358673095703125,-0.2786712646484375,0.1075286865234375
1782845423354921000,1.2819208984375,-0.959808349609375,-0.2897491455078125,0.092437744140625
1782845423364925000,1.291925048828125,-0.94708251953125,-0.292510986328125,0.095184326171875
1782845423374930000,1.301929931640625,-0.9447174072265625,-0.3174896240234375,0.089630126953125
1782845423384934000,1.311933837890625,-0.957305908203125,-0.3167266845703125,0.0723114013671875
1782845423394939000,1.32193896484375,-0.9716949462890625,-0.3067474365234375,0.05267333984375
1782845423404943000,1.331943115234375,-0.980438232421875,-0.30755615234375,0.0396728515625
1782845423414948000,1.341947998046875,-0.9797515869140625,-0.3056182861328125,0.036224365234375
1782845423424951800,1.351951904296875,-0.9709320068359375,-0.3025665283203125,0.0350341796875
1782845423434956800,1.361956787109375,-0.954193115234375,-0.304840087890625,0.0308990478515625
1782845423444960800,1.371960693359375,-0.93695068359375,-0.304656982421875,0.0326385498046875
1782845423454965800,1.3819658203125,-0.9232177734375,-0.299102783203125,0.0369415283203125
1782845423464970800,1.391970703125,-0.9097137451171875,-0.3000946044921875,0.0440216064453125
1782845423474975000,1.40197509765625,-0.9002685546875,-0.297515869140625,0.0516357421875
1782845423484980000,1.41197998046875,-0.8925933837890625,-0.2946624755859375,0.0641021728515625
1782845423494984000,1.42198388671875,-0.8953704833984375,-0.2951507568359375,0.075469970703125
1782845423504989000,1.431989013671875,-0.9023284912109375,-0.292266845703125,0.0850067138671875
1782845423514993000,1.441992919921875,-0.9067230224609375,-0.2861785888671875,0.0963897705078125
1782845423524998000,1.451997802734375,-0.9137420654296875,-0.286773681640625,0.105133056640625
1782845423535002000,1.462002197265625,-0.925262451171875,-0.29376220703125,0.105743408203125
1782845423545007000,1.472007080078125,-0.9322357177734375,-0.3075103759765625,0.1019439697265625
1782845423555010800,1.4820107421875,-0.934967041015625,-0.316253662109375,0.100921630859375
1782845423565015800,1.492015869140625,-0.9351806640625,-0.3238983154296875,0.10107421875
1782845423575019800,1.502019775390625,-0.93328857421875,-0.3350677490234375,0.1030731201171875
1782845423585024800,1.512024658203125,-0.9263458251953125,-0.3482513427734375,0.1024322509765625
1782845423595029000,1.522029052734375,-0.9210357666015625,-0.355072021484375,0.0970306396484375
1782845423605034000,1.532033935546875,-0.9189605712890625,-0.36224365234375,0.0962982177734375
1782845423615038000,1.542037841796875,-0.9102783203125,-0.3642425537109375,0.094573974609375
1782845423625043000,1.55204296875,-0.915863037109375,-0.371917724609375,0.0894775390625
1782845423635048000,1.5620478515625,-0.9230194091796875,-0.362823486328125,0.090423583984375
1782845423645052000,1.572052001953125,-0.9326019287109375,-0.36492919921875,0.0873870849609375
1782845423655057000,1.582056884765625,-0.938018798828125,-0.375823974609375,0.09197998046875
1782845423665061000,1.59206103515625,-0.9383697509765625,-0.3829193115234375,0.10125732421875
1782845423675066000,1.602066162109375,-0.94122314453125,-0.3796234130859375,0.1071014404296875
1782845423685069800,1.61206982421875,-0.951995849609375,-0.363983154296875,0.1211090087890625
1782845423695074800,1.62207470703125,-0.9577178955078125,-0.3569488525390625,0.1270294189453125
1782845423705078800,1.632078857421875,-0.9609222412109375,-0.35467529296875,0.1255035400390625
1782845423715083800,1.642083740234375,-0.986053466796875,-0.349884033203125,0.1325836181640625
1782845423725088000,1.652087890625,-1.0034942626953125,-0.3394012451171875,0.138641357421875
1782845423735093000,1.662093017578125,-1.018768310546875,-0.3230743408203125,0.1638031005859375
1782845423745097000,1.672096923828125,-1.0299224853515625,-0.3148651123046875,0.1793212890625
1782845423755102000,1.68210205078125,-1.0438690185546875,-0.309783935546875,0.1898040771484375
1782845423765106000,1.69210595703125,-1.0648956298828125,-0.2976837158203125,0.1970367431640625
1782845423775111000,1.70211083984375,-1.0785369873046875,-0.2859344482421875,0.193328857421875
1782845423785115000,1.712114990234375,-1.0704193115234375,-0.2741546630859375,0.1910247802734375
1782845423795120000,1.7221201171875,-1.0461273193359375,-0.278167724609375,0.1791229248046875
1782845423805125000,1.732125,-1.0144500732421875,-0.2856903076171875,0.1607513427734375
1782845423815128800,1.74212890625,-0.9913330078125,-0.2818145751953125,0.1458282470703125
1782845423825133800,1.7521337890625,-0.9694976806640625,-0.28271484375,0.1340179443359375
1782845423835137800,1.7621376953125,-0.9598541259765625,-0.2967681884765625,0.118804931640625
1782845423845142800,1.772142822265625,-0.9589691162109375,-0.3052978515625,0.1057891845703125
1782845423855147000,1.78214697265625,-0.945892333984375,-0.314300537109375,0.105316162109375
1782845423865152000,1.792152099609375,-0.9633026123046875,-0.30889892578125,0.096710205078125
1782845423875156000,1.802156005859375,-0.9654998779296875,-0.2971954345703125,0.07720947265625
1782845423885161000,1.812160888671875,-0.9463043212890625,-0.2888031005859375,0.06866455078125
1782845423895165000,1.8221650390625,-0.9161376953125,-0.271636962890625,0.0586700439453125
1782845423905170000,1.832169921875,-0.878662109375,-0.25006103515625,0.0369720458984375
1782845423915174000,1.842173828125,-0.8411407470703125,-0.2514801025390625,0.0251617431640625
1782845423925179000,1.852178955078125,-0.8060302734375,-0.2376556396484375,0.0279541015625
1782845423935182800,1.862182861328125,-0.781524658203125,-0.2082366943359375,0.03839111328125
1782845423945187800,1.872187744140625,-0.7621612548828125,-0.1864471435546875,0.0465087890625
1782845423955191800,1.88219189453125,-0.7525482177734375,-0.1917724609375,0.047027587890625
1782845423965196800,1.89219677734375,-0.7640380859375,-0.189056396484375,0.05572509765625
1782845423975200800,1.90220068359375,-0.7861785888671875,-0.182403564453125,0.07208251953125
1782845423985206000,1.9122060546875,-0.8016510009765625,-0.18597412109375,0.089599609375
1782845423995211000,1.9222109375,-0.8166046142578125,-0.1956024169921875,0.10430908203125
1782845424005215000,1.932215087890625,-0.835845947265625,-0.197174072265625,0.1111602783203125
1782845424015220000,1.942219970703125,-0.85833740234375,-0.1879119873046875,0.1141204833984375
1782845424025224000,1.952223876953125,-0.888580322265625,-0.1801605224609375,0.1116790771484375
1782845424035229000,1.96222900390625,-0.908416748046875,-0.1768798828125,0.1110382080078125
1782845424045233000,1.97223291015625,-0.92230224609375,-0.1661376953125,0.1153106689453125
1782845424055238000,1.98223779296875,-0.9517669677734375,-0.1547088623046875,0.1258087158203125
1782845424065241900,1.992241943359375,-0.9878997802734375,-0.1419677734375,0.135833740234375
1782845424075246800,2.002246826171875,-1.0161895751953125,-0.142791748046875,0.1360931396484375
1782845424085250800,2.012250732421875,-1.037994384765625,-0.1493988037109375,0.13677978515625
1782845424095255800,2.022255859375,-1.0522003173828125,-0.1500701904296875,0.138275146484375
1782845424105259800,2.032259765625,-1.0613250732421875,-0.158782958984375,0.12774658203125
1782845424115264800,2.0422646484375,-1.0543060302734375,-0.1748809814453125,0.1104278564453125
1782845424125269000,2.05226904296875,-1.0445404052734375,-0.18438720703125,0.092132568359375
1782845424135274000,2.06227392578125,-1.0442047119140625,-0.186798095703125,0.0767974853515625
1782845424145278000,2.07227783203125,-1.0428466796875,-0.1947021484375,0.061798095703125
1782845424155283000,2.082282958984375,-1.039276123046875,-0.20306396484375,0.048065185546875
1782845424165288000,2.092287841796875,-1.035064697265625,-0.1987457275390625,0.0340423583984375
1782845424175292000,2.1022919921875,-1.0424041748046875,-0.1870574951171875,0.024505615234375
1782845424185297000,2.112296875,-1.0438385009765625,-0.183013916015625,0.0107421875
1782845424195300900,2.12230078125,-1.0356597900390625,-0.1766510009765625,0.004058837890625
1782845424205305900,2.132305908203125,-1.0230712890625,-0.1716156005859375,0.0011749267578125
1782845424215309800,2.142309814453125,-1.0005035400390625,-0.1775665283203125,0.0034027099609375
1782845424225314800,2.152314697265625,-0.9666748046875,-0.179046630859375,0.0076751708984375
1782845424235318800,2.16231884765625,-0.9360198974609375,-0.1822357177734375,0.01513671875
1782845424245323800,2.17232373046875,-0.9049072265625,-0.1865234375,0.022369384765625
1782845424255328000,2.182327880859375,-0.88427734375,-0.189361572265625,0.030548095703125
1782845424265333000,2.1923330078125,-0.8725433349609375,-0.18951416015625,0.0371856689453125
1782845424275337000,2.2023369140625,-0.8703460693359375,-0.1917572021484375,0.046661376953125
1782845424285342000,2.212342041015625,-0.877838134765625,-0.194793701171875,0.05804443359375
1782845424295345700,2.222345703125,-0.89532470703125,-0.1958465576171875,0.0666656494140625
1782845424305350700,2.2323505859375,-0.91864013671875,-0.1992340087890625,0.075103759765625
1782845424315355000,2.24235498046875,-0.9456329345703125,-0.2003173828125,0.0771331787109375
1782845424325359900,2.25235986328125,-0.9682769775390625,-0.206787109375,0.0765380859375
1782845424335363800,2.26236376953125,-0.97857666015625,-0.2157135009765625,0.074798583984375
1782845424345368800,2.272368896484375,-0.9768829345703125,-0.22357177734375,0.07562255859375
1782845424355373800,2.282373779296875,-0.9742889404296875,-0.2256927490234375,0.0743865966796875
1782845424365377800,2.292377685546875,-0.964324951171875,-0.2353973388671875,0.0631561279296875
1782845424375382800,2.3023828125,-0.9619903564453125,-0.2397918701171875,0.0517120361328125
1782845424385387000,2.312386962890625,-0.9714813232421875,-0.2418975830078125,0.040069580078125
1782845424395392000,2.32239208984375,-0.978179931640625,-0.23846435546875,0.0238494873046875
1782845424405396000,2.33239599609375,-0.9768524169921875,-0.238525390625,0.012847900390625
1782845424415401000,2.34240087890625,-0.976287841796875,-0.2358551025390625,0.0062103271484375
1782845424425404700,2.35240478515625,-0.9916229248046875,-0.2367095947265625,0.0095977783203125
1782845424435409700,2.36240966796875,-1.011688232421875,-0.241302490234375,0.0133056640625
1782845424445414000,2.372413818359375,-1.0217742919921875,-0.242095947265625,0.014068603515625
1782845424455419000,2.3824189453125,-1.0205230712890625,-0.2455902099609375,0.0236663818359375
1782845424465422800,2.3924228515625,-1.009368896484375,-0.2502899169921875,0.0298614501953125
1782845424475427800,2.402427734375,-0.99908447265625,-0.249908447265625,0.0316925048828125
1782845424485431800,2.412431884765625,-0.9847564697265625,-0.2467803955078125,0.040130615234375
1782845424495436800,2.422436767578125,-0.9724273681640625,-0.24456787109375,0.043975830078125
1782845424505441000,2.43244091796875,-0.95526123046875,-0.2395477294921875,0.04132080078125
1782845424515446000,2.442446044921875,-0.9463958740234375,-0.2362518310546875,0.038238525390625
1782845424525451000,2.452450927734375,-0.948822021484375,-0.2320098876953125,0.0378570556640625
1782845424535455000,2.462455078125,-0.9468536376953125,-0.2285003662109375,0.0388031005859375
1782845424545460000,2.4724599609375,-0.9438018798828125,-0.2274932861328125,0.04193115234375
1782845424555463700,2.482463623046875,-0.95257568359375,-0.229248046875,0.0407867431640625
1782845424565468700,2.49246875,-0.972869873046875,-0.2288970947265625,0.0406646728515625
1782845424575473000,2.502472900390625,-0.9905548095703125,-0.228759765625,0.0387115478515625
1782845424585478000,2.512477783203125,-1.0021820068359375,-0.229217529296875,0.033416748046875
1782845424595481900,2.52248193359375,-1.0102386474609375,-0.23468017578125,0.03173828125
1782845424605486800,2.53248681640625,-1.0162506103515625,-0.24603271484375,0.032562255859375
1782845424615490800,2.54249072265625,-1.0134124755859375,-0.252532958984375,0.029815673828125
1782845424625495800,2.552495849609375,-1.0107269287109375,-0.2564697265625,0.029876708984375
1782845424635500000,2.5625,-1.004302978515625,-0.258514404296875,0.0224151611328125
1782845424645505000,2.572505126953125,-1.0090179443359375,-0.254730224609375,0.02020263671875
1782845424655509000,2.582509033203125,-1.0124969482421875,-0.2479705810546875,0.0115203857421875
1782845424665514000,2.592513916015625,-1.011871337890625,-0.2427978515625,0.001922607421875
1782845424675517700,2.602517578125,-1.0106048583984375,-0.23822021484375,-0.009002685546875
1782845424685522700,2.612522705078125,-1.008758544921875,-0.2389678955078125,-0.0140533447265625
1782845424695527700,2.622527587890625,-0.9996490478515625,-0.240631103515625,-0.0186309814453125
1782845424705532000,2.632531982421875,-0.9877777099609375,-0.245330810546875,-0.0217742919921875
1782845424715537000,2.642536865234375,-0.9776763916015625,-0.2513580322265625,-0.0265655517578125
1782845424725540900,2.652540771484375,-0.9761505126953125,-0.2490386962890625,-0.0297698974609375
1782845424735545900,2.6625458984375,-0.97998046875,-0.2490081787109375,-0.02716064453125
1782845424745549600,2.672549560546875,-0.98614501953125,-0.2506103515625,-0.0274810791015625
1782845424755554600,2.682554443359375,-1.0048065185546875,-0.2552337646484375,-0.0211181640625
1782845424765558800,2.692558837890625,-1.0275726318359375,-0.2596893310546875,-0.0124969482421875
1782845424775563800,2.702563720703125,-1.0447540283203125,-0.2624969482421875,-0.0059051513671875
1782845424785567700,2.712567626953125,-1.0604095458984375,-0.26397705078125,0.002716064453125
1782845424795572700,2.72257275390625,-1.054840087890625,-0.251129150390625,-0.001312255859375
1782845424805576700,2.73257666015625,-1.019287109375,-0.2363433837890625,-0.0145111083984375
1782845424815581700,2.742581787109375,-0.982025146484375,-0.2289276123046875,-0.0240325927734375
1782845424825586000,2.7525859375,-0.93035888671875,-0.2235565185546875,-0.0278778076171875
1782845424835591000,2.7625908203125,-0.9023590087890625,-0.2164154052734375,-0.025421142578125
1782845424845595000,2.772594970703125,-0.9046783447265625,-0.2033843994140625,-0.001068115234375
1782845424855599900,2.782599853515625,-0.9169769287109375,-0.201446533203125,0.0131683349609375
1782845424865603600,2.792603515625,-0.9419097900390625,-0.2120513916015625,0.0164642333984375
1782845424875608600,2.802608642578125,-0.9854888916015625,-0.2183685302734375,0.0364532470703125
1782845424885613600,2.812613525390625,-1.033111572265625,-0.209228515625,0.05322265625
1782845424895617800,2.82261767578125,-1.0709075927734375,-0.2095184326171875,0.0553131103515625
1782845424905622800,2.832622802734375,-1.0925140380859375,-0.213287353515625,0.051971435546875
1782845424915626800,2.842626708984375,-1.0898895263671875,-0.2182159423828125,0.048095703125
1782845424925631700,2.8526318359375,-1.069549560546875,-0.22052001953125,0.0415802001953125
1782845424935635700,2.8626357421875,-1.039276123046875,-0.225494384765625,0.0309600830078125
1782845424945640700,2.872640625,-1.003631591796875,-0.2284393310546875,0.0172882080078125
1782845424955645000,2.88264501953125,-0.9809417724609375,-0.21917724609375,0.00628662109375
1782845424965650000,2.89264990234375,-0.9685516357421875,-0.2037506103515625,0.001434326171875
1782845424975653600,2.902653564453125,-0.95159912109375,-0.189208984375,-0.0042877197265625
1782845424985659000,2.912658935546875,-0.940032958984375,-0.1795654296875,0.0018463134765625
1782845424995662600,2.92266259765625,-0.949310302734375,-0.16644287109375,0.0114288330078125
1782845425005667600,2.93266748046875,-0.95086669921875,-0.1504974365234375,0.014251708984375
1782845425015671800,2.942671875,-0.953704833984375,-0.1430511474609375,0.0171356201171875
1782845425025676800,2.9526767578125,-0.9543304443359375,-0.1433258056640625,0.0181884765625
1782845425035680800,2.9626806640625,-0.940887451171875,-0.14605712890625,0.0260162353515625
1782845425045685800,2.972685791015625,-0.921630859375,-0.1466522216796875,0.0409393310546875
1782845425055690800,2.982690673828125,-0.9006195068359375,-0.1476898193359375,0.056549072265625
1782845425065694700,2.99269482421875,-0.88262939453125,-0.1522064208984375,0.07513427734375
1782845425075699700,3.00269970703125,-0.87872314453125,-0.1607666015625,0.0946197509765625
1782845425085704000,3.012703857421875,-0.887969970703125,-0.1715240478515625,0.1144866943359375
1782845425095709000,3.022708984375,-0.8972320556640625,-0.1790618896484375,0.1298370361328125
1782845425105712600,3.032712646484375,-0.9147186279296875,-0.191375732421875,0.130950927734375
1782845425115717600,3.042717529296875,-0.92425537109375,-0.2012176513671875,0.137725830078125
1782845425125721600,3.0527216796875,-0.9261627197265625,-0.210540771484375,0.146575927734375
1782845425135726600,3.0627265625,-0.9255218505859375,-0.2186737060546875,0.153564453125
1782845425145730800,3.072730712890625,-0.930419921875,-0.228912353515625,0.159698486328125
1782845425155735800,3.08273583984375,-0.9340057373046875,-0.2366485595703125,0.1571197509765625
1782845425165739800,3.09273974609375,-0.9408111572265625,-0.2397003173828125,0.150299072265625
1782845425175744800,3.102744873046875,-0.9551544189453125,-0.2401580810546875,0.136749267578125
1782845425185748700,3.112748779296875,-0.9812774658203125,-0.2436981201171875,0.12091064453125
1782845425195753700,3.122753662109375,-1.0071258544921875,-0.2478790283203125,0.1090850830078125
1782845425205758000,3.132758056640625,-1.0385284423828125,-0.2352142333984375,0.1038360595703125
1782845425215763000,3.142762939453125,-1.0644989013671875,-0.2277069091796875,0.1028289794921875
1782845425225766700,3.1527666015625,-1.079010009765625,-0.226531982421875,0.102020263671875
1782845425235771600,3.162771728515625,-1.0819091796875,-0.2354278564453125,0.08929443359375
1782845425245776600,3.172776611328125,-1.0752716064453125,-0.234527587890625,0.08074951171875
1782845425255780600,3.182780517578125,-1.05291748046875,-0.2241973876953125,0.0712738037109375
1782845425265785600,3.19278564453125,-1.0144195556640625,-0.21124267578125,0.0585174560546875
1782845425275789800,3.202789794921875,-0.980224609375,-0.2038116455078125,0.0477752685546875
1782845425285794800,3.212794921875,-0.947998046875,-0.203033447265625,0.04327392578125
1782845425295798800,3.222798828125,-0.913055419921875,-0.20037841796875,0.036346435546875
1782845425305803800,3.2328037109375,-0.88983154296875,-0.2011260986328125,0.03289794921875
1782845425315807700,3.242807861328125,-0.872894287109375,-0.2083740234375,0.0290985107421875
1782845425325812700,3.252812744140625,-0.86474609375,-0.2052459716796875,0.0300750732421875
1782845425335817000,3.26281689453125,-0.8721923828125,-0.2042236328125,0.033782958984375
1782845425345822000,3.272822021484375,-0.8886260986328125,-0.2061920166015625,0.038421630859375
1782845425355825700,3.28282568359375,-0.9087982177734375,-0.2093658447265625,0.045501708984375
1782845425365830700,3.29283056640625,-0.9194488525390625,-0.216400146484375,0.0505218505859375
1782845425375834600,3.302834716796875,-0.9277801513671875,-0.2216644287109375,0.062957763671875
1782845425385839600,3.312839599609375,-0.935821533203125,-0.2267303466796875,0.0720062255859375
1782845425395843800,3.32284375,-0.9368133544921875,-0.2316741943359375,0.0762939453125
1782845425405848800,3.332848876953125,-0.932037353515625,-0.23931884765625,0.0746002197265625
1782845425415852800,3.342852783203125,-0.9216766357421875,-0.246490478515625,0.073516845703125
1782845425425857800,3.35285791015625,-0.908203125,-0.2525787353515625,0.0722808837890625
1782845425435862800,3.36286279296875,-0.8959503173828125,-0.2430877685546875,0.0718994140625
1782845425445866800,3.37286669921875,-0.889373779296875,-0.23211669921875,0.0677642822265625
1782845425455871700,3.382871826171875,-0.8910675048828125,-0.227325439453125,0.060516357421875
1782845425465876000,3.3928759765625,-0.8970794677734375,-0.222686767578125,0.050079345703125
1782845425475881000,3.402880859375,-0.9061431884765625,-0.2145843505859375,0.0449066162109375
1782845425485884700,3.412884765625,-0.9169769287109375,-0.2172088623046875,0.041015625
1782845425495889700,3.4228896484375,-0.924041748046875,-0.226470947265625,0.0373687744140625
1782845425505893600,3.4328935546875,-0.9243927001953125,-0.2349090576171875,0.03594970703125
1782845425515898600,3.442898681640625,-0.928558349609375,-0.246063232421875,0.0343017578125
1782845425525902800,3.45290283203125,-0.9396514892578125,-0.254547119140625,0.0371551513671875
1782845425535907800,3.462907958984375,-0.949951171875,-0.2596282958984375,0.0358123779296875
1782845425545911800,3.472911865234375,-0.960845947265625,-0.265289306640625,0.0347747802734375
1782845425555916800,3.482916748046875,-0.9714813232421875,-0.27630615234375,0.0326690673828125
1782845425565920800,3.492920654296875,-0.9800872802734375,-0.2819976806640625,0.031768798828125
1782845425575925800,3.50292578125,-0.989288330078125,-0.28277587890625,0.03350830078125
1782845425585930000,3.512929931640625,-0.9879608154296875,-0.2779693603515625,0.0404205322265625
1782845425595935000,3.52293505859375,-0.9777374267578125,-0.2743377685546875,0.043487548828125
1782845425605938700,3.532938720703125,-0.96356201171875,-0.2886810302734375,0.036895751953125
1782845425615943700,3.542943603515625,-0.940643310546875,-0.311920166015625,0.0355377197265625
1782845425625948700,3.55294873046875,-0.9257659912109375,-0.3130950927734375,0.0424346923828125
1782845425635952600,3.56295263671875,-0.9148712158203125,-0.3115081787109375,0.0484161376953125
1782845425645957600,3.57295751953125,-0.90960693359375,-0.315643310546875,0.05419921875
1782845425655961900,3.5829619140625,-0.90374755859375,-0.30694580078125,0.065185546875
1782845425665966800,3.592966796875,-0.8969573974609375,-0.29583740234375,0.0771484375
1782845425675970800,3.602970703125,-0.8952484130859375,-0.2907867431640625,0.08905029296875
1782845425685975800,3.612975830078125,-0.9061431884765625,-0.288177490234375,0.099334716796875
1782845425695979800,3.622979736328125,-0.9225311279296875,-0.2864532470703125,0.102203369140625
1782845425705984800,3.63298486328125,-0.940155029296875,-0.285491943359375,0.094635009765625
1782845425715989000,3.642989013671875,-0.956146240234375,-0.28839111328125,0.084625244140625
1782845425725994000,3.652993896484375,-0.9725494384765625,-0.29962158203125,0.0761260986328125
1782845425735997700,3.662997802734375,-0.9898529052734375,-0.308990478515625,0.0774688720703125
1782845425746002700,3.673002685546875,-1.004302978515625,-0.3170166015625,0.0808868408203125
1782845425756006700,3.683006591796875,-1.0118408203125,-0.327667236328125,0.071624755859375
1782845425766011600,3.69301171875,-1.01312255859375,-0.337646484375,0.0655059814453125
1782845425776016000,3.703015869140625,-1.017364501953125,-0.346588134765625,0.05963134765625
1782845425786020900,3.713020751953125,-1.02117919921875,-0.3553924560546875,0.05340576171875
1782845425796025900,3.72302587890625,-1.0257720947265625,-0.3614044189453125,0.0426483154296875
1782845425806029600,3.733029541015625,-1.031219482421875,-0.34869384765625,0.034881591796875
1782845425816034600,3.74303466796875,-1.039276123046875,-0.3298187255859375,0.0239715576171875
1782845425826038500,3.75303857421875,-1.0474853515625,-0.3197174072265625,0.0110931396484375
1782845425836043500,3.76304345703125,-1.0582733154296875,-0.313568115234375,0.0071258544921875
1782845425846047700,3.7730478515625,-1.0683135986328125,-0.2971954345703125,0.012908935546875
1782845425856052700,3.783052734375,-1.084747314453125,-0.265960693359375,0.0269775390625
1782845425866056700,3.793056640625,-1.1045379638671875,-0.2328338623046875,0.037078857421875
1782845425876061700,3.803061767578125,-1.1187286376953125,-0.21441650390625,0.0388946533203125
1782845425886065700,3.813065673828125,-1.124298095703125,-0.211334228515625,0.040618896484375
1782845425896070700,3.823070556640625,-1.1222076416015625,-0.21038818359375,0.0484771728515625
1782845425906074600,3.83307470703125,-1.1158294677734375,-0.2026519775390625,0.05657958984375
1782845425916079900,3.843079833984375,-1.095367431640625,-0.194061279296875,0.0597686767578125
1782845425926083600,3.85308349609375,-1.0663909912109375,-0.1829376220703125,0.0532073974609375
1782845425936088600,3.863088623046875,-1.0228118896484375,-0.1828155517578125,0.0388031005859375
1782845425946092500,3.873092529296875,-0.9787445068359375,-0.1855010986328125,0.02880859375
1782845425956097500,3.88309765625,-0.939697265625,-0.1829376220703125,0.020172119140625
1782845425966101800,3.893101806640625,-0.90081787109375,-0.1869964599609375,0.01068115234375
1782845425976106800,3.903106689453125,-0.868194580078125,-0.1753692626953125,0.012847900390625
1782845425986111700,3.91311181640625,-0.8355255126953125,-0.170074462890625,0.015289306640625
1782845425996115700,3.92311572265625,-0.804290771484375,-0.18170166015625,0.0175323486328125
1782845426006120700,3.93312060546875,-0.7806243896484375,-0.1917266845703125,0.022430419921875
1782845426016124700,3.943124755859375,-0.7660064697265625,-0.1995086669921875,0.02935791015625
1782845426026129700,3.953129638671875,-0.7638397216796875,-0.2023773193359375,0.03070068359375
1782845426036133600,3.963133544921875,-0.768951416015625,-0.1919403076171875,0.0408477783203125
1782845426046138600,3.973138671875,-0.773651123046875,-0.1850128173828125,0.0477294921875
1782845426056142600,3.983142578125,-0.780853271484375,-0.183868408203125,0.0564727783203125
1782845426066147600,3.993147705078125,-0.80987548828125,-0.1683197021484375,0.0637359619140625
1782845426076151600,4.003151611328125,-0.845703125,-0.1603240966796875,0.0566253662109375
1782845426086156500,4.013156494140625,-0.8882904052734375,-0.1567840576171875,0.0397796630859375
1782845426096160800,4.023160888671875,-0.94775390625,-0.14141845703125,0.034210205078125
1782845426106165800,4.033165771484375,-1.0090789794921875,-0.1262054443359375,0.0200042724609375
1782845426116169700,4.043169677734375,-1.0587005615234375,-0.118408203125,0.0066070556640625
1782845426126174700,4.0531748046875,-1.0961761474609375,-0.11572265625,0.002227783203125
1782845426136178700,4.0631787109375,-1.12188720703125,-0.1120147705078125,-0.007080078125
1782845426146183700,4.07318359375,-1.1280364990234375,-0.1036834716796875,-0.0202484130859375
1782845426156187600,4.083187744140625,-1.1094970703125,-0.08642578125,-0.02349853515625
1782845426166192600,4.093192626953125,-1.0687255859375,-0.072998046875,-0.0252685546875
1782845426176197600,4.10319775390625,-1.020050048828125,-0.0694732666015625,-0.0215606689453125
1782845426186201600,4.11320166015625,-0.9809112548828125,-0.0670013427734375,-0.020233154296875
1782845426196206600,4.12320654296875,-0.9502716064453125,-0.063507080078125,-0.0175323486328125
1782845426206210600,4.13321044921875,-0.9344940185546875,-0.0643463134765625,-0.0087432861328125
1782845426216215600,4.143215576171875,-0.9211883544921875,-0.072235107421875,0.0060577392578125
1782845426226219800,4.1532197265625,-0.9079132080078125,-0.0904083251953125,0.019012451171875
1782845426236224800,4.163224853515625,-0.9074554443359375,-0.10491943359375,0.032745361328125
1782845426246228700,4.173228759765625,-0.914276123046875,-0.1167755126953125,0.0444183349609375
1782845426256233700,4.183233642578125,-0.92999267578125,-0.1297454833984375,0.0590972900390625
1782845426266237700,4.19323779296875,-0.95172119140625,-0.14068603515625,0.070465087890625
1782845426276242700,4.20324267578125,-0.9795379638671875,-0.15118408203125,0.081817626953125
1782845426286246700,4.21324658203125,-1.0073089599609375,-0.1566314697265625,0.0834808349609375
1782845426296251600,4.223251708984375,-1.0281829833984375,-0.156585693359375,0.0830078125
1782845426306255600,4.233255615234375,-1.040618896484375,-0.164947509765625,0.0840606689453125
1782845426316260600,4.243260498046875,-1.0483551025390625,-0.1713409423828125,0.083526611328125
1782845426326264600,4.2532646484375,-1.0477752685546875,-0.17230224609375,0.085723876953125
1782845426336269600,4.26326953125,-1.03643798828125,-0.1783599853515625,0.085357666015625
1782845426346273500,4.2732734375,-1.0281219482421875,-0.1718292236328125,0.080657958984375
1782845426356278800,4.28327880859375,-1.0168609619140625,-0.1634063720703125,0.0723876953125
1782845426366283800,4.29328369140625,-0.994110107421875,-0.158966064453125,0.0572357177734375
1782845426376287700,4.303287841796875,-0.9754180908203125,-0.153900146484375,0.0404510498046875
1782845426386292700,4.313292724609375,-0.9567718505859375,-0.154144287109375,0.0257720947265625
1782845426396296700,4.323296630859375,-0.9403533935546875,-0.16064453125,0.008026123046875
1782845426406301700,4.3333017578125,-0.9361114501953125,-0.1653289794921875,-0.00604248046875
1782845426416305700,4.3433056640625,-0.9347686767578125,-0.1691436767578125,-0.018890380859375
1782845426426310700,4.353310546875,-0.9300079345703125,-0.1731719970703125,-0.026092529296875
1782845426436314600,4.363314697265625,-0.9273223876953125,-0.1777496337890625,-0.02978515625
1782845426446319600,4.373319580078125,-0.9267578125,-0.186798095703125,-0.0297393798828125
1782845426456323600,4.383323486328125,-0.9275360107421875,-0.1981201171875,-0.0293426513671875
1782845426466328600,4.39332861328125,-0.9354705810546875,-0.2036285400390625,-0.0333099365234375
1782845426476332500,4.40333251953125,-0.9505157470703125,-0.2120819091796875,-0.0347137451171875
1782845426486337500,4.413337646484375,-0.9705963134765625,-0.221954345703125,-0.0346832275390625
1782845426496341800,4.423341796875,-0.995758056640625,-0.22076416015625,-0.0345306396484375
1782845426506346800,4.4333466796875,-1.01947021484375,-0.220001220703125,-0.03656005859375
1782845426516350700,4.443350830078125,-1.0469970703125,-0.2235870361328125,-0.0362548828125
1782845426526355700,4.453355712890625,-1.0680389404296875,-0.2236785888671875,-0.03741455078125
1782845426536359400,4.463359375,-1.07928466796875,-0.2206268310546875,-0.03289794921875
1782845426546364700,4.47336474609375,-1.0770111083984375,-0.2164459228515625,-0.0303955078125
1782845426556369700,4.48336962890625,-1.069488525390625,-0.20953369140625,-0.0281829833984375
1782845426566373600,4.49337353515625,-1.0517425537109375,-0.201385498046875,-0.027862548828125
1782845426576378600,4.503378662109375,-1.029754638671875,-0.2007904052734375,-0.02880859375
1782845426586382600,4.513382568359375,-1.005340576171875,-0.2024993896484375,-0.027099609375
1782845426596387600,4.5233876953125,-0.9850616455078125,-0.1986541748046875,-0.02276611328125
1782845426606391600,4.5333916015625,-0.96771240234375,-0.1950531005859375,-0.0215911865234375
1782845426616396500,4.543396484375,-0.9501495361328125,-0.196502685546875,-0.02655029296875
1782845426626400800,4.55340087890625,-0.936248779296875,-0.1943817138671875,-0.0267791748046875
1782845426636405800,4.56340576171875,-0.9270782470703125,-0.1949462890625,-0.0238037109375
1782845426646409700,4.57340966796875,-0.9266815185546875,-0.1943206787109375,-0.0238189697265625
1782845426656414700,4.583414794921875,-0.9335784912109375,-0.19110107421875,-0.0262908935546875
1782845426666418400,4.59341845703125,-0.9296875,-0.191009521484375,-0.0347137451171875
1782845426676423400,4.60342333984375,-0.926483154296875,-0.186126708984375,-0.0413055419921875
1782845426686427600,4.613427734375,-0.9276580810546875,-0.1741943359375,-0.0395660400390625
1782845426696432600,4.6234326171875,-0.929840087890625,-0.1735992431640625,-0.031768798828125
1782845426706436600,4.6334365234375,-0.9241485595703125,-0.170623779296875,-0.0293121337890625
1782845426716441600,4.643441650390625,-0.9192352294921875,-0.174896240234375,-0.02972412109375
1782845426726445600,4.653445556640625,-0.91851806640625,-0.1838531494140625,-0.029205322265625
1782845426736450600,4.663450439453125,-0.933135986328125,-0.1975250244140625,-0.0255279541015625
1782845426746454800,4.673454833984375,-0.9646148681640625,-0.2091522216796875,-0.015869140625
1782845426756459800,4.683459716796875,-1.001312255859375,-0.2091827392578125,-0.0059356689453125
1782845426766464800,4.69346484375,-1.0340728759765625,-0.2095794677734375,-0.003204345703125
1782845426776468700,4.70346875,-1.0571746826171875,-0.2160186767578125,0.00103759765625
1782845426786473700,4.7134736328125,-1.0683441162109375,-0.223541259765625,0.0088653564453125
1782845426796477400,4.7234775390625,-1.0641937255859375,-0.2288360595703125,0.0155029296875
1782845426806482400,4.733482421875,-1.04742431640625,-0.2340087890625,0.01751708984375
1782845426816486700,4.743486572265625,-1.034454345703125,-0.23760986328125,0.01904296875
1782845426826491600,4.75349169921875,-1.025909423828125,-0.241302490234375,0.0146026611328125
1782845426836495600,4.76349560546875,-1.0082550048828125,-0.243804931640625,0.00872802734375
1782845426846500600,4.77350048828125,-0.98565673828125,-0.243255615234375,0.0036773681640625
1782845426856504600,4.783504638671875,-0.962127685546875,-0.2474517822265625,-0.0044403076171875
1782845426866509600,4.793509521484375,-0.9456329345703125,-0.2487030029296875,-0.0110321044921875
1782845426876513800,4.803513671875,-0.94189453125,-0.2420196533203125,-0.018585205078125
1782845426886518800,4.813518798828125,-0.9457855224609375,-0.2344818115234375,-0.0262603759765625
1782845426896522800,4.823522705078125,-0.9469451904296875,-0.2297210693359375,-0.0391082763671875
1782845426906527700,4.83352783203125,-0.9477081298828125,-0.2216949462890625,-0.046783447265625
1782845426916531500,4.843531494140625,-0.9535064697265625,-0.2190399169921875,-0.0498046875
1782845426926536400,4.853536376953125,-0.957855224609375,-0.221282958984375,-0.049591064453125
1782845426936540700,4.863540771484375,-0.9596405029296875,-0.2190704345703125,-0.047088623046875
1782845426946545700,4.873545654296875,-0.9659881591796875,-0.2127838134765625,-0.05029296875
1782845426956550700,4.883550537109375,-0.97198486328125,-0.20703125,-0.0502471923828125
1782845426966554600,4.8935546875,-0.97998046875,-0.2002716064453125,-0.038421630859375
1782845426976559600,4.9035595703125,-0.9986114501953125,-0.2021026611328125,-0.017547607421875
1782845426986563600,4.9135634765625,-1.0334930419921875,-0.2064361572265625,0.0029754638671875
1782845426996568600,4.923568603515625,-1.075958251953125,-0.2035064697265625,0.0204925537109375
1782845427006572800,4.93357275390625,-1.107666015625,-0.195404052734375,0.0378570556640625
1782845427016577800,4.943577880859375,-1.1151580810546875,-0.1877899169921875,0.0433807373046875
1782845427026581500,4.95358154296875,-1.11297607421875,-0.189605712890625,0.0428009033203125
1782845427036586500,4.96358642578125,-1.0965118408203125,-0.189849853515625,0.0423431396484375
1782845427046590500,4.973590576171875,-1.0596160888671875,-0.1867828369140625,0.0412445068359375
1782845427056595500,4.983595458984375,-1.011199951171875,-0.186187744140625,0.037628173828125
1782845427066599700,4.993599609375,-0.968963623046875,-0.1909942626953125,0.0223388671875
1782845427076604700,5.003604736328125,-0.93487548828125,-0.19317626953125,0.0023193359375
1782845427086608600,5.013608642578125,-0.912689208984375,-0.1898040771484375,-0.0120391845703125
1782845427096613600,5.023613525390625,-0.897430419921875,-0.1856536865234375,-0.0211334228515625
1782845427106617600,5.03361767578125,-0.8839263916015625,-0.17974853515625,-0.02099609375
1782845427116622600,5.04362255859375,-0.880157470703125,-0.1757659912109375,-0.0134429931640625
1782845427126626800,5.053626708984375,-0.88360595703125,-0.172943115234375,-0.00225830078125
1782845427136631800,5.0636318359375,-0.891571044921875,-0.171905517578125,0.010772705078125
1782845427146635500,5.073635498046875,-0.8930206298828125,-0.1725921630859375,0.0254058837890625
1782845427156640500,5.083640625,-0.8921051025390625,-0.1699066162109375,0.0378265380859375
1782845427166645500,5.0936455078125,-0.90264892578125,-0.1677398681640625,0.04547119140625
1782845427176649500,5.1036494140625,-0.922454833984375,-0.1729583740234375,0.0516357421875
1782845427186654500,5.113654541015625,-0.949951171875,-0.1699371337890625,0.062530517578125
1782845427196658700,5.12365869140625,-0.9787139892578125,-0.1605682373046875,0.066680908203125
1782845427206663700,5.13366357421875,-1.0050201416015625,-0.15484619140625,0.072113037109375
1782845427216667600,5.143667724609375,-1.0092620849609375,-0.1570892333984375,0.078033447265625
1782845427226672600,5.153672607421875,-1.0050811767578125,-0.1611175537109375,0.088104248046875
1782845427236676600,5.163676513671875,-0.995635986328125,-0.1695098876953125,0.1021881103515625
1782845427246681600,5.173681640625,-0.978790283203125,-0.1797943115234375,0.113616943359375
1782845427256685800,5.183685791015625,-0.965728759765625,-0.19512939453125,0.124664306640625
1782845427266690800,5.19369091796875,-0.9600830078125,-0.2138824462890625,0.132598876953125
1782845427276694500,5.203694580078125,-0.963714599609375,-0.2255401611328125,0.13482666015625
1782845427286699500,5.213699462890625,-0.97149658203125,-0.2335662841796875,0.1389007568359375
1782845427296703500,5.223703369140625,-0.9824676513671875,-0.240447998046875,0.141998291015625
1782845427306708500,5.23370849609375,-0.9898681640625,-0.2483367919921875,0.1441192626953125
1782845427316712700,5.243712646484375,-0.9946441650390625,-0.26055908203125,0.1441650390625
1782845427326717700,5.2537177734375,-1.002166748046875,-0.2785797119140625,0.141632080078125
1782845427336721700,5.2637216796875,-1.011627197265625,-0.2877197265625,0.143402099609375
1782845427346726700,5.2737265625,-1.02386474609375,-0.2793731689453125,0.13983154296875
1782845427356731600,5.283731689453125,-1.0283966064453125,-0.274444580078125,0.1251678466796875
1782845427366735600,5.293735595703125,-1.0233001708984375,-0.284454345703125,0.107574462890625
1782845427376740600,5.30374072265625,-1.0173492431640625,-0.282318115234375,0.0955657958984375
1782845427386744800,5.313744873046875,-1.0114288330078125,-0.2685394287109375,0.0817108154296875
1782845427396749800,5.323749755859375,-1.00238037109375,-0.2581634521484375,0.063140869140625
1782845427406753500,5.33375341796875,-0.9901580810546875,-0.2497100830078125,0.05078125
1782845427416758500,5.343758544921875,-0.98626708984375,-0.2410430908203125,0.0395355224609375
1782845427426762500,5.353762451171875,-0.9747161865234375,-0.23187255859375,0.0349578857421875
1782845427436767500,5.363767578125,-0.9525299072265625,-0.2270660400390625,0.035186767578125
1782845427446771700,5.373771728515625,-0.933074951171875,-0.228546142578125,0.0370330810546875
1782845427456776700,5.383776611328125,-0.9108428955078125,-0.2298583984375,0.0384368896484375
1782845427466780700,5.39378076171875,-0.8904266357421875,-0.2270355224609375,0.0456085205078125
1782845427476785700,5.40378564453125,-0.8780059814453125,-0.227783203125,0.0562744140625
1782845427486789600,5.41378955078125,-0.8707427978515625,-0.2296295166015625,0.071502685546875
1782845427496794600,5.423794677734375,-0.8533172607421875,-0.2383575439453125,0.0808868408203125
1782845427506798800,5.433798828125,-0.8474578857421875,-0.2476959228515625,0.09136962890625
1782845427516803800,5.443803955078125,-0.8499908447265625,-0.24981689453125,0.104278564453125
1782845427526807600,5.4538076171875,-0.8540802001953125,-0.249664306640625,0.116912841796875
1782845427536812500,5.4638125,-0.8642730712890625,-0.246490478515625,0.1252593994140625
1782845427546816500,5.47381640625,-0.876678466796875,-0.244232177734375,0.130340576171875
1782845427556821500,5.483821533203125,-0.88897705078125,-0.252777099609375,0.138641357421875
1782845427566826500,5.493826416015625,-0.8963470458984375,-0.2552032470703125,0.1515045166015625
1782845427576830700,5.503830810546875,-0.905059814453125,-0.2520904541015625,0.158660888671875
1782845427586835700,5.513835693359375,-0.91064453125,-0.2451629638671875,0.1637115478515625
1782845427596839700,5.523839599609375,-0.903045654296875,-0.244842529296875,0.1583099365234375
1782845427606844700,5.5338447265625,-0.8877716064453125,-0.25067138671875,0.15777587890625
1782845427616848600,5.5438486328125,-0.87664794921875,-0.261077880859375,0.1479644775390625
1782845427626853600,5.553853515625,-0.878021240234375,-0.2635040283203125,0.1365814208984375
1782845427636857900,5.56385791015625,-0.882171630859375,-0.2628936767578125,0.12457275390625
1782845427646862800,5.57386279296875,-0.88555908203125,-0.2646026611328125,0.1150970458984375
1782845427656866600,5.583866455078125,-0.895721435546875,-0.269989013671875,0.10711669921875
1782845427666871600,5.59387158203125,-0.9058837890625,-0.281402587890625,0.09698486328125
1782845427676875500,5.60387548828125,-0.913909912109375,-0.293060302734375,0.08465576171875
1782845427686880500,5.613880615234375,-0.9163055419921875,-0.302154541015625,0.0657958984375
1782845427696884700,5.623884765625,-0.915740966796875,-0.3143157958984375,0.0526885986328125
1782845427706889700,5.6338896484375,-0.92010498046875,-0.32366943359375,0.0353851318359375
1782845427716893700,5.643893798828125,-0.927886962890625,-0.3316192626953125,0.0211029052734375
1782845427726898700,5.653898681640625,-0.9336395263671875,-0.342437744140625,0.01611328125
1782845427736902700,5.663902587890625,-0.9391326904296875,-0.351531982421875,0.016845703125
1782845427746907600,5.67390771484375,-0.94329833984375,-0.3499603271484375,0.0181427001953125
1782845427756911900,5.683911865234375,-0.93328857421875,-0.3458251953125,0.0200653076171875
1782845427766916900,5.693916748046875,-0.92156982421875,-0.351470947265625,0.0203399658203125
1782845427776920800,5.7039208984375,-0.91046142578125,-0.3533477783203125,0.0375823974609375
1782845427786925800,5.71392578125,-0.8922271728515625,-0.3521881103515625,0.055572509765625
1782845427796930800,5.723930908203125,-0.8845062255859375,-0.3486480712890625,0.066497802734375
1782845427806934500,5.7339345703125,-0.8856964111328125,-0.3394012451171875,0.0761871337890625
1782845427816939500,5.743939453125,-0.889251708984375,-0.330474853515625,0.08563232421875
1782845427826943700,5.75394384765625,-0.8975067138671875,-0.3237762451171875,0.1066131591796875
1782845427836948700,5.76394873046875,-0.8982391357421875,-0.3198089599609375,0.12164306640625
1782845427846952700,5.77395263671875,-0.8943328857421875,-0.3130950927734375,0.1394500732421875
1782845427856957700,5.783957763671875,-0.890594482421875,-0.311279296875,0.1526336669921875
1782845427866961700,5.793961669921875,-0.8903656005859375,-0.3128814697265625,0.1564483642578125
1782845427876966700,5.803966552734375,-0.898223876953125,-0.315155029296875,0.1556854248046875
1782845427886971000,5.813970947265625,-0.9158477783203125,-0.3259735107421875,0.156463623046875
1782845427896976000,5.823975830078125,-0.935516357421875,-0.345916748046875,0.1539459228515625
1782845427906979800,5.833979736328125,-0.9623565673828125,-0.3657989501953125,0.14788818359375
1782845427916984800,5.84398486328125,-1.0036773681640625,-0.3949127197265625,0.14129638671875
1782845427926988500,5.853988525390625,-1.042022705078125,-0.4201202392578125,0.136322021484375
1782845427936993500,5.86399365234375,-1.0717010498046875,-0.433807373046875,0.1284332275390625
1782845427946997800,5.873997802734375,-1.08349609375,-0.444732666015625,0.1068878173828125
1782845427957002800,5.884002685546875,-1.080780029296875,-0.460296630859375,0.083953857421875
1782845427967006700,5.8940068359375,-1.0753173828125,-0.4571075439453125,0.0687255859375
1782845427977011700,5.90401171875,-1.0684356689453125,-0.437042236328125,0.0574951171875
1782845427987016700,5.9140166015625,-1.0506134033203125,-0.418914794921875,0.0374603271484375
1782845427997020700,5.924020751953125,-1.046905517578125,-0.382904052734375,0.0340423583984375
1782845428007025700,5.934025634765625,-1.0648040771484375,-0.326385498046875,0.0330352783203125
1782845428017030000,5.94402978515625,-1.084564208984375,-0.2599334716796875,0.0382843017578125
1782845428027035000,5.954034912109375,-1.1030426025390625,-0.204559326171875,0.04840087890625
1782845428037038600,5.96403857421875,-1.1171417236328125,-0.1855010986328125,0.057647705078125
1782845428047043800,5.9740439453125,-1.1293487548828125,-0.1744384765625,0.0798797607421875
1782845428057047600,5.984047607421875,-1.140960693359375,-0.1560211181640625,0.1195068359375
1782845428067052500,5.994052490234375,-1.1459808349609375,-0.147552490234375,0.15325927734375
1782845428077056800,6.004056884765625,-1.1225128173828125,-0.14666748046875,0.1692962646484375
1782845428087061800,6.014061767578125,-1.074462890625,-0.15887451171875,0.1689300537109375
1782845428097065700,6.024065673828125,-1.0175628662109375,-0.1690826416015625,0.1641998291015625
1782845428107070700,6.03407080078125,-0.9675750732421875,-0.1752777099609375,0.1530609130859375
1782845428117074700,6.04407470703125,-0.9349365234375,-0.171600341796875,0.139617919921875
1782845428127079700,6.05407958984375,-0.90869140625,-0.1645355224609375,0.125762939453125
1782845428137083600,6.064083740234375,-0.871063232421875,-0.1608123779296875,0.1124725341796875
1782845428147088600,6.074088623046875,-0.8498077392578125,-0.172088623046875,0.1060638427734375
1782845428157092600,6.084092529296875,-0.8208770751953125,-0.1743927001953125,0.1057281494140625
1782845428167097600,6.09409765625,-0.7887725830078125,-0.16326904296875,0.1172332763671875
1782845428177101600,6.1041015625,-0.7757110595703125,-0.1509552001953125,0.1221160888671875
1782845428187106600,6.1141064453125,-0.7711181640625,-0.1447601318359375,0.12310791015625
1782845428197111600,6.124111572265625,-0.7652130126953125,-0.1541900634765625,0.120391845703125
1782845428207115800,6.13411572265625,-0.7537841796875,-0.1611785888671875,0.1257171630859375
1782845428217120800,6.144120849609375,-0.7462615966796875,-0.169403076171875,0.1295928955078125
1782845428227124700,6.154124755859375,-0.751861572265625,-0.16717529296875,0.132904052734375
1782845428237129700,6.164129638671875,-0.76470947265625,-0.160552978515625,0.1236724853515625
1782845428247133700,6.1741337890625,-0.7907867431640625,-0.1492156982421875,0.111968994140625
1782845428257138700,6.184138671875,-0.8362274169921875,-0.1475677490234375,0.0962066650390625
1782845428267142700,6.194142578125,-0.8810882568359375,-0.14044189453125,0.0831451416015625
1782845428277147600,6.204147705078125,-0.92022705078125,-0.13018798828125,0.07672119140625
1782845428287151600,6.214151611328125,-0.9636077880859375,-0.122283935546875,0.0735626220703125
1782845428297156600,6.224156494140625,-1.0052947998046875,-0.1216278076171875,0.0679779052734375
1782845428307160600,6.23416064453125,-1.0338287353515625,-0.116241455078125,0.0571746826171875
1782845428317165600,6.24416552734375,-1.057220458984375,-0.1075592041015625,0.05169677734375
1782845428327169500,6.25416943359375,-1.0785980224609375,-0.1157073974609375,0.0438232421875
1782845428337174500,6.264174560546875,-1.10504150390625,-0.1160888671875,0.035125732421875
1782845428347178800,6.2741787109375,-1.11285400390625,-0.111236572265625,0.0339508056640625
1782845428357183700,6.284183837890625,-1.109954833984375,-0.1167144775390625,0.0314788818359375
1782845428367187700,6.294187744140625,-1.1062774658203125,-0.127227783203125,0.034820556640625
1782845428377192700,6.304192626953125,-1.10028076171875,-0.139068603515625,0.0405426025390625
1782845428387196700,6.31419677734375,-1.089935302734375,-0.14349365234375,0.04425048828125
1782845428397201700,6.32420166015625,-1.076507568359375,-0.14007568359375,0.0384063720703125
1782845428407205600,6.33420556640625,-1.06591796875,-0.1359405517578125,0.0259552001953125
1782845428417210600,6.344210693359375,-1.06207275390625,-0.1332550048828125,0.0126190185546875
1782845428427215600,6.354215576171875,-1.0612335205078125,-0.1300201416015625,-0.0003814697265625
1782845428437219600,6.364219482421875,-1.037139892578125,-0.1294097900390625,-0.004547119140625
1782845428447224600,6.374224609375,-1.0096435546875,-0.13726806640625,-0.010528564453125
1782845428457228500,6.384228515625,-0.98138427734375,-0.1455078125,-0.0131378173828125
1782845428467233500,6.394233642578125,-0.9460296630859375,-0.1562957763671875,-0.0095977783203125
1782845428477237800,6.40423779296875,-0.9195709228515625,-0.162384033203125,-0.0035858154296875
1782845428487242800,6.41424267578125,-0.902435302734375,-0.1624298095703125,0.00372314453125
1782845428497246700,6.424246826171875,-0.88726806640625,-0.1619415283203125,0.0095672607421875
1782845428507251700,6.434251708984375,-0.8711395263671875,-0.1580657958984375,0.01544189453125
1782845428517255700,6.444255615234375,-0.8618011474609375,-0.154998779296875,0.0205535888671875
1782845428527260700,6.4542607421875,-0.87255859375,-0.148651123046875,0.0243072509765625
1782845428537264600,6.4642646484375,-0.895843505859375,-0.1407928466796875,0.0213470458984375
1782845428547269600,6.47426953125,-0.9221343994140625,-0.13494873046875,0.0086212158203125
1782845428557273600,6.484273681640625,-0.9380340576171875,-0.133056640625,-0.0012969970703125
1782845428567278600,6.494278564453125,-0.943511962890625,-0.1340484619140625,-0.00592041015625
1782845428577282600,6.504282470703125,-0.94769287109375,-0.136077880859375,-0.0019989013671875
1782845428587287600,6.51428759765625,-0.9455108642578125,-0.1399383544921875,0.007965087890625
1782845428597291800,6.524291748046875,-0.94964599609375,-0.152008056640625,0.0197296142578125
1782845428607296800,6.534296875,-0.956146240234375,-0.1590728759765625,0.0295867919921875
1782845428617300700,6.54430078125,-0.972900390625,-0.1654510498046875,0.0268096923828125
1782845428627305700,6.5543056640625,-0.999053955078125,-0.1719818115234375,0.0242767333984375
1782845428637309700,6.564309814453125,-1.0161285400390625,-0.183441162109375,0.0101165771484375
1782845428647314700,6.574314697265625,-1.0364227294921875,-0.188995361328125,0.000213623046875
1782845428657319700,6.584319580078125,-1.0516204833984375,-0.19622802734375,-0.010345458984375
1782845428667323600,6.59432373046875,-1.06134033203125,-0.207916259765625,-0.0163421630859375
1782845428677328600,6.60432861328125,-1.0618743896484375,-0.2176055908203125,-0.013092041015625
1782845428687332600,6.61433251953125,-1.0644989013671875,-0.2223358154296875,-0.0088348388671875
1782845428697337600,6.624337646484375,-1.0624847412109375,-0.2193450927734375,-0.0093841552734375
1782845428707341600,6.634341552734375,-1.0521087646484375,-0.21600341796875,-0.0041046142578125
1782845428717346600,6.6443466796875,-1.047943115234375,-0.2161712646484375,-0.0065155029296875
1782845428727350800,6.654350830078125,-1.0355072021484375,-0.201171875,-0.0095367431640625
1782845428737355800,6.664355712890625,-1.017242431640625,-0.18536376953125,-0.009521484375
1782845428747359700,6.67435986328125,-1.0004425048828125,-0.17889404296875,-0.013427734375
1782845428757364200,6.6843642578125,-0.98101806640625,-0.17376708984375,-0.0133514404296875
1782845428767368200,6.6943681640625,-0.9615936279296875,-0.1724853515625,-0.00830078125
1782845428777373400,6.70437353515625,-0.9421539306640625,-0.1715545654296875,-0.0078277587890625
1782845428787377400,6.71437744140625,-0.9262847900390625,-0.18096923828125,-0.0098876953125
1782845428797382400,6.72438232421875,-0.9229583740234375,-0.1894378662109375,-0.01007080078125
1782845428807386000,6.73438623046875,-0.928985595703125,-0.1943511962890625,-0.0122833251953125
1782845428817391000,6.74439111328125,-0.9396820068359375,-0.199737548828125,-0.01861572265625
1782845428827395300,6.754395263671875,-0.956573486328125,-0.205657958984375,-0.0376739501953125
1782845428837400300,6.764400390625,-0.9752044677734375,-0.2049713134765625,-0.0549774169921875
1782845428847404300,6.774404296875,-0.9876861572265625,-0.203094482421875,-0.0620574951171875
1782845428857409300,6.7844091796875,-0.99652099609375,-0.2010955810546875,-0.071044921875
1782845428867414300,6.794414306640625,-0.9949951171875,-0.197235107421875,-0.073944091796875
1782845428877418200,6.804418212890625,-0.9789276123046875,-0.1958770751953125,-0.0792388916015625
1782845428887423200,6.81442333984375,-0.9608917236328125,-0.2044525146484375,-0.078643798828125
1782845428897427200,6.82442724609375,-0.941131591796875,-0.2167510986328125,-0.07421875
1782845428907432200,6.83443212890625,-0.920196533203125,-0.2193145751953125,-0.0694427490234375
1782845428917436400,6.8444365234375,-0.907958984375,-0.2159423828125,-0.0606536865234375
1782845428927441400,6.85444140625,-0.90057373046875,-0.209136962890625,-0.052947998046875
1782845428937445000,6.864445068359375,-0.8963623046875,-0.2057037353515625,-0.04180908203125
1782845428947450000,6.8744501953125,-0.9001617431640625,-0.2072601318359375,-0.031097412109375
1782845428957454000,6.8844541015625,-0.9103546142578125,-0.2101287841796875,-0.022796630859375
1782845428967459300,6.894459228515625,-0.9222564697265625,-0.213531494140625,-0.017120361328125
1782845428977463300,6.90446337890625,-0.941497802734375,-0.2220306396484375,-0.0086212158203125
1782845428987468300,6.91446826171875,-0.95697021484375,-0.23431396484375,0.0010833740234375
1782845428997472300,6.92447216796875,-0.968475341796875,-0.2430419921875,0.006378173828125
1782845429007477200,6.934477294921875,-0.9763336181640625,-0.2527923583984375,0.0085296630859375
1782845429017481200,6.944481201171875,-0.98028564453125,-0.2640380859375,0.01116943359375
1782845429027486200,6.954486328125,-0.987457275390625,-0.2657623291015625,0.0095977783203125
1782845429037490400,6.964490478515625,-0.998260498046875,-0.267822265625,0.0005645751953125
1782845429047495400,6.974495361328125,-1.0094451904296875,-0.26953125,-0.00775146484375
1782845429057499100,6.9844990234375,-1.0274505615234375,-0.262420654296875,-0.0047454833984375
1782845429067504000,6.994504150390625,-1.0438232421875,-0.2458648681640625,-0.00421142578125
1782845429077508000,7.004508056640625,-1.067047119140625,-0.233367919921875,-0.0146636962890625
1782845429087513000,7.01451318359375,-1.0751953125,-0.224334716796875,-0.0306854248046875
1782845429097518000,7.02451806640625,-1.0709075927734375,-0.2186431884765625,-0.0372467041015625
1782845429107522300,7.034522216796875,-1.059844970703125,-0.2087554931640625,-0.04052734375
1782845429117527300,7.04452734375,-1.0378875732421875,-0.19476318359375,-0.03460693359375
1782845429127531300,7.05453125,-1.03857421875,-0.1992645263671875,-0.01885986328125
1782845429137536300,7.064536376953125,-1.059234619140625,-0.2035064697265625,0.0081329345703125
1782845429147540200,7.074540283203125,-1.0914764404296875,-0.19464111328125,0.0484619140625
1782845429157545200,7.084545166015625,-1.121063232421875,-0.18603515625,0.0805206298828125
1782845429167549400,7.094549560546875,-1.144927978515625,-0.1790618896484375,0.095245361328125
1782845429177554400,7.104554443359375,-1.154815673828125,-0.17218017578125,0.0936737060546875
1782845429187558100,7.11455810546875,-1.1515045166015625,-0.16168212890625,0.0865936279296875
1782845429197563100,7.124563232421875,-1.1415863037109375,-0.157867431640625,0.0736236572265625
1782845429207567000,7.134567138671875,-1.1064605712890625,-0.161468505859375,0.046875
1782845429217572000,7.144572021484375,-1.049957275390625,-0.1650848388671875,0.0150299072265625
1782845429227576300,7.154576416015625,-0.992401123046875,-0.1709442138671875,-0.0132904052734375
1782845429237581300,7.164581298828125,-0.9452056884765625,-0.1697235107421875,-0.040679931640625
1782845429247585300,7.174585205078125,-0.89617919921875,-0.15948486328125,-0.0588531494140625
1782845429257590300,7.18459033203125,-0.8526458740234375,-0.149871826171875,-0.06304931640625
1782845429267594200,7.19459423828125,-0.826446533203125,-0.1463470458984375,-0.061981201171875
1782845429277599200,7.20459912109375,-0.82452392578125,-0.14105224609375,-0.0514678955078125
1782845429287603500,7.214603515625,-0.8410797119140625,-0.1358489990234375,-0.040740966796875
1782845429297608400,7.2246083984375,-0.852081298828125,-0.1356201171875,-0.040069580078125
1782845429307612200,7.234612060546875,-0.850830078125,-0.137664794921875,-0.0467071533203125
1782845429317617200,7.2446171875,-0.8437957763671875,-0.1470947265625,-0.039581298828125
1782845429327622100,7.2546220703125,-0.83587646484375,-0.1566162109375,-0.0191192626953125
1782845429337626000,7.264626220703125,-0.833953857421875,-0.162261962890625,0.005584716796875
1782845429347631000,7.274631103515625,-0.84271240234375,-0.1620330810546875,0.02496337890625
1782845429357635300,7.28463525390625,-0.873138427734375,-0.1560211181640625,0.0405426025390625
1782845429367640300,7.294640380859375,-0.9114227294921875,-0.1505584716796875,0.058441162109375
1782845429377644300,7.304644287109375,-0.9433746337890625,-0.14453125,0.07403564453125
1782845429387649300,7.314649169921875,-0.971343994140625,-0.1397857666015625,0.084625244140625
1782845429397653200,7.3246533203125,-0.999664306640625,-0.1431427001953125,0.100311279296875
1782845429407658200,7.334658203125,-1.0247955322265625,-0.14605712890625,0.116943359375
1782845429417662500,7.344662353515625,-1.051055908203125,-0.1517333984375,0.1295623779296875
1782845429427667500,7.35466748046875,-1.0627899169921875,-0.1702117919921875,0.138763427734375
1782845429437671200,7.364671142578125,-1.062835693359375,-0.1895294189453125,0.1438751220703125
1782845429447676200,7.37467626953125,-1.057861328125,-0.2015838623046875,0.1465606689453125
1782845429457680100,7.38468017578125,-1.0323028564453125,-0.215179443359375,0.1487579345703125
1782845429467685000,7.39468505859375,-0.999847412109375,-0.22735595703125,0.1437530517578125
1782845429477689300,7.404689453125,-0.9783477783203125,-0.23992919921875,0.133575439453125
1782845429487694300,7.4146943359375,-0.9541778564453125,-0.231353759765625,0.1249237060546875
1782845429497698300,7.4246982421875,-0.938079833984375,-0.2251129150390625,0.1068572998046875
1782845429507703300,7.434703369140625,-0.9302215576171875,-0.2385711669921875,0.0808258056640625
1782845429517707300,7.444707275390625,-0.9333648681640625,-0.2462158203125,0.0599517822265625
1782845429527712300,7.454712158203125,-0.946258544921875,-0.2427978515625,0.0446929931640625
1782845429537716200,7.46471630859375,-0.9562225341796875,-0.2346954345703125,0.0329132080078125
1782845429547721200,7.47472119140625,-0.9748992919921875,-0.22735595703125,0.012786865234375
1782845429557726500,7.4847265625,-0.9908447265625,-0.22625732421875,-0.0054931640625
1782845429567730200,7.494730224609375,-0.99688720703125,-0.2332611083984375,-0.012908935546875
1782845429577735200,7.504735107421875,-1.0042724609375,-0.241943359375,-0.016845703125
1782845429587739100,7.5147392578125,-1.00677490234375,-0.2416229248046875,-0.012237548828125
1782845429597744000,7.524744140625,-1.002899169921875,-0.2357940673828125,-0.000091552734375
1782845429607748400,7.534748291015625,-0.98980712890625,-0.2438507080078125,0.0059356689453125
1782845429617753300,7.54475341796875,-0.975921630859375,-0.252899169921875,0.014129638671875
1782845429627757300,7.55475732421875,-0.9623870849609375,-0.2511138916015625,0.023834228515625
1782845429637762300,7.56476220703125,-0.9510955810546875,-0.249847412109375,0.026824951171875
1782845429647766300,7.574766357421875,-0.94384765625,-0.2477264404296875,0.0334930419921875
1782845429657771300,7.584771240234375,-0.9405364990234375,-0.241973876953125,0.0379486083984375
1782845429667775200,7.594775146484375,-0.9435272216796875,-0.2339019775390625,0.040130615234375
1782845429677780200,7.6047802734375,-0.94305419921875,-0.2274017333984375,0.0410614013671875
1782845429687784200,7.6147841796875,-0.9349212646484375,-0.224273681640625,0.045562744140625
1782845429697789200,7.6247890625,-0.9306488037109375,-0.224273681640625,0.055328369140625
1782845429707793200,7.634793212890625,-0.9222412109375,-0.2216796875,0.066070556640625
1782845429717798100,7.644798095703125,-0.913116455078125,-0.2161407470703125,0.0766448974609375
1782845429727802400,7.65480224609375,-0.8973388671875,-0.211212158203125,0.0785064697265625
1782845429737807400,7.664807373046875,-0.8821563720703125,-0.2149200439453125,0.079132080078125
1782845429747811300,7.674811279296875,-0.8745574951171875,-0.2189788818359375,0.0789031982421875
1782845429757816800,7.68481689453125,-0.875,-0.221588134765625,0.0806121826171875
1782845429767820500,7.694820556640625,-0.880279541015625,-0.22564697265625,0.086090087890625
1782845429777825500,7.704825439453125,-0.8973236083984375,-0.227508544921875,0.088470458984375
1782845429787830500,7.71483056640625,-0.9138336181640625,-0.2300262451171875,0.092193603515625
1782845429797834800,7.724834716796875,-0.928924560546875,-0.236053466796875,0.094390869140625
1782845429807839700,7.73483984375,-0.9474029541015625,-0.2387847900390625,0.091033935546875
1782845429817843700,7.74484375,-0.9615631103515625,-0.2384033203125,0.08770751953125
1782845429827848700,7.7548486328125,-0.9663848876953125,-0.2490234375,0.0796051025390625
1782845429837852700,7.764852783203125,-0.96612548828125,-0.2628936767578125,0.069671630859375
1782845429847857700,7.774857666015625,-0.9622802734375,-0.2638702392578125,0.067474365234375
1782845429857861600,7.784861572265625,-0.96063232421875,-0.26837158203125,0.0616302490234375
1782845429867867000,7.794866943359375,-0.960540771484375,-0.2748565673828125,0.0624237060546875
1782845429877870800,7.804870849609375,-0.960174560546875,-0.2789306640625,0.059478759765625
1782845429887875800,7.814875732421875,-0.9585113525390625,-0.2824249267578125,0.0564422607421875
1782845429897879600,7.824879638671875,-0.9569549560546875,-0.28662109375,0.0569000244140625
1782845429907884500,7.834884521484375,-0.9522552490234375,-0.2816925048828125,0.05841064453125
1782845429917888800,7.844888671875,-0.9476776123046875,-0.2756500244140625,0.055908203125
1782845429927893800,7.854893798828125,-0.93780517578125,-0.2850341796875,0.0469818115234375
1782845429937897700,7.864897705078125,-0.9212646484375,-0.3038482666015625,0.0440826416015625
1782845429947902700,7.87490283203125,-0.90771484375,-0.3061065673828125,0.0518798828125
1782845429957906700,7.88490673828125,-0.905792236328125,-0.2985992431640625,0.05816650390625
1782845429967911700,7.89491162109375,-0.91094970703125,-0.2918548583984375,0.0599212646484375
1782845429977915600,7.90491552734375,-0.915435791015625,-0.2906341552734375,0.05780029296875
1782845429987920600,7.914920654296875,-0.91668701171875,-0.2938690185546875,0.0570831298828125
1782845429997924600,7.924924560546875,-0.9120330810546875,-0.298187255859375,0.0528717041015625
1782845430007929900,7.934929931640625,-0.9066619873046875,-0.2990264892578125,0.0452117919921875
1782845430017934800,7.944934814453125,-0.9014739990234375,-0.3058929443359375,0.0350799560546875
1782845430027938600,7.9549384765625,-0.89990234375,-0.31488037109375,0.0255279541015625
1782845430037943600,7.964943603515625,-0.9094390869140625,-0.3137054443359375,0.023223876953125
1782845430047947500,7.974947509765625,-0.9327239990234375,-0.30841064453125,0.015228271484375
1782845430057952800,7.984952880859375,-0.9528045654296875,-0.31982421875,0.0113067626953125
1782845430067956700,7.994956787109375,-0.958770751953125,-0.3361053466796875,0.014801025390625
1782845430077961700,8.004961669921874,-0.966094970703125,-0.3492279052734375,0.0226593017578125
1782845430087965700,8.014965576171875,-0.9744415283203125,-0.36065673828125,0.030029296875
1782845430097970700,8.024970703125,-0.9984130859375,-0.36956787109375,0.0345001220703125
1782845430107974700,8.034974609375,-1.029937744140625,-0.3826446533203125,0.0305023193359375
1782845430117979600,8.044979736328125,-1.049896240234375,-0.395751953125,0.0282745361328125
1782845430127983600,8.054983642578126,-1.0499420166015625,-0.4206085205078125,0.0197906494140625
1782845430137988600,8.064988525390625,-1.055023193359375,-0.4294891357421875,0.0118865966796875
1782845430147992600,8.07499267578125,-1.0505828857421875,-0.408599853515625,0.030975341796875
1782845430157997600,8.08499755859375,-1.0374298095703125,-0.3776092529296875,0.0471649169921875
1782845430168001500,8.09500146484375,-1.0449676513671875,-0.35516357421875,0.054534912109375
1782845430178006500,8.105006591796876,-1.0504913330078125,-0.3212738037109375,0.0628662109375
1782845430188010800,8.1150107421875,-1.0649871826171875,-0.282135009765625,0.076202392578125
1782845430198015700,8.125015625,-1.109893798828125,-0.2392425537109375,0.0985107421875
1782845430208019700,8.135019775390624,-1.1667022705078125,-0.1987152099609375,0.1274261474609375
1782845430218024700,8.145024658203125,-1.2068328857421875,-0.173583984375,0.1502227783203125
1782845430228028700,8.155028564453126,-1.22735595703125,-0.1605224609375,0.1504974365234375
1782845430238033700,8.16503369140625,-1.21295166015625,-0.1529083251953125,0.1536102294921875
1782845430248037600,8.17503759765625,-1.170745849609375,-0.154754638671875,0.15838623046875
1782845430258042600,8.185042724609374,-1.1212158203125,-0.1601104736328125,0.1512603759765625
1782845430268047600,8.195047607421875,-1.0689239501953125,-0.1689453125,0.133392333984375
1782845430278051600,8.205051513671876,-1.00457763671875,-0.169677734375,0.1199951171875
1782845430288056600,8.215056640625,-0.9446258544921875,-0.1699981689453125,0.1058502197265625
1782845430298060500,8.225060546875,-0.8997650146484375,-0.1756134033203125,0.0879974365234375
1782845430308065500,8.2350654296875,-0.8471527099609375,-0.1880950927734375,0.073455810546875
1782845430318069800,8.24506982421875,-0.7982025146484375,-0.201324462890625,0.061065673828125
1782845430328074800,8.25507470703125,-0.758575439453125,-0.218505859375,0.052276611328125
1782845430338078700,8.26507861328125,-0.7238616943359375,-0.2334747314453125,0.054107666015625
1782845430348083700,8.275083740234376,-0.702728271484375,-0.239349365234375,0.067169189453125
1782845430358087700,8.285087646484374,-0.6923828125,-0.2462921142578125,0.0679168701171875
1782845430368092700,8.2950927734375,-0.701690673828125,-0.2393341064453125,0.060455322265625
1782845430378096600,8.3050966796875,-0.7207489013671875,-0.2373199462890625,0.045745849609375
1782845430388101600,8.3151015625,-0.7390594482421875,-0.224609375,0.042694091796875
1782845430398105600,8.325105712890625,-0.7647247314453125,-0.1999359130859375,0.043243408203125
1782845430408110600,8.335110595703124,-0.785919189453125,-0.1806793212890625,0.0504608154296875
1782845430418114600,8.345114501953125,-0.81793212890625,-0.1715240478515625,0.049224853515625
1782845430428119600,8.35511962890625,-0.86126708984375,-0.1595458984375,0.051605224609375
1782845430438123800,8.365123779296875,-0.906463623046875,-0.147918701171875,0.048492431640625
1782845430448128800,8.375128662109375,-0.95465087890625,-0.13623046875,0.046356201171875
1782845430458132700,8.3851328125,-1.0024261474609375,-0.132537841796875,0.0445404052734375
1782845430468137700,8.3951376953125,-1.042572021484375,-0.13214111328125,0.04132080078125
1782845430478141700,8.4051416015625,-1.071136474609375,-0.117706298828125,0.042236328125
1782845430488146700,8.415146728515625,-1.0833282470703125,-0.1083526611328125,0.03875732421875
1782845430498151700,8.425151611328126,-1.0776519775390625,-0.1080780029296875,0.031707763671875
1782845430508155600,8.43515576171875,-1.0590057373046875,-0.1065826416015625,0.020751953125
1782845430518160600,8.44516064453125,-1.0281829833984375,-0.104766845703125,0.011444091796875
1782845430528164600,8.45516455078125,-1.0124053955078125,-0.1018829345703125,0.00732421875
1782845430538169600,8.465169677734375,-0.9960479736328125,-0.0964813232421875,0.00537109375
1782845430548173600,8.475173583984375,-0.9784088134765625,-0.105712890625,0.00164794921875
1782845430558178600,8.485178466796874,-0.9657440185546875,-0.11468505859375,0.0015869140625
1782845430568182800,8.495182861328125,-0.9536590576171875,-0.126190185546875,0.004058837890625
1782845430578187800,8.505187744140626,-0.941558837890625,-0.1396026611328125,0.01007080078125
1782845430588191700,8.515191650390625,-0.93896484375,-0.1461639404296875,0.0152740478515625
1782845430598196700,8.52519677734375,-0.949127197265625,-0.1511077880859375,0.018951416015625
1782845430608200700,8.53520068359375,-0.9663238525390625,-0.1555328369140625,0.0203094482421875
1782845430618205700,8.545205810546875,-0.9868927001953125,-0.1575164794921875,0.022003173828125
1782845430628209700,8.555209716796876,-1.009185791015625,-0.1580810546875,0.0313568115234375
1782845430638214700,8.565214599609375,-1.0231170654296875,-0.1623382568359375,0.0452423095703125
1782845430648218600,8.575218505859375,-1.0406646728515625,-0.1615753173828125,0.055389404296875
1782845430658223600,8.5852236328125,-1.06536865234375,-0.158050537109375,0.0660858154296875
1782845430668227600,8.5952275390625,-1.068603515625,-0.1580963134765625,0.0657806396484375
1782845430678232600,8.605232666015626,-1.0736541748046875,-0.1526336669921875,0.0697021484375
1782845430688236800,8.61523681640625,-1.072662353515625,-0.1471405029296875,0.060821533203125
1782845430698241800,8.62524169921875,-1.0566864013671875,-0.1501922607421875,0.0401458740234375
1782845430708245800,8.635245849609374,-1.0313720703125,-0.157379150390625,0.018341064453125
1782845430718250800,8.645250732421875,-1.0005035400390625,-0.16400146484375,0.001922607421875
1782845430728254700,8.655254638671876,-0.9759063720703125,-0.16241455078125,-0.0032958984375
1782845430738259700,8.665259765625,-0.9512939453125,-0.1589202880859375,-0.0115966796875
1782845430748264700,8.6752646484375,-0.9417724609375,-0.152496337890625,-0.026519775390625
1782845430758269200,8.685269287109374,-0.9357452392578125,-0.156341552734375,-0.0360565185546875
1782845430768274400,8.6952744140625,-0.920501708984375,-0.1722869873046875,-0.044677734375
1782845430778278400,8.7052783203125,-0.9070892333984375,-0.1798095703125,-0.0441436767578125
1782845430788283400,8.715283447265625,-0.9115753173828125,-0.180938720703125,-0.0401458740234375
1782845430798287400,8.725287353515625,-0.9218292236328125,-0.1806640625,-0.038665771484375
1782845430808292400,8.735292236328124,-0.9333953857421875,-0.1855316162109375,-0.03851318359375
1782845430818296300,8.74529638671875,-0.9529266357421875,-0.1923675537109375,-0.0347442626953125
1782845430828301300,8.75530126953125,-0.970001220703125,-0.1985321044921875,-0.0269927978515625
1782845430838305300,8.76530517578125,-0.9900970458984375,-0.1995391845703125,-0.022491455078125
1782845430848310300,8.775310302734376,-1.0022125244140625,-0.19268798828125,-0.020111083984375
1782845430858314200,8.785314208984374,-1.013092041015625,-0.1833648681640625,-0.015045166015625
1782845430868319200,8.7953193359375,-1.0180206298828125,-0.176849365234375,-0.01934814453125
1782845430878323200,8.8053232421875,-1.011749267578125,-0.1761932373046875,-0.018157958984375
1782845430888328200,8.815328125,-0.994384765625,-0.17535400390625,-0.0098419189453125
1782845430898332400,8.82533251953125,-0.991455078125,-0.174468994140625,-0.0018463134765625
1782845430908337400,8.83533740234375,-0.998504638671875,-0.1782684326171875,-0.0059814453125
1782845430918341400,8.84534130859375,-1.0168609619140625,-0.1770782470703125,-0.0081787109375
1782845430928346400,8.855346435546876,-1.011962890625,-0.164276123046875,-0.006744384765625
1782845430938350000,8.86535009765625,-0.99542236328125,-0.169830322265625,-0.00860595703125
1782845430948355000,8.87535498046875,-0.9810638427734375,-0.1763763427734375,-0.003448486328125
1782845430958359300,8.885359375,-0.98248291015625,-0.181976318359375,0.0027008056640625
1782845430968364300,8.8953642578125,-0.967193603515625,-0.18017578125,0.0095062255859375
1782845430978368300,8.9053681640625,-0.9600372314453125,-0.1884613037109375,0.0236663818359375
1782845430988373200,8.915373291015625,-1.005645751953125,-0.19146728515625,0.0084228515625
1782845430998378200,8.925378173828125,-1.002471923828125,-0.1705780029296875,-0.023651123046875
1782845431008382200,8.93538232421875,-0.9695281982421875,-0.155517578125,-0.056488037109375
1782845431018387200,8.94538720703125,-0.9596099853515625,-0.1517486572265625,-0.0755462646484375
