time,seconds_elapsed,z,y,x
1782845422151874800,0.078874755859375,0.5415875878453255,-0.2323797459848225,-1.0940569274500012
1782845422161879800,0.0888798828125,0.3810258544892072,-0.3203404996410012,-1.0744739828407763
1782845422171883800,0.0988837890625,0.17092589098215102,-0.3928280820943415,-0.9880900500472635
1782845422181888800,0.108888671875,-0.18486147735416888,-0.46594124910011886,-0.9420184730935841
1782845422191892700,0.118892822265625,-0.4170312338501215,-0.45516544193327424,-0.8680374372120946
1782845422201898000,0.12889794921875,-0.40641280920207495,-0.426395420653373,-0.6940705710988492
1782845422211902000,0.13890185546875,-0.6244044027417898,-0.3217133954294026,-0.7658464250862598
1782845422221907000,0.148906982421875,-0.874092864793539,-0.16958660520240665,-0.8329767182901501
1782845422231911000,0.158910888671875,-0.8730874871432781,-0.1805368921533227,-0.7539474591083825
1782845422241916000,0.168916015625,-0.9637041621357202,-0.15518515488430856,-0.7194767419688404
1782845422251920000,0.178919921875,-0.9142822518408298,-0.08800853832066059,-0.706646924881637
1782845422261924900,0.1889248046875,-0.6389104824781418,-0.034086393997073174,-0.6788947023421525
1782845422271928800,0.1989287109375,-0.2871031236886978,-0.10371420310512185,-0.59775524607338
1782845422281933800,0.208933837890625,0.03174655287265778,-0.1741883999094367,-0.45529443860780444
1782845422291937800,0.218937744140625,0.30236791283786296,-0.24958120228499173,-0.40003545618988573
1782845422301942800,0.22894287109375,0.5909989767462015,-0.3036199587255716,-0.39502993952017273
1782845422311947800,0.23894775390625,0.7290279757767916,-0.33723157481774685,-0.36332306107077744
1782845422321951700,0.24895166015625,0.6815840875566005,-0.3356960358135402,-0.3014710370633751
1782845422331956700,0.258956787109375,0.5292489152759313,-0.3629387013956904,-0.2722347499785945
1782845422341961000,0.2689609375,0.4010346232950687,-0.38236864740028975,-0.2936635051175952
1782845422351966000,0.278966064453125,0.3195657158762216,-0.40041561461389064,-0.279423528971523
1782845422361970000,0.288969970703125,0.2906453263401985,-0.49071489422023296,-0.31836200264226644
1782845422371975000,0.298974853515625,0.2625380067527294,-0.7058984446018934,-0.39013873341251165
1782845422381979000,0.308978759765625,0.25255028122365475,-0.8933708351068198,-0.38908495004326105
1782845422391983900,0.31898388671875,0.2236427511692047,-1.01612028581053,-0.3900919716613367
1782845422401987800,0.32898779296875,0.1626660121589899,-1.1129238327443598,-0.4873795392524451
1782845422411992800,0.338992919921875,0.029241292053461074,-1.1524885120220483,-0.5716460780331865
1782845422421996800,0.348996826171875,-0.24273615869581697,-1.1622362913154065,-0.6784326377883553
1782845422432001800,0.359001708984375,-0.4526449835449457,-1.1672589417830108,-0.8220468896053731
1782845422442005800,0.369005859375,-0.5542874949425458,-1.1620252789132297,-0.9598083237409591
1782845422452010800,0.3790107421875,-0.6636316667586565,-1.1640215672969818,-1.0533154594779015
1782845422462015000,0.389014892578125,-0.6034037002891302,-1.1719843628697098,-1.1464343996148556
1782845422472020000,0.39902001953125,-0.5334013587802648,-1.0827994742460547,-1.1747492975383995
1782845422482025000,0.40902490234375,-0.38569267725646494,-0.8307122804895043,-1.3040148521378636
1782845422492029000,0.41902880859375,-0.06506897675991058,-0.6975991105511784,-1.340681910277903
1782845422502034000,0.429033935546875,0.1760463027358055,-0.5777442122451961,-1.3242564067862928
1782845422512038000,0.439037841796875,0.33598844288885593,-0.42533100629225373,-1.247608051391691
1782845422522043000,0.44904296875,0.5278922399699688,-0.41988048580139875,-1.1421041153255849
1782845422532046800,0.459046875,0.6005138240665197,-0.44181627714708444,-1.0470095642667263
1782845422542051800,0.4690517578125,0.5695885244488715,-0.4167134000726044,-0.8593185625750571
1782845422552055800,0.479055908203125,0.5358218639254569,-0.3835365221358836,-0.658623556273058
1782845422562060800,0.489060791015625,0.482059294077754,-0.3495224627226591,-0.4897754944782704
1782845422572064800,0.499064697265625,0.4126233542799949,-0.31025369765162464,-0.35607042306140063
1782845422582069800,0.50906982421875,0.18599895695149898,-0.3726780051216483,-0.21216266819052396
1782845422592074000,0.519073974609375,-0.159754508626461,-0.39971360382437704,-0.1931516782503575
1782845422602079000,0.529078857421875,-0.43585459226369855,-0.4686575223214924,-0.2517970517035574
1782845422612083000,0.5390830078125,-0.7047673947453499,-0.4616873910479247,-0.28326171889491375
1782845422622088000,0.549087890625,-0.9331447732210159,-0.46829453422799705,-0.2950638003695756
1782845422632092000,0.559091796875,-1.085873328733444,-0.356826063734293,-0.23719883670434355
1782845422642097000,0.569096923828125,-1.1982482465475797,-0.22117153875008225,-0.2229717200398445
1782845422652102000,0.579101806640625,-1.305599198719859,-0.23700287574082612,-0.24419322563633322
1782845422662105900,0.58910595703125,-1.4885726703703404,-0.2745899713352322,-0.19598821685053408
1782845422672110800,0.59911083984375,-1.78257256783545,-0.1252607028722763,-0.07385368317477405
1782845422682114800,0.60911474609375,-1.9262521399736403,-0.008728665378689765,-0.05304828409850597
1782845422692119800,0.619119873046875,-1.8628788612157106,-0.02156111281439662,-0.05008979961909354
1782845422702123800,0.629123779296875,-1.654620141661167,0.01657397205159068,-0.10189224837496876
1782845422712128800,0.639128662109375,-1.3349755153298377,0.08763079104945064,-0.17019443490244446
1782845422722133000,0.649133056640625,-0.9154016112595796,0.1598326884292066,-0.24026158527582883
1782845422732138000,0.659137939453125,-0.45090018570423124,0.2071434517890215,-0.3269541090944782
1782845422742142000,0.669141845703125,-0.0023094459861516953,0.22962182557880878,-0.3757302322991192
1782845422752147000,0.67914697265625,0.40684477087855336,0.22154577888995408,-0.43943266994617874
1782845422762151000,0.68915087890625,0.7561842782497405,0.30058979724943635,-0.4860473408006131
1782845422772156000,0.699156005859375,1.0915122114032507,0.3987725235819816,-0.4192335661999881
1782845422782160000,0.709159912109375,1.3370382930785416,0.4928397774197161,-0.35444099522866307
1782845422792164900,0.719164794921875,1.4641811564356089,0.5760913304716349,-0.3515122117677703
1782845422802168800,0.7291689453125,1.5163649326592683,0.7076758295379578,-0.3981301340252161
1782845422812173800,0.739173828125,1.6135235766410827,0.8067259863547981,-0.42417347028758373
1782845422822178800,0.7491787109375,1.656533866328001,0.8998853315673768,-0.43286078074257817
1782845422832182800,0.759182861328125,1.5564602116823196,0.917984028968215,-0.418583358662948
1782845422842187800,0.769187744140625,1.4303192188441753,0.9179730691827833,-0.33406211446877565
1782845422852192000,0.77919189453125,1.2574258271813392,0.8081111571028828,-0.2008496854070574
1782845422862197000,0.789197021484375,1.0721838260769843,0.7689068355701864,-0.02578453919570893
1782845422872201000,0.799200927734375,0.8945224893599748,0.7304400345318018,0.18372027142979203
1782845422882206000,0.8092060546875,0.723583154374361,0.7047429909564554,0.34457769979685543
1782845422892210000,0.8192099609375,0.47597325216233727,0.715879594259709,0.4798142550973221
1782845422902215000,0.82921484375,0.1810872195124626,0.7795029022559523,0.5611690346172079
1782845422912219000,0.839218994140625,-0.1089613099783659,0.8385048340618609,0.6526551493879408
1782845422922223900,0.849223876953125,-0.43555064088106155,0.8560857911989093,0.7839064709771424
1782845422932227800,0.859227783203125,-0.733200877547264,0.8571382228612899,0.8876301725629716
1782845422942232800,0.86923291015625,-0.9514321250617503,0.778875856398791,0.9252651989523321
1782845422952236800,0.87923681640625,-0.9978758963286876,0.6986493502564728,0.8844023696228861
1782845422962241800,0.88924169921875,-0.9678940150409936,0.5939703937724232,0.8494335667680949
1782845422972246000,0.89924609375,-0.7942273009181022,0.4969565650887787,0.796985221324116
1782845422982251000,0.9092509765625,-0.538731029370427,0.3182619398012757,0.7514259778067469
1782845422992256000,0.919256103515625,-0.2841922046780586,0.17073460619375108,0.7555687766999006
1782845423002260000,0.929260009765625,-0.1336784026056528,0.05346884759813547,0.6812914612855762
1782845423012265000,0.939264892578125,0.0007452654093503951,-0.06246157074049115,0.5646374048475176
1782845423022268700,0.9492685546875,0.06574526858627795,-0.16825477207675577,0.42782640330456195
1782845423032274000,0.95927392578125,0.06511047781407833,-0.19065145893245936,0.2795744817495346
1782845423042278000,0.96927783203125,0.03777764973044395,-0.16189444326460362,0.1953997494380921
1782845423052283000,0.979282958984375,0.12568506576418875,-0.05888999586403369,0.07335201726295054
1782845423062286800,0.989286865234375,0.17208908954262733,-0.03410860582888126,-0.015899726051837204
1782845423072291800,0.999291748046875,0.1384802499294281,-0.010905278765410184,-0.11219897672533988
1782845423082295800,1.0092958984375,0.12434066541790961,0.044088878703862425,-0.23090762760564684
1782845423092300800,1.01930078125,0.10977847158014774,0.06309153920710087,-0.29610242270231246
1782845423102305000,1.029304931640625,0.014265256717801093,0.10853183251991867,-0.3212066880162805
1782845423112310000,1.03931005859375,-0.07525017903447151,0.15240224616751075,-0.23990488079264757
1782845423122314000,1.04931396484375,-0.19802140317857264,0.1273000997453928,-0.1439260942451656
1782845423132319000,1.059319091796875,-0.306702142649889,0.10311872143000364,-0.0010743512332439423
1782845423142322700,1.06932275390625,-0.3462602460563183,0.12571662994623184,0.13837065207511184
1782845423152327700,1.07932763671875,-0.32897534925639627,0.1383047472320497,0.22007431809790431
1782845423162332000,1.089331787109375,-0.2623433609634638,0.10068521067276597,0.19410620249621569
1782845423172337000,1.0993369140625,-0.12809095786213873,0.03693243107795715,0.14790603072680533
1782845423182342000,1.109341796875,0.040407413712143896,0.007233019993454218,0.11423961570747196
1782845423192345900,1.119345947265625,0.2569727738410234,-0.029568039789795875,0.07250562956668435
1782845423202350800,1.129350830078125,0.3749059103041887,-0.05937631807625293,0.06835990806408226
1782845423212354800,1.139354736328125,0.388600089135766,-0.02046498814076185,0.026586539760977027
1782845423222359800,1.14935986328125,0.3369821301013231,0.08096738763749599,0.03724076637476682
1782845423232364000,1.159364013671875,0.3972749785006046,0.10640198088437318,0.013407251648977398
1782845423242369000,1.169369140625,0.5200292515099049,0.0966693991601467,0.06987871512919663
1782845423252373000,1.179373046875,0.6272083542466164,0.061411038774251935,0.1753146274603903
1782845423262378000,1.1893779296875,0.7457558232158422,0.029776129582524298,0.2608896550238132
1782845423272381700,1.199381591796875,0.8553770584076642,0.048670507405698296,0.31963169378452
1782845423282386700,1.20938671875,0.8080231865584849,0.09866875628381967,0.3698262689523399
1782845423292391000,1.219390869140625,0.764835202217102,0.046893853121995926,0.38562677241340276
1782845423302396000,1.22939599609375,0.7493775208443403,-0.07911825263947247,0.31143560091257094
1782845423312400000,1.23939990234375,0.6886673238158225,-0.13502338747382164,0.2759580448180437
1782845423322404900,1.24940478515625,0.5334615645349026,0.06844342162907123,0.3404822471767664
1782845423332408800,1.259408935546875,0.4155991552203893,0.1548977162450552,0.427349871833995
1782845423342413800,1.269413818359375,0.3670253861874342,-0.07549918535947799,0.32691081794202326
1782845423352418800,1.279418701171875,0.14732289707660673,-0.38086452644765373,0.12467844600491225
1782845423362423000,1.289423095703125,0.07633271357417107,-0.37267858964353795,0.07298727560378611
1782845423372428000,1.299427978515625,0.23276363073587417,-0.5748953986853361,0.09786913033872842
1782845423382432000,1.309431884765625,0.144327222391963,-0.7334025375992059,-0.015215323984250425
1782845423392437000,1.31943701171875,0.007691139024496078,-0.6365304554738104,-0.19660306081324816
1782845423402440700,1.329440673828125,-0.10346914230287074,-0.5937896303780377,-0.36889329895116385
1782845423412445700,1.33944580078125,-0.15710370185673236,-0.6043978258930146,-0.4114054298575967
1782845423422450000,1.349449951171875,-0.0951490577250719,-0.5584484140142798,-0.42224736106321215
1782845423432455000,1.359454833984375,0.020437807872891425,-0.5529119688056409,-0.43505708521045744
1782845423442459000,1.369458984375,0.20222820721864698,-0.5731437327124178,-0.4461315099976957
1782845423452463900,1.3794638671875,0.35187691689431666,-0.5114790114380419,-0.39381227082610126
1782845423462467800,1.3894677734375,0.490931167319417,-0.4915402391284704,-0.33549795595817267
1782845423472472800,1.399472900390625,0.6000637422114611,-0.47180181169658897,-0.25892515001781286
1782845423482477000,1.40947705078125,0.6774526868402958,-0.43707039779424667,-0.14773198933415113
1782845423492482000,1.41948193359375,0.7075052952766419,-0.4132940931484103,-0.024309096348285673
1782845423502486000,1.429486083984375,0.6456096878558397,-0.42347821803241964,0.08483407300300895
1782845423512491000,1.439490966796875,0.593217237317562,-0.36105887899845834,0.18754954739436505
1782845423522494700,1.44949462890625,0.5470552056014537,-0.3212997000619769,0.3183481567800045
1782845423532499700,1.459499755859375,0.4408984316498041,-0.35358138272464273,0.3665788845289498
1782845423542504700,1.469504638671875,0.35150516097247597,-0.4501619345575571,0.3499693297073245
1782845423552509000,1.479509033203125,0.30115210730731484,-0.5650368524938821,0.3375627795334905
1782845423562514000,1.489513916015625,0.2850152114987373,-0.6137848090499639,0.351891603006795
1782845423572518000,1.499517822265625,0.29023674553930756,-0.6927604383483529,0.35416488170102234
1782845423582523000,1.50952294921875,0.31786534169912334,-0.818252611888945,0.3943997883904725
1782845423592526800,1.51952685546875,0.4003255982428789,-0.8910159425437449,0.3491201655320823
1782845423602531800,1.52953173828125,0.41454993842840193,-0.9391466439843177,0.3338922743272036
1782845423612536000,1.5395361328125,0.4560784651249647,-0.9752718503326177,0.3283231689579785
1782845423622541000,1.549541015625,0.5101543387055397,-0.9840420167654752,0.2847692008484155
1782845423632545000,1.559544921875,0.38698563967645166,-0.9864438172101974,0.27090397629886864
1782845423642550000,1.569550048828125,0.3343757469952106,-0.881243321070075,0.2520106213890016
1782845423652553700,1.5795537109375,0.22461305750608443,-0.9457204694166779,0.24680450411327182
1782845423662558700,1.589558837890625,0.19793314037322998,-1.014971700297296,0.3092803225748241
1782845423672563000,1.59956298828125,0.18428630781471728,-1.016327498820424,0.37998430954702195
1782845423682568000,1.60956787109375,0.11158347517549991,-0.891530614067614,0.45300987133458254
1782845423692572000,1.619572021484375,-0.0022796353697776793,-0.7339981654047966,0.5662327112149447
1782845423702577000,1.629576904296875,-0.010377017107605933,-0.6802969703555106,0.5402358809754252
1782845423712580900,1.639580810546875,-0.16460253317952156,-0.6481763234734534,0.5570470958489925
1782845423722585900,1.6495859375,-0.4030921403467655,-0.5937251868396997,0.596448985780403
1782845423732590800,1.6595908203125,-0.5501467418760061,-0.45288083812743424,0.7213214930526912
1782845423742595000,1.669594970703125,-0.6656529434531927,-0.3461228834122419,0.9460779045522213
1782845423752600000,1.67960009765625,-0.7750719340711831,-0.3363336030647158,1.027839219046384
1782845423762604000,1.68960400390625,-0.9403829077810049,-0.281601019141078,1.1372776450172066
1782845423772609000,1.699609130859375,-1.139076511132717,-0.19905249979197978,1.134374543986842
1782845423782612700,1.70961279296875,-1.147846093043685,-0.08710340617448091,1.1169674090467392
1782845423792617700,1.71961767578125,-0.9785001647293567,-0.06518821922540664,1.069286058808863
1782845423802622000,1.7296220703125,-0.6742430771440268,-0.1678513058423996,0.9150131964638829
1782845423812627000,1.739626953125,-0.40161563805341716,-0.2074263603836298,0.7551597575075923
1782845423822631000,1.749630859375,-0.18350012587308884,-0.14976181466132402,0.6627244887858629
1782845423832636000,1.759635986328125,-0.006149754801392555,-0.24520605594068764,0.5397597148310392
1782845423842640000,1.769639892578125,0.006292378142476082,-0.34860330205112694,0.40942477743439376
1782845423852644900,1.779644775390625,0.09815876093506812,-0.4094178362369537,0.3425611723426729
1782845423862649000,1.789649169921875,0.08638356746733188,-0.4093009318590164,0.36501485008262097
1782845423872654000,1.799654052734375,-0.10690671553611755,-0.2665530876129866,0.18531367810107766
1782845423882659000,1.8096591796875,0.004548164823651313,-0.08264175059050322,0.06925298444628715
1782845423892663000,1.8196630859375,0.21958850734233856,0.041053018139302726,-0.009919190337508916
1782845423902668000,1.82966796875,0.5510539198487997,0.37449820628613234,-0.15424305172860622
1782845423912671700,1.839671630859375,0.8980091624319553,0.49398792454153295,-0.35232393000945444
1782845423922676700,1.8496767578125,1.2471733132362366,0.575421468386054,-0.39267172248885035
1782845423932681000,1.859680908203125,1.5305986251950263,0.8486071258813143,-0.3232926274448633
1782845423942686000,1.86968603515625,1.7175860086619852,1.1832406470298766,-0.22257300304584204
1782845423952690000,1.87968994140625,1.8794144009530542,1.2470365351140498,-0.2051784353263676
1782845423962695000,1.88969482421875,1.859465253379941,1.2210852245166897,-0.18226773453392087
1782845423972699000,1.899698974609375,1.6773305706411599,1.2894231399446725,-0.055366570978239174
1782845423982703900,1.909703857421875,1.4840718518197535,1.3009858597055077,0.10097053042016922
1782845423992707800,1.919707763671875,1.3475959274500608,1.2178969498693943,0.27012692751176653
1782845424002713000,1.929713134765625,1.1861579957813024,1.1119371597945689,0.35498825384788213
1782845424012717000,1.939717041015625,1.0059458055377006,1.1256377683669327,0.39810668008439243
1782845424022722000,1.94972216796875,0.7429261527478694,1.1939958498001098,0.3859517665840685
1782845424032725800,1.959725830078125,0.49618777267336844,1.2039084642663598,0.3660594637647271
1782845424042730800,1.969730712890625,0.3704185357570648,1.2223030758738518,0.3695207831997424
1782845424052735000,1.97973486328125,0.1776975770741701,1.2824910025939344,0.42750769274421035
1782845424062740000,1.989739990234375,-0.16303718355894087,1.3712635110244153,0.5427596272993832
1782845424072744000,1.999743896484375,-0.45251463516354556,1.3824591510385273,0.5947036034177988
1782845424082749000,2.0097490234375,-0.6946954980641603,1.284384853516519,0.5826197093270719
1782845424092754000,2.01975390625,-0.8476233755409717,1.218010931637883,0.6228185217898339
1782845424102758000,2.0297578125,-0.9719687171339988,1.1415613136857747,0.5976670563332737
1782845424112763000,2.039762939453125,-0.9652163202643393,0.9850058933615684,0.46077962855324145
1782845424122766800,2.049766845703125,-0.8455009765595197,0.8119526349619031,0.28517566275745626
1782845424132772000,2.059772216796875,-0.789242498242855,0.7309291332229971,0.14901727990433572
1782845424142775800,2.06977587890625,-0.7835521776467561,0.664824383674562,0.01564735872596502
1782845424152781000,2.079781005859375,-0.7598837172895669,0.5489484720021486,-0.10874036070406436
1782845424162784800,2.08978466796875,-0.700270667847991,0.5078177124515175,-0.23790523140802977
1782845424172789800,2.099789794921875,-0.7053367190659046,0.6013792087242007,-0.32393421328403055
1782845424182793700,2.109793701171875,-0.779417854321003,0.6678115827918052,-0.4344942271633073
1782845424192799000,2.119799072265625,-0.7341290983080864,0.7070128355845808,-0.5183891561526804
1782845424202803000,2.129802978515625,-0.624911183220148,0.7886234895616769,-0.5501412619832903
1782845424212808000,2.139807861328125,-0.46630584462881086,0.7811626521617173,-0.5458867463439703
1782845424222812000,2.14981201171875,-0.17838439029455183,0.7479501183897257,-0.4929726465517655
1782845424232817000,2.15981689453125,0.13493629371225832,0.7334744337916373,-0.43510450454875826
1782845424242820900,2.16982080078125,0.43763212333023543,0.6993155590802431,-0.36951899310145525
1782845424252825900,2.179825927734375,0.7096557513087988,0.6510992251828313,-0.29268494240902365
1782845424262830800,2.189830810546875,0.8615414262562989,0.6307119784533977,-0.22438366919700056
1782845424272834800,2.199834716796875,0.9329594797819852,0.5980161620318889,-0.15521255434788764
1782845424282839800,2.20983984375,0.9281097016632557,0.5465609923437238,-0.055449792282283306
1782845424292843800,2.21984375,0.8105401378154754,0.49825040429159995,0.02060121827367693
1782845424302848800,2.229848876953125,0.6089829617261886,0.42926323117464776,0.10249551149774343
1782845424312852700,2.239852783203125,0.3638526013702154,0.3741673668965697,0.16020111988279967
1782845424322858000,2.24985791015625,0.11702069779336452,0.2974288490004837,0.14869056870061903
1782845424332862000,2.259862060546875,-0.04710720361173153,0.19450565014258026,0.1432862254390493
1782845424342867000,2.269866943359375,-0.055309799289703365,0.06047682666406035,0.13547631887309253
1782845424352871000,2.279870849609375,-0.03551555001735687,0.0063384092412889,0.15363628147449343
1782845424362876000,2.2898759765625,0.04288052582740783,-0.10092194203808903,0.08100070538520812
1782845424372880000,2.2998798828125,0.1227548575311899,-0.2192966847889125,-0.018958054176531732
1782845424382884900,2.309884765625,0.09374328258037566,-0.2819806661084294,-0.1257109673904255
1782845424392888800,2.319888916015625,0.0013128361642360687,-0.30556904696673154,-0.25853772160280497
1782845424402893800,2.329893798828125,-0.014084639453887939,-0.3234701759688556,-0.4017007225209847
1782845424412897800,2.339897705078125,0.022997429227828978,-0.3500729362122714,-0.47296088207121934
1782845424422902800,2.34990283203125,-0.0359410819530487,-0.36399274049326774,-0.48550921533592045
1782845424432907800,2.35990771484375,-0.23452479518949984,-0.43321211493089795,-0.4338099346935749
1782845424442911700,2.369911865234375,-0.36975451889038086,-0.4942952369250357,-0.42387222231868654
1782845424452916700,2.379916748046875,-0.4231301352471113,-0.5200939873091877,-0.3775437845271081
1782845424462921000,2.3899208984375,-0.3263783185005188,-0.5988102350190282,-0.28201292441021647
1782845424472926000,2.399926025390625,-0.23700316800177096,-0.6246930104248225,-0.2638228223988786
1782845424482930000,2.409929931640625,-0.09593056349158287,-0.626971184489876,-0.20157317737601696
1782845424492935000,2.419934814453125,0.01895487583875656,-0.6051102119460702,-0.14039112505204976
1782845424502939000,2.42993896484375,0.17882921145260333,-0.5867810667902231,-0.14458331604488192
1782845424512943900,2.43994384765625,0.3209568779736757,-0.5529955554358661,-0.1752922329654917
1782845424522947800,2.44994775390625,0.345244347012043,-0.540258677329123,-0.19769805297572166
1782845424532952800,2.459952880859375,0.3265437381953001,-0.5112272286340594,-0.1986691995628178
1782845424542956800,2.469956787109375,0.3751362119287252,-0.49954044410213827,-0.1692014783423394
1782845424552961800,2.4799619140625,0.3599772212415933,-0.5347188711196184,-0.15652162765245883
1782845424562965800,2.4899658203125,0.19965514186024666,-0.5568842334374785,-0.17520020730048416
1782845424572970800,2.499970703125,0.019006898286938665,-0.5745882324323058,-0.1856480976872146
1782845424582975000,2.50997509765625,-0.1369283443123102,-0.5943165768615901,-0.2206042237235233
1782845424592980000,2.51997998046875,-0.20357962182760236,-0.6323204365633428,-0.2628281853383407
1782845424602984000,2.52998388671875,-0.2989677490055561,-0.7335511522896587,-0.26584081115778535
1782845424612989000,2.539989013671875,-0.29458266578912734,-0.841455208300054,-0.28902400874868034
1782845424622994000,2.549993896484375,-0.27147534644603727,-0.8893146915838122,-0.29832915884107347
1782845424632998000,2.559997802734375,-0.2211982806265354,-0.9287275413006544,-0.35161380897872146
1782845424643003000,2.5700029296875,-0.2154167746156454,-0.9176838769778609,-0.4004773182058707
1782845424653006800,2.5800068359375,-0.25952187380194663,-0.8616152221448719,-0.46305246885605156
1782845424663011800,2.59001171875,-0.28157237756848336,-0.7790449293553828,-0.560809297926724
1782845424673015800,2.600015869140625,-0.26170857019126414,-0.7373316937416792,-0.6785150553748012
1782845424683020800,2.610020751953125,-0.2679196997910738,-0.6934020972527564,-0.7491882818825543
1782845424693024800,2.620024658203125,-0.20131050785183904,-0.6992949546836316,-0.81235705104433
1782845424703029800,2.63002978515625,-0.1090653548747301,-0.6948338836215436,-0.8415702129818499
1782845424713034000,2.640033935546875,0.011890344280004501,-0.7457865106150507,-0.8885836008302866
1782845424723039000,2.6500390625,0.059628247010707854,-0.7368214061319828,-0.9421105352912098
1782845424733043000,2.66004296875,0.03767302031219005,-0.6811098941735922,-0.931962650764361
1782845424743048000,2.6700478515625,-0.010574585506319999,-0.6620699703998864,-0.9431447006445377
1782845424753051600,2.6800517578125,-0.12770458889305591,-0.6730502140976489,-0.9074739600654691
1782845424763056600,2.690056640625,-0.376371306681633,-0.6797457662135362,-0.8256982517197727
1782845424773060900,2.700060791015625,-0.5710282018631696,-0.6683936204634606,-0.7626367423247545
1782845424783065900,2.71006591796875,-0.7377496268928051,-0.6361839801236987,-0.676690324165672
1782845424793070800,2.72007080078125,-0.8429851943463087,-0.5213264517135918,-0.6624587505217642
1782845424803074800,2.73007470703125,-0.6399789884924888,-0.2963124121911824,-0.7514736163407564
1782845424813079800,2.740079833984375,-0.2720329803287983,-0.1116165006622672,-0.8985361819807439
1782845424823083800,2.750083740234375,0.13118307865858078,0.016443769800662995,-0.9210076145730912
1782845424833088800,2.7600888671875,0.5860311252057552,0.1220256664738059,-0.9844436563689261
1782845424843092700,2.7700927734375,0.6526777265459298,0.2696729731991887,-0.8179288598272949
1782845424853097700,2.78009765625,0.5700245777785777,0.40196620505675673,-0.5983225976325571
1782845424863101700,2.790101806640625,0.4109995524704456,0.3585708615750074,-0.5401443302344531
1782845424873106700,2.800106689453125,0.048153497794270514,0.23260814791321754,-0.43497883234247564
1782845424883110700,2.810110595703125,-0.39969548364579677,0.2496127664670348,-0.20632592486105858
1782845424893115600,2.82011572265625,-0.8285895892471075,0.3032357817135751,-0.10698489533886313
1782845424903120000,2.830119873046875,-1.1268149954527615,0.2381463466875255,-0.12364713019579648
1782845424913124900,2.840124755859375,-1.2179852126747368,0.17925211303979158,-0.1278462623860687
1782845424923128800,2.85012890625,-1.0736381165385245,0.10972586461007594,-0.17290084431692956
1782845424933133800,2.8601337890625,-0.8364268587440252,0.06311316651701927,-0.21844675342869013
1782845424943137800,2.8701376953125,-0.4825076223671436,-0.000042377837002277374,-0.32664602952599525
1782845424953142800,2.880142822265625,-0.165750534170866,0.01536313495710492,-0.43177908645309504
1782845424963146800,2.890146728515625,-0.028276246413588522,0.1300740945033729,-0.48914004611894485
1782845424973151700,2.90015185546875,0.12328560340702532,0.2971497397981584,-0.5052640459133312
1782845424983156700,2.91015673828125,0.2864940518796444,0.4140738453492522,-0.5101628873381764
1782845424993160700,2.92016064453125,0.29624621508717536,0.5121301688231528,-0.3617475188497454
1782845425003165700,2.930165771484375,0.2034042652606964,0.6971374843887984,-0.2819859998706728
1782845425013169700,2.940169677734375,0.20095336497724056,0.8295420676663517,-0.23166049179956316
1782845425023174700,2.950174560546875,0.16141688888072966,0.8868162988968193,-0.1919716381529346
1782845425033179000,2.960178955078125,0.2109942819982767,0.8964230622842907,-0.15330909534674136
1782845425043183900,2.970183837890625,0.3785457281112671,0.9192223385915159,-0.02065689398366958
1782845425053187800,2.980187744140625,0.570695608907938,0.9362332407556474,0.12523275541942566
1782845425063192800,2.99019287109375,0.7625801167666911,0.9451493915304541,0.2853311455801129
1782845425073196500,3.000196533203125,0.8781681514084339,0.9089892599992454,0.46727914664037523
1782845425083201800,3.010201904296875,0.8275421260207891,0.8360390284702182,0.6399747507087886
1782845425093205800,3.020205810546875,0.734596131297946,0.7737909543499351,0.8162779508151113
1782845425103210800,3.030210693359375,0.5837585040986537,0.6751455789417028,0.8692299349322915
1782845425113214700,3.040214599609375,0.44218671789467334,0.5756617068827152,0.8875412521705031
1782845425123219700,3.0502197265625,0.3937333603709936,0.48576487059742207,0.9574947861015796
1782845425133223700,3.0602236328125,0.4003910646945238,0.3809115804597735,1.0128345421381295
1782845425143228700,3.070228759765625,0.3782406076848507,0.29875556755959987,1.0688517590448259
1782845425153233700,3.080233642578125,0.3443038512915373,0.162654613982141,1.072649543892592
1782845425163238000,3.09023779296875,0.29599545519649983,0.11362608691900968,1.0177763824544845
1782845425173243000,3.100242919921875,0.21161913589835166,0.05484861151874065,0.908329627046734
1782845425183246800,3.110246826171875,0.003483165940642357,0.03604132745712995,0.7524585357248783
1782845425193251800,3.120251953125,-0.2461515200972557,-0.06754544987604022,0.6024719723969698
1782845425203255600,3.130255615234375,-0.5179471845388413,-0.041834816166758534,0.5142664501994848
1782845425213260500,3.140260498046875,-0.8054010213613509,0.06188304020017385,0.48986112693510947
1782845425223264800,3.1502646484375,-1.0074626398414372,0.07334025375992059,0.5088581979477778
1782845425233269800,3.160269775390625,-1.0929963124811648,0.017477350632101298,0.43852994895279407
1782845425243273700,3.170273681640625,-1.0596411553680896,-0.04787263502627611,0.3233500932531431
1782845425253278700,3.18027880859375,-0.9387854094564914,0.02148322527259588,0.2543280314859003
1782845425263282700,3.19028271484375,-0.6120914491355419,0.15633797818124293,0.1409052851192653
1782845425273287700,3.20028759765625,-0.25376141057908536,0.28710122399255633,0.01669405476730317
1782845425283292000,3.2102919921875,0.05934241580665111,0.32918227000534533,-0.041426344963721926
1782845425293297000,3.220296875,0.38296529811918734,0.36734146639928217,-0.11652473096996545
1782845425303300900,3.23030078125,0.6828747118890285,0.40764790395498274,-0.16794417175762355
1782845425313305900,3.240305908203125,0.8565642223656177,0.35889439444094895,-0.20502803053762764
1782845425323309600,3.2503095703125,0.9977338575094937,0.33857889777347444,-0.2446657019862905
1782845425333314600,3.260314453125,0.9998878206729889,0.3794314249046147,-0.21201083862967787
1782845425343319600,3.270319580078125,0.874320243808627,0.35366190061494707,-0.19091054826006293
1782845425353323800,3.28032373046875,0.678408964651823,0.3466591822460294,-0.13516264981403947
1782845425363328800,3.290328857421875,0.5205155737221241,0.27041794634759425,-0.09578172960542142
1782845425373332700,3.300332763671875,0.44928047554790973,0.2056659265823662,-0.01979826786033809
1782845425383337700,3.310337646484375,0.3562877190738916,0.1514576587937772,0.09925598158724605
1782845425393341700,3.320341796875,0.3152455145895481,0.08981924100443721,0.15399309555552898
1782845425403346700,3.3303466796875,0.34269641609489915,0.03484115788713097,0.15014701458662746
1782845425413351000,3.340350830078125,0.40981180399060246,-0.052845308872312306,0.13728581598047165
1782845425423356000,3.35035595703125,0.5371826308846473,-0.13217749652341007,0.12002086599003522
1782845425433360000,3.36035986328125,0.6721148329436779,-0.1359542385831475,0.10596147057525813
1782845425443364900,3.37036474609375,0.7597457701236009,-0.005586421830207109,0.08340601296126841
1782845425453368600,3.38036865234375,0.7961948015987873,0.03559694469049573,0.028643070431984958
1782845425463373600,3.39037353515625,0.7496405556946992,0.057798985756933687,-0.06551913168020546
1782845425473377800,3.400377685546875,0.6919739641457796,0.12920476432293654,-0.15256759279705584
1782845425483382800,3.4103828125,0.5877624790430068,0.1367407127857208,-0.1953578099925071
1782845425493386800,3.42038671875,0.49270519125461576,0.05235357983261347,-0.2288610703393817
1782845425503391700,3.430391845703125,0.4691021973490715,-0.052601563244313,-0.2656741858866066
1782845425513396700,3.440396728515625,0.46652796294689175,-0.15508929329439997,-0.2880094979438931
1782845425523400700,3.450400634765625,0.38732641593813893,-0.2845572385981679,-0.2921115264352411
1782845425533405700,3.46040576171875,0.2729910117059946,-0.3648728843286633,-0.2788495284758508
1782845425543410000,3.470409912109375,0.18372925845384597,-0.41454745421037076,-0.31157091773003337
1782845425553415000,3.480414794921875,0.06499883413314819,-0.5162722370639443,-0.3171493754494935
1782845425563419000,3.4904189453125,-0.021361352458596227,-0.616449644345045,-0.34801147363781926
1782845425573423900,3.500423828125,-0.11015198106765746,-0.6526642825424671,-0.34581666700728236
1782845425583427600,3.510427490234375,-0.16053426082730293,-0.6279803615324199,-0.3045085781283676
1782845425593432600,3.5204326171875,-0.0981599299788475,-0.5560930830597877,-0.237489417148754
1782845425603436800,3.530436767578125,0.009271101692318916,-0.5751300842240452,-0.2487391985028982
1782845425613441800,3.54044189453125,0.20341887830793856,-0.7944773301564156,-0.30009288057796657
1782845425623445800,3.55044580078125,0.39639702662229537,-0.9001154870614408,-0.260331948075816
1782845425633450800,3.56045068359375,0.5167652812778949,-0.8499724228851496,-0.1836991555765271
1782845425643454700,3.570454833984375,0.590664045703411,-0.8732030763469636,-0.12753010910898446
1782845425653459700,3.580459716796875,0.6311345877796412,-0.8324452417619526,-0.04062120259329676
1782845425663464000,3.5904638671875,0.7004542077213526,-0.7064348895661533,0.07971877581588924
1782845425673469000,3.600468994140625,0.7528741307884455,-0.6262490076951682,0.19488368967473504
1782845425683473000,3.610472900390625,0.7050292605519294,-0.5868006482735276,0.31587310843598093
1782845425693478000,3.620477783203125,0.5689455503702163,-0.56468190157637,0.399465437749587
1782845425703481600,3.630481689453125,0.39498949791193005,-0.5490813046015799,0.39243429700378324
1782845425713486600,3.640486572265625,0.22332769387066362,-0.5623372381463646,0.3035486470550299
1782845425723491600,3.65049169921875,0.07650339396595955,-0.6210023392133415,0.22756832711510358
1782845425733495800,3.660495849609375,-0.09402209952175616,-0.7458709740281104,0.18747955089807508
1782845425743500800,3.670500732421875,-0.2495803255021572,-0.8032802298150956,0.2669051889862865
1782845425753504800,3.6805048828125,-0.37194530693292616,-0.8977034574836492,0.23895441166739909
1782845425763509800,3.690509765625,-0.4021364470571279,-0.9992243883281946,0.17801789506971835
1782845425773513500,3.700513427734375,-0.43363282456099983,-1.074679734545946,0.1441537289885804
1782845425783518500,3.7105185546875,-0.46370472221970555,-1.1612794289819897,0.12308905792161821
1782845425793522700,3.720522705078125,-0.5147182856202125,-1.2380880895048378,0.04171802138667553
1782845425803527700,3.730527587890625,-0.5496978290647268,-1.222226211245358,-0.014593283095769584
1782845425813531600,3.74053173828125,-0.6309884573072194,-1.0505050782322882,-0.09737900873422622
1782845425823536600,3.75053662109375,-0.6817717190831899,-0.9234994313888252,-0.19726795446276663
1782845425833540600,3.76054052734375,-0.7767267155408859,-0.893262406296283,-0.2794426720634103
1782845425843545600,3.770545654296875,-0.8634253403067589,-0.8259400976516306,-0.2530483304062858
1782845425853549800,3.7805498046875,-0.9830331319838762,-0.6389582671426236,-0.12715261756610124
1782845425863554800,3.790554931640625,-1.1578519387513397,-0.33911768082529303,0.009581154022179543
1782845425873558800,3.800558837890625,-1.3250994334816932,-0.11447437431141734,0.0978733863887377
1782845425883563800,3.810563720703125,-1.4146177918434142,-0.05314662990644574,0.10353234373219311
1782845425893568800,3.82056884765625,-1.4161983390331268,-0.09206175923421979,0.19655991579126567
1782845425903572500,3.830572509765625,-1.3834674512982368,-0.05430032998621463,0.29659462666604663
1782845425913577500,3.840577392578125,-1.2522101383596658,0.009024433454871177,0.3946547495322302
1782845425923581700,3.850581787109375,-1.0073281998068093,0.12704451754912732,0.4058687654532492
1782845425933586700,3.860586669921875,-0.6546721152335405,0.21065905869454143,0.33134069014824924
1782845425943590700,3.870590576171875,-0.20049977599084376,0.20939999854415653,0.22299749380191786
1782845425953595600,3.880595703125,0.18205752584934234,0.2616720375731587,0.17911064047617836
1782845425963599600,3.890599609375,0.5630664292037487,0.2915532349653542,0.10246356372321024
1782845425973604600,3.9006044921875,0.8847896153748035,0.36411154456734657,0.07228079413513187
1782845425983608800,3.91060888671875,1.2059084059119223,0.5570644123099744,0.13682347743203863
1782845425993613800,3.92061376953125,1.497644450098276,0.5450369976468384,0.14751120445663107
1782845426003617500,3.930617431640625,1.7720348072081804,0.48649888396039603,0.1780043962673284
1782845426013622500,3.94062255859375,1.9489245750308035,0.431122303044796,0.23239916307134553
1782845426023626500,3.95062646484375,2.0254455046534536,0.393055607239902,0.25994077506745233
1782845426033631500,3.960631591796875,2.0085674350887537,0.45776656434237956,0.295950465277303
1782845426043635700,3.9706357421875,1.9241057755947113,0.5599729932330548,0.3883306245446205
1782845426053640700,3.980640625,1.9190654433399437,0.569997982032597,0.43459911230988796
1782845426063644700,3.990644775390625,1.7291051815420388,0.6339972837343811,0.5433321299577132
1782845426073649700,4.000649658203125,1.4121984557420015,0.7520799116708338,0.5523773504722863
1782845426083654700,4.010654541015625,1.0418740280091763,0.7411847159080207,0.4166336858998984
1782845426093658600,4.02065869140625,0.5455488926917315,0.8001794873207807,0.31345355313885953
1782845426103663600,4.03066357421875,-0.05721183351874351,0.9385472167864441,0.25568193031288683
1782845426113667800,4.040667724609375,-0.6132359429955482,1.016061687491089,0.11248610483733937
1782845426123672800,4.0506728515625,-1.0128630375802516,1.0411382610805333,0.03839563093173783
1782845426133676500,4.060676513671875,-1.335935300272703,1.0542824048139154,0.011091428437677677
1782845426143681500,4.070681640625,-1.4941396568477152,1.107754759543389,-0.10585158045999706
1782845426153685500,4.080685546875,-1.442576642870903,1.2224443840406833,-0.18038188425470142
1782845426163690500,4.0906904296875,-1.1423866585940121,1.408202371843159,-0.19479845907669513
1782845426173694700,4.10069482421875,-0.68371116271317,1.4987465661212802,-0.173712325096596
1782845426183699700,4.11069970703125,-0.24504618920385837,1.522751126565039,-0.15204715825268067
1782845426193703700,4.12070361328125,0.10669219600260257,1.5737076990813017,-0.13737033419245853
1782845426203708700,4.130708740234375,0.33555881929993625,1.5741035665310918,-0.09401572457989678
1782845426213712600,4.140712646484375,0.45057636057734485,1.557716641484201,0.019854505259334108
1782845426223717600,4.150717529296875,0.6032938101738691,1.4076958836257456,0.14710879766819998
1782845426233721900,4.160721923828125,0.6643588119894266,1.22154626615718,0.280793520416785
1782845426243726800,4.170726806640625,0.6498895571321248,1.0892822603940964,0.36733313696235415
1782845426253730600,4.18073046875,0.5229302336484194,0.9301618118874728,0.5171989965200424
1782845426263735600,4.190735595703125,0.36527532764971254,0.7867373835541307,0.6166871794279665
1782845426273740500,4.200740478515625,0.12106675831377506,0.645671793306619,0.7216247137829661
1782845426283744500,4.21074462890625,-0.1630354299932718,0.5334795385830104,0.8021272603876888
1782845426293749500,4.22074951171875,-0.402099037656188,0.4739161735020578,0.7790411299630999
1782845426303753700,4.230753662109375,-0.5473726009875536,0.42091070563197136,0.7763774637117982
1782845426313758700,4.2407587890625,-0.6337082376599311,0.2941308303683996,0.7765431756675243
1782845426323762700,4.2507626953125,-0.6796487355798483,0.25536475412249565,0.7651240290958434
1782845426333767700,4.260767578125,-0.6034639060437679,0.18849866481274366,0.7890597620870917
1782845426343771600,4.270771728515625,-0.49278468623161314,0.1709168308928609,0.744955174357444
1782845426353776600,4.280776611328125,-0.4180605768978595,0.24780381734892726,0.6924415816575288
1782845426363780900,4.29078076171875,-0.23345102847814558,0.3084562928408384,0.5596609316091984
1782845426373785900,4.300785888671875,-0.03497311370372772,0.3375152140647173,0.3868066298477351
1782845426383789600,4.31078955078125,0.15032909315526485,0.3793319100528955,0.24734631937239318
1782845426393794600,4.320794677734375,0.33010464554727076,0.3352946154057979,0.06821944014746695
1782845426403798500,4.330798583984375,0.43975043065845965,0.2781600849069655,-0.09476713660224341
1782845426413803500,4.340803466796875,0.44008536170125007,0.22541838253960012,-0.24407084136568008
1782845426423807700,4.350807861328125,0.47908641574680805,0.18523367166742682,-0.3422604358304292
1782845426433812700,4.360812744140625,0.5198562330305576,0.13944047326371073,-0.4147178423412144
1782845426443816700,4.370816650390625,0.5467886636197566,0.05620104904100299,-0.4403888381598517
1782845426453821700,4.38082177734375,0.5476064097434282,-0.06715688894987105,-0.4335354286011308
1782845426463825700,4.39082568359375,0.5105366160213947,-0.1709561399899423,-0.46140649174731224
1782845426473830700,4.40083056640625,0.3984779245495796,-0.25176059215068813,-0.5011038209613412
1782845426483835600,4.410835693359375,0.24449381601810455,-0.397010336215049,-0.5050741858970373
1782845426493839600,4.420839599609375,0.006432663396000861,-0.4647885719336569,-0.5000326115332544
1782845426503844900,4.430844970703125,-0.21010580872595308,-0.47258097937554117,-0.5040174068531021
1782845426513848600,4.4408486328125,-0.4767378067940473,-0.5076411868408321,-0.5057646523792296
1782845426523853600,4.450853515625,-0.7117395718455314,-0.564181112447381,-0.5140140828736126
1782845426533857500,4.460857421875,-0.8809861314386129,-0.5653370044842362,-0.493294791178219
1782845426543862500,4.470862548828125,-0.9048305328845977,-0.5282375462763012,-0.4518633681805804
1782845426553866800,4.48086669921875,-0.8599386672347784,-0.4914119365736842,-0.4259103040175512
1782845426563871700,4.490871826171875,-0.7488730784535408,-0.39081045866161584,-0.41529735926222056
1782845426573875700,4.500875732421875,-0.5377355885922909,-0.33622166712284085,-0.41916967065092176
1782845426583880700,4.510880615234375,-0.31053835981190203,-0.3262662364281714,-0.42316944434419274
1782845426593884700,4.520884765625,-0.0836339764982462,-0.3199190593585372,-0.3941514031199738
1782845426603889700,4.5308896484375,0.08276362340450287,-0.24504721211716532,-0.3559885899968445
1782845426613893600,4.5408935546875,0.2523591425657272,-0.2222169561497867,-0.3891683174777776
1782845426623898600,4.550898681640625,0.4229319823265075,-0.19784341626316307,-0.4212919965671375
1782845426633902600,4.560902587890625,0.5113052623063326,-0.16673706099018454,-0.3956378057528287
1782845426643907600,4.570907470703125,0.5814923127323389,-0.16208046735599635,-0.39689997117575254
1782845426653911600,4.58091162109375,0.5076145910948515,-0.11462240447998046,-0.39521987260170277
1782845426663916500,4.59091650390625,0.5075573079496621,-0.07801248335465788,-0.4733012564741075
1782845426673921500,4.600921630859375,0.5467074150770902,-0.06204641406834125,-0.5585163281513378
1782845426683925500,4.610925537109375,0.5478589231997728,0.06087269411385059,-0.601292334158346
1782845426693930800,4.6209306640625,0.5126221901237964,0.12229600784778594,-0.5430415860459208
1782845426703934700,4.630934814453125,0.5324240381807088,0.13833134297803043,-0.5008934661462903
1782845426713939700,4.640939697265625,0.600317424711585,0.1446390648201108,-0.5093669146548956
1782845426723943700,4.650943603515625,0.623971272021532,0.08417568215951322,-0.5114688553702086
1782845426733948700,4.66094873046875,0.5730629225611686,-0.03050005994290113,-0.5176322733707726
1782845426743952600,4.67095263671875,0.34222353788614274,-0.18645488402545451,-0.4574051836840808
1782845426753957600,4.68095751953125,-0.0027571897536516187,-0.2399919745542109,-0.3610342560138553
1782845426763961600,4.690961669921875,-0.3524146770328283,-0.23820669857263563,-0.3118395786035806
1782845426773966600,4.700966552734375,-0.6274819104909897,-0.27515768822059034,-0.29203007696317507
1782845426783970600,4.710970458984375,-0.7980471514672041,-0.35920156069397924,-0.24859407267747446
1782845426793975600,4.7209755859375,-0.8471148414969444,-0.4013574255086481,-0.17895846385546027
1782845426803979500,4.7309794921875,-0.7267553546696901,-0.4410812408708036,-0.1587823025934398
1782845426813984500,4.740984619140625,-0.5736398456662893,-0.4748202827349305,-0.13933164259437472
1782845426823988700,4.75098876953125,-0.48892391915023325,-0.4790175882942974,-0.18131251616831867
1782845426833993700,4.76099365234375,-0.3724930039435625,-0.48260538365319366,-0.23421499858796596
1782845426843997700,4.770997802734375,-0.16638532494306563,-0.460124087253958,-0.30308439054414626
1782845426854002700,4.781002685546875,0.050097033077478405,-0.4504946736432612,-0.36845907225236296
1782845426864006700,4.791006591796875,0.260854583710432,-0.4566498352721333,-0.45701589210554955
1782845426874011600,4.80101171875,0.34392975728213787,-0.4048040588311851,-0.5390606631835922
1782845426884016600,4.8110166015625,0.3362988240122795,-0.2916349218994379,-0.6133367730215191
1782845426894020600,4.8210205078125,0.2914431987196207,-0.20599983471184968,-0.7353758834987878
1782845426904025600,4.831025634765625,0.27904958109259603,-0.10670140222236514,-0.8590573543556034
1782845426914029600,4.841029541015625,0.24672961224615572,-0.018086276310682294,-0.9074097357228398
1782845426924034600,4.85103466796875,0.17253975591957568,0.004132569760084152,-0.940971082932502
1782845426934038500,4.86103857421875,0.15028525401353834,0.0305417071275413,-0.9230902660660445
1782845426944043500,4.87104345703125,0.10996434954106807,0.0931764424778521,-0.9419652085363864
1782845426954047700,4.8810478515625,0.02989186491668224,0.162923201790452,-0.9742512020479888
1782845426964052700,4.891052734375,-0.02379997778236866,0.22626930028051137,-0.9250354818496852
1782845426974056700,4.901056640625,-0.13899462919235228,0.24632760731652378,-0.766952413566783
1782845426984061700,4.911061767578125,-0.39770460208952424,0.17935002045631407,-0.5525629361722618
1782845426994065400,4.9210654296875,-0.7817167789131403,0.13530103537142277,-0.3886459741041064
1782845427004070700,4.931070556640625,-1.1848749702334402,0.17159443789348006,-0.2087711625887081
1782845427014074600,4.94107470703125,-1.3508417775034904,0.23965017537921665,-0.0948533261815086
1782845427024079600,4.95107958984375,-1.3707079229682684,0.24451909658983348,-0.07612392966169863
1782845427034083600,4.96108349609375,-1.283836279723048,0.21380539389625192,-0.08391257424391806
1782845427044088600,4.971088623046875,-1.0272054511874913,0.21133359695523976,-0.08759513521417975
1782845427054092500,4.981092529296875,-0.5783037458240986,0.2408792787827551,-0.07782824936155229
1782845427064097500,4.99109765625,-0.12164835759401321,0.20867124587818978,-0.14939473491460084
1782845427074102500,5.0011025390625,0.254817641633749,0.1672740904763341,-0.3268017680769786
1782845427084106800,5.011106689453125,0.5230027143627405,0.18179653682559727,-0.502861551348865
1782845427094111700,5.02111181640625,0.7056821715027094,0.22081761074587702,-0.5959647459274158
1782845427104115700,5.03111572265625,0.8478244510710239,0.2736478681795299,-0.6516502101290971
1782845427114120700,5.04112060546875,0.9397124611735344,0.336049817687273,-0.6067030706280842
1782845427124124400,5.05112451171875,0.9285574454307556,0.3809614109508693,-0.5152202072603628
1782845427134129400,5.06112939453125,0.8751321447134017,0.4042433562085032,-0.395326328650862
1782845427144133600,5.071133544921875,0.8021773831397294,0.40911300807148215,-0.2543631758645177
1782845427154138600,5.081138671875,0.8200865493178368,0.42237084131240843,-0.12800481394864618
1782845427164142600,5.091142578125,0.7852303399920463,0.4720584168061614,-0.026044103447347876
1782845427174147600,5.101147705078125,0.6218108791172504,0.44651086470410223,0.028725451485812663
1782845427184151600,5.111151611328125,0.3878992473900318,0.432814640045911,0.12037008128650485
1782845427194156500,5.121156494140625,0.10833528703451156,0.5136538712590932,0.18424425877127795
1782845427204160800,5.131160888671875,-0.18243337342441082,0.6250662276513874,0.20750242129452526
1782845427214165800,5.141165771484375,-0.3631032443076372,0.6550353955879807,0.25109317775052037
1782845427224169700,5.151169677734375,-0.3297562705010176,0.6483762299597263,0.31560864881351586
1782845427234174700,5.1611748046875,-0.288633986517787,0.617930530552566,0.41950471129156647
1782845427244178400,5.171178466796875,-0.15564473522007463,0.546796408534795,0.5352750802302733
1782845427254183400,5.181183349609375,-0.012564298018813133,0.46284722860753535,0.6294068872042
1782845427264188400,5.1911884765625,0.0761912592768669,0.30925109648033977,0.7117353340618312
1782845427274192600,5.201192626953125,0.08901742310225963,0.16755597615763543,0.7444984435658901
1782845427284197600,5.21119775390625,0.023815759873390196,0.0909837547391653,0.7533527080856263
1782845427294201600,5.22120166015625,-0.0846136351853609,0.03647197395935654,0.7853519205451012
1782845427304206600,5.23120654296875,-0.1794850450128317,-0.033301965621113774,0.8040180425703525
1782845427314210600,5.24121044921875,-0.23607903889417647,-0.1106808272473514,0.8284479888193309
1782845427324215600,5.251215576171875,-0.2972363951683044,-0.2651809224769473,0.8037982623398303
1782845427334219800,5.2612197265625,-0.3863035026311874,-0.4075213549658656,0.7866562811419368
1782845427344224800,5.271224853515625,-0.4839122284680605,-0.40464463048577304,0.7969858058460056
1782845427354228700,5.281228759765625,-0.5896235967397689,-0.2910268730036914,0.7070930612139403
1782845427364233700,5.291233642578125,-0.5794336266368627,-0.336276466049999,0.5385641483709216
1782845427374237400,5.301237548828125,-0.5092980141371488,-0.38966801062822337,0.39202286665868014
1782845427384242400,5.311242431640625,-0.4576262790888548,-0.283062177734822,0.2788101097809151
1782845427394246700,5.32124658203125,-0.39973990730941295,-0.15145736653283237,0.11703249782901257
1782845427404251600,5.331251708984375,-0.29634616833031174,-0.04925415251255035,-0.0462679032433778
1782845427414255600,5.341255615234375,-0.2130541371375322,0.0490472317636013,-0.15371851639784873
1782845427424260600,5.351260498046875,-0.16373919434845446,0.15755203014612196,-0.24062285633627323
1782845427434264600,5.3612646484375,0.024370471146702766,0.23842589428126812,-0.24698168731108305
1782845427444269600,5.37126953125,0.21061726537942885,0.2716913272842765,-0.23956428719405085
1782845427454273800,5.381273681640625,0.4206295506030321,0.26828940988630057,-0.22598474771808832
1782845427464278800,5.39127880859375,0.6208744750499725,0.30504706891924144,-0.203523690389283
1782845427474283800,5.40128369140625,0.7847948711842299,0.3492480296954512,-0.10916735394448042
1782845427484287700,5.411287841796875,0.8589777132481337,0.33899551575034853,-0.005235562565922737
1782845427494292700,5.421292724609375,0.9806605576336384,0.32147038045376536,0.10103775043748318
1782845427504296400,5.43129638671875,1.1033341666221619,0.22006050876826047,0.17232362895086406
1782845427514301400,5.441301513671875,1.1066934139221907,0.17699673532843588,0.26764607048146427
1782845427524305700,5.4513056640625,1.0789946751356123,0.16691285594850777,0.38552258138656614
1782845427534310700,5.461310546875,0.9978495928436517,0.19192863926142453,0.4564174147557467
1782845427544314600,5.471314697265625,0.883369227182865,0.2219929381355643,0.5073826820351183
1782845427554319600,5.481319580078125,0.757623371142149,0.18623481153398752,0.5391321575172245
1782845427564323600,5.491323486328125,0.661594023451209,0.1117562013939023,0.6246108850993216
1782845427574328600,5.50132861328125,0.5827355907917022,0.11838614092767238,0.7089142122264951
1782845427584332800,5.511332763671875,0.49897594208717344,0.1645899659588933,0.7446638632606715
1782845427594337800,5.521337890625,0.5106693024903536,0.1989507929831743,0.7215909576438367
1782845427604341800,5.531341796875,0.636000732511282,0.1641539126291871,0.6693555242981761
1782845427614346800,5.5413466796875,0.7862123367667198,0.052231707018613814,0.6187963536016643
1782845427624350500,5.5513505859375,0.8341115675389766,-0.037781449122726914,0.49113472706750033
1782845427634355500,5.56135546875,0.8008300601840018,-0.04637070603072643,0.3678242084149271
1782845427644359700,5.571359619140625,0.7736714196234941,-0.061840662363171574,0.2536446523316204
1782845427654364700,5.58136474609375,0.7061749234557151,-0.11761544881612061,0.1625093602925539
1782845427664368600,5.59136865234375,0.6051712944835425,-0.21966946362406015,0.08222951652780175
1782845427674373600,5.60137353515625,0.5208557654619217,-0.3620525662109256,-0.011769494379311799
1782845427684378600,5.611378662109375,0.47684477429986,-0.45993543281406163,-0.17094065015986562
1782845427694382600,5.621382568359375,0.4790180266857147,-0.5782631215527654,-0.3199948280084878
1782845427704387600,5.6313876953125,0.4608177686065435,-0.6864972863003611,-0.44975518038757145
1782845427714391800,5.641391845703125,0.39877193906009195,-0.7803460750818252,-0.6101321317613124
1782845427724396800,5.651396728515625,0.3249129221230745,-0.8559950441755354,-0.6996252826165408
1782845427734400800,5.66140087890625,0.2895481787532568,-0.9653446228191256,-0.7057480763457715
1782845427744405800,5.67140576171875,0.20961130320727825,-0.9849880654439329,-0.6894806129600852
1782845427754409700,5.68140966796875,0.23885844047963617,-0.9186983147174119,-0.6672418200798332
1782845427764414700,5.691414794921875,0.3548474571377039,-0.9115826374933123,-0.6615704233799129
1782845427774418700,5.701418701171875,0.44374096159934995,-0.9378528047814965,-0.5728015682112425
1782845427784423700,5.711423583984375,0.5938298162579536,-0.914024477687478,-0.3660801412265748
1782845427794427600,5.721427734375,0.7268938863575458,-0.8870242425590753,-0.24411694552972912
1782845427804432600,5.7314326171875,0.755814275893569,-0.7997568779945373,-0.12332038245946168
1782845427814436600,5.7414365234375,0.7284604050219059,-0.7076675001010299,-0.06639817953705787
1782845427824441600,5.751441650390625,0.6526239505320787,-0.6184761817365885,0.11529197430461645
1782845427834445800,5.76144580078125,0.6051175184696912,-0.5702881971508265,0.2768257675632834
1782845427844450800,5.771450927734375,0.6283832432448864,-0.5213806661188602,0.4223091011878103
1782845427854454800,5.781454833984375,0.6873936506181955,-0.47961248544752594,0.5960589635495096
1782845427864459800,5.791459716796875,0.6924556101828813,-0.5133201092600822,0.6901039324901997
1782845427874463700,5.801463623046875,0.6894657807171344,-0.5480848409101367,0.7008119351178407
1782845427884468700,5.81146875,0.5552765059798955,-0.6231058873638511,0.7247029521845281
1782845427894473700,5.8214736328125,0.3851403040707111,-0.8035390268817544,0.7357833683211356
1782845427904477700,5.831477783203125,0.1763777266472578,-1.0373211870104073,0.7031285414971411
1782845427914482700,5.841482666015625,-0.15655892745554445,-1.282377166955918,0.6660960841108113
1782845427924486700,5.851486572265625,-0.570471737024188,-1.606983507347852,0.6243115368265658
1782845427934491600,5.86149169921875,-0.8915390896350145,-1.8119048991732298,0.6038865884352475
1782845427944495600,5.87149560546875,-1.1040525440245865,-1.9147572247520088,0.4778623538445681
1782845427954500600,5.88150048828125,-1.1325655218034982,-2.0739802568502723,0.24300394278652965
1782845427964504800,5.8915048828125,-1.0771575228363275,-2.1404722521506248,0.09593648177571594
1782845427974509800,5.901509765625,-1.0374106188595293,-2.0113184873625634,-0.017969591128453612
1782845427984513800,5.911513671875,-0.910100582242012,-1.8147936063520609,-0.16770605215281248
1782845427994518800,5.921518798828125,-0.7541992419123649,-1.5813795488834381,-0.30976153022050856
1782845428004522800,5.931522705078125,-0.852943693780899,-1.134575546451658,-0.29255766276754436
1782845428014527700,5.94152783203125,-1.0330366415590047,-0.5508581050157547,-0.307737696242705
1782845428024531700,5.95153173828125,-1.2229460499525069,0.05054068519175052,-0.22148878800570965
1782845428034536700,5.96153662109375,-1.3612152874797583,0.3794157889440655,-0.13591076476760208
1782845428044540700,5.971540771484375,-1.4862912814348934,0.42489787557199593,0.0021978753704577684
1782845428054545700,5.981545654296875,-1.5856208397150038,0.5602503488697111,0.32823950926251705
1782845428064549600,5.991549560546875,-1.6965765383809803,0.682566084331274,0.724213926558569
1782845428074554600,6.0015546875,-1.6250643768310546,0.7443374808505177,0.9942232190400362
1782845428084558800,6.011558837890625,-1.2503940288484097,0.6840968010298908,1.079269035097584
1782845428094563800,6.021563720703125,-0.7258300565183162,0.6037995677389204,1.0694874265998602
1782845428104568800,6.03156884765625,-0.18774200122654436,0.562748741556704,0.9923414238814264
1782845428114572800,6.04157275390625,0.21161095259189605,0.6142709851317107,0.8919456246092915
1782845428124577800,6.051577880859375,0.44377603291273116,0.7129113921038805,0.7596738739311695
1782845428134581500,6.06158154296875,0.7571651059806347,0.8828561630941927,0.633012291285023
1782845428144586800,6.071586669921875,1.0493769509851931,0.8843126455128192,0.5482827015697955
1782845428154590700,6.0815908203125,1.2321014163106678,0.8656672740146517,0.5035767869461327
1782845428164595700,6.091595703125,1.5626029522210358,0.9674594230160116,0.5617703980438411
1782845428174599700,6.101599609375,1.7661410729944704,1.1569634654790162,0.6566734451185912
1782845428184604700,6.111604736328125,1.8297189344137905,1.2821402894601226,0.6673770638320594
1782845428194608600,6.121608642578125,1.8544710983544588,1.2945599183112382,0.6456181634232402
1782845428204613600,6.131613525390625,1.9424106630921363,1.223083997118473,0.6618805122423916
1782845428214617900,6.141617919921875,2.038009218150377,1.1573273303553462,0.6976907343573868
1782845428224622800,6.151622802734375,2.063481513059139,1.1130872066125272,0.743862410684675
1782845428234626800,6.161626708984375,1.9655904631495476,1.1559653943523764,0.7298175187192857
1782845428244631800,6.1716318359375,1.797104951056838,1.2247346869349478,0.6254070039130747
1782845428254635500,6.181635498046875,1.446606921300292,1.2565014058128,0.5078112096454948
1782845428264640500,6.191640625,0.9952952321857214,1.2351494057044385,0.383734930784814
1782845428274644700,6.201644775390625,0.6127016899883747,1.287710490807891,0.305697093793191
1782845428284649700,6.211649658203125,0.2275947036653757,1.3339900114238261,0.30126459123846144
1782845428294653700,6.22165380859375,-0.19132745849788188,1.3211977498680352,0.29594507671613246
1782845428304658700,6.23165869140625,-0.5236766681015491,1.280822777120769,0.22149222207181155
1782845428314662700,6.24166259765625,-0.7606681456655263,1.3270396077640354,0.17767430579643695
1782845428324667600,6.251667724609375,-0.9431523724943399,1.2568169015027582,0.11689513518493622
1782845428334672600,6.261672607421875,-1.1868535768300295,1.1453675741009413,0.054812225031107664
1782845428344676600,6.271676513671875,-1.358695998135209,1.134549242966622,0.013282127431966363
1782845428354681900,6.281681884765625,-1.353683138409257,1.0948683899633587,0.018408914127480237
1782845428364685800,6.291685791015625,-1.3046768231779335,0.9683477501578629,0.030244295083545147
1782845428374690800,6.30169091796875,-1.2414315547138453,0.8093576500326395,0.09234826629171147
1782845428384694500,6.311694580078125,-1.1758517058223485,0.6851696909584105,0.17999445583969353
1782845428394699500,6.321699462890625,-1.0351754071533679,0.6595699702776968,0.18698288995493204
1782845428404703700,6.331703857421875,-0.8991671002954245,0.6761604550726711,0.10802594709070398
1782845428414708700,6.341708740234375,-0.8245739238649606,0.6781742791131138,0.002852612952142954
1782845428424712700,6.351712646484375,-0.8172685692876577,0.6888980638317763,-0.12624100088020787
1782845428434717700,6.3617177734375,-0.7143529692143201,0.7009878762066364,-0.20149127124622462
1782845428444721700,6.3717216796875,-0.423199693351984,0.6483787141777575,-0.2259519596933387
1782845428454726700,6.3817265625,-0.17090309462845324,0.5746840940222144,-0.28328014960074793
1782845428464730600,6.391730712890625,0.15666823304891586,0.4772573006235063,-0.27423401577072215
1782845428474735600,6.401735595703125,0.47428398390114307,0.39200975144878025,-0.23264815113004295
1782845428484739800,6.41173974609375,0.6835708774596452,0.36907340475842354,-0.17003043997976927
1782845428494744800,6.421744873046875,0.8294739708662032,0.37520109385848044,-0.10992246489441021
1782845428504748500,6.43174853515625,0.9842436768174171,0.39341859533339735,-0.06107857368318364
1782845428514753500,6.44175341796875,1.1300392181962728,0.4238189942941069,0.0023851781034842133
1782845428524758500,6.451758544921875,1.1327929008185862,0.4510213278658688,0.03694282460780814
1782845428534762500,6.461762451171875,0.9493395366966724,0.5092879311345517,0.060556723499856885
1782845428544767700,6.471767822265625,0.693640436053276,0.5668137990385294,-0.025576504201907664
1782845428554771700,6.481771728515625,0.4894803839892149,0.5783315106138587,-0.15534105783207341
1782845428564776700,6.491776611328125,0.388003292286396,0.5685128580413759,-0.2143403592894785
1782845428574780700,6.50178076171875,0.3577373333603143,0.5238118387885391,-0.22810782255297526
1782845428584785700,6.51178564453125,0.35230712500512595,0.4914423317119479,-0.15970433107549323
1782845428594789600,6.52178955078125,0.34896307527422904,0.3621231472291052,-0.040154005206655706
1782845428604794600,6.531794677734375,0.29375732088088985,0.24495763413757085,0.07298080933038145
1782845428614798800,6.541798828125,0.2082405993759632,0.14720628495961427,0.1129346157898195
1782845428624803800,6.551803955078125,-0.018784195446968077,0.059987143450975416,0.09206139390803873
1782845428634807600,6.5618076171875,-0.2317775423079729,-0.046529988245666024,0.02585678244801238
1782845428644812500,6.5718125,-0.3961737392604351,-0.18227365281805394,-0.10365622584018856
1782845428654816500,6.58181640625,-0.5765057564914227,-0.24971651910245418,-0.19599307568874208
1782845428664821500,6.591821533203125,-0.6911258228838444,-0.3726943717345595,-0.2865830818699673
1782845428674825700,6.60182568359375,-0.7480261062353849,-0.4936917180739343,-0.29732495023459193
1782845428684830700,6.611830810546875,-0.7325403678119182,-0.5941171087667345,-0.22318649530168622
1782845428694834700,6.621834716796875,-0.7724643819212913,-0.6001164953120053,-0.2376468727327883
1782845428704839700,6.631839599609375,-0.6852274124950171,-0.5609102740831673,-0.19689696572590618
1782845428714843600,6.64184375,-0.6263654736816883,-0.5667702521577477,-0.17512398199280724
1782845428724848600,6.6518486328125,-0.5384358458161354,-0.4907036421738565,-0.22573333024028688
1782845428734852900,6.661852783203125,-0.3967044851362705,-0.29472791947871446,-0.23876884423373265
1782845428744857900,6.67185791015625,-0.2095434986680746,-0.19730843260362743,-0.2693664280006662
1782845428754862300,6.6818623046875,-0.04630757766664028,-0.12251067351177335,-0.30248825128190215
1782845428764866300,6.6918662109375,0.14513620068728922,-0.09010960225313902,-0.27504662906154986
1782845428774871300,6.701871337890625,0.33419220712184905,-0.05327537085264921,-0.24988055055774747
1782845428784875300,6.711875244140625,0.5112392113327979,-0.10327610394880175,-0.2745688554819673
1782845428794880300,6.72188037109375,0.6207996562480926,-0.1860220455661416,-0.2867603016003966
1782845428804884200,6.73188427734375,0.5998018764048815,-0.2517546008013189,-0.3117632619643584
1782845428814889200,6.74188916015625,0.5120540348470211,-0.30037220897600053,-0.3426359546119347
1782845428824893200,6.75189306640625,0.3730062141627073,-0.36494185791164635,-0.4732542024619877
1782845428834898200,6.761898193359375,0.18573475305736065,-0.38818566311597824,-0.6824447960391641
1782845428844902400,6.77190234375,0.03698854517936706,-0.3644932373613119,-0.8005217248871922
1782845428854907400,6.781907470703125,-0.06416296783089637,-0.343736426667124,-0.8892506133716553
1782845428864911400,6.791911376953125,-0.12300912455320358,-0.2927623184941709,-0.9542981820173561
1782845428874916400,6.801916259765625,-0.030974983978271482,-0.2437508886963129,-1.0036593751009553
1782845428884920300,6.81192041015625,0.14450024087131022,-0.2630273977048695,-1.0328846658676862
1782845428894925300,6.82192529296875,0.32815117339193817,-0.360285556538403,-1.00427093112804
1782845428904929300,6.83192919921875,0.5213385805428028,-0.427182479377836,-0.9818889303848147
1782845428914934300,6.841934326171875,0.6974725615620613,-0.39867739264443514,-0.9124375007569789
1782845428924938200,6.851938232421875,0.7737000611960887,-0.33168241625800726,-0.8504932318888604
1782845428934943200,6.861943115234375,0.8504980541944503,-0.2722787717834115,-0.7770489332325756
1782845428944947200,6.871947265625,0.8346165944516658,-0.27199820127636193,-0.6600208558503537
1782845428954952200,6.8819521484375,0.7705676083892583,-0.29126141241192816,-0.5818993956958874
1782845428964956200,6.8919560546875,0.671217591843009,-0.3264695039153099,-0.5177853085080162
1782845428974961400,6.90196142578125,0.5145534504473209,-0.38860710339844223,-0.45496253977231677
1782845428984966400,6.91196630859375,0.3313368176907301,-0.5146862830467522,-0.35617812121957537
1782845428994970400,6.921970458984375,0.20550094527900217,-0.638905367911607,-0.29108240258321166
1782845429004975400,6.931975341796875,0.11072072086632251,-0.733494745927304,-0.2508948786994442
1782845429014979300,6.941979248046875,0.04999766435623169,-0.8456596742525696,-0.238852485662885
1782845429024984300,6.951984375,0.02036006646156311,-0.9161772718071937,-0.2165584554640576
1782845429034988300,6.96198828125,-0.08922259028553962,-0.9225826088048518,-0.262654326608777
1782845429044993300,6.9719931640625,-0.17583645937740802,-0.9564270107395947,-0.36988234652113167
1782845429054997200,6.981997314453125,-0.3257686621695757,-0.9374442239806056,-0.37646424566209313
1782845429065002200,6.992002197265625,-0.49451896267831325,-0.8040079595677554,-0.333615832006
1782845429075006200,7.002006103515625,-0.6954471932142973,-0.6161095987357199,-0.37642851676158606
1782845429085011200,7.01201123046875,-0.8853139315098524,-0.5030135270401835,-0.5248610555805265
1782845429095015200,7.02201513671875,-0.8787959279179572,-0.3873449745081365,-0.6602825024612248
1782845429105020200,7.032020263671875,-0.8323433888226747,-0.2933741667822003,-0.678689681289345
1782845429115024400,7.0420244140625,-0.6444084953725338,-0.12423209047690033,-0.70511679270491
1782845429125029400,7.052029296875,-0.5244032288104296,-0.07058569435477256,-0.5936501853747294
1782845429135033300,7.062033447265625,-0.6377011066883802,-0.13092705807089805,-0.4195152692181989
1782845429145038300,7.072038330078125,-0.9209481394708156,-0.12263809928372502,-0.09287092019263654
1782845429155042000,7.0820419921875,-1.2144137839287519,-0.02030439075157046,0.28676928862445056
1782845429165047300,7.09204736328125,-1.4944266570955513,0.032388650168478486,0.5009701115790754
1782845429175051300,7.10205126953125,-1.665073731136322,0.0969879635900259,0.5701070684302598
1782845429185056300,7.11205615234375,-1.6955910344749687,0.17659882205203176,0.528227134480141
1782845429195060200,7.122060302734375,-1.6215017159134149,0.2726521351404488,0.4549200523374602
1782845429205065200,7.132065185546875,-1.444812439098954,0.27996801111176606,0.3018159415109083
1782845429215070200,7.1420703125,-0.948916927370429,0.27075886873975397,0.021894783481862395
1782845429225074200,7.15207421875,-0.39346448030173775,0.2609755797415972,-0.24582809682916848
1782845429235079200,7.1620791015625,0.1222369711369276,0.25912849057018755,-0.47884245092310007
1782845429245083400,7.17208349609375,0.5584726716727018,0.36848084569275374,-0.7011358333099633
1782845429255088400,7.18208837890625,1.0332640205740928,0.5207610729157924,-0.7742028961516916
1782845429265092400,7.19209228515625,1.3702391364127398,0.6248552152492105,-0.7772531505677849
1782845429275097300,7.202097412109375,1.5092489631742239,0.6971415760420262,-0.7086752889040857
1782845429285101000,7.21210107421875,1.4192600646913052,0.7943332455106079,-0.5857463899802416
1782845429295106000,7.22210595703125,1.2411533222943543,0.8486994803398847,-0.5141071314519271
1782845429305110300,7.2321103515625,1.1969143675953149,0.8903025335773825,-0.5520551327805966
1782845429315115300,7.242115234375,1.2240139714449643,0.8609541278876364,-0.5783227793181315
1782845429325119200,7.252119140625,1.3034312070310115,0.8008231920517981,-0.42443486117012796
1782845429335124200,7.262124267578125,1.3443991772353647,0.7593781058549881,-0.20271617339868098
1782845429345128200,7.272128173828125,1.3149685000896454,0.7620942329458892,0.01291384210884571
1782845429355133200,7.28213330078125,1.1375333733439446,0.8125152372807264,0.1638815802275203
1782845429365137400,7.292137451171875,0.7522486923664807,0.8799220093384384,0.3101223263569176
1782845429375142400,7.302142333984375,0.40339375364184377,0.935533714184165,0.47126149427480996
1782845429385146400,7.312146484375,0.10967442668378352,1.005877270346135,0.5778791637364774
1782845429395151400,7.3221513671875,-0.15365268462002277,1.0145964372441172,0.665445803508535
1782845429405155000,7.332155029296875,-0.4318231447905302,0.9865355871468782,0.8202177014168351
1782845429415160000,7.34216015625,-0.6754980456411838,0.9729862236134708,0.9474772499561309
1782845429425164300,7.352164306640625,-0.8973509907841682,0.8530921623408794,1.0353717334430663
1782845429435169300,7.362169189453125,-0.9249731572031974,0.6559633240878582,1.0896624918833375
1782845429445174300,7.37217431640625,-0.9287024068593979,0.521764258608967,1.1100819603819398
1782845429455178200,7.38217822265625,-0.7811077071040868,0.40940643806010485,1.118981233087182
1782845429465183200,7.392183349609375,-0.4667267003893852,0.29336832156330345,1.1218461209990083
1782845429475187200,7.402187255859375,-0.212802792724967,0.17454904991537332,1.0337369718480856
1782845429485192200,7.412192138671875,0.0004857376903295517,0.1379287535265088,0.944571299381554
1782845429495196400,7.422196533203125,0.222400057631731,0.27776158710867166,0.8393713877633213
1782845429505201400,7.432201416015625,0.3315484146147966,0.22036299884617327,0.6158749862622469
1782845429515205400,7.442205322265625,0.364946241825819,0.08564531632065772,0.38398032038062807
1782845429525210400,7.45221044921875,0.2803326066404581,0.056065878354012964,0.2240519164919853
1782845429535214000,7.462214111328125,0.16704758824408053,0.10980214471668004,0.10445132174063473
1782845429545219000,7.472218994140625,0.027629180681705473,0.18354761827662586,-0.020856782203633337
1782845429555223300,7.482223388671875,-0.15920388900637625,0.20935060644447803,-0.23567741755703464
1782845429565228300,7.492228271484375,-0.23992460840642452,0.1773398496776819,-0.3508684705041349
1782845429575232300,7.502232177734375,-0.3194143247067928,0.08290083991810679,-0.40306028390377757
1782845429585237200,7.5122373046875,-0.3587316050946712,0.034698534546047446,-0.4137186752360314
1782845429595241200,7.5222412109375,-0.37336978677809235,0.09012494595274329,-0.32773466501291837
1782845429605246200,7.53224609375,-0.2728957346379757,0.09518807456120848,-0.24509366334108634
1782845429615250400,7.54225048828125,-0.1406271988302469,-0.017957535364478826,-0.1936007371921092
1782845429625255400,7.55225537109375,-0.015593290451169013,-0.025234540630131957,-0.1036746748123318
1782845429635259100,7.562259033203125,0.10932897424697875,-0.0020554712250828743,-0.06749291597120463
1782845429645264100,7.57226416015625,0.19988895061612127,0.02119447145909071,-0.023519663003645837
1782845429655268000,7.58226806640625,0.2506868254393339,0.050266252164542675,0.014063669731095432
1782845429665273000,7.592273193359375,0.25181319912075995,0.1397670748695731,0.040209954911284145
1782845429675278000,7.602278076171875,0.2190454865068197,0.2171989818572998,0.0443810300508514
1782845429685282300,7.6122822265625,0.2740601022422314,0.2721624519273639,0.04665441834293305
1782845429695287300,7.622287353515625,0.33576866265833377,0.28905191966891286,0.10675473984479904
1782845429705291300,7.632291259765625,0.3864659997165203,0.30831074689030646,0.18899430284257976
1782845429715296300,7.642296142578125,0.4647755663216114,0.34340514888614415,0.28875136581975963
1782845429725300200,7.65230029296875,0.5936895310044288,0.40744945877343414,0.3355339405870065
1782845429735305200,7.66230517578125,0.7539905675977469,0.4075833142861724,0.33784053702894595
1782845429745309400,7.672309326171875,0.8751105174034833,0.34170535923093553,0.3116566232521087
1782845429755314700,7.682314697265625,0.9082090694069862,0.30454233426749705,0.30822829277124253
1782845429765318700,7.692318603515625,0.8809902230918407,0.24341157373934982,0.32123328376226123
1782845429775323600,7.70232373046875,0.7937327953994273,0.18154446176066993,0.3559919875303283
1782845429785327600,7.71232763671875,0.6107160691291094,0.13599340154975653,0.3745796009592712
1782845429795332600,7.72233251953125,0.4781710544675588,0.06882657572776078,0.38735414419528097
1782845429805336800,7.7323369140625,0.3148480397045612,-0.018343612072616814,0.3644249578980729
1782845429815341800,7.742341796875,0.1513192732363939,-0.05776084570363164,0.317087854520604
1782845429825345800,7.752345703125,0.06351999375224113,-0.12082915016561746,0.24874555517844854
1782845429835350800,7.762350830078125,0.04833002340495586,-0.30118878605589267,0.14350995119232685
1782845429845354800,7.772354736328125,0.08498831371665,-0.3933639425367117,0.08206877300813793
1782845429855359700,7.78235986328125,0.12028817515671253,-0.43056262333542106,0.032913696955889464
1782845429865363700,7.79236376953125,0.13791209465265272,-0.5120797538101672,-0.009115143945626914
1782845429875368700,7.80236865234375,0.13289046709835528,-0.5803405123487114,-0.015678484516590832
1782845429885372700,7.81237255859375,0.15336977602541446,-0.6315830621995031,-0.0664085548005998
1782845429895377700,7.822377685546875,0.16062953789532183,-0.6780005299814045,-0.08237257826030255
1782845429905382700,7.832382568359375,0.18657880266606808,-0.6959311773389577,-0.07202347207292914
1782845429915386600,7.84238671875,0.2459334934324026,-0.6225149357333779,-0.07105586914978922
1782845429925391600,7.8523916015625,0.30470775396227834,-0.6191138951182366,-0.13215769584439693
1782845429935395800,7.862395751953125,0.4353939890146255,-0.7944156630970537,-0.225147675839439
1782845429945400800,7.87240087890625,0.5977034428209066,-0.9078015115194022,-0.18122282859086988
1782845429955404800,7.88240478515625,0.6785510034710168,-0.8583978675335645,-0.11981295886039733
1782845429965409800,7.892409912109375,0.6545049419730902,-0.773141112139076,-0.08002345785088837
1782845429975413800,7.902413818359375,0.5933844105780124,-0.7333985920764505,-0.07715813154764473
1782845429985418800,7.912418701171875,0.5617588537365198,-0.7411416074186563,-0.10042458697520196
1782845429995422700,7.922422607421875,0.5741770212829113,-0.782185273207724,-0.12081095692180097
1782845430005427700,7.932427734375,0.6288450155377387,-0.7967566732652485,-0.16720782030709086
1782845430015431700,7.942431640625,0.6905290260344743,-0.8137025473691523,-0.2488790453650057
1782845430025436700,7.952436767578125,0.7298492290318012,-0.8999402766250073,-0.343430064131692
1782845430035440600,7.962440673828125,0.6911556335002184,-0.9456260691314935,-0.39670258544012904
1782845430045445600,7.972445556640625,0.5191027843147515,-0.8760748323909938,-0.4200272738609463
1782845430055449600,7.98244970703125,0.28091362139880655,-0.8810888611607253,-0.4808733722288161
1782845430065454800,7.992454833984375,0.15722119075655935,-1.034060139387846,-0.4859189286479726
1782845430075458800,8.002458740234376,0.10999416015744208,-1.1616052999354898,-0.3994917047020048
1782845430085463800,8.0124638671875,0.029707740521430968,-1.2805017284728586,-0.30759050632435825
1782845430095467500,8.022467529296875,-0.11419745706617832,-1.3522662573486566,-0.23575042799431828
1782845430105472500,8.032472412109374,-0.41209962266683575,-1.4443128190137444,-0.21499507860485462
1782845430115476700,8.042476806640625,-0.7003676984816789,-1.54331562955752,-0.251833657386899
1782845430125481700,8.052481689453124,-0.776114721122384,-1.7087262642495333,-0.24306754607465117
1782845430135485700,8.062485595703125,-0.7955290311664343,-1.8819795752659438,-0.3643865621164441
1782845430145490700,8.07249072265625,-0.8353606908172369,-1.8000464113362133,-0.29768107019588347
1782845430155495700,8.08249560546875,-0.7046861462026834,-1.4884985822208225,-0.06572502951584756
1782845430165499600,8.092499755859375,-0.6934340998262166,-1.2541449058145284,0.027495580897293984
1782845430175504600,8.102504638671874,-0.7685065842062234,-1.0100682922951876,0.0941060149455443
1782845430185508600,8.112508544921875,-0.814599057817459,-0.7011445280730724,0.19019319377094507
1782845430195513600,8.122513671875,-1.088570312732458,-0.3570044890411198,0.36241898837052283
1782845430205517800,8.132517822265624,-1.6146674859791994,0.011959756254404782,0.6126634403372183
1782845430215522800,8.142522705078125,-2.0929197889894247,0.2738914676770568,0.9238491946745664
1782845430225526500,8.152526611328126,-2.3842057513207195,0.42048882695809003,1.0448856309153138
1782845430235531500,8.162531494140625,-2.435613866996765,0.5065406782530247,1.0773325871422885
1782845430245535500,8.172535400390625,-2.1223802767515183,0.5353687133304774,1.1630806331850587
1782845430255540700,8.182540771484375,-1.6527432418733834,0.5155035907790064,1.194766980303079
1782845430265544700,8.192544677734375,-1.1796546052366494,0.4786830956429243,1.0860752810463308
1782845430275549700,8.2025498046875,-0.6146510704904794,0.4666819844648242,0.948141997475177
1782845430285553700,8.2125537109375,0.013187982875108717,0.5466166680537163,0.8648775849416851
1782845430295558700,8.22255859375,0.4992033211022615,0.5735036520659923,0.7181534574758262
1782845430305562600,8.232562744140624,0.9466998358428478,0.5755692062936723,0.5992108517091721
1782845430315567600,8.242567626953125,1.4427783029228447,0.5137015097931027,0.4811614319225773
1782845430325571800,8.25257177734375,1.8497043223440646,0.459867628274858,0.3985697675514966
1782845430335576800,8.262576904296875,2.199426107031107,0.3616907471612096,0.3677979414625093
1782845430345580500,8.27258056640625,2.4645500386238095,0.3147480864614248,0.4690914567593485
1782845430355585500,8.28258544921875,2.613129073241353,0.2925394695237279,0.5710740868315101
1782845430365589500,8.292589599609375,2.615964004406333,0.3329556510642171,0.5172389997368678
1782845430375594500,8.302594482421876,2.442885319304466,0.39233956792503594,0.41062779654860493
1782845430385599500,8.312599609375,2.2704782498538494,0.424387734092772,0.31741489451788363
1782845430395603700,8.322603759765625,2.0539824478298425,0.6289595818281173,0.30356643844004716
1782845430405608700,8.332608642578125,1.837174511116743,0.8098895649522543,0.35523287625871597
1782845430415612700,8.34261279296875,1.5925965239465236,0.9192916044354438,0.3802044185711071
1782845430425617700,8.35261767578125,1.2411977459579706,0.9759870128646493,0.38222525687422604
1782845430435621600,8.36262158203125,0.7998118230521678,1.0487342691674828,0.38146380751505493
1782845430445626600,8.372626708984376,0.35992753688096996,1.1308271537035703,0.34756902709994464
1782845430455630800,8.382630859375,-0.12491349686980247,1.1753911025732755,0.35034167015105483
1782845430465635800,8.3926357421875,-0.5359148029059171,1.1392303865201772,0.3104202133249491
1782845430475639600,8.4026396484375,-0.8893798657745122,1.1884294478446245,0.3153299780026078
1782845430485644500,8.41264453125,-1.079847492572665,1.3192640053264797,0.3249803978687152
1782845430495648500,8.4226484375,-1.107039450880885,1.3372835000112653,0.27248097982462494
1782845430505653500,8.432653564453124,-0.9889414792448281,1.3370929458752274,0.18717351715620606
1782845430515657700,8.44265771484375,-0.7193623218089342,1.36685387788862,0.08052950767688452
1782845430525662700,8.452662841796876,-0.47455403301417826,1.3699592965580523,0.028647764873411505
1782845430535666700,8.462666748046875,-0.3479495143175125,1.4247664070226251,-0.0026719180564163253
1782845430545671700,8.472671630859375,-0.16225333970487116,1.3989599117234348,-0.020285517087741754
1782845430555675600,8.482675537109374,-0.005203998383879661,1.2949889573782682,-0.048710958147095515
1782845430565680600,8.4926806640625,0.10278466717004775,1.194043049942702,-0.02631317531284876
1782845430575684900,8.502684814453126,0.2294119822204113,1.0495729119487107,0.012766117900959216
1782845430585689900,8.51268994140625,0.3223766816437244,0.9189170720346271,0.07391949668629094
1782845430595693600,8.522693603515625,0.27934534916877746,0.8508611884184181,0.11660514839556999
1782845430605698600,8.532698486328124,0.14866788194477557,0.7662295791849494,0.13398956918036564
1782845430615702500,8.54270263671875,-0.028527590826153755,0.6873332987330854,0.14263015441680327
1782845430625707500,8.55270751953125,-0.23381226300597188,0.6469761539034545,0.17873461023801937
1782845430635712500,8.56271240234375,-0.40944998494088647,0.5728910731256008,0.301906652001664
1782845430645716700,8.572716796875,-0.5150310048311948,0.5043012287631631,0.405727639949508
1782845430655721700,8.5827216796875,-0.7543553092569112,0.48077962953075765,0.5176451693849637
1782845430665725700,8.5927255859375,-0.8814180931150912,0.4678599422030151,0.561599169662781
1782845430675730700,8.602730712890626,-0.8893325195014476,0.43884383720755576,0.5804735276112333
1782845430685734700,8.612734619140625,-0.9347299965858459,0.5007986274696886,0.5779156232893466
1782845430695739600,8.62273974609375,-0.8413871114999055,0.4874317808963358,0.4122711798414588
1782845430705744000,8.632743896484374,-0.6374865871548653,0.41777080017104745,0.19849751452403142
1782845430715748900,8.642748779296875,-0.3492091589897871,0.341006124920398,0.0004460358676034957
1782845430725752600,8.652752685546876,-0.06554185496866703,0.31675957241430874,-0.10135776703893207
1782845430735757600,8.662757568359375,0.17023907776176928,0.34756168404370547,-0.14869116235566324
1782845430745761500,8.672761474609375,0.36293490200340744,0.3839638076372444,-0.26686354180164634
1782845430755767300,8.682767333984375,0.3998240784615278,0.42661242440491914,-0.4010917968424037
1782845430765771300,8.692771240234375,0.5130138197898865,0.302707227794826,-0.48263347723651673
1782845430775776500,8.702776611328124,0.6676011549115181,0.16463555866628884,-0.5412484190188348
1782845430785780200,8.7127802734375,0.7259972297787666,0.13092954228892922,-0.5122451735049486
1782845430795785500,8.722785400390626,0.6340192033052444,0.11197335127592087,-0.4831090953916311
1782845430805789200,8.7327890625,0.5430857174485921,0.0783420075699687,-0.47837841360792516
1782845430815794200,8.742794189453125,0.3813724759697914,-0.012764496766030788,-0.4634177585044875
1782845430825798400,8.75279833984375,0.2025678144365549,-0.09908289004266262,-0.39590836632251736
1782845430835803400,8.762803466796875,0.034252398213744165,-0.1677225648961961,-0.33400863071586934
1782845430845807400,8.772807373046875,-0.13450491655766963,-0.15414675174728035,-0.2932127291427925
1782845430855812400,8.782812255859374,-0.2365875729382038,-0.09445216150209307,-0.2556716463808901
1782845430865817300,8.7928173828125,-0.3206926740795374,-0.013136106557399033,-0.22987406504051758
1782845430875821300,8.8028212890625,-0.3186953627824783,-0.006832330238074064,-0.26766172470832245
1782845430885826300,8.812826416015625,-0.17043606163859365,-0.004559270739555359,-0.19583333681607618
1782845430895830300,8.822830322265625,-0.06284545549154281,-0.01444704302549362,-0.10218609848869964
1782845430905835300,8.832835205078124,-0.08351707212030887,-0.01564531289935112,-0.058931067659938705
1782845430915839200,8.842839111328125,-0.22802257368862627,-0.07278773444369435,-0.12322948930561542
1782845430925844200,8.85284423828125,-0.3307511267572641,0.03263604905828833,-0.09482049249098636
1782845430935848200,8.86284814453125,-0.17796528809964657,0.08282704402953386,-0.12454810675666667
1782845430945853200,8.872853271484376,-0.02410977438390255,0.012679302700608968,-0.11462661486421712
1782845430955857200,8.882857177734374,0.06984744320809841,-0.04712488539889455,-0.06321233887544367
1782845430965862400,8.8928623046875,-0.05002922853827476,-0.012048895842581987,-0.03090853114593774
1782845430975866400,8.902866455078126,0.36575405107736586,-0.06571531183943152,0.11027272137049585
1782845430985871400,8.912871337890625,-0.02998597294092178,-0.12246215819492935,0.13238008815711363
1782845430995875300,8.922875244140625,-0.25344693780243394,-0.05891892969757318,-0.12121521774060093
1782845431005880300,8.93288037109375,-0.020580431213974952,0.18186302619054912,-0.446224156717211
1782845431015884300,8.94288427734375,0.23517712161839008,0.2537868372812867,-0.6997452557343989
