time,seconds_elapsed,z,y,x
1782845422151874800,0.078874755859375,0.13785666227340698,0.07263505458831787,-0.31239378452301025
1782845422161879800,0.0888798828125,0.09798860549926758,0.06747304648160934,-0.38160640001296997
1782845422171883800,0.0988837890625,0.05989724025130272,0.05310893803834915,-0.40997642278671265
1782845422181888800,0.108888671875,0.026608526706695557,0.03687217831611633,-0.41255807876586914
1782845422191892700,0.118892822265625,0.005107917357236147,0.033572014421224594,-0.4117805063724518
1782845422201898000,0.12889794921875,-0.021466968581080437,-0.00430399551987648,-0.40623369812965393
1782845422211902000,0.13890185546875,-0.05403576046228409,-0.03313194960355759,-0.37099626660346985
1782845422221907000,0.148906982421875,-0.06909327208995819,-0.061537761241197586,-0.32003509998321533
1782845422231911000,0.158910888671875,-0.08612452447414398,-0.09625761955976486,-0.23899704217910767
1782845422241916000,0.168916015625,-0.10783061385154724,-0.11778368800878525,-0.14106035232543945
1782845422251920000,0.178919921875,-0.12107492983341217,-0.14235036075115204,-0.06060171499848366
1782845422261924900,0.1889248046875,-0.13308179378509521,-0.1528402864933014,-0.004358416888862848
1782845422271928800,0.1989287109375,-0.13108454644680023,-0.16107943654060364,0.022200560197234154
1782845422281933800,0.208933837890625,-0.11576178669929504,-0.15611103177070618,0.01693735457956791
1782845422291937800,0.218937744140625,-0.09743013232946396,-0.12588873505592346,-0.004375454504042864
1782845422301942800,0.22894287109375,-0.07026562094688416,-0.08877332508563995,-0.050342679023742676
1782845422311947800,0.23894775390625,-0.027068449184298515,-0.0405053086578846,-0.09718302637338638
1782845422321951700,0.24895166015625,0.026738323271274567,0.015556893311440945,-0.1318054497241974
1782845422331956700,0.258956787109375,0.0845918133854866,0.055856067687273026,-0.15257924795150757
1782845422341961000,0.2689609375,0.14181463420391083,0.07823594659566879,-0.162112295627594
1782845422351966000,0.278966064453125,0.20019520819187164,0.09303557127714157,-0.1728113889694214
1782845422361970000,0.288969970703125,0.25032922625541687,0.10826725512742996,-0.18506459891796112
1782845422371975000,0.298974853515625,0.29801875352859497,0.10761341452598572,-0.19221046566963196
1782845422381979000,0.308978759765625,0.35282474756240845,0.10147562623023987,-0.20862460136413574
1782845422391983900,0.31898388671875,0.3956591784954071,0.10007525980472565,-0.22334079444408417
1782845422401987800,0.32898779296875,0.4260373115539551,0.08991582691669464,-0.2212052047252655
1782845422411992800,0.338992919921875,0.444632351398468,0.08160048723220825,-0.19484573602676392
1782845422421996800,0.348996826171875,0.44912564754486084,0.07888086885213852,-0.14289358258247375
1782845422432001800,0.359001708984375,0.44236278533935547,0.08372467011213303,-0.07165542244911194
1782845422442005800,0.369005859375,0.42913541197776794,0.08353372663259506,0.008386678993701935
1782845422452010800,0.3790107421875,0.4203547537326813,0.09296979010105133,0.09664776921272278
1782845422462015000,0.389014892578125,0.4137205481529236,0.09125285595655441,0.1900687962770462
1782845422472020000,0.39902001953125,0.38447943329811096,0.0994533896446228,0.2832045257091522
1782845422482025000,0.40902490234375,0.3424305021762848,0.09451030194759369,0.3485901951789856
1782845422492029000,0.41902880859375,0.2932335436344147,0.08488070964813232,0.40532052516937256
1782845422502034000,0.429033935546875,0.23838362097740173,0.06867004930973053,0.45556744933128357
1782845422512038000,0.439037841796875,0.1802133172750473,0.059678856283426285,0.4730818569660187
1782845422522043000,0.44904296875,0.1268073469400406,0.0504470095038414,0.4473589062690735
1782845422532046800,0.459046875,0.07420904189348221,0.043496571481227875,0.3996564447879791
1782845422542051800,0.4690517578125,0.03317345678806305,0.03353475406765938,0.3154534101486206
1782845422552055800,0.479055908203125,0.011850476264953613,0.02405904233455658,0.22954410314559937
1782845422562060800,0.489060791015625,0.007099396549165249,0.0026205943431705236,0.1490234136581421
1782845422572064800,0.499064697265625,0.022272469475865364,-0.02332445979118347,0.10592640936374664
1782845422582069800,0.50906982421875,0.04343661293387413,-0.02344430238008499,0.0844099372625351
1782845422592074000,0.519073974609375,0.06298205256462097,-0.011399573646485806,0.08748956024646759
1782845422602079000,0.529078857421875,0.07846567779779434,0.013343056663870811,0.10011401027441025
1782845422612083000,0.5390830078125,0.08072340488433838,0.04868648946285248,0.1032305657863617
1782845422622088000,0.549087890625,0.084141306579113,0.08273659646511078,0.11014173924922943
1782845422632092000,0.559091796875,0.10499344021081924,0.10745278745889664,0.10396827757358551
1782845422642097000,0.569096923828125,0.14343857765197754,0.12476466596126556,0.06975171715021133
1782845422652102000,0.579101806640625,0.18858611583709717,0.13111178576946259,0.023688632994890213
1782845422662105900,0.58910595703125,0.2350715845823288,0.11986685544252396,0.0015457789413630962
1782845422672110800,0.59911083984375,0.28548869490623474,0.08986655622720718,0.004457865376025438
1782845422682114800,0.60911474609375,0.32307496666908264,0.042571213096380234,0.03399525210261345
1782845422692119800,0.619119873046875,0.3421361744403839,-0.006735052913427353,0.07199274748563766
1782845422702123800,0.629123779296875,0.33940696716308594,-0.041770536452531815,0.1167471706867218
1782845422712128800,0.639128662109375,0.3286101222038269,-0.055144261568784714,0.1625315099954605
1782845422722133000,0.649133056640625,0.3102857172489166,-0.07322206348180771,0.22135141491889954
1782845422732138000,0.659137939453125,0.28757983446121216,-0.0852469876408577,0.2759384512901306
1782845422742142000,0.669141845703125,0.2699688971042633,-0.08301259577274323,0.3232116997241974
1782845422752147000,0.67914697265625,0.2554124593734741,-0.07674901932477951,0.3471337854862213
1782845422762151000,0.68915087890625,0.24726559221744537,-0.0848921686410904,0.35157325863838196
1782845422772156000,0.699156005859375,0.24139632284641266,-0.0902678519487381,0.33316683769226074
1782845422782160000,0.709159912109375,0.2295340597629547,-0.07921786606311798,0.30373144149780273
1782845422792164900,0.719164794921875,0.20026281476020813,-0.06234491616487503,0.27639147639274597
1782845422802168800,0.7291689453125,0.163436621427536,-0.029326779767870903,0.23913627862930298
1782845422812173800,0.739173828125,0.11880122870206833,-0.0033569084480404854,0.19375449419021606
1782845422822178800,0.7491787109375,0.06385035812854767,0.01674835942685604,0.15999813377857208
1782845422832182800,0.759182861328125,0.012700440362095833,0.03545958176255226,0.12851786613464355
1782845422842187800,0.769187744140625,-0.03980297967791557,0.0542423240840435,0.10055521875619888
1782845422852192000,0.77919189453125,-0.07826663553714752,0.07555525749921799,0.06903298944234848
1782845422862197000,0.789197021484375,-0.11233752220869064,0.0997237116098404,0.03166191279888153
1782845422872201000,0.799200927734375,-0.12322180718183517,0.11696869879961014,-0.013938925229012966
1782845422882206000,0.8092060546875,-0.12537284195423126,0.1293843537569046,-0.06702131778001785
1782845422892210000,0.8192099609375,-0.12503160536289215,0.14299620687961578,-0.110254667699337
1782845422902215000,0.82921484375,-0.1216677576303482,0.15398813784122467,-0.1411505490541458
1782845422912219000,0.839218994140625,-0.11085977405309677,0.15349803864955902,-0.14774452149868011
1782845422922223900,0.849223876953125,-0.09060244262218475,0.1420712172985077,-0.1277252733707428
1782845422932227800,0.859227783203125,-0.059629492461681366,0.12406916916370392,-0.08179940283298492
1782845422942232800,0.86923291015625,-0.028162647038698196,0.10676740854978561,-0.023685503751039505
1782845422952236800,0.87923681640625,0.008504139259457588,0.08645486831665039,0.04020374268293381
1782845422962241800,0.88924169921875,0.035429760813713074,0.06878826022148132,0.08833558857440948
1782845422972246000,0.89924609375,0.07074446976184845,0.056595634669065475,0.10380768030881882
1782845422982251000,0.9092509765625,0.10053964704275131,0.039386555552482605,0.11278572678565979
1782845422992256000,0.919256103515625,0.12775979936122894,0.03103620745241642,0.11915161460638046
1782845423002260000,0.929260009765625,0.1549205780029297,0.021747900173068047,0.12990865111351013
1782845423012265000,0.939264892578125,0.1749182492494583,0.010568804107606411,0.13295911252498627
1782845423022268700,0.9492685546875,0.18665213882923126,0.010821271687746048,0.12923814356327057
1782845423032274000,0.95927392578125,0.19424447417259216,0.009329195134341717,0.12591399252414703
1782845423042278000,0.96927783203125,0.18671464920043945,0.006304909475147724,0.1086372658610344
1782845423052283000,0.979282958984375,0.17871467769145966,-0.002901339903473854,0.07746820896863937
1782845423062286800,0.989286865234375,0.1616097390651703,-0.014226165600121021,0.05584947019815445
1782845423072291800,0.999291748046875,0.13042837381362915,-0.013268227688968182,0.046855974942445755
1782845423082295800,1.0092958984375,0.0884052962064743,0.012405444867908955,0.024120304733514786
1782845423092300800,1.01930078125,0.037496138364076614,0.04972290247678757,0.004255388863384724
1782845423102305000,1.029304931640625,-0.017608661204576492,0.07110010087490082,-0.007032685913145542
1782845423112310000,1.03931005859375,-0.06810612231492996,0.08202248066663742,0.003762780223041773
1782845423122314000,1.04931396484375,-0.11639109253883362,0.07631772756576538,0.0340019091963768
1782845423132319000,1.059319091796875,-0.15294918417930603,0.05180395022034645,0.06138666719198227
1782845423142322700,1.06932275390625,-0.1854594498872757,0.01377294585108757,0.10596878081560135
1782845423152327700,1.07932763671875,-0.22211343050003052,-0.01635695993900299,0.15310971438884735
1782845423162332000,1.089331787109375,-0.25055038928985596,-0.037076886743307114,0.18469321727752686
1782845423172337000,1.0993369140625,-0.2841856777667999,-0.052033163607120514,0.20188356935977936
1782845423182342000,1.109341796875,-0.30966758728027344,-0.053057681769132614,0.19841666519641876
1782845423192345900,1.119345947265625,-0.33468097448349,-0.0512896366417408,0.18519560992717743
1782845423202350800,1.129350830078125,-0.36241859197616577,-0.03286375850439072,0.1852499395608902
1782845423212354800,1.139354736328125,-0.384850412607193,-0.023540839552879333,0.195033997297287
1782845423222359800,1.14935986328125,-0.402040034532547,-0.014535625465214252,0.20246368646621704
1782845423232364000,1.159364013671875,-0.41918182373046875,-0.011990349739789963,0.2010950893163681
1782845423242369000,1.169369140625,-0.4258232116699219,-0.013874003663659096,0.1837664246559143
1782845423252373000,1.179373046875,-0.42144960165023804,-0.02383067086338997,0.15418937802314758
1782845423262378000,1.1893779296875,-0.39766544103622437,-0.027050433680415154,0.10562928766012192
1782845423272381700,1.199381591796875,-0.36133936047554016,-0.018708396703004837,0.058829884976148605
1782845423282386700,1.20938671875,-0.3140040636062622,-0.0038817799650132656,0.0174664668738842
1782845423292391000,1.219390869140625,-0.26911047101020813,0.021047670394182205,-0.03829806670546532
1782845423302396000,1.22939599609375,-0.23095326125621796,0.05111901834607124,-0.08889786154031754
1782845423312400000,1.23939990234375,-0.1936882734298706,0.06546614319086075,-0.1303739845752716
1782845423322404900,1.24940478515625,-0.15727993845939636,0.058100104331970215,-0.14909601211547852
1782845423332408800,1.259408935546875,-0.12261387705802917,0.021078424528241158,-0.15625938773155212
1782845423342413800,1.269413818359375,-0.10750842839479446,-0.012879808433353901,-0.1513189673423767
1782845423352418800,1.279418701171875,-0.10428790003061295,-0.022360557690262794,-0.1374579817056656
1782845423362423000,1.289423095703125,-0.0933830514550209,-0.04628852754831314,-0.12833772599697113
1782845423372428000,1.299427978515625,-0.09369193017482758,-0.07098491489887238,-0.11599305272102356
1782845423382432000,1.309431884765625,-0.11061472445726395,-0.09645885229110718,-0.093963123857975
1782845423392437000,1.31943701171875,-0.13891880214214325,-0.13943129777908325,-0.05001955106854439
1782845423402440700,1.329440673828125,-0.17524272203445435,-0.18073239922523499,0.004035960417240858
1782845423412445700,1.33944580078125,-0.21070356667041779,-0.2106817364692688,0.05579734966158867
1782845423422450000,1.349449951171875,-0.24601416289806366,-0.21856069564819336,0.09569496661424637
1782845423432455000,1.359454833984375,-0.28409942984580994,-0.20622742176055908,0.11939655989408493
1782845423442459000,1.369458984375,-0.3134421408176422,-0.19259044528007507,0.13041777908802032
1782845423452463900,1.3794638671875,-0.33406880497932434,-0.17785122990608215,0.12727731466293335
1782845423462467800,1.3894677734375,-0.3513021171092987,-0.1624770611524582,0.11969157308340073
1782845423472472800,1.399472900390625,-0.3647315502166748,-0.157083660364151,0.1037232056260109
1782845423482477000,1.40947705078125,-0.3725372552871704,-0.155326247215271,0.08997383713722229
1782845423492482000,1.41948193359375,-0.3728477358818054,-0.16148249804973602,0.07619689404964447
1782845423502486000,1.429486083984375,-0.3617497980594635,-0.17341479659080505,0.06817013025283813
1782845423512491000,1.439490966796875,-0.3462273180484772,-0.1885240375995636,0.060805872082710266
1782845423522494700,1.44949462890625,-0.3285231590270996,-0.20199696719646454,0.0694451704621315
1782845423532499700,1.459499755859375,-0.3229955732822418,-0.21103450655937195,0.08607190102338791
1782845423542504700,1.469504638671875,-0.3189193308353424,-0.2075236588716507,0.10451962053775787
1782845423552509000,1.479509033203125,-0.31315916776657104,-0.1940431147813797,0.12335386127233505
1782845423562514000,1.489513916015625,-0.2995203137397766,-0.18007324635982513,0.1462266892194748
1782845423572518000,1.499517822265625,-0.28392648696899414,-0.15559715032577515,0.16259734332561493
1782845423582523000,1.50952294921875,-0.26661059260368347,-0.1372719407081604,0.18434365093708038
1782845423592526800,1.51952685546875,-0.2517561912536621,-0.1212882548570633,0.20612433552742004
1782845423602531800,1.52953173828125,-0.24378959834575653,-0.10195397585630417,0.21830695867538452
1782845423612536000,1.5395361328125,-0.23980526626110077,-0.09193436801433563,0.22801484167575836
1782845423622541000,1.549541015625,-0.23524700105190277,-0.05745761841535568,0.23805122077465057
1782845423632545000,1.559544921875,-0.23295746743679047,-0.03042013756930828,0.25836384296417236
1782845423642550000,1.569550048828125,-0.232993945479393,-0.010923400521278381,0.27419978380203247
1782845423652553700,1.5795537109375,-0.22956037521362305,0.009939635172486305,0.289806067943573
1782845423662558700,1.589558837890625,-0.22084252536296844,0.040518585592508316,0.29880061745643616
1782845423672563000,1.59956298828125,-0.2054695188999176,0.06274408102035522,0.2908722460269928
1782845423682568000,1.60956787109375,-0.1780932992696762,0.08157342672348022,0.2667519748210907
1782845423692572000,1.619572021484375,-0.1573929488658905,0.11055535823106766,0.20711062848567963
1782845423702577000,1.629576904296875,-0.14241160452365875,0.14780019223690033,0.12295473366975784
1782845423712580900,1.639580810546875,-0.13781708478927612,0.1743830144405365,0.025575239211320877
1782845423722585900,1.6495859375,-0.13000044226646423,0.17210814356803894,-0.08407828211784363
1782845423732590800,1.6595908203125,-0.11276669800281525,0.15989641845226288,-0.2002514749765396
1782845423742595000,1.669594970703125,-0.09714885801076889,0.12412776798009872,-0.2969396710395813
1782845423752600000,1.67960009765625,-0.07996127754449844,0.07648959010839462,-0.35752204060554504
1782845423762604000,1.68960400390625,-0.0623822845518589,0.02175496518611908,-0.35780248045921326
1782845423772609000,1.699609130859375,-0.03997867554426193,-0.0411205030977726,-0.3175821006298065
1782845423782612700,1.70961279296875,-0.012507636100053787,-0.09251844882965088,-0.2541903555393219
1782845423792617700,1.71961767578125,0.021310146898031235,-0.12880733609199524,-0.19291533529758453
1782845423802622000,1.7296220703125,0.06701158732175827,-0.14586141705513,-0.13273587822914124
1782845423812627000,1.739626953125,0.10930967330932617,-0.16154251992702484,-0.0666770339012146
1782845423822631000,1.749630859375,0.1474440097808838,-0.14797423779964447,-0.0020785972010344267
1782845423832636000,1.759635986328125,0.17890961468219757,-0.1165223941206932,0.07399047166109085
1782845423842640000,1.769639892578125,0.21195252239704132,-0.06859241425991058,0.16978596150875092
1782845423852644900,1.779644775390625,0.2596852779388428,-0.06082118675112724,0.28728097677230835
1782845423862649000,1.789649169921875,0.2869592308998108,-0.026485316455364227,0.4086225628852844
1782845423872654000,1.799654052734375,0.3095283508300781,0.0037105390802025795,0.5168796181678772
1782845423882659000,1.8096591796875,0.31255581974983215,0.009346320293843746,0.6003177762031555
1782845423892663000,1.8196630859375,0.28830403089523315,0.01571730151772499,0.6481781005859375
1782845423902668000,1.82966796875,0.22655759751796722,0.03870357945561409,0.6507334113121033
1782845423912671700,1.839671630859375,0.1666867733001709,0.07469943910837173,0.6034660935401917
1782845423922676700,1.8496767578125,0.10855209082365036,0.09966284036636353,0.5143870711326599
1782845423932681000,1.859680908203125,0.05160016939043999,0.11202039569616318,0.39457085728645325
1782845423942686000,1.86968603515625,-0.01632695086300373,0.11443562060594559,0.26576414704322815
1782845423952690000,1.87968994140625,-0.06710270792245865,0.1050087958574295,0.1497763693332672
1782845423962695000,1.88969482421875,-0.10571455210447311,0.07620777189731598,0.04987746849656105
1782845423972699000,1.899698974609375,-0.13889089226722717,0.0443667508661747,-0.03545820340514183
1782845423982703900,1.909703857421875,-0.16576723754405975,0.0206782016903162,-0.1197778731584549
1782845423992707800,1.919707763671875,-0.1858232170343399,0.011457223445177078,-0.19754157960414886
1782845424002713000,1.929713134765625,-0.19687852263450623,0.010782644152641296,-0.2696000635623932
1782845424012717000,1.939717041015625,-0.2084580957889557,0.014121901243925095,-0.33128154277801514
1782845424022722000,1.94972216796875,-0.21104669570922852,0.025309307500720024,-0.38551947474479675
1782845424032725800,1.959725830078125,-0.20847336947917938,0.021830186247825623,-0.4295388162136078
1782845424042730800,1.969730712890625,-0.20289750397205353,0.0108619574457407,-0.468304306268692
1782845424052735000,1.97973486328125,-0.1788925677537918,0.0012277610367164016,-0.4954681992530823
1782845424062740000,1.989739990234375,-0.14409543573856354,-0.01625828817486763,-0.49918997287750244
1782845424072744000,1.999743896484375,-0.09975483268499374,-0.04055142030119896,-0.4851604998111725
1782845424082749000,2.0097490234375,-0.046083882451057434,-0.07044487446546555,-0.4605816602706909
1782845424092754000,2.01975390625,0.022315319627523422,-0.09973768889904022,-0.4216996431350708
1782845424102758000,2.0297578125,0.0843491330742836,-0.11115812510251999,-0.38592326641082764
1782845424112763000,2.039762939453125,0.13096557557582855,-0.11535947769880295,-0.35905325412750244
1782845424122766800,2.049766845703125,0.17307628691196442,-0.12144773453474045,-0.3239613175392151
1782845424132772000,2.059772216796875,0.20351852476596832,-0.11382269114255905,-0.2835480272769928
1782845424142775800,2.06977587890625,0.21893396973609924,-0.11342934519052505,-0.23344409465789795
1782845424152781000,2.079781005859375,0.22207584977149963,-0.10786330699920654,-0.19888727366924286
1782845424162784800,2.08978466796875,0.21582329273223877,-0.11053606122732162,-0.15643303096294403
1782845424172789800,2.099789794921875,0.18662691116333008,-0.12143891304731369,-0.10006197541952133
1782845424182793700,2.109793701171875,0.1488124281167984,-0.1334037035703659,-0.04354383796453476
1782845424192799000,2.119799072265625,0.09884389489889145,-0.13383601605892181,0.012929694727063179
1782845424202803000,2.129802978515625,0.04548932984471321,-0.12580738961696625,0.06103650480508804
1782845424212808000,2.139807861328125,-0.009314415976405144,-0.10584254562854767,0.0849040299654007
1782845424222812000,2.14981201171875,-0.047959282994270325,-0.07574962079524994,0.08139345049858093
1782845424232817000,2.15981689453125,-0.07662723958492279,-0.03776593506336212,0.04535142332315445
1782845424242820900,2.16982080078125,-0.09829125553369522,-0.0021890311036258936,-0.011704136617481709
1782845424252825900,2.179825927734375,-0.11209509521722794,0.01937125250697136,-0.07457824051380157
1782845424262830800,2.189830810546875,-0.11872450262308121,0.04423478990793228,-0.15730854868888855
1782845424272834800,2.199834716796875,-0.11595619469881058,0.06086867302656174,-0.2442588210105896
1782845424282839800,2.20983984375,-0.08920501172542572,0.0680815801024437,-0.3173002600669861
1782845424292843800,2.21984375,-0.04940793663263321,0.07326634228229523,-0.37302806973457336
1782845424302848800,2.229848876953125,-0.002534971572458744,0.07446316629648209,-0.39770784974098206
1782845424312852700,2.239852783203125,0.04991520941257477,0.06542307883501053,-0.39495211839675903
1782845424322858000,2.24985791015625,0.09375722706317902,0.050665970891714096,-0.3773092031478882
1782845424332862000,2.259862060546875,0.140379399061203,0.03342137858271599,-0.3670397996902466
1782845424342867000,2.269866943359375,0.179739847779274,0.023772211745381355,-0.37276744842529297
1782845424352871000,2.279870849609375,0.2074466347694397,0.010987398214638233,-0.39023518562316895
1782845424362876000,2.2898759765625,0.22144927084445953,-0.010357039049267769,-0.4068027138710022
1782845424372880000,2.2998798828125,0.22947905957698822,-0.03177826106548309,-0.40199851989746094
1782845424382884900,2.309884765625,0.22584064304828644,-0.038223378360271454,-0.3899330794811249
1782845424392888800,2.319888916015625,0.21691147983074188,-0.03521573171019554,-0.3763447403907776
1782845424402893800,2.329893798828125,0.20446068048477173,-0.032472942024469376,-0.37283602356910706
1782845424412897800,2.339897705078125,0.18848368525505066,-0.011246833950281143,-0.3766632676124573
1782845424422902800,2.34990283203125,0.17126022279262543,0.013473426923155785,-0.35527780652046204
1782845424432907800,2.35990771484375,0.1492241621017456,0.027798783034086227,-0.3048709034919739
1782845424442911700,2.369911865234375,0.12881450355052948,0.03503246232867241,-0.2516292631626129
1782845424452916700,2.379916748046875,0.12211764603853226,0.039020370692014694,-0.20899949967861176
1782845424462921000,2.3899208984375,0.11542325466871262,0.05440545082092285,-0.1831284910440445
1782845424472926000,2.399926025390625,0.11840101331472397,0.06190183758735657,-0.16743987798690796
1782845424482930000,2.409929931640625,0.13067525625228882,0.052554938942193985,-0.15516750514507294
1782845424492935000,2.419934814453125,0.14811056852340698,0.04649782553315163,-0.15197841823101044
1782845424502939000,2.42993896484375,0.16393427550792694,0.045460522174835205,-0.15014483034610748
1782845424512943900,2.43994384765625,0.18570974469184875,0.04574103280901909,-0.16030119359493256
1782845424522947800,2.44994775390625,0.2103128284215927,0.04311728477478027,-0.16251881420612335
1782845424532952800,2.459952880859375,0.23624204099178314,0.03704914078116417,-0.17241773009300232
1782845424542956800,2.469956787109375,0.2639785706996918,0.04113256558775902,-0.19298158586025238
1782845424552961800,2.4799619140625,0.2845228314399719,0.06282264739274979,-0.21549347043037415
1782845424562965800,2.4899658203125,0.29784315824508667,0.0770535096526146,-0.22469575703144073
1782845424572970800,2.499970703125,0.31264978647232056,0.08719082921743393,-0.2161618024110794
1782845424582975000,2.50997509765625,0.32674694061279297,0.09723120927810669,-0.20298928022384644
1782845424592980000,2.51997998046875,0.3397587835788727,0.10713031888008118,-0.1706371158361435
1782845424602984000,2.52998388671875,0.3614736497402191,0.11870148777961731,-0.14073914289474487
1782845424612989000,2.539989013671875,0.38423633575439453,0.13040034472942352,-0.10392367839813232
1782845424622994000,2.549993896484375,0.41613221168518066,0.1403896063566208,-0.07834960520267487
1782845424632998000,2.559997802734375,0.4428379535675049,0.14914412796497345,-0.049594130367040634
1782845424643003000,2.5700029296875,0.46948128938674927,0.15478762984275818,-0.01726255565881729
1782845424653006800,2.5800068359375,0.4898073375225067,0.15719911456108093,0.02185542695224285
1782845424663011800,2.59001171875,0.500877857208252,0.15500441193580627,0.065144844353199
1782845424673015800,2.600015869140625,0.5035942196846008,0.14483043551445007,0.10318464785814285
1782845424683020800,2.610020751953125,0.5083125233650208,0.13579486310482025,0.14050805568695068
1782845424693024800,2.620024658203125,0.5091443657875061,0.1246163621544838,0.1725187599658966
1782845424703029800,2.63002978515625,0.5118389129638672,0.11797204613685608,0.1907433122396469
1782845424713034000,2.640033935546875,0.5136672258377075,0.12387783080339432,0.2074376791715622
1782845424723039000,2.6500390625,0.5184223055839539,0.12917537987232208,0.22090688347816467
1782845424733043000,2.66004296875,0.515199601650238,0.12463917583227158,0.24409933388233185
1782845424743048000,2.6700478515625,0.5158891081809998,0.12738728523254395,0.2821492552757263
1782845424753051600,2.6800517578125,0.5171580910682678,0.13926689326763153,0.33664384484291077
1782845424763056600,2.690056640625,0.5297505855560303,0.15808504819869995,0.4038844108581543
1782845424773060900,2.700060791015625,0.5439502000808716,0.1698656529188156,0.4969634711742401
1782845424783065900,2.71006591796875,0.5704014897346497,0.1747935563325882,0.5981804132461548
1782845424793070800,2.72007080078125,0.5786073207855225,0.162634015083313,0.6887548565864563
1782845424803074800,2.73007470703125,0.5748370885848999,0.1370578110218048,0.7252936959266663
1782845424813079800,2.740079833984375,0.5563913583755493,0.12147530168294907,0.7038463354110718
1782845424823083800,2.750083740234375,0.5337227582931519,0.11623712629079819,0.6239243745803833
1782845424833088800,2.7600888671875,0.5207821726799011,0.12055756896734238,0.49508556723594666
1782845424843092700,2.7700927734375,0.523332953453064,0.111593097448349,0.33866268396377563
1782845424853097700,2.78009765625,0.5243681073188782,0.09886776655912399,0.16619229316711426
1782845424863101700,2.790101806640625,0.520054817199707,0.08542146533727646,0.010796046815812588
1782845424873106700,2.800106689453125,0.5162820816040039,0.06605503708124161,-0.11645033210515976
1782845424883110700,2.810110595703125,0.5085525512695312,0.04989151656627655,-0.20586463809013367
1782845424893115600,2.82011572265625,0.4925098717212677,0.016177328303456306,-0.254218727350235
1782845424903120000,2.830119873046875,0.46758320927619934,-0.03628002107143402,-0.27674585580825806
1782845424913124900,2.840124755859375,0.43359658122062683,-0.08712432533502579,-0.279025673866272
1782845424923128800,2.85012890625,0.40001678466796875,-0.12259150296449661,-0.2600919306278229
1782845424933133800,2.8601337890625,0.35685840249061584,-0.15131615102291107,-0.21974821388721466
1782845424943137800,2.8701376953125,0.309926301240921,-0.17064671218395233,-0.16667060554027557
1782845424953142800,2.880142822265625,0.266718327999115,-0.17342567443847656,-0.10800817608833313
1782845424963146800,2.890146728515625,0.23656520247459412,-0.18303382396697998,-0.04914006218314171
1782845424973151700,2.90015185546875,0.21206919848918915,-0.20369330048561096,0.0013434942811727524
1782845424983156700,2.91015673828125,0.19379405677318573,-0.23662115633487701,0.042334068566560745
1782845424993160700,2.92016064453125,0.18019410967826843,-0.24415500462055206,0.09387215226888657
1782845425003165700,2.930165771484375,0.15811331570148468,-0.23291248083114624,0.15356823801994324
1782845425013169700,2.940169677734375,0.1208273395895958,-0.1998971402645111,0.22485820949077606
1782845425023174700,2.950174560546875,0.0713822990655899,-0.1576080024242401,0.2980315089225769
1782845425033179000,2.960178955078125,0.022713974118232727,-0.10614925622940063,0.3513716459274292
1782845425043183900,2.970183837890625,-0.03027627244591713,-0.050135523080825806,0.36892563104629517
1782845425053187800,2.980187744140625,-0.06717205047607422,0.011046221479773521,0.3538663387298584
1782845425063192800,2.99019287109375,-0.09985250234603882,0.054580915719270706,0.3138909339904785
1782845425073196500,3.000196533203125,-0.12054036557674408,0.08845405280590057,0.2766070067882538
1782845425083201800,3.010201904296875,-0.13180075585842133,0.11717864125967026,0.23152635991573334
1782845425093205800,3.020205810546875,-0.12554001808166504,0.13473588228225708,0.15219305455684662
1782845425103210800,3.030210693359375,-0.12607663869857788,0.14959073066711426,0.08244699239730835
1782845425113214700,3.040214599609375,-0.12059123814105988,0.15077708661556244,0.02743634209036827
1782845425123219700,3.0502197265625,-0.10435047745704651,0.15172091126441956,-0.023863863199949265
1782845425133223700,3.0602236328125,-0.07545453310012817,0.13812433183193207,-0.07252433151006699
1782845425143228700,3.070228759765625,-0.04694778844714165,0.12471290677785873,-0.13073836266994476
1782845425153233700,3.080233642578125,-0.009901807643473148,0.11268538981676102,-0.18230631947517395
1782845425163238000,3.09023779296875,0.024450041353702545,0.1025504618883133,-0.24118374288082123
1782845425173243000,3.100242919921875,0.042328543961048126,0.09108617901802063,-0.2919783294200897
1782845425183246800,3.110246826171875,0.03514173626899719,0.06770069152116776,-0.3138152062892914
1782845425193251800,3.120251953125,0.021301500499248505,0.04535341262817383,-0.31108105182647705
1782845425203255600,3.130255615234375,0.030161304399371147,0.012774694710969925,-0.2905896306037903
1782845425213260500,3.140260498046875,0.03426013141870499,-0.014660080894827843,-0.2332056313753128
1782845425223264800,3.1502646484375,0.02555718645453453,-0.04357615485787392,-0.16104808449745178
1782845425233269800,3.160269775390625,0.010096033103764057,-0.06464024633169174,-0.07115215063095093
1782845425243273700,3.170273681640625,-0.00425254600122571,-0.06165936589241028,0.007783680688589811
1782845425253278700,3.18027880859375,-0.03543037176132202,-0.0503217987716198,0.08364922553300858
1782845425263282700,3.19028271484375,-0.0657227635383606,-0.036525558680295944,0.14123928546905518
1782845425273287700,3.20028759765625,-0.09486842155456543,-0.017831504344940186,0.18717974424362183
1782845425283292000,3.2102919921875,-0.11304821819067001,0.002260181587189436,0.2088746577501297
1782845425293297000,3.220296875,-0.12872162461280823,0.022238541394472122,0.19640924036502838
1782845425303300900,3.23030078125,-0.1544722616672516,0.04068678990006447,0.1545155942440033
1782845425313305900,3.240305908203125,-0.18082477152347565,0.05220581591129303,0.092987060546875
1782845425323309600,3.2503095703125,-0.21277816593647003,0.05227851867675781,0.03454985097050667
1782845425333314600,3.260314453125,-0.2510892152786255,0.034463439136743546,-0.007627358194440603
1782845425343319600,3.270319580078125,-0.2918184995651245,0.018887676298618317,-0.029931597411632538
1782845425353323800,3.28032373046875,-0.3325244188308716,0.010534720495343208,-0.049927737563848495
1782845425363328800,3.290328857421875,-0.37000736594200134,-0.0006071459501981735,-0.04927552863955498
1782845425373332700,3.300332763671875,-0.3924407958984375,-0.009012674912810326,-0.04683736339211464
1782845425383337700,3.310337646484375,-0.3995535671710968,-0.020620862022042274,-0.04092727601528168
1782845425393341700,3.320341796875,-0.39686062932014465,-0.026240359991788864,-0.03351311385631561
1782845425403346700,3.3303466796875,-0.3831416368484497,-0.03712230175733566,-0.0322481133043766
1782845425413351000,3.340350830078125,-0.36697831749916077,-0.04466307908296585,-0.04322638362646103
1782845425423356000,3.35035595703125,-0.3419581651687622,-0.047511596232652664,-0.06333031505346298
1782845425433360000,3.36035986328125,-0.2975485622882843,-0.03780366852879524,-0.0946112871170044
1782845425443364900,3.37036474609375,-0.24700388312339783,-0.033123694360256195,-0.11616451293230057
1782845425453368600,3.38036865234375,-0.2171826958656311,-0.027906157076358795,-0.13596011698246002
1782845425463373600,3.39037353515625,-0.20414333045482635,-0.01987352967262268,-0.14163504540920258
1782845425473377800,3.400377685546875,-0.19999106228351593,-0.01989416778087616,-0.14604462683200836
1782845425483382800,3.4103828125,-0.2096671313047409,-0.017527416348457336,-0.14398761093616486
1782845425493386800,3.42038671875,-0.2285822331905365,-0.01558703649789095,-0.14717034995555878
1782845425503391700,3.430391845703125,-0.2530955672264099,-0.010877502150833607,-0.1559273600578308
1782845425513396700,3.440396728515625,-0.27611392736434937,0.00017213867977261543,-0.16237007081508636
1782845425523400700,3.450400634765625,-0.2937600314617157,0.009546731598675251,-0.16289524734020233
1782845425533405700,3.46040576171875,-0.3035930097103119,0.01660436950623989,-0.14753319323062897
1782845425543410000,3.470409912109375,-0.3159729838371277,0.009910514578223228,-0.11705891788005829
1782845425553415000,3.480414794921875,-0.32110297679901123,-0.004607274197041988,-0.07536353915929794
1782845425563419000,3.4904189453125,-0.32572034001350403,-0.02626143768429756,-0.024414878338575363
1782845425573423900,3.500423828125,-0.33067893981933594,-0.06009760871529579,0.030469682067632675
1782845425583427600,3.510427490234375,-0.33102914690971375,-0.10671810060739517,0.0900651067495346
1782845425593432600,3.5204326171875,-0.34743720293045044,-0.14584064483642578,0.1477033942937851
1782845425603436800,3.530436767578125,-0.3773101568222046,-0.1661728024482727,0.18179798126220703
1782845425613441800,3.54044189453125,-0.40886741876602173,-0.17216479778289795,0.1860249936580658
1782845425623445800,3.55044580078125,-0.4283982515335083,-0.16244985163211823,0.18834780156612396
1782845425633450800,3.56045068359375,-0.4281066060066223,-0.14588503539562225,0.18098928034305573
1782845425643454700,3.570454833984375,-0.4090985655784607,-0.12061189860105515,0.16791316866874695
1782845425653459700,3.580459716796875,-0.3640795052051544,-0.11143535375595093,0.14622919261455536
1782845425663464000,3.5904638671875,-0.3073832094669342,-0.10463736951351166,0.11135215312242508
1782845425673469000,3.600468994140625,-0.2439693808555603,-0.11156979948282242,0.07620754837989807
1782845425683473000,3.610472900390625,-0.17621296644210815,-0.1330103874206543,0.039588551968336105
1782845425693478000,3.620477783203125,-0.11902399361133575,-0.14944395422935486,0.016483500599861145
1782845425703481600,3.630481689453125,-0.07492923736572266,-0.15741878747940063,0.00486759003251791
1782845425713486600,3.640486572265625,-0.049376390874385834,-0.16342967748641968,0.00324723357334733
1782845425723491600,3.65049169921875,-0.03372552618384361,-0.17230680584907532,0.018538571894168854
1782845425733495800,3.660495849609375,-0.01789938285946846,-0.183114156126976,0.03599081560969353
1782845425743500800,3.670500732421875,-0.005868818610906601,-0.19477561116218567,0.04739367216825485
1782845425753504800,3.6805048828125,0.005418367683887482,-0.2022596001625061,0.0533304400742054
1782845425763509800,3.690509765625,0.01935868337750435,-0.2067379653453827,0.06169009953737259
1782845425773513500,3.700513427734375,0.04228515550494194,-0.21473072469234467,0.06554131209850311
1782845425783518500,3.7105185546875,0.06421922147274017,-0.2104230523109436,0.05624688044190407
1782845425793522700,3.720522705078125,0.08997563272714615,-0.19730371236801147,0.016242211684584618
1782845425803527700,3.730527587890625,0.12084007263183594,-0.17277146875858307,-0.060793980956077576
1782845425813531600,3.74053173828125,0.13602913916110992,-0.15459533035755157,-0.15769115090370178
1782845425823536600,3.75053662109375,0.12122462689876556,-0.13879400491714478,-0.26470494270324707
1782845425833540600,3.76054052734375,0.07805928587913513,-0.1277543604373932,-0.3631892204284668
1782845425843545600,3.770545654296875,0.03184225782752037,-0.13057170808315277,-0.44392508268356323
1782845425853549800,3.7805498046875,-0.006174330599606037,-0.15087442100048065,-0.48687177896499634
1782845425863554800,3.790554931640625,-0.04173019155859947,-0.19430072605609894,-0.4695465862751007
1782845425873558800,3.800558837890625,-0.08564523607492447,-0.23859384655952454,-0.4226285517215729
1782845425883563800,3.810563720703125,-0.1391974240541458,-0.27759769558906555,-0.33854615688323975
1782845425893568800,3.82056884765625,-0.1802578717470169,-0.3116666376590729,-0.23300084471702576
1782845425903572500,3.830572509765625,-0.20422445237636566,-0.3335479497909546,-0.11219720542430878
1782845425913577500,3.840577392578125,-0.2063949853181839,-0.3544129431247711,0.010901975445449352
1782845425923581700,3.850581787109375,-0.20533186197280884,-0.3676680326461792,0.13553498685359955
1782845425933586700,3.860586669921875,-0.19724588096141815,-0.36974218487739563,0.26689472794532776
1782845425943590700,3.870590576171875,-0.1833425760269165,-0.33618929982185364,0.3797467052936554
1782845425953595600,3.880595703125,-0.16861067712306976,-0.29245686531066895,0.47038668394088745
1782845425963599600,3.890599609375,-0.16455547511577606,-0.2451213151216507,0.5380522608757019
1782845425973604600,3.9006044921875,-0.15728262066841125,-0.1967521607875824,0.5740036964416504
1782845425983608800,3.91060888671875,-0.16207124292850494,-0.12348353862762451,0.571941614151001
1782845425993613800,3.92061376953125,-0.15886466205120087,-0.04521624743938446,0.5221313834190369
1782845426003617500,3.930617431640625,-0.13780517876148224,0.023787589743733406,0.4408476948738098
1782845426013622500,3.94062255859375,-0.12487486004829407,0.06843503564596176,0.33305227756500244
1782845426023626500,3.95062646484375,-0.11093374341726303,0.09646480530500412,0.2172771841287613
1782845426033631500,3.960631591796875,-0.0917370617389679,0.10577479749917984,0.10020879656076431
1782845426043635700,3.9706357421875,-0.05770266801118851,0.08521279692649841,-0.02471528761088848
1782845426053640700,3.980640625,-0.013804075308144093,0.041961174458265305,-0.1438186764717102
1782845426063644700,3.990644775390625,0.031056605279445648,-0.00009200349450111389,-0.25124019384384155
1782845426073649700,4.000649658203125,0.05516757071018219,-0.043373268097639084,-0.33347198367118835
1782845426083654700,4.010654541015625,0.057429924607276917,-0.09103532880544662,-0.38311225175857544
1782845426093658600,4.02065869140625,0.046330224722623825,-0.12233389168977737,-0.39166104793548584
1782845426103663600,4.03066357421875,0.011288350448012352,-0.14975379407405853,-0.3515216112136841
1782845426113667800,4.040667724609375,-0.0352599211037159,-0.1744653731584549,-0.2788720726966858
1782845426123672800,4.0506728515625,-0.08643868565559387,-0.18105483055114746,-0.18720391392707825
1782845426133676500,4.060676513671875,-0.14464128017425537,-0.17257718741893768,-0.09028696268796921
1782845426143681500,4.070681640625,-0.19875431060791016,-0.15708531439304352,-0.006707117427140474
1782845426153685500,4.080685546875,-0.2430855929851532,-0.1419806182384491,0.05966664478182793
1782845426163690500,4.0906904296875,-0.27707844972610474,-0.12219680100679398,0.09110606461763382
1782845426173694700,4.10069482421875,-0.31123191118240356,-0.09410066902637482,0.10286332666873932
1782845426183699700,4.11069970703125,-0.34133070707321167,-0.0708472728729248,0.10027872771024704
1782845426193703700,4.12070361328125,-0.37538522481918335,-0.04672657325863838,0.07754812389612198
1782845426203708700,4.130708740234375,-0.39578956365585327,-0.022483818233013153,0.0307992622256279
1782845426213712600,4.140712646484375,-0.413775771856308,-0.002156763570383191,-0.028569336980581284
1782845426223717600,4.150717529296875,-0.4347987473011017,0.008186954073607922,-0.10292612761259079
1782845426233721900,4.160721923828125,-0.4562484622001648,0.007177170366048813,-0.1824064403772354
1782845426243726800,4.170726806640625,-0.47244662046432495,0.0018686912953853607,-0.24692551791667938
1782845426253730600,4.18073046875,-0.4872383177280426,-0.006018575746566057,-0.3015008270740509
1782845426263735600,4.190735595703125,-0.488513708114624,-0.01668134145438671,-0.3353104591369629
1782845426273740500,4.200740478515625,-0.47426244616508484,-0.020279929041862488,-0.3448491394519806
1782845426283744500,4.21074462890625,-0.4566493630409241,-0.020876742899417877,-0.3410365581512451
1782845426293749500,4.22074951171875,-0.43554821610450745,-0.021078158169984818,-0.32391294836997986
1782845426303753700,4.230753662109375,-0.40570589900016785,-0.021964991465210915,-0.3013938069343567
1782845426313758700,4.2407587890625,-0.36673545837402344,-0.0142441401258111,-0.27270302176475525
1782845426323762700,4.2507626953125,-0.3027852475643158,0.0007651699706912041,-0.23494155704975128
1782845426333767700,4.260767578125,-0.2278183102607727,0.014724927954375744,-0.18778842687606812
1782845426343771600,4.270771728515625,-0.1388801783323288,0.02477063611149788,-0.1326300948858261
1782845426353776600,4.280776611328125,-0.058059509843587875,0.036935821175575256,-0.08388632535934448
1782845426363780900,4.29078076171875,0.017347894608974457,0.055220820009708405,-0.0447612926363945
1782845426373785900,4.300785888671875,0.09082400053739548,0.07268956303596497,-0.016432305797934532
1782845426383789600,4.31078955078125,0.15104365348815918,0.09076203405857086,-0.013204555958509445
1782845426393794600,4.320794677734375,0.19971013069152832,0.11316148936748505,-0.020598359405994415
1782845426403798500,4.330798583984375,0.23635469377040863,0.13465958833694458,-0.04004849120974541
1782845426413803500,4.340803466796875,0.26320526003837585,0.15071195363998413,-0.0578358955681324
1782845426423807700,4.350807861328125,0.2799999415874481,0.15944339334964752,-0.08487337082624435
1782845426433812700,4.360812744140625,0.2970365583896637,0.1641872525215149,-0.12004897743463516
1782845426443816700,4.370816650390625,0.3108202815055847,0.15613438189029694,-0.16513469815254211
1782845426453821700,4.38082177734375,0.3261677324771881,0.13599906861782074,-0.2114495486021042
1782845426463825700,4.39082568359375,0.3294175863265991,0.11618035286664963,-0.2556987702846527
1782845426473830700,4.40083056640625,0.3188396990299225,0.0924769788980484,-0.2991780638694763
1782845426483835600,4.410835693359375,0.3004332482814789,0.06515134871006012,-0.32353904843330383
1782845426493839600,4.420839599609375,0.27220457792282104,0.0303666889667511,-0.3215285539627075
1782845426503844900,4.430844970703125,0.2340489625930786,0.008618250489234924,-0.29524344205856323
1782845426513848600,4.4408486328125,0.19892551004886627,-0.004432157147675753,-0.24546808004379272
1782845426523853600,4.450853515625,0.17101451754570007,-0.007564301136881113,-0.18124434351921082
1782845426533857500,4.460857421875,0.1481335312128067,-0.00643499568104744,-0.11199864745140076
1782845426543862500,4.470862548828125,0.12675926089286804,-0.001163002336397767,-0.04588274285197258
1782845426553866800,4.48086669921875,0.11183854192495346,0.0025599724613130093,0.025424404069781303
1782845426563871700,4.490871826171875,0.09846201539039612,0.006359238177537918,0.0784364864230156
1782845426573875700,4.500875732421875,0.09205636382102966,0.015800045803189278,0.12259101867675781
1782845426583880700,4.510880615234375,0.09397543966770172,0.02135726436972618,0.16005903482437134
1782845426593884700,4.520884765625,0.10287364572286606,0.03127696365118027,0.18912817537784576
1782845426603889700,4.5308896484375,0.11334838718175888,0.04182814061641693,0.19869904220104218
1782845426613893600,4.5408935546875,0.1255764663219452,0.05665292590856552,0.20830777287483215
1782845426623898600,4.550898681640625,0.1345670372247696,0.06966060400009155,0.20217983424663544
1782845426633902600,4.560902587890625,0.1444031149148941,0.07947786152362823,0.18713557720184326
1782845426643907600,4.570907470703125,0.1520645022392273,0.08189041912555695,0.17710478603839874
1782845426653911600,4.58091162109375,0.1500207930803299,0.08756966888904572,0.17427793145179749
1782845426663916500,4.59091650390625,0.14048002660274506,0.09852538257837296,0.1632622927427292
1782845426673921500,4.600921630859375,0.132394939661026,0.11523586511611938,0.13661715388298035
1782845426683925500,4.610925537109375,0.11428252607584,0.12195475399494171,0.10792799293994904
1782845426693930800,4.6209306640625,0.10186340659856796,0.11832119524478912,0.08900204300880432
1782845426703934700,4.630934814453125,0.082966148853302,0.109962597489357,0.059495024383068085
1782845426713939700,4.640939697265625,0.06365590542554855,0.10603966563940048,0.02949291095137596
1782845426723943700,4.650943603515625,0.045604731887578964,0.1013684794306755,-0.0260023046284914
1782845426733948700,4.66094873046875,0.026838527992367744,0.11435959488153458,-0.07513437420129776
1782845426743952600,4.67095263671875,0.00944728683680296,0.12325642257928848,-0.10459692776203156
1782845426753957600,4.68095751953125,-0.005486995913088322,0.1176963672041893,-0.09795046597719193
1782845426763961600,4.690961669921875,-0.016567077487707138,0.10985308885574341,-0.0656479224562645
1782845426773966600,4.700966552734375,-0.022985706105828285,0.10773707181215286,-0.011418309062719345
1782845426783970600,4.710970458984375,-0.015300089493393898,0.11200478672981262,0.05732506886124611
1782845426793975600,4.7209755859375,0.0018750254530459642,0.11878399550914764,0.1153707280755043
1782845426803979500,4.7309794921875,0.029873106628656387,0.13241910934448242,0.16317926347255707
1782845426813984500,4.740984619140625,0.06610264629125595,0.14466820657253265,0.20897731184959412
1782845426823988700,4.75098876953125,0.10708843171596527,0.15158763527870178,0.2524685859680176
1782845426833993700,4.76099365234375,0.14382584393024445,0.14435403048992157,0.29173147678375244
1782845426843997700,4.770997802734375,0.1937481313943863,0.14305627346038818,0.3050936162471771
1782845426854002700,4.781002685546875,0.25013765692710876,0.1480640321969986,0.3043690323829651
1782845426864006700,4.791006591796875,0.31383568048477173,0.15731452405452728,0.29961341619491577
1782845426874011600,4.80101171875,0.3782320022583008,0.17895638942718506,0.29397180676460266
1782845426884016600,4.8110166015625,0.4341767728328705,0.20888713002204895,0.2932434380054474
1782845426894020600,4.8210205078125,0.48181474208831787,0.23106633126735687,0.29711589217185974
1782845426904025600,4.831025634765625,0.5153852105140686,0.24060817062854767,0.29447537660598755
1782845426914029600,4.841029541015625,0.5281454920768738,0.23281528055667877,0.2995261549949646
1782845426924034600,4.85103466796875,0.5282685160636902,0.21858973801136017,0.2698470950126648
1782845426934038500,4.86103857421875,0.5218082070350647,0.2122410386800766,0.2090240716934204
1782845426944043500,4.87104345703125,0.48541343212127686,0.199232816696167,0.130601167678833
1782845426954047700,4.8810478515625,0.43275728821754456,0.17533981800079346,0.0338883101940155
1782845426964052700,4.891052734375,0.38459882140159607,0.15456822514533997,-0.07922039926052094
1782845426974056700,4.901056640625,0.34470638632774353,0.15273483097553253,-0.1888631135225296
1782845426984061700,4.911061767578125,0.3134281039237976,0.155613973736763,-0.26964157819747925
1782845426994065400,4.9210654296875,0.3002704977989197,0.143397256731987,-0.29902851581573486
1782845427004070700,4.931070556640625,0.300963431596756,0.11242495477199554,-0.2871454656124115
1782845427014074600,4.94107470703125,0.30673277378082275,0.06753941625356674,-0.2567584216594696
1782845427024079600,4.95107958984375,0.3136617839336395,0.020307723432779312,-0.20679324865341187
1782845427034083600,4.96108349609375,0.3300240635871887,-0.01792736165225506,-0.1510878950357437
1782845427044088600,4.971088623046875,0.347077876329422,-0.05565796419978142,-0.09377533942461014
1782845427054092500,4.981092529296875,0.35989484190940857,-0.07889565080404282,-0.04868404567241669
1782845427064097500,4.99109765625,0.3574228882789612,-0.07704395800828934,-0.013139368034899235
1782845427074102500,5.0011025390625,0.3401881456375122,-0.05025406926870346,0.014433925040066242
1782845427084106800,5.011106689453125,0.31516745686531067,-0.01105314027518034,0.02846745401620865
1782845427094111700,5.02111181640625,0.27883774042129517,0.029233574867248535,0.029965762048959732
1782845427104115700,5.03111572265625,0.24369573593139648,0.05274529382586479,0.03959548845887184
1782845427114120700,5.04112060546875,0.20737935602664948,0.06440339982509613,0.04982566460967064
1782845427124124400,5.05112451171875,0.17605817317962646,0.056603267788887024,0.06187700107693672
1782845427134129400,5.06112939453125,0.14383408427238464,0.04488922283053398,0.07113955169916153
1782845427144133600,5.071133544921875,0.11697662621736526,0.032209113240242004,0.07748986035585403
1782845427154138600,5.081138671875,0.08910796046257019,0.026054540649056435,0.07183129340410233
1782845427164142600,5.091142578125,0.059045132249593735,0.03270046040415764,0.0685257762670517
1782845427174147600,5.101147705078125,0.02368660271167755,0.047980133444070816,0.07313978672027588
1782845427184151600,5.111151611328125,-0.004602294415235519,0.06733892112970352,0.1044021025300026
1782845427194156500,5.121156494140625,-0.04210572689771652,0.09344482421875,0.14899088442325592
1782845427204160800,5.131160888671875,-0.0746852457523346,0.11060783267021179,0.20196834206581116
1782845427214165800,5.141165771484375,-0.11591646075248718,0.12399592995643616,0.2611837685108185
1782845427224169700,5.151169677734375,-0.14959347248077393,0.13600386679172516,0.30581143498420715
1782845427234174700,5.1611748046875,-0.17591272294521332,0.1289617121219635,0.33737438917160034
1782845427244178400,5.171178466796875,-0.1965295821428299,0.11753621697425842,0.3368009924888611
1782845427254183400,5.181183349609375,-0.20567478239536285,0.1035982072353363,0.29947957396507263
1782845427264188400,5.1911884765625,-0.2070969045162201,0.1063188910484314,0.2300672084093094
1782845427274192600,5.201192626953125,-0.2071712762117386,0.0899948850274086,0.16763249039649963
1782845427284197600,5.21119775390625,-0.20186305046081543,0.052285321056842804,0.140838161110878
1782845427294201600,5.22120166015625,-0.18873271346092224,0.023052414879202843,0.1153908371925354
1782845427304206600,5.23120654296875,-0.16692276298999786,-0.002405540319159627,0.09505893290042877
1782845427314210600,5.24121044921875,-0.14745792746543884,-0.014673168770968914,0.07768680155277252
1782845427324215600,5.251215576171875,-0.1269574612379074,-0.013718958012759686,0.06175790727138519
1782845427334219800,5.2612197265625,-0.09287315607070923,-0.005598002579063177,0.05593424290418625
1782845427344224800,5.271224853515625,-0.055246420204639435,-0.008342389017343521,0.05327534303069115
1782845427354228700,5.281228759765625,-0.02680864743888378,-0.01033901609480381,0.06048230454325676
1782845427364233700,5.291233642578125,-0.018394922837615013,-0.01742462068796158,0.07355629652738571
1782845427374237400,5.301237548828125,-0.011287244968116283,-0.02423075959086418,0.07916280627250671
1782845427384242400,5.311242431640625,-0.018678050488233566,-0.030797850340604782,0.09276170283555984
1782845427394246700,5.32124658203125,-0.03706669062376022,-0.0350215770304203,0.1150476336479187
1782845427404251600,5.331251708984375,-0.05870194360613823,-0.03956679627299309,0.14119987189769745
1782845427414255600,5.341255615234375,-0.09684451669454575,-0.042474694550037384,0.1651407778263092
1782845427424260600,5.351260498046875,-0.14239177107810974,-0.039288487285375595,0.18622316420078278
1782845427434264600,5.3612646484375,-0.1940271109342575,-0.040353938937187195,0.20582614839076996
1782845427444269600,5.37126953125,-0.256843626499176,-0.025536643341183662,0.22380781173706055
1782845427454273800,5.381273681640625,-0.3203505575656891,-0.008070969954133034,0.22599178552627563
1782845427464278800,5.39127880859375,-0.3788210451602936,0.007699737325310707,0.22743310034275055
1782845427474283800,5.40128369140625,-0.4333168864250183,0.019285378977656364,0.22812257707118988
1782845427484287700,5.411287841796875,-0.4682764708995819,0.02605113945901394,0.21405017375946045
1782845427494292700,5.421292724609375,-0.5078050494194031,0.036151573061943054,0.17387790977954865
1782845427504296400,5.43129638671875,-0.5408152341842651,0.04148748144507408,0.14215460419654846
1782845427514301400,5.441301513671875,-0.571674108505249,0.04607296362519264,0.11454689502716064
1782845427524305700,5.4513056640625,-0.5880333781242371,0.05429280921816826,0.07919822633266449
1782845427534310700,5.461310546875,-0.5885514616966248,0.07232463359832764,0.049875885248184204
1782845427544314600,5.471314697265625,-0.5740601420402527,0.091218963265419,0.01879493147134781
1782845427554319600,5.481319580078125,-0.5528834462165833,0.10626630485057831,-0.0035140409599989653
1782845427564323600,5.491323486328125,-0.5091966986656189,0.11718153208494186,-0.020976919680833817
1782845427574328600,5.50132861328125,-0.45507100224494934,0.11232832074165344,-0.037173397839069366
1782845427584332800,5.511332763671875,-0.38997986912727356,0.10278994590044022,-0.06034742668271065
1782845427594337800,5.521337890625,-0.3173077404499054,0.0980273187160492,-0.08828359842300415
1782845427604341800,5.531341796875,-0.245529443025589,0.0856739804148674,-0.11875202506780624
1782845427614346800,5.5413466796875,-0.18222685158252716,0.08038729429244995,-0.14549316465854645
1782845427624350500,5.5513505859375,-0.12087322026491165,0.07351980358362198,-0.16529962420463562
1782845427634355500,5.56135546875,-0.07664111256599426,0.060184914618730545,-0.17444996535778046
1782845427644359700,5.571359619140625,-0.04089483618736267,0.04005807265639305,-0.1816474348306656
1782845427654364700,5.58136474609375,-0.012657871469855309,0.012906614691019058,-0.18453402817249298
1782845427664368600,5.59136865234375,0.004896354861557484,-0.023768043145537376,-0.16846904158592224
1782845427674373600,5.60137353515625,0.011221294291317463,-0.06349758058786392,-0.1325734257698059
1782845427684378600,5.611378662109375,-0.0014287212397903204,-0.09334761649370193,-0.10182777792215347
1782845427694382600,5.621382568359375,-0.027363166213035583,-0.11471864581108093,-0.05721363425254822
1782845427704387600,5.6313876953125,-0.07068267464637756,-0.12010541558265686,-0.018671570345759392
1782845427714391800,5.641391845703125,-0.12002464383840561,-0.11665815860033035,0.0232236385345459
1782845427724396800,5.651396728515625,-0.172978937625885,-0.10906922072172165,0.06810349225997925
1782845427734400800,5.66140087890625,-0.21658378839492798,-0.10848569124937057,0.12324068695306778
1782845427744405800,5.67140576171875,-0.2580225467681885,-0.12498211115598679,0.19016753137111664
1782845427754409700,5.68140966796875,-0.30265703797340393,-0.1450629085302353,0.23361322283744812
1782845427764414700,5.691414794921875,-0.3464767038822174,-0.15596002340316772,0.25756755471229553
1782845427774418700,5.701418701171875,-0.36555784940719604,-0.1554861217737198,0.2572043836116791
1782845427784423700,5.711423583984375,-0.3774121403694153,-0.15218912065029144,0.23170700669288635
1782845427794427600,5.721427734375,-0.39030399918556213,-0.13284499943256378,0.18444040417671204
1782845427804432600,5.7314326171875,-0.40204107761383057,-0.09237559884786606,0.14303144812583923
1782845427814436600,5.7414365234375,-0.4040800631046295,-0.06279584020376205,0.10061333328485489
1782845427824441600,5.751441650390625,-0.39237892627716064,-0.059174470603466034,0.05971916764974594
1782845427834445800,5.76144580078125,-0.3574797511100769,-0.07258554548025131,0.008448496460914612
1782845427844450800,5.771450927734375,-0.30849942564964294,-0.09994287043809891,-0.05298930034041405
1782845427854454800,5.781454833984375,-0.25822120904922485,-0.12396184355020523,-0.11928138881921768
1782845427864459800,5.791459716796875,-0.21256795525550842,-0.1613379865884781,-0.1814448982477188
1782845427874463700,5.801463623046875,-0.16643700003623962,-0.18686886131763458,-0.22968798875808716
1782845427884468700,5.81146875,-0.10559894889593124,-0.19761818647384644,-0.26167282462120056
1782845427894473700,5.8214736328125,-0.03601333871483803,-0.19775518774986267,-0.28014737367630005
1782845427904477700,5.831477783203125,0.02818269468843937,-0.1976260244846344,-0.280079185962677
1782845427914482700,5.841482666015625,0.0874599814414978,-0.19495417177677155,-0.2564265727996826
1782845427924486700,5.851486572265625,0.15719299018383026,-0.18858548998832703,-0.21280133724212646
1782845427934491600,5.86149169921875,0.23836734890937805,-0.17292088270187378,-0.15364687144756317
1782845427944495600,5.87149560546875,0.2961915135383606,-0.14680778980255127,-0.0912918820977211
1782845427954500600,5.88150048828125,0.32720938324928284,-0.11282271891832352,-0.032814789563417435
1782845427964504800,5.8915048828125,0.3468451201915741,-0.07757924497127533,0.01378626935184002
1782845427974509800,5.901509765625,0.3613820970058441,-0.025976907461881638,0.01480871345847845
1782845427984513800,5.911513671875,0.34452828764915466,0.034620657563209534,-0.04745253175497055
1782845427994518800,5.921518798828125,0.29268255829811096,0.0880051925778389,-0.15047365427017212
1782845428004522800,5.931522705078125,0.20706592500209808,0.12302522361278534,-0.2718677222728729
1782845428014527700,5.94152783203125,0.11036991328001022,0.11228227615356445,-0.3714747726917267
1782845428024531700,5.95153173828125,-0.004600615240633488,0.06398212164640427,-0.43495306372642517
1782845428034536700,5.96153662109375,-0.13005122542381287,-0.012566336430609226,-0.4448031783103943
1782845428044540700,5.971540771484375,-0.23001910746097565,-0.10122616589069366,-0.38566526770591736
1782845428054545700,5.981545654296875,-0.2744658291339874,-0.18358482420444489,-0.24664553999900818
1782845428064549600,5.991549560546875,-0.26358336210250854,-0.22636878490447998,-0.06432313472032547
1782845428074554600,6.0015546875,-0.2226131707429886,-0.23623214662075043,0.11555183678865433
1782845428084558800,6.011558837890625,-0.17067646980285645,-0.22669482231140137,0.2767287492752075
1782845428094563800,6.021563720703125,-0.11489786952733994,-0.19857051968574524,0.42656177282333374
1782845428104568800,6.03156884765625,-0.06487065553665161,-0.17259085178375244,0.545107364654541
1782845428114572800,6.04157275390625,-0.03753356263041496,-0.1365538090467453,0.65019291639328
1782845428124577800,6.051577880859375,-0.01260584406554699,-0.11303675919771194,0.7187496423721313
1782845428134581500,6.06158154296875,-0.00425110524520278,-0.08850646018981934,0.7402904629707336
1782845428144586800,6.071586669921875,0.008272942155599594,-0.03239045664668083,0.714494526386261
1782845428154590700,6.0815908203125,0.025631358847022057,0.026958657428622246,0.6409622430801392
1782845428164595700,6.091595703125,0.05142833665013313,0.0651228204369545,0.5436351299285889
1782845428174599700,6.101599609375,0.0802932009100914,0.09609568864107132,0.4405321180820465
1782845428184604700,6.111604736328125,0.11896443367004395,0.11037395894527435,0.33954426646232605
1782845428194608600,6.121608642578125,0.154033824801445,0.10533783584833145,0.2452130764722824
1782845428204613600,6.131613525390625,0.18501678109169006,0.08335503935813904,0.15086181461811066
1782845428214617900,6.141617919921875,0.20881381630897522,0.060837604105472565,0.045159678906202316
1782845428224622800,6.151622802734375,0.22704075276851654,0.02385721728205681,-0.08759810030460358
1782845428234626800,6.161626708984375,0.23740674555301666,-0.02559780888259411,-0.23275695741176605
1782845428244631800,6.1716318359375,0.24481220543384552,-0.09076616168022156,-0.3491738438606262
1782845428254635500,6.181635498046875,0.24669408798217773,-0.14529339969158173,-0.43308696150779724
1782845428264640500,6.191640625,0.23350106179714203,-0.18592365086078644,-0.4936371445655823
1782845428274644700,6.201644775390625,0.21925446391105652,-0.2083035409450531,-0.5348092317581177
1782845428284649700,6.211649658203125,0.20910915732383728,-0.2215154767036438,-0.55600506067276
1782845428294653700,6.22165380859375,0.19819456338882446,-0.22083565592765808,-0.575278103351593
1782845428304658700,6.23165869140625,0.1854819655418396,-0.20652276277542114,-0.5904194712638855
1782845428314662700,6.24166259765625,0.18050676584243774,-0.1770199090242386,-0.5926766395568848
1782845428324667600,6.251667724609375,0.17023682594299316,-0.1409551203250885,-0.5735463500022888
1782845428334672600,6.261672607421875,0.14162711799144745,-0.11006654053926468,-0.540080189704895
1782845428344676600,6.271676513671875,0.10767234116792679,-0.10521745681762695,-0.4943794906139374
1782845428354681900,6.281681884765625,0.06780339032411575,-0.11647423356771469,-0.46264559030532837
1782845428364685800,6.291685791015625,0.0294400192797184,-0.1522013247013092,-0.42876192927360535
1782845428374690800,6.30169091796875,0.005499267019331455,-0.1838436722755432,-0.38864779472351074
1782845428384694500,6.311694580078125,-0.01663745939731598,-0.2166018933057785,-0.347756028175354
1782845428394699500,6.321699462890625,-0.03262282535433769,-0.2358703315258026,-0.307690292596817
1782845428404703700,6.331703857421875,-0.043657369911670685,-0.23560215532779694,-0.2691572904586792
1782845428414708700,6.341708740234375,-0.06033720076084137,-0.20705397427082062,-0.22739094495773315
1782845428424712700,6.351712646484375,-0.07660219073295593,-0.15392257273197174,-0.17145390808582306
1782845428434717700,6.3617177734375,-0.09360472857952118,-0.09962835907936096,-0.10663123428821564
1782845428444721700,6.3717216796875,-0.11641949415206909,-0.0556878037750721,-0.0447300486266613
1782845428454726700,6.3817265625,-0.1323830485343933,-0.01368970237672329,0.0026768187526613474
1782845428464730600,6.391730712890625,-0.14445115625858307,0.010834283195436,0.02528226189315319
1782845428474735600,6.401735595703125,-0.13587146997451782,0.023234128952026367,0.039383020251989365
1782845428484739800,6.41173974609375,-0.11252912133932114,0.021791495382785797,0.03883733972907066
1782845428494744800,6.421744873046875,-0.08192950487136841,0.023578617721796036,0.013992922380566597
1782845428504748500,6.43174853515625,-0.03474095091223717,0.021586839109659195,-0.0408647321164608
1782845428514753500,6.44175341796875,0.018361754715442657,0.016542453318834305,-0.10210546106100082
1782845428524758500,6.451758544921875,0.07280901819467545,0.022088753059506416,-0.16542558372020721
1782845428534762500,6.461762451171875,0.12109200656414032,0.028680745512247086,-0.19415701925754547
1782845428544767700,6.471767822265625,0.1534842997789383,0.03280917555093765,-0.20573964715003967
1782845428554771700,6.481771728515625,0.1753581166267395,0.03745003789663315,-0.20644225180149078
1782845428564776700,6.491776611328125,0.18547385931015015,0.04342564195394516,-0.2142336070537567
1782845428574780700,6.50178076171875,0.19168034195899963,0.03975612670183182,-0.227874755859375
1782845428584785700,6.51178564453125,0.1934121996164322,0.02833569049835205,-0.24783435463905334
1782845428594789600,6.52178955078125,0.20489265024662018,0.016671491786837578,-0.27816736698150635
1782845428604794600,6.531794677734375,0.21641801297664642,-0.003868403844535351,-0.30809012055397034
1782845428614798800,6.541798828125,0.22407940030097961,-0.02163141593337059,-0.3282519578933716
1782845428624803800,6.551803955078125,0.23028403520584106,-0.03572380170226097,-0.31927284598350525
1782845428634807600,6.5618076171875,0.21001595258712769,-0.041569411754608154,-0.30128833651542664
1782845428644812500,6.5718125,0.18913251161575317,-0.031057383865118027,-0.27132537961006165
1782845428654816500,6.58181640625,0.15949943661689758,-0.02291020005941391,-0.2310781627893448
1782845428664821500,6.591821533203125,0.13244839012622833,-0.01076032780110836,-0.18927079439163208
1782845428674825700,6.60182568359375,0.11067306250333786,-0.005623829085379839,-0.15718428790569305
1782845428684830700,6.611830810546875,0.09104929119348526,0.0005997116677463055,-0.11672794073820114
1782845428694834700,6.621834716796875,0.07899369299411774,0.01002650335431099,-0.07854487001895905
1782845428704839700,6.631839599609375,0.08140252530574799,0.018797358497977257,-0.03233688697218895
1782845428714843600,6.64184375,0.08892860263586044,0.04005816578865051,0.020773325115442276
1782845428724848600,6.6518486328125,0.10982456058263779,0.058366864919662476,0.07068709284067154
1782845428734852900,6.661852783203125,0.13967320322990417,0.07632998377084732,0.09690418839454651
1782845428744857900,6.67185791015625,0.16798314452171326,0.09616494178771973,0.11223281174898148
1782845428754862300,6.6818623046875,0.1990383416414261,0.11040498316287994,0.11036425828933716
1782845428764866300,6.6918662109375,0.231263667345047,0.12624333798885345,0.09712381660938263
1782845428774871300,6.701871337890625,0.2606467604637146,0.13763301074504852,0.07022304087877274
1782845428784875300,6.711875244140625,0.2892938554286957,0.1428336352109909,0.04028831422328949
1782845428794880300,6.72188037109375,0.31030789017677307,0.1361737847328186,0.01646234095096588
1782845428804884200,6.73188427734375,0.32983312010765076,0.1261081099510193,-0.005188359878957272
1782845428814889200,6.74188916015625,0.3388644754886627,0.11750493943691254,-0.016937432810664177
1782845428824893200,6.75189306640625,0.3423899710178375,0.11651637405157089,-0.005719931796193123
1782845428834898200,6.761898193359375,0.33913540840148926,0.1180792823433876,0.021141238510608673
1782845428844902400,6.77190234375,0.33141836524009705,0.11993257701396942,0.060813285410404205
1782845428854907400,6.781907470703125,0.32486492395401,0.12350597232580185,0.10682585835456848
1782845428864911400,6.791911376953125,0.31034591794013977,0.12734092772006989,0.1538602113723755
1782845428874916400,6.801916259765625,0.28362637758255005,0.12433686852455139,0.1839400678873062
1782845428884920300,6.81192041015625,0.25300508737564087,0.1332067847251892,0.18714012205600739
1782845428894925300,6.82192529296875,0.2263254076242447,0.14779284596443176,0.16483363509178162
1782845428904929300,6.83192919921875,0.20117078721523285,0.14877714216709137,0.1324453353881836
1782845428914934300,6.841934326171875,0.17703963816165924,0.13563606142997742,0.09682170301675797
1782845428924938200,6.851938232421875,0.15632477402687073,0.11898276954889297,0.05805513262748718
1782845428934943200,6.861943115234375,0.13701649010181427,0.10641960799694061,0.02030833810567856
1782845428944947200,6.871947265625,0.11859302222728729,0.09920590370893478,-0.02145322412252426
1782845428954952200,6.8819521484375,0.10082678496837616,0.0881471261382103,-0.059067320078611374
1782845428964956200,6.8919560546875,0.08787396550178528,0.06992657482624054,-0.08876210451126099
1782845428974961400,6.90196142578125,0.07331416755914688,0.05218310281634331,-0.10538046807050705
1782845428984966400,6.91196630859375,0.06035975366830826,0.03509919345378876,-0.11294437944889069
1782845428994970400,6.921970458984375,0.05674085393548012,0.023249363526701927,-0.10865935683250427
1782845429004975400,6.931975341796875,0.05219350755214691,0.005268499255180359,-0.09772761911153793
1782845429014979300,6.941979248046875,0.05579204484820366,-0.00885460153222084,-0.08061281591653824
1782845429024984300,6.951984375,0.06565427035093307,-0.020445745438337326,-0.052124179899692535
1782845429034988300,6.96198828125,0.07530567795038223,-0.03602031245827675,-0.020832374691963196
1782845429044993300,6.9719931640625,0.08575379103422165,-0.04285052418708801,0.01614481583237648
1782845429054997200,6.981997314453125,0.09681080281734467,-0.043666332960128784,0.07301276177167892
1782845429065002200,6.992002197265625,0.10604824125766754,-0.03546406328678131,0.15222501754760742
1782845429075006200,7.002006103515625,0.09796763956546783,-0.024577341973781586,0.24305398762226105
1782845429085011200,7.01201123046875,0.07775983959436417,0.0006489201914519072,0.309426873922348
1782845429095015200,7.02201513671875,0.049680113792419434,0.02649114280939102,0.34605902433395386
1782845429105020200,7.032020263671875,0.02582697756588459,0.08115385472774506,0.31875523924827576
1782845429115024400,7.0420244140625,0.018149862065911293,0.12852643430233002,0.21571286022663116
1782845429125029400,7.052029296875,0.010178488679230213,0.16935747861862183,0.08770854771137238
1782845429135033300,7.062033447265625,0.027461126446723938,0.18881817162036896,-0.018198585137724876
1782845429145038300,7.072038330078125,0.08703124523162842,0.17558865249156952,-0.09592267870903015
1782845429155042000,7.0820419921875,0.16544635593891144,0.12602677941322327,-0.13145989179611206
1782845429165047300,7.09204736328125,0.2433110624551773,0.05106598138809204,-0.12117981910705566
1782845429175051300,7.10205126953125,0.30908235907554626,-0.0354938805103302,-0.06740984320640564
1782845429185056300,7.11205615234375,0.37178516387939453,-0.12372974306344986,0.01638784632086754
1782845429195060200,7.122060302734375,0.4192154109477997,-0.17671643197536469,0.12311041355133057
1782845429205065200,7.132065185546875,0.4395590126514435,-0.2237372100353241,0.22940410673618317
1782845429215070200,7.1420703125,0.44745248556137085,-0.2414465844631195,0.32715722918510437
1782845429225074200,7.15207421875,0.44452354311943054,-0.2340368628501892,0.40260884165763855
1782845429235079200,7.1620791015625,0.4172216057777405,-0.2072800099849701,0.44711872935295105
1782845429245083400,7.17208349609375,0.3792784810066223,-0.17118646204471588,0.4482090473175049
1782845429255088400,7.18208837890625,0.33027464151382446,-0.12120608985424042,0.42235589027404785
1782845429265092400,7.19209228515625,0.2667047083377838,-0.08236522227525711,0.3831232786178589
1782845429275097300,7.202097412109375,0.21073932945728302,-0.05306605249643326,0.3613344430923462
1782845429285101000,7.21210107421875,0.14871405065059662,-0.032169025391340256,0.3711735010147095
1782845429295106000,7.22210595703125,0.0869336947798729,-0.02292829379439354,0.3931291401386261
1782845429305110300,7.2321103515625,0.01829790696501732,-0.016321789473295212,0.41443920135498047
1782845429315115300,7.242115234375,-0.04735767841339111,-0.003067906480282545,0.40853622555732727
1782845429325119200,7.252119140625,-0.10332001745700836,0.012460186146199703,0.3681294023990631
1782845429335124200,7.262124267578125,-0.14682866632938385,0.03458843007683754,0.3024989366531372
1782845429345128200,7.272128173828125,-0.1861816644668579,0.058931849896907806,0.22116228938102722
1782845429355133200,7.28213330078125,-0.21897244453430176,0.08351664990186691,0.14798074960708618
1782845429365137400,7.292137451171875,-0.2487732172012329,0.10625524818897247,0.09198085963726044
1782845429375142400,7.302142333984375,-0.2758210301399231,0.11477252840995789,0.059839773923158646
1782845429385146400,7.312146484375,-0.29497528076171875,0.1317395269870758,0.04472074285149574
1782845429395151400,7.3221513671875,-0.30871981382369995,0.1474684327840805,0.06453680247068405
1782845429405155000,7.332155029296875,-0.3081272542476654,0.1381329894065857,0.07965823262929916
1782845429415160000,7.34216015625,-0.2950531244277954,0.13364644348621368,0.09565143287181854
1782845429425164300,7.352164306640625,-0.2828529179096222,0.11173315346240997,0.11605098098516464
1782845429435169300,7.362169189453125,-0.2591257691383362,0.08584557473659515,0.12691766023635864
1782845429445174300,7.37217431640625,-0.2261643409729004,0.06286676228046417,0.13630157709121704
1782845429455178200,7.38217822265625,-0.18134695291519165,0.01693493314087391,0.12850753962993622
1782845429465183200,7.392183349609375,-0.13231229782104492,-0.02722427248954773,0.10725737363100052
1782845429475187200,7.402187255859375,-0.08853550255298615,-0.05669087544083595,0.08725322782993317
1782845429485192200,7.412192138671875,-0.03953387215733528,-0.08630948513746262,0.05639224871993065
1782845429495196400,7.422196533203125,0.0015413726214319468,-0.1033926010131836,0.015316578559577465
1782845429505201400,7.432201416015625,0.01788279600441456,-0.10344559699296951,-0.03438599780201912
1782845429515205400,7.442205322265625,0.029249263927340508,-0.10237855464220047,-0.08641763776540756
1782845429525210400,7.45221044921875,0.033446405082941055,-0.10182595252990723,-0.12383291870355606
1782845429535214000,7.462214111328125,0.02391831763088703,-0.09423664957284927,-0.13288328051567078
1782845429545219000,7.472218994140625,-0.014668755233287811,-0.07736898958683014,-0.1295761615037918
1782845429555223300,7.482223388671875,-0.06485086679458618,-0.06112246215343475,-0.10378623753786087
1782845429565228300,7.492228271484375,-0.1220579668879509,-0.04027923569083214,-0.07839673012495041
1782845429575232300,7.502232177734375,-0.18150313198566437,-0.015377444215118885,-0.03491251543164253
1782845429585237200,7.5122373046875,-0.23823405802249908,0.0033288646955043077,0.021739313378930092
1782845429595241200,7.5222412109375,-0.2757270038127899,0.021053707227110863,0.06288221478462219
1782845429605246200,7.53224609375,-0.31311914324760437,0.03293167054653168,0.09959682077169418
1782845429615250400,7.54225048828125,-0.34346407651901245,0.034956350922584534,0.10225313901901245
1782845429625255400,7.55225537109375,-0.36886104941368103,0.02970992773771286,0.100791335105896
1782845429635259100,7.562259033203125,-0.3947185277938843,0.020081045106053352,0.08807773888111115
1782845429645264100,7.57226416015625,-0.4183466136455536,0.011529101990163326,0.07462051510810852
1782845429655268000,7.58226806640625,-0.44126641750335693,0.0023362773936241865,0.0761704221367836
1782845429665273000,7.592273193359375,-0.4678378403186798,0.008222928270697594,0.08374977856874466
1782845429675278000,7.602278076171875,-0.4963645339012146,0.008827096782624722,0.08457666635513306
1782845429685282300,7.6122822265625,-0.5210794806480408,0.013882042840123177,0.08140803873538971
1782845429695287300,7.622287353515625,-0.5367287397384644,0.018682656809687614,0.07464094460010529
1782845429705291300,7.632291259765625,-0.5381551384925842,0.015234662219882011,0.053351905196905136
1782845429715296300,7.642296142578125,-0.5358553528785706,0.007230710703879595,0.019908864051103592
1782845429725300200,7.65230029296875,-0.5268229842185974,0.007624858524650335,-0.02180928736925125
1782845429735305200,7.66230517578125,-0.5171912908554077,0.010751599445939064,-0.07239508628845215
1782845429745309400,7.672309326171875,-0.5005720853805542,0.021359769627451897,-0.12578827142715454
1782845429755314700,7.682314697265625,-0.48165163397789,0.027659477666020393,-0.1794475018978119
1782845429765318700,7.692318603515625,-0.45287832617759705,0.03752196207642555,-0.22595001757144928
1782845429775323600,7.70232373046875,-0.4146261215209961,0.05308790132403374,-0.2713463604450226
1782845429785327600,7.71232763671875,-0.3733207583427429,0.06537199765443802,-0.30093327164649963
1782845429795332600,7.72233251953125,-0.34366485476493835,0.06914250552654266,-0.314509779214859
1782845429805336800,7.7323369140625,-0.31106269359588623,0.06556455045938492,-0.3241565525531769
1782845429815341800,7.742341796875,-0.28517118096351624,0.05829119309782982,-0.3073653280735016
1782845429825345800,7.752345703125,-0.2686087191104889,0.04903484508395195,-0.29929301142692566
1782845429835350800,7.762350830078125,-0.267684668302536,0.05388321727514267,-0.28081321716308594
1782845429845354800,7.772354736328125,-0.2679730951786041,0.04871242120862007,-0.25557470321655273
1782845429855359700,7.78235986328125,-0.27739307284355164,0.04138316959142685,-0.22002412378787994
1782845429865363700,7.79236376953125,-0.2838653326034546,0.03434017673134804,-0.184715136885643
1782845429875368700,7.80236865234375,-0.2849923074245453,0.025881942361593246,-0.147910013794899
1782845429885372700,7.81237255859375,-0.27667710185050964,0.011663058772683144,-0.1129768118262291
1782845429895377700,7.822377685546875,-0.2656383216381073,-0.007575089577585459,-0.08231810480356216
1782845429905382700,7.832382568359375,-0.24542279541492462,-0.019395530223846436,-0.0418524406850338
1782845429915386600,7.84238671875,-0.2357001155614853,-0.03465517237782478,0.005606828723102808
1782845429925391600,7.8523916015625,-0.23572461307048798,-0.02361556887626648,0.039746955037117004
1782845429935395800,7.862395751953125,-0.22265836596488953,-0.005668532568961382,0.04580577090382576
1782845429945400800,7.87240087890625,-0.20032775402069092,0.005931132007390261,0.040540967136621475
1782845429955404800,7.88240478515625,-0.1792096197605133,0.015884870663285255,0.034086525440216064
1782845429965409800,7.892409912109375,-0.15197080373764038,0.009091146290302277,0.04104456678032875
1782845429975413800,7.902413818359375,-0.1250542849302292,-0.01555870845913887,0.05181720107793808
1782845429985418800,7.912418701171875,-0.09481968730688095,-0.04605483263731003,0.06935624778270721
1782845429995422700,7.922422607421875,-0.06636804342269897,-0.07615260034799576,0.08254294842481613
1782845430005427700,7.932427734375,-0.035755544900894165,-0.09631165862083435,0.09179530292749405
1782845430015431700,7.942431640625,-0.009496849030256271,-0.10233909636735916,0.09243473410606384
1782845430025436700,7.952436767578125,0.008970840834081173,-0.0980311706662178,0.08241192996501923
1782845430035440600,7.962440673828125,0.027271941304206848,-0.08838427811861038,0.07986347377300262
1782845430045445600,7.972445556640625,0.02548762410879135,-0.08566545695066452,0.09519848972558975
1782845430055449600,7.98244970703125,0.02324259653687477,-0.08656293153762817,0.10249942541122437
1782845430065454800,7.992454833984375,0.027582218870520592,-0.09417957067489624,0.10403101146221161
1782845430075458800,8.002458740234376,0.050295595079660416,-0.10994824022054672,0.10506457835435867
1782845430085463800,8.0124638671875,0.08179280161857605,-0.1270417422056198,0.11528445780277252
1782845430095467500,8.022467529296875,0.11273708939552307,-0.1486862748861313,0.15780003368854523
1782845430105472500,8.032472412109374,0.12727075815200806,-0.1580432802438736,0.21342121064662933
1782845430115476700,8.042476806640625,0.12371461093425751,-0.17155079543590546,0.2793857753276825
1782845430125481700,8.052481689453124,0.08589959144592285,-0.16075220704078674,0.30306899547576904
1782845430135485700,8.062485595703125,0.030734453350305557,-0.1330154687166214,0.28294774889945984
1782845430145490700,8.07249072265625,-0.016438651829957962,-0.09087014198303223,0.19199922680854797
1782845430155495700,8.08249560546875,-0.06896074116230011,-0.043765489012002945,0.03671655058860779
1782845430165499600,8.092499755859375,-0.12709461152553558,-0.009758783504366875,-0.17352484166622162
1782845430175504600,8.102504638671874,-0.18382839858531952,0.008555149659514427,-0.40805959701538086
1782845430185508600,8.112508544921875,-0.238225057721138,-0.008021696470677853,-0.5994271636009216
1782845430195513600,8.122513671875,-0.2709610164165497,-0.05773191526532173,-0.693245530128479
1782845430205517800,8.132517822265624,-0.2751863896846771,-0.17529183626174927,-0.6342554688453674
1782845430215522800,8.142522705078125,-0.26996880769729614,-0.2917482554912567,-0.4690466821193695
1782845430225526500,8.152526611328126,-0.2594860792160034,-0.37715691328048706,-0.2588609755039215
1782845430235531500,8.162531494140625,-0.2387055605649948,-0.3925173878669739,-0.06204100325703621
1782845430245535500,8.172535400390625,-0.19546939432621002,-0.3709937334060669,0.11291962116956711
1782845430255540700,8.182540771484375,-0.13806453347206116,-0.33848676085472107,0.27796924114227295
1782845430265544700,8.192544677734375,-0.07382935285568237,-0.31839054822921753,0.43386590480804443
1782845430275549700,8.2025498046875,-0.006305296905338764,-0.31021374464035034,0.575011134147644
1782845430285553700,8.2125537109375,0.05958263948559761,-0.2966345548629761,0.6908469200134277
1782845430295558700,8.22255859375,0.11735599488019943,-0.25767946243286133,0.7848325967788696
1782845430305562600,8.232562744140624,0.16279537975788116,-0.2287607192993164,0.8451846241950989
1782845430315567600,8.242567626953125,0.20552299916744232,-0.18690666556358337,0.857029914855957
1782845430325571800,8.25257177734375,0.22360986471176147,-0.13661687076091766,0.8102784156799316
1782845430335576800,8.262576904296875,0.23122788965702057,-0.09201854467391968,0.7081963419914246
1782845430345580500,8.27258056640625,0.24211809039115906,-0.05230601876974106,0.5570188164710999
1782845430355585500,8.28258544921875,0.22915707528591156,-0.011175194755196571,0.38637685775756836
1782845430365589500,8.292589599609375,0.2020847052335739,0.024845391511917114,0.2104327231645584
1782845430375594500,8.302594482421876,0.17072053253650665,0.047615282237529755,0.03377427160739899
1782845430385599500,8.312599609375,0.1442740112543106,0.06410051882266998,-0.13394227623939514
1782845430395603700,8.322603759765625,0.12782569229602814,0.062107544392347336,-0.2604110836982727
1782845430405608700,8.332608642578125,0.12384984642267227,0.056566040962934494,-0.35645851492881775
1782845430415612700,8.34261279296875,0.12298861145973206,0.03975563868880272,-0.4173877537250519
1782845430425617700,8.35261767578125,0.12150309979915619,0.024637144058942795,-0.4459022283554077
1782845430435621600,8.36262158203125,0.11494652181863785,0.010722734034061432,-0.4400729835033417
1782845430445626600,8.372626708984376,0.10541373491287231,-0.01368220616132021,-0.408743292093277
1782845430455630800,8.382630859375,0.09273885190486908,-0.0393512099981308,-0.3532848656177521
1782845430465635800,8.3926357421875,0.08543087542057037,-0.054607659578323364,-0.28603288531303406
1782845430475639600,8.4026396484375,0.08753101527690887,-0.0625038892030716,-0.21203726530075073
1782845430485644500,8.41264453125,0.09486030042171478,-0.06388366967439651,-0.1362370401620865
1782845430495648500,8.4226484375,0.10628797113895416,-0.05281854420900345,-0.0786832720041275
1782845430505653500,8.432653564453124,0.1172303631901741,-0.030374223366379738,-0.04159529507160187
1782845430515657700,8.44265771484375,0.12888577580451965,-0.018495868891477585,-0.027167970314621925
1782845430525662700,8.452662841796876,0.12860321998596191,-0.000525658717378974,-0.026213493198156357
1782845430535666700,8.462666748046875,0.1243627741932869,0.0009038446005433798,-0.03890477493405342
1782845430545671700,8.472671630859375,0.10340768843889236,0.0032713948749005795,-0.05083493888378143
1782845430555675600,8.482675537109374,0.0774361789226532,-0.004275650251656771,-0.06915496289730072
1782845430565680600,8.4926806640625,0.045841775834560394,-0.001566416583955288,-0.10691192746162415
1782845430575684900,8.502684814453126,0.00975516252219677,0.002140708966180682,-0.16789230704307556
1782845430585689900,8.51268994140625,-0.03002713806927204,0.011989611200988293,-0.24668006598949432
1782845430595693600,8.522693603515625,-0.0791899561882019,0.025324363261461258,-0.3240353763103485
1782845430605698600,8.532698486328124,-0.1267510950565338,0.029653064906597137,-0.3888644278049469
1782845430615702500,8.54270263671875,-0.1685519963502884,0.0328269824385643,-0.4427449405193329
1782845430625707500,8.55270751953125,-0.196224644780159,0.02066698856651783,-0.47238484025001526
1782845430635712500,8.56271240234375,-0.20129534602165222,0.015918616205453873,-0.48707133531570435
1782845430645716700,8.572716796875,-0.1808726191520691,0.0119268037378788,-0.4777052402496338
1782845430655721700,8.5827216796875,-0.13984811305999756,0.007312263362109661,-0.4384840428829193
1782845430665725700,8.5927255859375,-0.09418581426143646,-0.006828056648373604,-0.3808327317237854
1782845430675730700,8.602730712890626,-0.030597368255257607,-0.007221057545393705,-0.30611297488212585
1782845430685734700,8.612734619140625,0.03708793595433235,0.0020704451017081738,-0.219746932387352
1782845430695739600,8.62273974609375,0.10943549126386642,0.013472100719809532,-0.1349783092737198
1782845430705744000,8.632743896484374,0.1735503077507019,0.02295694872736931,-0.06676650792360306
1782845430715748900,8.642748779296875,0.2324400097131729,0.028648607432842255,-0.024903681129217148
1782845430725752600,8.652752685546876,0.29070889949798584,0.04703747108578682,-0.009500224143266678
1782845430735757600,8.662757568359375,0.3371763527393341,0.061947938054800034,-0.008197329938411713
1782845430745761500,8.672761474609375,0.3709718585014343,0.07951600849628448,-0.010532922111451626
1782845430755767300,8.682767333984375,0.3858126103878021,0.09937062859535217,-0.024299807846546173
1782845430765771300,8.692771240234375,0.3914097845554352,0.11242198199033737,-0.05863514542579651
1782845430775776500,8.702776611328124,0.39029452204704285,0.11489836126565933,-0.10976863652467728
1782845430785780200,8.7127802734375,0.3855743408203125,0.11057551950216293,-0.15386979281902313
1782845430795785500,8.722785400390626,0.3710814118385315,0.0987316444516182,-0.1946335881948471
1782845430805789200,8.7327890625,0.3524544835090637,0.0725698173046112,-0.2179199904203415
1782845430815794200,8.742794189453125,0.33129414916038513,0.04494103044271469,-0.22919583320617676
1782845430825798400,8.75279833984375,0.31890618801116943,0.01946975663304329,-0.2345256209373474
1782845430835803400,8.762803466796875,0.30466583371162415,0.003746633417904377,-0.23311534523963928
1782845430845807400,8.772807373046875,0.29307442903518677,-0.009733755141496658,-0.2159765660762787
1782845430855812400,8.782812255859374,0.2880510091781616,-0.01809488609433174,-0.18263493478298187
1782845430865817300,8.7928173828125,0.2692938446998596,-0.02464333176612854,-0.13859237730503082
1782845430875821300,8.8028212890625,0.2544739544391632,-0.037279803305864334,-0.11014014482498169
1782845430885826300,8.812826416015625,0.25134286284446716,-0.0361785851418972,-0.11032016575336456
1782845430895830300,8.822830322265625,0.26159894466400146,-0.031269535422325134,-0.09472262859344482
1782845430905835300,8.832835205078124,0.2665409743785858,-0.010470511391758919,-0.060131896287202835
1782845430915839200,8.842839111328125,0.2826244533061981,0.03365159034729004,-0.01698562130331993
1782845430925844200,8.85284423828125,0.2971820831298828,0.08059673011302948,0.041965845972299576
1782845430935848200,8.86284814453125,0.3138898015022278,0.12366544455289841,0.08872520923614502
1782845430945853200,8.872853271484376,0.343018114566803,0.15259003639221191,0.10976605117321014
1782845430955857200,8.882857177734374,0.36959221959114075,0.2177080661058426,0.158217191696167
1782845430965862400,8.8928623046875,0.4004870057106018,0.12676483392715454,0.10929147154092789
1782845430975866400,8.902866455078126,0.46676161885261536,0.038517843931913376,0.029461827129125595
1782845430985871400,8.912871337890625,0.5291107892990112,-0.016377629712224007,-0.008817651309072971
1782845430995875300,8.922875244140625,0.5663859844207764,-0.025151681154966354,0.022836681455373764
1782845431005880300,8.93288037109375,0.5656166076660156,-0.006467475555837154,0.07612653076648712
1782845431015884300,8.94288427734375,0.5562016367912292,0.024633539840579033,0.1065351739525795
