time,seconds_elapsed,z,y,x
1782845422139371000,0.06637109375,0.20945921540260315,0.04994652047753334,-0.22490528225898743
1782845422149375000,0.076375,0.15348409116268158,0.06993434578180313,-0.29382842779159546
1782845422159380000,0.0863798828125,0.10857388377189636,0.06658967584371567,-0.37082892656326294
1782845422169384000,0.096384033203125,0.0712861642241478,0.05312686786055565,-0.40662261843681335
1782845422179389000,0.106388916015625,0.03672872111201286,0.03797641023993492,-0.4153367578983307
1782845422189393000,0.116392822265625,0.009726929478347301,0.03574734553694725,-0.4143918454647064
1782845422199398000,0.12639794921875,-0.011609517969191074,0.0026290726382285357,-0.40891772508621216
1782845422209401900,0.13640185546875,-0.043597809970378876,-0.03197098150849342,-0.3790535628795624
1782845422219406800,0.14640673828125,-0.0630740374326706,-0.05465232580900192,-0.3342677354812622
1782845422229410800,0.156410888671875,-0.07747561484575272,-0.08935864269733429,-0.25914448499679565
1782845422239415800,0.166415771484375,-0.0990149974822998,-0.11567360162734985,-0.16598178446292877
1782845422249420000,0.176419921875,-0.11645177751779556,-0.140878826379776,-0.07844766974449158
1782845422259425000,0.186425048828125,-0.1307114064693451,-0.1553238034248352,-0.016927851364016533
1782845422269429000,0.196428955078125,-0.13218307495117188,-0.16065731644630432,0.017771273851394653
1782845422279434000,0.20643408203125,-0.11875088512897491,-0.1619393676519394,0.021934593096375465
1782845422289438000,0.21643798828125,-0.10007919371128082,-0.13543611764907837,0.00384400668554008
1782845422299443000,0.22644287109375,-0.07643511891365051,-0.10357832163572311,-0.03905046358704567
1782845422309448000,0.236447998046875,-0.036559075117111206,-0.053709834814071655,-0.08619986474514008
1782845422319452000,0.246451904296875,0.014066816307604313,-0.003216033335775137,-0.12828314304351807
1782845422329457000,0.256456787109375,0.07298446446657181,0.045412223786115646,-0.14850051701068878
1782845422339460900,0.2664609375,0.1313748061656952,0.07363507151603699,-0.1611042022705078
1782845422349465900,0.2764658203125,0.1867762804031372,0.08513353765010834,-0.1718471199274063
1782845422359469800,0.2864697265625,0.23853613436222076,0.10263476520776749,-0.1825122833251953
1782845422369474800,0.296474853515625,0.2882935702800751,0.10739250481128693,-0.19231805205345154
1782845422379479000,0.30647900390625,0.3402417302131653,0.10215938836336136,-0.20611241459846497
1782845422389484000,0.316484130859375,0.38695356249809265,0.09478776156902313,-0.2200585901737213
1782845422399488000,0.326488037109375,0.42062073945999146,0.09138743579387665,-0.22637534141540527
1782845422409493000,0.336492919921875,0.44432204961776733,0.07723379880189896,-0.2072085738182068
1782845422419496700,0.34649658203125,0.45248571038246155,0.07589849084615707,-0.15761306881904602
1782845422429502000,0.356501953125,0.4493658244609833,0.07550115138292313,-0.09172778576612473
1782845422439506000,0.366505859375,0.43501991033554077,0.0802341178059578,-0.012513927184045315
1782845422449511000,0.376510986328125,0.4266138970851898,0.08741346746683121,0.07726123183965683
1782845422459515000,0.386514892578125,0.418346643447876,0.08438119292259216,0.16576127707958221
1782845422469520000,0.396519775390625,0.395145446062088,0.09819287806749344,0.2607594132423401
1782845422479524900,0.40652490234375,0.3593243360519409,0.09350172430276871,0.33142319321632385
1782845422489528800,0.41652880859375,0.30676499009132385,0.08377106487751007,0.3913384675979614
1782845422499533800,0.426533935546875,0.25302958488464355,0.06944166123867035,0.44325733184814453
1782845422509538000,0.4365380859375,0.1967570036649704,0.058108311146497726,0.4683709442615509
1782845422519543000,0.44654296875,0.14177976548671722,0.04959365352988243,0.45499974489212036
1782845422529547000,0.456547119140625,0.09166120737791061,0.043708331882953644,0.41046369075775146
1782845422539552000,0.466552001953125,0.046127546578645706,0.0333465039730072,0.34128090739250183
1782845422549555700,0.4765556640625,0.01882695034146309,0.027636421844363213,0.24830567836761475
1782845422559560700,0.486560791015625,0.01034451648592949,0.005736448802053928,0.1696297824382782
1782845422569565000,0.49656494140625,0.015108911320567131,-0.018880214542150497,0.11521021276712418
1782845422579570000,0.50656982421875,0.03852475434541702,-0.029149629175662994,0.08836634457111359
1782845422589574000,0.516573974609375,0.06345034390687943,-0.018930813297629356,0.08298010379076004
1782845422599579000,0.526578857421875,0.07936699688434601,0.0041550640016794205,0.09147452563047409
1782845422609582800,0.536582763671875,0.08352871239185333,0.038551121950149536,0.1036214679479599
1782845422619587800,0.546587890625,0.08695860207080841,0.07220708578824997,0.10885591059923172
1782845422629592000,0.556592041015625,0.1024257093667984,0.0974368080496788,0.10595812648534775
1782845422639597000,0.56659716796875,0.1339695155620575,0.11860467493534088,0.07778480648994446
1782845422649602000,0.57660205078125,0.1802816241979599,0.12680427730083466,0.03062795102596283
1782845422659606000,0.58660595703125,0.22396332025527954,0.12080604583024979,0.0003406183095648885
1782845422669611000,0.596611083984375,0.2762558162212372,0.09575768560171127,-0.0008420915110036731
1782845422679614700,0.60661474609375,0.31749674677848816,0.05209222808480263,0.0229929331690073
1782845422689619700,0.61661962890625,0.34083321690559387,0.0022240057587623596,0.06272143870592117
1782845422699624000,0.6266240234375,0.3440375328063965,-0.038367629051208496,0.10525079071521759
1782845422709629000,0.63662890625,0.3368648290634155,-0.057423077523708344,0.1493695080280304
1782845422719633000,0.6466328125,0.31797662377357483,-0.0734555721282959,0.20410573482513428
1782845422729638000,0.656637939453125,0.29749080538749695,-0.08446162194013596,0.2621317505836487
1782845422739641900,0.666641845703125,0.276680588722229,-0.08348797261714935,0.3146287798881531
1782845422749646800,0.676646728515625,0.26166409254074097,-0.0797579437494278,0.34221434593200684
1782845422759651000,0.686651123046875,0.25227779150009155,-0.081330806016922,0.3511122167110443
1782845422769656000,0.696656005859375,0.24502067267894745,-0.09200555831193924,0.336975634098053
1782845422779660000,0.706659912109375,0.23515872657299042,-0.08677057921886444,0.3119989037513733
1782845422789665000,0.7166650390625,0.21474505960941315,-0.071307472884655,0.28330492973327637
1782845422799668700,0.726668701171875,0.17976950109004974,-0.03834658861160278,0.24637462198734283
1782845422809673700,0.736673828125,0.13251489400863647,-0.01386974286288023,0.20522639155387878
1782845422819678700,0.7466787109375,0.07786790281534195,0.00538544449955225,0.16421343386173248
1782845422829683000,0.756682861328125,0.024292023852467537,0.027221767231822014,0.1359700858592987
1782845422839688000,0.76668798828125,-0.02442704513669014,0.048100683838129044,0.10853846371173859
1782845422849692000,0.77669189453125,-0.07102517783641815,0.06852180510759354,0.07709664851427078
1782845422859697000,0.78669677734375,-0.10088613629341125,0.09310544282197952,0.04435494914650917
1782845422869700900,0.796700927734375,-0.11850587278604507,0.10844418406486511,-0.005089567042887211
1782845422879705900,0.806705810546875,-0.12293444573879242,0.1243528425693512,-0.054429687559604645
1782845422889709800,0.816709716796875,-0.12033732980489731,0.138621523976326,-0.10100571066141129
1782845422899715000,0.826715087890625,-0.11877964437007904,0.14944274723529816,-0.13583959639072418
1782845422909719000,0.836718994140625,-0.11368368566036224,0.1492701768875122,-0.14968137443065643
1782845422919724000,0.84672412109375,-0.09651189297437668,0.14423920214176178,-0.13563719391822815
1782845422929727700,0.856727783203125,-0.07041078060865402,0.12693531811237335,-0.09254005551338196
1782845422939732700,0.866732666015625,-0.03229641914367676,0.10867641121149063,-0.037749242037534714
1782845422949737000,0.876737060546875,0.0001395496365148574,0.09087291359901428,0.023079220205545425
1782845422959742000,0.886741943359375,0.03160426393151283,0.07235275954008102,0.07904661446809769
1782845422969746000,0.896745849609375,0.06351106613874435,0.05633917078375816,0.09916120767593384
1782845422979751000,0.9067509765625,0.09149183332920074,0.04218553751707077,0.11067458242177963
1782845422989756000,0.916755859375,0.12163322418928146,0.027881432324647903,0.1191098764538765
1782845422999760000,0.926759765625,0.15089151263237,0.021947642788290977,0.12884825468063354
1782845423009764900,0.936764892578125,0.17240506410598755,0.008433165960013866,0.13069729506969452
1782845423019768800,0.946768798828125,0.1884191781282425,0.00848563015460968,0.13048504292964935
1782845423029773800,0.95677392578125,0.19267384707927704,0.00629065278917551,0.12603436410427094
1782845423039778000,0.966778076171875,0.18932358920574188,0.0025126924738287926,0.11434441804885864
1782845423049783000,0.976782958984375,0.18499727547168732,-0.004773450084030628,0.0832594707608223
1782845423059786800,0.986786865234375,0.17292597889900208,-0.01429078821092844,0.0593235120177269
1782845423069791700,0.996791748046875,0.13838344812393188,-0.018098309636116028,0.05134308338165283
1782845423079795700,1.006795654296875,0.10233249515295029,0.0011499529937282205,0.027789553627371788
1782845423089801000,1.016801025390625,0.0532352589070797,0.03665122017264366,0.00446958327665925
1782845423099805000,1.026804931640625,-0.0028157602064311504,0.06313156336545944,-0.006551908794790506
1782845423109810000,1.036809814453125,-0.05784252658486366,0.07755658030509949,0.0014325142838060856
1782845423119814000,1.04681396484375,-0.10287284851074219,0.07615016400814056,0.023196399211883545
1782845423129819000,1.05681884765625,-0.14205114543437958,0.05658445134758949,0.05207119137048721
1782845423139822800,1.06682275390625,-0.1772560030221939,0.020371584221720695,0.09096958488225937
1782845423149827800,1.076827880859375,-0.2093425691127777,-0.011987154372036457,0.1431715339422226
1782845423159832000,1.08683203125,-0.243689626455307,-0.036735109984874725,0.17864777147769928
1782845423169837000,1.096837158203125,-0.2724520266056061,-0.049007222056388855,0.19863693416118622
1782845423179842000,1.106842041015625,-0.30033400654792786,-0.05576233193278313,0.19895784556865692
1782845423189845800,1.116845703125,-0.3254212439060211,-0.055149272084236145,0.19259794056415558
1782845423199850800,1.126850830078125,-0.35224485397338867,-0.043776243925094604,0.18234103918075562
1782845423209854700,1.136854736328125,-0.37683701515197754,-0.0271298885345459,0.1884966790676117
1782845423219859700,1.146859619140625,-0.3940546214580536,-0.0200437493622303,0.20164257287979126
1782845423229864000,1.156864013671875,-0.4155881404876709,-0.015238607302308083,0.19918447732925415
1782845423239869000,1.166868896484375,-0.42177441716194153,-0.01812147907912731,0.18787643313407898
1782845423249873000,1.176872802734375,-0.4214913249015808,-0.023075491189956665,0.16385871171951294
1782845423259878000,1.1868779296875,-0.4062716066837311,-0.029646309092640877,0.11534017324447632
1782845423269881900,1.1968818359375,-0.37192508578300476,-0.0229340773075819,0.06610684841871262
1782845423279886800,1.206886962890625,-0.32389578223228455,-0.010437726974487305,0.024693628773093224
1782845423289891000,1.21689111328125,-0.27719244360923767,0.010889931581914425,-0.02436073310673237
1782845423299896000,1.22689599609375,-0.23543834686279297,0.042877424508333206,-0.08021121472120285
1782845423309899800,1.236899658203125,-0.19824038445949554,0.05949288606643677,-0.1239435151219368
1782845423319904800,1.24690478515625,-0.16275562345981598,0.06046414375305176,-0.1462506800889969
1782845423329908700,1.25690869140625,-0.12752147018909454,0.027710456401109695,-0.15488305687904358
1782845423339913700,1.266913818359375,-0.10584307461977005,-0.011545069515705109,-0.154928058385849
1782845423349918700,1.276918701171875,-0.10342865437269211,-0.019544139504432678,-0.13915282487869263
1782845423359923000,1.2869228515625,-0.09335444867610931,-0.042759448289871216,-0.1312198042869568
1782845423369928000,1.296927978515625,-0.08915118128061295,-0.06645625829696655,-0.12225267291069031
1782845423379932000,1.306931884765625,-0.10093779861927032,-0.09247960150241852,-0.1017865464091301
1782845423389937000,1.31693701171875,-0.12725435197353363,-0.13114763796329498,-0.061471883207559586
1782845423399940900,1.32694091796875,-0.16275109350681305,-0.17488126456737518,-0.009943976998329163
1782845423409945900,1.33694580078125,-0.19633889198303223,-0.2095329910516739,0.042623359709978104
1782845423419950000,1.3469501953125,-0.23587724566459656,-0.22015181183815002,0.08730693906545639
1782845423429955000,1.356955078125,-0.2737029194831848,-0.2132672667503357,0.11433909088373184
1782845423439958800,1.366958740234375,-0.30509811639785767,-0.19969846308231354,0.12585273385047913
1782845423449963800,1.3769638671875,-0.3279552459716797,-0.1866881251335144,0.12840750813484192
1782845423459967700,1.3869677734375,-0.3439520597457886,-0.17107880115509033,0.12198635935783386
1782845423469972700,1.39697265625,-0.3601083755493164,-0.159727081656456,0.10889159888029099
1782845423479977000,1.40697705078125,-0.367046982049942,-0.1577126681804657,0.09540215134620667
1782845423489982000,1.41698193359375,-0.37179726362228394,-0.1631774753332138,0.07846871018409729
1782845423499986000,1.42698583984375,-0.3622277081012726,-0.17316113412380219,0.06906215846538544
1782845423509991000,1.436990966796875,-0.3461536765098572,-0.18619464337825775,0.060804761946201324
1782845423519995000,1.446994873046875,-0.3311547636985779,-0.20325830578804016,0.06525463610887527
1782845423530000000,1.456999755859375,-0.31835508346557617,-0.21071968972682953,0.08082720637321472
1782845423540004900,1.4670048828125,-0.319865345954895,-0.21051356196403503,0.09873616695404053
1782845423550008800,1.4770087890625,-0.313849538564682,-0.20080500841140747,0.11981614679098129
1782845423560014000,1.48701416015625,-0.30264347791671753,-0.18643459677696228,0.1436743438243866
1782845423570017800,1.497017822265625,-0.2848181426525116,-0.1641220897436142,0.16171300411224365
1782845423580022800,1.507022705078125,-0.269805908203125,-0.14421389997005463,0.1797572523355484
1782845423590026800,1.51702685546875,-0.2560424208641052,-0.12903547286987305,0.19936662912368774
1782845423600031700,1.52703173828125,-0.24361984431743622,-0.10979733616113663,0.21237324178218842
1782845423610036000,1.537035888671875,-0.23656034469604492,-0.09773028641939163,0.22756923735141754
1782845423620041000,1.547041015625,-0.23695582151412964,-0.06728316843509674,0.23716089129447937
1782845423630045000,1.557044921875,-0.23315708339214325,-0.04222734645009041,0.2548663914203644
1782845423640050000,1.5670498046875,-0.2304273545742035,-0.016802415251731873,0.2699742317199707
1782845423650054000,1.577053955078125,-0.23060950636863708,0.0022064289078116417,0.2834165394306183
1782845423660059000,1.587058837890625,-0.22162000834941864,0.02708514779806137,0.29410725831985474
1782845423670062800,1.597062744140625,-0.20527805387973785,0.05337720364332199,0.2942843437194824
1782845423680067800,1.60706787109375,-0.18414241075515747,0.07497304677963257,0.2767844498157501
1782845423690071800,1.61707177734375,-0.161406472325325,0.09974736720323563,0.22721637785434723
1782845423700076800,1.627076904296875,-0.14474226534366608,0.13781672716140747,0.1429387778043747
1782845423710080800,1.637080810546875,-0.1336078643798828,0.16387201845645905,0.05337507277727127
1782845423720085800,1.647085693359375,-0.12886451184749603,0.172483891248703,-0.06089184805750847
1782845423730090800,1.6570908203125,-0.1144661232829094,0.16019207239151,-0.17280933260917664
1782845423740095000,1.667094970703125,-0.10031861066818237,0.1304890364408493,-0.27820685505867004
1782845423750100000,1.677099853515625,-0.08012732863426208,0.08801401406526566,-0.3491305708885193
1782845423760104000,1.68710400390625,-0.06294754147529602,0.02942846156656742,-0.36309298872947693
1782845423770109000,1.69710888671875,-0.047508131712675095,-0.026447586715221405,-0.33261895179748535
1782845423780113000,1.70711279296875,-0.015588547103106976,-0.08482328057289124,-0.2709830403327942
1782845423790118000,1.717117919921875,0.0136612169444561,-0.12432807683944702,-0.20736224949359894
1782845423800121900,1.727121826171875,0.054667238146066666,-0.1439334750175476,-0.1447950005531311
1782845423810126800,1.737126953125,0.10239242017269135,-0.16113829612731934,-0.08320487290620804
1782845423820130800,1.747130859375,0.13839036226272583,-0.1576913595199585,-0.01763358898460865
1782845423830135800,1.7571357421875,0.17528153955936432,-0.12774091958999634,0.05127357318997383
1782845423840139800,1.767139892578125,0.20444954931735992,-0.0872078686952591,0.14553828537464142
1782845423850144800,1.777144775390625,0.2511501908302307,-0.06665066629648209,0.25274863839149475
1782845423860149000,1.78714892578125,0.28485915064811707,-0.03886377438902855,0.3798016607761383
1782845423870154000,1.797154052734375,0.3061812222003937,-0.002269279444590211,0.49345844984054565
1782845423880159000,1.807158935546875,0.314639687538147,0.008035555481910706,0.5810415744781494
1782845423890163000,1.817162841796875,0.3038882613182068,0.009121060371398926,0.6397535800933838
1782845423900168000,1.82716796875,0.24518552422523499,0.030909713357686996,0.6526028513908386
1782845423910172000,1.837171875,0.18679757416248322,0.06112407520413399,0.6200496554374695
1782845423920177000,1.847177001953125,0.12415523827075958,0.08946543186903,0.5376496315002441
1782845423930180900,1.857180908203125,0.0681430995464325,0.10636798292398453,0.42760565876960754
1782845423940185900,1.867185791015625,0.002445314545184374,0.11174783855676651,0.29933398962020874
1782845423950189800,1.87718994140625,-0.052686382085084915,0.1077411100268364,0.17524078488349915
1782845423960194800,1.88719482421875,-0.09428362548351288,0.07909588515758514,0.06957641243934631
1782845423970198800,1.89719873046875,-0.1288653016090393,0.050022419542074203,-0.01631505787372589
1782845423980203800,1.907203857421875,-0.1547195315361023,0.022355904802680016,-0.09919316321611404
1782845423990208000,1.9172080078125,-0.18045100569725037,0.009130913764238358,-0.17892473936080933
1782845424000213000,1.927212890625,-0.19280700385570526,0.006106894463300705,-0.25294971466064453
1782845424010217000,1.937217041015625,-0.20258745551109314,0.009749566204845905,-0.3194160759449005
1782845424020222000,1.947221923828125,-0.20740565657615662,0.019153188914060593,-0.3743318021297455
1782845424030226000,1.957225830078125,-0.21001474559307098,0.020670924335718155,-0.4205424189567566
1782845424040231000,1.96723095703125,-0.20364554226398468,0.01293603889644146,-0.4591577351093292
1782845424050235000,1.97723486328125,-0.182852104306221,0.0031843415927141905,-0.49535542726516724
1782845424060240000,1.987239990234375,-0.15116076171398163,-0.013932060450315475,-0.5010977387428284
1782845424070243800,1.997243896484375,-0.1094583198428154,-0.038778554648160934,-0.4909505546092987
1782845424080248800,2.007248779296875,-0.057858239859342575,-0.0652056336402893,-0.4675922393798828
1782845424090253800,2.01725390625,0.009310144931077957,-0.09947572648525238,-0.4339921772480011
1782845424100257800,2.0272578125,0.07274530827999115,-0.11269085854291916,-0.3949292004108429
1782845424110262800,2.0372626953125,0.12373818457126617,-0.11509862542152405,-0.3689066767692566
1782845424120267000,2.04726708984375,0.16704490780830383,-0.12504872679710388,-0.3373202383518219
1782845424130272000,2.05727197265625,0.20058156549930573,-0.11965582519769669,-0.29796165227890015
1782845424140276000,2.06727587890625,0.21692831814289093,-0.11717802286148071,-0.24713867902755737
1782845424150281000,2.077281005859375,0.22433030605316162,-0.11091027408838272,-0.20854787528514862
1782845424160285000,2.087284912109375,0.22021305561065674,-0.11528132110834122,-0.16972830891609192
1782845424170290000,2.0972900390625,0.20128917694091797,-0.12006009370088577,-0.11409328132867813
1782845424180294000,2.1072939453125,0.16301821172237396,-0.13199211657047272,-0.06033870950341225
1782845424190299000,2.117298828125,0.11470154672861099,-0.13933499157428741,0.00192226970102638
1782845424200302800,2.127302734375,0.06156695634126663,-0.13093964755535126,0.049256227910518646
1782845424210307800,2.137307861328125,0.006039516534656286,-0.11460673809051514,0.08156303316354752
1782845424220311800,2.147311767578125,-0.03742886334657669,-0.08614260703325272,0.08605659008026123
1782845424230316800,2.15731689453125,-0.06514810770750046,-0.05092736333608627,0.058268897235393524
1782845424240321000,2.167321044921875,-0.08975838124752045,-0.017042899504303932,0.006252569612115622
1782845424250326000,2.177325927734375,-0.10717599093914032,0.011410846374928951,-0.060922738164663315
1782845424260331000,2.1873310546875,-0.11591675132513046,0.03341201692819595,-0.1377064734697342
1782845424270335000,2.1973349609375,-0.11521926522254944,0.05076251178979874,-0.22230523824691772
1782845424280340000,2.207340087890625,-0.09395579248666763,0.06371746212244034,-0.3021220266819
1782845424290344000,2.217343994140625,-0.060077451169490814,0.06676438450813293,-0.36147430539131165
1782845424300349000,2.227348876953125,-0.011007376946508884,0.07107577472925186,-0.3951078951358795
1782845424310353000,2.237352783203125,0.04144065082073212,0.06638488173484802,-0.40041691064834595
1782845424320358000,2.24735791015625,0.08440089970827103,0.05025171861052513,-0.38516074419021606
1782845424330361900,2.25736181640625,0.13058091700077057,0.03651406988501549,-0.3725898265838623
1782845424340366800,2.267366943359375,0.1717267483472824,0.024813471361994743,-0.36953118443489075
1782845424350370800,2.277370849609375,0.2006675899028778,0.009601227939128876,-0.38161152601242065
1782845424360375800,2.287375732421875,0.22167007625102997,-0.006701844744384289,-0.4038119316101074
1782845424370380000,2.297380126953125,0.2322731912136078,-0.029280656948685646,-0.4063592255115509
1782845424380385000,2.307385009765625,0.22952400147914886,-0.04278288409113884,-0.39524906873703003
1782845424390389000,2.317388916015625,0.2218620926141739,-0.040529049932956696,-0.380909264087677
1782845424400394000,2.32739404296875,0.2074352204799652,-0.037827540189027786,-0.37225160002708435
1782845424410398000,2.33739794921875,0.19279928505420685,-0.020415525883436203,-0.37550199031829834
1782845424420403000,2.34740283203125,0.17977721989154816,0.005329251755028963,-0.3622620701789856
1782845424430408000,2.357407958984375,0.15737630426883698,0.021332185715436935,-0.32041290402412415
1782845424440412000,2.367411865234375,0.13665159046649933,0.028313130140304565,-0.2657930552959442
1782845424450417000,2.3774169921875,0.12594380974769592,0.03630181401968002,-0.21970652043819427
1782845424460420900,2.3874208984375,0.11850666999816895,0.04531262069940567,-0.1921856850385666
1782845424470425900,2.39742578125,0.11858177185058594,0.05865425989031792,-0.17217442393302917
1782845424480429800,2.407429931640625,0.12930046021938324,0.053816892206668854,-0.16151006519794464
1782845424490434800,2.417434814453125,0.14549142122268677,0.045109689235687256,-0.15401886403560638
1782845424500439000,2.42743896484375,0.15949565172195435,0.0393466055393219,-0.14916925132274628
1782845424510444000,2.437444091796875,0.18299219012260437,0.039801210165023804,-0.15987807512283325
1782845424520448000,2.447447998046875,0.20724107325077057,0.041428133845329285,-0.16004319489002228
1782845424530453000,2.457452880859375,0.23076529800891876,0.03485944867134094,-0.16967318952083588
1782845424540457000,2.46745703125,0.2589032053947449,0.03609089180827141,-0.18782183527946472
1782845424550462000,2.4774619140625,0.2801022231578827,0.05170473828911781,-0.21378952264785767
1782845424560466000,2.4874658203125,0.2976495325565338,0.07233864814043045,-0.22293508052825928
1782845424570471000,2.497470947265625,0.31151795387268066,0.07960827648639679,-0.2203371673822403
1782845424580475000,2.507474853515625,0.3244662284851074,0.09020206332206726,-0.20707488059997559
1782845424590480000,2.51747998046875,0.33932268619537354,0.10245340317487717,-0.17956256866455078
1782845424600483800,2.52748388671875,0.3575410842895508,0.11130096018314362,-0.14647358655929565
1782845424610488800,2.53748876953125,0.3818906247615814,0.12520825862884521,-0.11365971714258194
1782845424620493800,2.547493896484375,0.4076915979385376,0.13593067228794098,-0.08843851834535599
1782845424630498000,2.557498046875,0.4379113018512726,0.145849347114563,-0.059904877096414566
1782845424640503000,2.5675029296875,0.4670894145965576,0.1484387367963791,-0.023558588698506355
1782845424650507000,2.577507080078125,0.4868021309375763,0.15413710474967957,0.011464642360806465
1782845424660512000,2.587511962890625,0.4998151361942291,0.15296904742717743,0.05296068638563156
1782845424670515700,2.597515625,0.506870687007904,0.14394599199295044,0.09519762545824051
1782845424680520700,2.607520751953125,0.5080201029777527,0.1371448040008545,0.13333594799041748
1782845424690525000,2.61752490234375,0.5101417899131775,0.12287186086177826,0.16485020518302917
1782845424700530000,2.627530029296875,0.5118992328643799,0.116456039249897,0.18901093304157257
1782845424710534000,2.637533935546875,0.5144556164741516,0.11904036998748779,0.20385059714317322
1782845424720539000,2.647538818359375,0.522575318813324,0.12336187809705734,0.2150193601846695
1782845424730542800,2.65754296875,0.5183603167533875,0.12332645803689957,0.23885679244995117
1782845424740547800,2.6675478515625,0.5203337073326111,0.12434032559394836,0.2704128623008728
1782845424750551800,2.6775517578125,0.5210261344909668,0.13278734683990479,0.3209071755409241
1782845424760556800,2.687556884765625,0.5286670327186584,0.15175864100456238,0.38610509037971497
1782845424770560800,2.697560791015625,0.5413604378700256,0.16739405691623688,0.47216859459877014
1782845424780565800,2.707565673828125,0.5664376020431519,0.17167136073112488,0.5706672072410583
1782845424790570800,2.71757080078125,0.5803803205490112,0.16494794189929962,0.6675426363945007
1782845424800574700,2.72757470703125,0.5800654888153076,0.1425965577363968,0.7208979725837708
1782845424810579700,2.737579833984375,0.5665944218635559,0.12597177922725677,0.7127341032028198
1782845424820584000,2.747583984375,0.5402291417121887,0.11532366275787354,0.6491564512252808
1782845424830589000,2.7575888671875,0.5211737155914307,0.1126631647348404,0.5315232872962952
1782845424840593000,2.767593017578125,0.5235734581947327,0.11008096486330032,0.37763702869415283
1782845424850598000,2.777597900390625,0.5255442261695862,0.0967201516032219,0.20987573266029358
1782845424860601600,2.7876015625,0.5231590867042542,0.08897088468074799,0.04337197542190552
1782845424870606600,2.797606689453125,0.5165014266967773,0.06808531284332275,-0.08813837915658951
1782845424880610800,2.80761083984375,0.5138497352600098,0.0512261688709259,-0.1843879520893097
1782845424890615800,2.81761572265625,0.49949583411216736,0.023997744545340538,-0.2446954995393753
1782845424900619800,2.827619873046875,0.4773623049259186,-0.02322329767048359,-0.27556687593460083
1782845424910624800,2.837624755859375,0.44699826836586,-0.07747002691030502,-0.28398725390434265
1782845424920628700,2.847628662109375,0.41022905707359314,-0.12025424093008041,-0.27039581537246704
1782845424930633700,2.8576337890625,0.3695998787879944,-0.14832235872745514,-0.23286254703998566
1782845424940638000,2.867637939453125,0.3253117799758911,-0.17168228328227997,-0.18031944334506989
1782845424950643000,2.877642822265625,0.278058797121048,-0.1759185642004013,-0.1238684132695198
1782845424960647000,2.88764697265625,0.24632935225963593,-0.1826065629720688,-0.06579792499542236
1782845424970652000,2.89765185546875,0.2181357890367508,-0.20414301753044128,-0.009694439359009266
1782845424980657000,2.907656982421875,0.19852028787136078,-0.23323751986026764,0.03175979480147362
1782845424990660600,2.91766064453125,0.18511232733726501,-0.24549710750579834,0.07887617498636246
1782845425000665600,2.92766552734375,0.164675772190094,-0.24010713398456573,0.13899730145931244
1782845425010669800,2.937669921875,0.13280625641345978,-0.21307311952114105,0.20317469537258148
1782845425020674800,2.9476748046875,0.08651438355445862,-0.1736559420824051,0.2837635278701782
1782845425030678800,2.9576787109375,0.03537503629922867,-0.12325961887836456,0.3398315906524658
1782845425040683800,2.967683837890625,-0.01452621165663004,-0.06643068790435791,0.3656935691833496
1782845425050687700,2.977687744140625,-0.05612851679325104,-0.0089391665533185,0.3594990372657776
1782845425060692700,2.987692626953125,-0.08709495514631271,0.04296823963522911,0.3269192576408386
1782845425070696700,2.99769677734375,-0.11144183576107025,0.07595867663621902,0.284898579120636
1782845425080702000,3.007701904296875,-0.12665808200836182,0.10702711343765259,0.24490295350551605
1782845425090706000,3.017705810546875,-0.12680214643478394,0.12597550451755524,0.17116962373256683
1782845425100711000,3.0277109375,-0.12205826491117477,0.14265196025371552,0.09912924468517303
1782845425110714600,3.037714599609375,-0.12268064171075821,0.1482405960559845,0.040638770908117294
1782845425120719600,3.0477197265625,-0.10865883529186249,0.14952850341796875,-0.012723518535494804
1782845425130723800,3.057723876953125,-0.0800788551568985,0.13841752707958221,-0.061888135969638824
1782845425140728800,3.067728759765625,-0.04741731658577919,0.1275358498096466,-0.11837750673294067
1782845425150733800,3.07773388671875,-0.01846928894519806,0.11309672892093658,-0.17112594842910767
1782845425160737800,3.08773779296875,0.019568640738725662,0.1011790782213211,-0.22664432227611542
1782845425170742800,3.09774267578125,0.04013144224882126,0.09213259071111679,-0.2822801470756531
1782845425180746800,3.107746826171875,0.038988146930933,0.06639127433300018,-0.30870378017425537
1782845425190751700,3.117751708984375,0.02744307555258274,0.04567960277199745,-0.3098270893096924
1782845425200755700,3.127755615234375,0.028088359162211418,0.020243486389517784,-0.30163389444351196
1782845425210760700,3.1377607421875,0.03431642800569534,-0.012145612388849258,-0.2501653730869293
1782845425220765000,3.147764892578125,0.03460511565208435,-0.04164464771747589,-0.18386943638324738
1782845425230770000,3.15777001953125,0.017782991752028465,-0.0642399713397026,-0.08837060630321503
1782845425240773600,3.167773681640625,0.0019148128340020776,-0.06548792868852615,-0.014284397475421429
1782845425250778600,3.177778564453125,-0.025621740147471428,-0.05867263302206993,0.06523413211107254
1782845425260782600,3.187782470703125,-0.05842016637325287,-0.04429475963115692,0.1271827220916748
1782845425270787800,3.197787841796875,-0.08497454226016998,-0.025004418566823006,0.1737169325351715
1782845425280791800,3.207791748046875,-0.10546384006738663,-0.005151618737727404,0.20441971719264984
1782845425290796800,3.217796875,-0.12541411817073822,0.011271563358604908,0.20204311609268188
1782845425300800800,3.22780078125,-0.14450737833976746,0.03392680734395981,0.16424059867858887
1782845425310805800,3.2378056640625,-0.1708841323852539,0.049200303852558136,0.10820423066616058
1782845425320809700,3.247809814453125,-0.20261648297309875,0.050637610256671906,0.04406013712286949
1782845425330814700,3.257814697265625,-0.24129730463027954,0.0365966260433197,0.001407214323990047
1782845425340819700,3.26781982421875,-0.28082475066185,0.02321850322186947,-0.024627314880490303
1782845425350824000,3.277823974609375,-0.3216305077075958,0.01188355777412653,-0.044852159917354584
1782845425360829000,3.287828857421875,-0.3605786859989166,-0.001014131703414023,-0.05133296176791191
1782845425370832600,3.29783251953125,-0.38997599482536316,-0.01079672109335661,-0.050947338342666626
1782845425380837600,3.307837646484375,-0.39871516823768616,-0.02279878966510296,-0.04252428933978081
1782845425390841600,3.317841552734375,-0.39415690302848816,-0.030291326344013214,-0.03666666895151138
1782845425400846600,3.3278466796875,-0.3849537968635559,-0.03777507692575455,-0.037581995129585266
1782845425410850800,3.337850830078125,-0.3701796531677246,-0.0464300811290741,-0.04032425209879875
1782845425420855800,3.347855712890625,-0.3480794131755829,-0.04921841248869896,-0.057319749146699905
1782845425430859800,3.35785986328125,-0.30525925755500793,-0.04213493689894676,-0.0872185230255127
1782845425440864800,3.36786474609375,-0.25528717041015625,-0.034641332924366,-0.1141263023018837
1782845425450868700,3.37786865234375,-0.2219449132680893,-0.0305137000977993,-0.13222567737102509
1782845425460873700,3.387873779296875,-0.2041001319885254,-0.02557540126144886,-0.13535968959331512
1782845425470877700,3.397877685546875,-0.19871363043785095,-0.022242721170186996,-0.14468234777450562
1782845425480883000,3.407883056640625,-0.20391425490379333,-0.02069036476314068,-0.1487194299697876
1782845425490886700,3.41788671875,-0.21833233535289764,-0.020963871851563454,-0.14671647548675537
1782845425500891600,3.4278916015625,-0.24406912922859192,-0.014065485447645187,-0.15275278687477112
1782845425510896600,3.437896728515625,-0.26995745301246643,-0.008234494365751743,-0.16229462623596191
1782845425520900600,3.447900634765625,-0.2865571975708008,0.004048803821206093,-0.16389785706996918
1782845425530905600,3.457905517578125,-0.3015337586402893,0.01420237123966217,-0.1550052911043167
1782845425540909800,3.467909912109375,-0.3123142123222351,0.010273942723870277,-0.12626393139362335
1782845425550914800,3.477914794921875,-0.3176341652870178,-0.0032985913567245007,-0.08689361810684204
1782845425560918800,3.487918701171875,-0.3193516135215759,-0.02430454082787037,-0.03805097937583923
1782845425570923800,3.497923828125,-0.32604387402534485,-0.0562044158577919,0.014709170907735825
1782845425580927700,3.507927734375,-0.32627931237220764,-0.09787915647029877,0.07347448170185089
1782845425590932700,3.5179326171875,-0.3412396013736725,-0.14253370463848114,0.13407498598098755
1782845425600936700,3.527936767578125,-0.3652605414390564,-0.16985347867012024,0.17476728558540344
1782845425610941700,3.537941650390625,-0.39653509855270386,-0.17584054172039032,0.18643859028816223
1782845425620945700,3.547945556640625,-0.420960009098053,-0.17184792459011078,0.19039444625377655
1782845425630950700,3.55795068359375,-0.42647916078567505,-0.15328170359134674,0.18148137629032135
1782845425640954600,3.56795458984375,-0.41363686323165894,-0.13023310899734497,0.17138586938381195
1782845425650959600,3.577959716796875,-0.37554219365119934,-0.11394254863262177,0.15236423909664154
1782845425660963800,3.5879638671875,-0.32202064990997314,-0.10989880561828613,0.12180259823799133
1782845425670968800,3.59796875,-0.2588645815849304,-0.11343787610530853,0.08647657185792923
1782845425680972800,3.607972900390625,-0.19028978049755096,-0.1299273669719696,0.04906022176146507
1782845425690977800,3.617977783203125,-0.1280011087656021,-0.14940279722213745,0.019949739798903465
1782845425700981800,3.627981689453125,-0.08258329331874847,-0.15815500915050507,0.006322877015918493
1782845425710986800,3.63798681640625,-0.05300862342119217,-0.16384965181350708,0.0014378406340256333
1782845425720991700,3.64799169921875,-0.03720675781369209,-0.17198507487773895,0.012572516687214375
1782845425730995700,3.65799560546875,-0.02075614407658577,-0.18443216383457184,0.03263171389698982
1782845425741000700,3.668000732421875,-0.007394533138722181,-0.1965668499469757,0.04368063434958458
1782845425751004700,3.678004638671875,0.0028871328104287386,-0.20428656041622162,0.051118843257427216
1782845425761009700,3.688009765625,0.021442174911499023,-0.20833083987236023,0.05807049199938774
1782845425771013600,3.698013671875,0.03817348554730415,-0.2171802520751953,0.06791220605373383
1782845425781018600,3.7080185546875,0.0635446235537529,-0.21446701884269714,0.05914401262998581
1782845425791022600,3.718022705078125,0.08550291508436203,-0.2067055106163025,0.028603948652744293
1782845425801027600,3.728027587890625,0.11388316005468369,-0.18185341358184814,-0.0436747744679451
1782845425811031600,3.738031494140625,0.13641349971294403,-0.16086478531360626,-0.13535888493061066
1782845425821036500,3.74803662109375,0.13003283739089966,-0.14658863842487335,-0.23699550330638885
1782845425831040500,3.75804052734375,0.09182152897119522,-0.13572481274604797,-0.3418244421482086
1782845425841045500,3.76804541015625,0.04700026661157608,-0.13050687313079834,-0.4292256534099579
1782845425851049700,3.7780498046875,0.0016050871927291155,-0.1483926624059677,-0.4797343909740448
1782845425861054700,3.7880546875,-0.02931314706802368,-0.18272054195404053,-0.4796725809574127
1782845425871058700,3.79805859375,-0.07050851732492447,-0.2302667647600174,-0.43522098660469055
1782845425881063700,3.808063720703125,-0.12492489069700241,-0.2720480263233185,-0.36378806829452515
1782845425891068700,3.818068603515625,-0.17043432593345642,-0.3069990873336792,-0.2633597254753113
1782845425901072600,3.82807275390625,-0.19902415573596954,-0.3292157053947449,-0.14388792216777802
1782845425911077600,3.83807763671875,-0.20401863753795624,-0.3500900864601135,-0.02028396539390087
1782845425921081600,3.84808154296875,-0.20335711538791656,-0.3685540556907654,0.10569686442613602
1782845425931086600,3.858086669921875,-0.19933068752288818,-0.37379515171051025,0.237748384475708
1782845425941090600,3.868090576171875,-0.1848689168691635,-0.34907278418540955,0.35126933455467224
1782845425951095600,3.878095458984375,-0.16975069046020508,-0.30813145637512207,0.4510127305984497
1782845425961099500,3.888099609375,-0.16401849687099457,-0.260017991065979,0.5278502702713013
1782845425971104500,3.8981044921875,-0.15645591914653778,-0.209583580493927,0.5647763013839722
1782845425981108700,3.908108642578125,-0.1564071774482727,-0.14646746218204498,0.5726890563964844
1782845425991113700,3.91811376953125,-0.15905410051345825,-0.0677068755030632,0.5394318103790283
1782845426001117700,3.92811767578125,-0.14372867345809937,0.004503138829022646,0.4635434150695801
1782845426011122700,3.938122802734375,-0.12425031512975693,0.057254768908023834,0.3608793616294861
1782845426021126700,3.948126708984375,-0.11217234283685684,0.08844384551048279,0.24552108347415924
1782845426031131600,3.958131591796875,-0.09261409193277359,0.10166271030902863,0.1324121057987213
1782845426041135600,3.968135498046875,-0.06501681357622147,0.08802653104066849,0.006588127929717302
1782845426051140600,3.978140625,-0.02010473608970642,0.05005917325615883,-0.11900308728218079
1782845426061144600,3.98814453125,0.02407337725162506,0.0066637615673244,-0.2284691333770752
1782845426071149600,3.998149658203125,0.05525446683168411,-0.033603232353925705,-0.31524530053138733
1782845426081154600,4.008154541015625,0.058771971613168716,-0.08248821645975113,-0.37520211935043335
1782845426091158500,4.018158447265625,0.05336655303835869,-0.1206774190068245,-0.3932114839553833
1782845426101163500,4.02816357421875,0.02153991349041462,-0.14912131428718567,-0.36888083815574646
1782845426111167700,4.038167724609375,-0.02058303914964199,-0.17519791424274445,-0.29979604482650757
1782845426121172700,4.0481728515625,-0.07176580280065536,-0.18518556654453278,-0.21247471868991852
1782845426131176700,4.0581767578125,-0.12906797230243683,-0.1778469681739807,-0.11642301827669144
1782845426141181700,4.068181640625,-0.1834057718515396,-0.16440226137638092,-0.028172781690955162
1782845426151185700,4.078185546875,-0.22991548478603363,-0.14736734330654144,0.041910164058208466
1782845426161190700,4.088190673828125,-0.2668522000312805,-0.13071326911449432,0.08668562769889832
1782845426171194600,4.098194580078125,-0.2965264618396759,-0.10711366683244705,0.10222890228033066
1782845426181199600,4.10819970703125,-0.33056992292404175,-0.07758214324712753,0.10265367478132248
1782845426191203600,4.11820361328125,-0.3649100661277771,-0.06100236624479294,0.08288583159446716
1782845426201208600,4.12820849609375,-0.38736581802368164,-0.03190600126981735,0.04506601020693779
1782845426211212500,4.138212646484375,-0.40484097599983215,-0.007796137593686581,-0.009554089978337288
1782845426221217500,4.148217529296875,-0.42823442816734314,0.0034376082476228476,-0.08456414937973022
1782845426231221800,4.1582216796875,-0.4492736756801605,0.005812881514430046,-0.16298705339431763
1782845426241226800,4.168226806640625,-0.4691206216812134,0.0017475662752985954,-0.22999244928359985
1782845426251230700,4.178230712890625,-0.4803338646888733,-0.006286924239248037,-0.29137858748435974
1782845426261235700,4.188235595703125,-0.48624366521835327,-0.015216236934065819,-0.3279978334903717
1782845426271240700,4.19824072265625,-0.4776640236377716,-0.02190503291785717,-0.3479055166244507
1782845426281244700,4.20824462890625,-0.45928955078125,-0.024212928488850594,-0.34501758217811584
1782845426291249700,4.218249755859375,-0.44181308150291443,-0.02353089302778244,-0.33076566457748413
1782845426301253600,4.228253662109375,-0.41345229744911194,-0.02304859459400177,-0.30981138348579407
1782845426311258600,4.238258544921875,-0.37442687153816223,-0.021401960402727127,-0.28005215525627136
1782845426321262600,4.2482626953125,-0.31847572326660156,-0.007768174633383751,-0.24578313529491425
1782845426331267600,4.258267578125,-0.24338603019714355,0.008523447439074516,-0.20439840853214264
1782845426341271600,4.268271484375,-0.16147863864898682,0.01822933740913868,-0.15030641853809357
1782845426351276500,4.278276611328125,-0.07447396963834763,0.030585072934627533,-0.09665916115045547
1782845426361280800,4.28828076171875,0.0019156117923557758,0.049844253808259964,-0.054130345582962036
1782845426371285800,4.29828564453125,0.07311788946390152,0.06408417969942093,-0.02443823032081127
1782845426381289700,4.308289794921875,0.13998666405677795,0.08358331024646759,-0.016473781317472458
1782845426391294700,4.318294677734375,0.1893845796585083,0.10228988528251648,-0.017055150121450424
1782845426401298400,4.32829833984375,0.2315879613161087,0.12541304528713226,-0.03550339862704277
1782845426411303700,4.3383037109375,0.2576930522918701,0.1443563848733902,-0.05457456037402153
1782845426421307600,4.3483076171875,0.2784571945667267,0.15565989911556244,-0.0784817561507225
1782845426431312600,4.358312744140625,0.2938707768917084,0.15836140513420105,-0.11180349439382553
1782845426441316600,4.368316650390625,0.3097054064273834,0.1538098007440567,-0.15695206820964813
1782845426451321600,4.378321533203125,0.32484811544418335,0.1386827826499939,-0.20096266269683838
1782845426461325600,4.38832568359375,0.3307342529296875,0.11730904877185822,-0.2526753842830658
1782845426471330600,4.39833056640625,0.32308778166770935,0.09618698805570602,-0.2905910909175873
1782845426481335600,4.40833544921875,0.3071002960205078,0.07013274729251862,-0.31917905807495117
1782845426491339800,4.41833984375,0.2828119993209839,0.03704776614904404,-0.327559232711792
1782845426501344800,4.4283447265625,0.24545210599899292,0.009490440599620342,-0.3075721859931946
1782845426511348700,4.4383486328125,0.21031542122364044,-0.005720736458897591,-0.2573324739933014
1782845426521353700,4.448353759765625,0.1813868284225464,-0.012241486459970474,-0.19769896566867828
1782845426531357400,4.458357421875,0.15569745004177094,-0.009316802956163883,-0.12943468987941742
1782845426541362400,4.468362548828125,0.13410374522209167,-0.007161506451666355,-0.06145616993308067
1782845426551366700,4.47836669921875,0.11790293455123901,-0.000018375811123405583,0.003492469433695078
1782845426561371600,4.48837158203125,0.10224035382270813,0.001618403010070324,0.06418244540691376
1782845426571375600,4.498375732421875,0.09578671306371689,0.009824134409427643,0.11372336745262146
1782845426581380600,4.508380615234375,0.09522878378629684,0.016215188428759575,0.15121668577194214
1782845426591384600,4.518384521484375,0.10042593628168106,0.0225074402987957,0.18243452906608582
1782845426601389600,4.5283896484375,0.11384161561727524,0.03550366684794426,0.19735194742679596
1782845426611393800,4.538393798828125,0.12290674448013306,0.047507863491773605,0.2060847282409668
1782845426621398800,4.548398681640625,0.13506807386875153,0.06165963411331177,0.2026045024394989
1782845426631402800,4.55840283203125,0.1451534628868103,0.07373201102018356,0.19094252586364746
1782845426641407700,4.56840771484375,0.15123452246189117,0.07916299253702164,0.1772456169128418
1782845426651411500,4.578411376953125,0.15453365445137024,0.08106023073196411,0.17478619515895844
1782845426661416400,4.58841650390625,0.14601552486419678,0.09175761789083481,0.1687767654657364
1782845426671421400,4.59842138671875,0.1347367763519287,0.10850756615400314,0.1444101780653
1782845426681425700,4.60842578125,0.12108967453241348,0.11819508671760559,0.11351218074560165
1782845426691430700,4.6184306640625,0.10771021991968155,0.11650610715150833,0.09401677548885345
1782845426701434600,4.6284345703125,0.09186973422765732,0.11047004908323288,0.06761499494314194
1782845426711439600,4.638439697265625,0.07177378982305527,0.10347899049520493,0.035599008202552795
1782845426721443600,4.648443603515625,0.04965144395828247,0.09697315096855164,-0.01053253561258316
1782845426731448600,4.658448486328125,0.031086813658475876,0.1087467223405838,-0.06425328552722931
1782845426741452800,4.668452880859375,0.015926502645015717,0.11949337273836136,-0.09959396719932556
1782845426751457800,4.678457763671875,0.0030104373581707478,0.11488077789545059,-0.10318844020366669
1782845426761461800,4.688461669921875,-0.014316088519990444,0.10898187756538391,-0.07881145924329758
1782845426771466800,4.698466796875,-0.018857844173908234,0.10496024042367935,-0.026815103366971016
1782845426781470500,4.708470458984375,-0.01483540516346693,0.10738105326890945,0.0415828637778759
1782845426791475500,4.718475341796875,0.0007070692372508347,0.11297369003295898,0.09985122829675674
1782845426801479700,4.728479736328125,0.025839053094387054,0.12343964725732803,0.1511804610490799
1782845426811484700,4.738484619140625,0.061345115303993225,0.13776957988739014,0.19763851165771484
1782845426821488600,4.748488525390625,0.09942591935396194,0.14644083380699158,0.2394525408744812
1782845426831493600,4.75849365234375,0.13638927042484283,0.143401637673378,0.2827715277671814
1782845426841497600,4.76849755859375,0.1843157857656479,0.1393088847398758,0.3041686713695526
1782845426851502600,4.778502685546875,0.23652198910713196,0.14223890006542206,0.30283284187316895
1782845426861506800,4.7885068359375,0.2996263802051544,0.14853142201900482,0.29944610595703125
1782845426871511800,4.79851171875,0.36432257294654846,0.1713845282793045,0.29555627703666687
1782845426881516800,4.808516845703125,0.42397549748420715,0.1979738026857376,0.29466065764427185
1782845426891520800,4.818520751953125,0.47198164463043213,0.22254705429077148,0.2964188754558563
1782845426901525800,4.82852587890625,0.5096685886383057,0.23843920230865479,0.29243746399879456
1782845426911529500,4.838529541015625,0.5286768674850464,0.23539920151233673,0.2994530200958252
1782845426921534500,4.848534423828125,0.532893717288971,0.21883167326450348,0.278626024723053
1782845426931538700,4.85853857421875,0.527436375617981,0.21124859154224396,0.22556307911872864
1782845426941543700,4.868543701171875,0.49835893511772156,0.19872161746025085,0.150685653090477
1782845426951547600,4.878547607421875,0.4495636820793152,0.1789923906326294,0.05776742473244667
1782845426961552600,4.888552734375,0.39978840947151184,0.15585803985595703,-0.05054280161857605
1782845426971556600,4.898556640625,0.35475197434425354,0.14769119024276733,-0.16430717706680298
1782845426981561600,4.9085615234375,0.3224395513534546,0.1516241431236267,-0.2529739439487457
1782845426991565800,4.91856591796875,0.3057023882865906,0.14765550196170807,-0.29846978187561035
1782845427001570800,4.92857080078125,0.3003832697868347,0.11820147186517715,-0.2887553572654724
1782845427011574800,4.93857470703125,0.30726248025894165,0.0741938054561615,-0.2689100205898285
1782845427021579800,4.948579833984375,0.3127477765083313,0.028926456347107887,-0.22004182636737823
1782845427031583500,4.95858349609375,0.3275480270385742,-0.010007892735302448,-0.16415272653102875
1782845427041588500,4.96858837890625,0.3445046544075012,-0.04982401430606842,-0.10542735457420349
1782845427051592700,4.9785927734375,0.3590284585952759,-0.08062160760164261,-0.0564318522810936
1782845427061597700,4.98859765625,0.3609009385108948,-0.08527015894651413,-0.02015107497572899
1782845427071602700,4.998602783203125,0.34892550110816956,-0.062126487493515015,0.006864297669380903
1782845427081606700,5.008606689453125,0.32200494408607483,-0.024274179711937904,0.02273647114634514
1782845427091611600,5.018611572265625,0.2931424081325531,0.01630999706685543,0.028625253587961197
1782845427101615600,5.02861572265625,0.25271162390708923,0.04427798092365265,0.037404630333185196
1782845427111620600,5.03862060546875,0.2175789326429367,0.06112220883369446,0.04409023001790047
1782845427121624800,5.048624755859375,0.18479754030704498,0.05862043797969818,0.060989849269390106
1782845427131629800,5.0586298828125,0.15181243419647217,0.045824214816093445,0.0688706785440445
1782845427141633800,5.0686337890625,0.12670548260211945,0.03392601013183594,0.07450113445520401
1782845427151638800,5.078638671875,0.0990418940782547,0.024530110880732536,0.07161453366279602
1782845427161642500,5.088642578125,0.06928426772356033,0.029062544927001,0.07005178928375244
1782845427171647500,5.0986474609375,0.03548102825880051,0.036695696413517,0.0716097354888916
1782845427181651700,5.108651611328125,0.00373082235455513,0.06070968508720398,0.09385379403829575
1782845427191656700,5.11865673828125,-0.02707689069211483,0.08496176451444626,0.13476739823818207
1782845427201660700,5.12866064453125,-0.06359362602233887,0.10718424618244171,0.1859738677740097
1782845427211665700,5.138665771484375,-0.10452960431575775,0.11663100868463516,0.24923565983772278
1782845427221669600,5.148669677734375,-0.1406298130750656,0.12876810133457184,0.29398396611213684
1782845427231674600,5.158674560546875,-0.16693732142448425,0.1286674290895462,0.3292074501514435
1782845427241678600,5.1686787109375,-0.19110417366027832,0.11479555815458298,0.34157252311706543
1782845427251683800,5.178683837890625,-0.2027730792760849,0.10471975803375244,0.31056079268455505
1782845427261688800,5.188688720703125,-0.20762376487255096,0.10428939014673233,0.24832139909267426
1782845427271692800,5.19869287109375,-0.20261569321155548,0.09188571572303772,0.17940890789031982
1782845427281697800,5.20869775390625,-0.2001354843378067,0.059181831777095795,0.14369884133338928
1782845427291701500,5.218701416015625,-0.1918538510799408,0.024701084941625595,0.12046409398317337
1782845427301706500,5.22870654296875,-0.1713552474975586,0.0010495517635717988,0.0992986261844635
1782845427311710700,5.238710693359375,-0.14987844228744507,-0.014360830187797546,0.08116036653518677
1782845427321715700,5.2487158203125,-0.1307431012392044,-0.015368836000561714,0.06618354469537735
1782845427331719700,5.2587197265625,-0.09915108233690262,-0.012251339852809906,0.058029480278491974
1782845427341724700,5.268724609375,-0.06162581220269203,-0.009397496469318867,0.05224642530083656
1782845427351728600,5.278728759765625,-0.02851126901805401,-0.013233779929578304,0.05679510533809662
1782845427361733600,5.288733642578125,-0.017222397029399872,-0.018909508362412453,0.06714920699596405
1782845427371737600,5.298737548828125,-0.010661965236067772,-0.025790851563215256,0.07841411232948303
1782845427381742600,5.30874267578125,-0.010946657508611679,-0.03014937974512577,0.08363870531320572
1782845427391746800,5.318746826171875,-0.02737836167216301,-0.03807228431105614,0.1055179014801979
1782845427401751800,5.328751708984375,-0.047982703894376755,-0.04138179495930672,0.132024347782135
1782845427411755500,5.338755615234375,-0.08237823098897934,-0.046372026205062866,0.15799309313297272
1782845427421760500,5.348760498046875,-0.12775157392024994,-0.041246239095926285,0.18258845806121826
1782845427431764500,5.358764404296875,-0.17688076198101044,-0.0424174964427948,0.20138424634933472
1782845427441769500,5.36876953125,-0.23808766901493073,-0.032518528401851654,0.21944767236709595
1782845427451773700,5.378773681640625,-0.29982292652130127,-0.015915317460894585,0.23000018298625946
1782845427461778700,5.38877880859375,-0.362155556678772,-0.0002735066518653184,0.2252379059791565
1782845427471783700,5.39878369140625,-0.4203014075756073,0.014349112287163734,0.22713807225227356
1782845427481787600,5.40878759765625,-0.4584309458732605,0.02220410481095314,0.21988709270954132
1782845427491792600,5.418792724609375,-0.4961133599281311,0.031126227229833603,0.18404893577098846
1782845427501796600,5.428796630859375,-0.53025883436203,0.03680994734168053,0.14937297999858856
1782845427511801600,5.438801513671875,-0.5618739724159241,0.040957819670438766,0.11992108076810837
1782845427521805600,5.4488056640625,-0.5853907465934753,0.04387637600302696,0.09064894169569016
1782845427531810800,5.458810791015625,-0.5883447527885437,0.06447353214025497,0.05511065572500229
1782845427541814500,5.468814453125,-0.5768225789070129,0.0831361636519432,0.024686703458428383
1782845427551819500,5.478819580078125,-0.5592209696769714,0.09830313175916672,0.004196875728666782
1782845427561823500,5.488823486328125,-0.5167595148086548,0.11036378890275955,-0.019887687638401985
1782845427571828500,5.498828369140625,-0.46841195225715637,0.10858985781669617,-0.03194621577858925
1782845427581832700,5.508832763671875,-0.40567532181739807,0.10084725171327591,-0.054066695272922516
1782845427591837700,5.518837646484375,-0.3357686698436737,0.0976695716381073,-0.0819244235754013
1782845427601841700,5.528841552734375,-0.26132455468177795,0.08596310764551163,-0.10928121954202652
1782845427611846700,5.5388466796875,-0.19375614821910858,0.07873023301362991,-0.13880768418312073
1782845427621850600,5.5488505859375,-0.13630804419517517,0.07321882247924805,-0.16118089854717255
1782845427631855600,5.558855712890625,-0.08464324474334717,0.06351878494024277,-0.16898316144943237
1782845427641859600,5.568859619140625,-0.04622182250022888,0.04374082386493683,-0.17804643511772156
1782845427651864600,5.578864501953125,-0.018986741080880165,0.016502810642123222,-0.18539941310882568
1782845427661868500,5.58886865234375,0.0026487798895686865,-0.019532421603798866,-0.173904687166214
1782845427671873500,5.59887353515625,0.012584500946104527,-0.05745423957705498,-0.1442469209432602
1782845427681878500,5.60887841796875,0.006690126843750477,-0.08847367018461227,-0.10964660346508026
1782845427691882500,5.618882568359375,-0.019949473440647125,-0.11207514256238937,-0.07025498896837234
1782845427701887500,5.628887451171875,-0.05771096795797348,-0.1257784366607666,-0.02911713905632496
1782845427711891700,5.6388916015625,-0.10492242127656937,-0.12083720415830612,0.014216486364603043
1782845427721896700,5.648896728515625,-0.1565573811531067,-0.11412470787763596,0.05431623384356499
1782845427731900700,5.658900634765625,-0.20363222062587738,-0.10962716490030289,0.1088806763291359
1782845427741905700,5.66890576171875,-0.2480582743883133,-0.12020204216241837,0.17285139858722687
1782845427751909600,5.67890966796875,-0.2869545519351959,-0.14437103271484375,0.2265378087759018
1782845427761914600,5.68891455078125,-0.3345862329006195,-0.15648068487644196,0.2537129521369934
1782845427771918800,5.6989189453125,-0.36176007986068726,-0.15857499837875366,0.2580603063106537
1782845427781923800,5.708923828125,-0.37568894028663635,-0.1546923667192459,0.23796729743480682
1782845427791927600,5.718927490234375,-0.3848603367805481,-0.1403307467699051,0.19848087430000305
1782845427801932500,5.7289326171875,-0.39603176712989807,-0.10834671556949615,0.15215864777565002
1782845427811936500,5.7389365234375,-0.4040798246860504,-0.07215861231088638,0.11120668053627014
1782845427821941500,5.74894140625,-0.3916436731815338,-0.05899221450090408,0.07083582133054733
1782845427831945700,5.75894580078125,-0.36791491508483887,-0.07220228761434555,0.02268081158399582
1782845427841950700,5.76895068359375,-0.31963393092155457,-0.09474515169858932,-0.038656316697597504
1782845427851954700,5.77895458984375,-0.26421648263931274,-0.12134240567684174,-0.10481482744216919
1782845427861959700,5.788959716796875,-0.22201575338840485,-0.15629640221595764,-0.16701987385749817
1782845427871963600,5.798963623046875,-0.17615771293640137,-0.18493682146072388,-0.22180455923080444
1782845427881968600,5.80896875,-0.1219533383846283,-0.20107504725456238,-0.25549888610839844
1782845427891973600,5.8189736328125,-0.049979276955127716,-0.20095014572143555,-0.27921727299690247
1782845427901977900,5.828977783203125,0.017792578786611557,-0.19823452830314636,-0.28455424308776855
1782845427911982800,5.83898291015625,0.07329125702381134,-0.1966795027256012,-0.26566603779792786
1782845427921986600,5.848986572265625,0.1410716325044632,-0.1921129822731018,-0.22887739539146423
1782845427931991600,5.858991455078125,0.2212516963481903,-0.1815575510263443,-0.16766969859600067
1782845427941995500,5.86899560546875,0.28738436102867126,-0.15583327412605286,-0.10608835518360138
1782845427952000500,5.87900048828125,0.3231772482395172,-0.12408732622861862,-0.04625751078128815
1782845427962004700,5.889004638671875,0.34330302476882935,-0.09022630006074905,0.0011408982099965215
1782845427972009700,5.899009765625,0.3646719753742218,-0.04333202913403511,0.017645573243498802
1782845427982013700,5.909013671875,0.35426807403564453,0.018248511478304863,-0.026637203991413116
1782845427992018700,5.919018798828125,0.3127637803554535,0.07491685450077057,-0.12387853860855103
1782845428002022700,5.929022705078125,0.23020018637180328,0.11195369809865952,-0.24332131445407867
1782845428012027600,5.939027587890625,0.13661350309848785,0.1170768216252327,-0.3489486575126648
1782845428022032000,5.949031982421875,0.026668095961213112,0.07805538922548294,-0.42356351017951965
1782845428032036900,5.959036865234375,-0.1017516627907753,0.004995557479560375,-0.44630077481269836
1782845428042040600,5.96904052734375,-0.21019159257411957,-0.08230020105838776,-0.41258010268211365
1782845428052045600,5.979045654296875,-0.2658950686454773,-0.16726036369800568,-0.2879497706890106
1782845428062049500,5.989049560546875,-0.26475790143013,-0.2211528867483139,-0.11304958909749985
1782845428072054500,5.999054443359375,-0.22907792031764984,-0.2376711517572403,0.07187898457050323
1782845428082058800,6.009058837890625,-0.18192213773727417,-0.23239968717098236,0.23721201717853546
1782845428092063700,6.019063720703125,-0.1273030936717987,-0.20857743918895721,0.39043697714805603
1782845428102068700,6.02906884765625,-0.07293333113193512,-0.18070879578590393,0.5226882100105286
1782845428112072700,6.03907275390625,-0.03875565156340599,-0.1519450545310974,0.6259357929229736
1782845428122077700,6.04907763671875,-0.01321087684482336,-0.11853437125682831,0.7077686190605164
1782845428132081700,6.05908154296875,-0.003486876841634512,-0.10097108781337738,0.7402229309082031
1782845428142086700,6.069086669921875,0.008942894637584686,-0.048649296164512634,0.7246450781822205
1782845428152091000,6.0790908203125,0.024535436183214188,0.010338124819099903,0.6607528924942017
1782845428162095900,6.089095947265625,0.046238336712121964,0.05294763669371605,0.5681062936782837
1782845428172099600,6.099099609375,0.0759967640042305,0.08488772809505463,0.46775707602500916
1782845428182104600,6.1091044921875,0.1115100160241127,0.10459645092487335,0.3599933385848999
1782845428192108500,6.119108642578125,0.14706428349018097,0.10401880741119385,0.2685568928718567
1782845428202113500,6.129113525390625,0.17912501096725464,0.08918793499469757,0.1717512458562851
1782845428212117800,6.13911767578125,0.20586687326431274,0.0643523558974266,0.07609397172927856
1782845428222122800,6.149122802734375,0.22417505085468292,0.03122476488351822,-0.055090151727199554
1782845428232126700,6.159126708984375,0.23868528008460999,-0.01648736372590065,-0.1975114792585373
1782845428242131700,6.169131591796875,0.24531015753746033,-0.07754086703062057,-0.3240300118923187
1782845428252135700,6.1791357421875,0.24992647767066956,-0.1370081901550293,-0.4177019000053406
1782845428262140700,6.189140625,0.2389843463897705,-0.18274052441120148,-0.4814084470272064
1782845428272145000,6.199144775390625,0.225291445851326,-0.20591481029987335,-0.527880072593689
1782845428282150000,6.20914990234375,0.213951975107193,-0.22342216968536377,-0.5546424388885498
1782845428292153600,6.219153564453125,0.20430733263492584,-0.2264709621667862,-0.5752478241920471
1782845428302158600,6.22915869140625,0.19095450639724731,-0.21520231664180756,-0.590787947177887
1782845428312162600,6.23916259765625,0.18327900767326355,-0.18875180184841156,-0.5972388982772827
1782845428322167600,6.24916748046875,0.1773713231086731,-0.15327690541744232,-0.5808674097061157
1782845428332172500,6.259172607421875,0.15098418295383453,-0.1190720647573471,-0.5531151294708252
1782845428342176800,6.2691767578125,0.11870267987251282,-0.11075687408447266,-0.5031017661094666
1782845428352181800,6.279181640625,0.08118326961994171,-0.11235743761062622,-0.47276756167411804
1782845428362185700,6.289185791015625,0.04399408772587776,-0.14519794285297394,-0.44081681966781616
1782845428372190700,6.299190673828125,0.012205800041556358,-0.17992421984672546,-0.39836442470550537
1782845428382194700,6.309194580078125,-0.008950085379183292,-0.2120390236377716,-0.35797572135925293
1782845428392199700,6.31919970703125,-0.024413464590907097,-0.23575793206691742,-0.32253915071487427
1782845428402204000,6.329203857421875,-0.03892049938440323,-0.24004429578781128,-0.28219306468963623
1782845428412209000,6.339208984375,-0.054734352976083755,-0.21911264955997467,-0.23965759575366974
1782845428422212600,6.349212646484375,-0.06865283101797104,-0.16874055564403534,-0.18916432559490204
1782845428432217600,6.359217529296875,-0.08757033199071884,-0.1171889379620552,-0.12303484231233597
1782845428442221600,6.3692216796875,-0.11017949879169464,-0.06865070015192032,-0.05878768116235733
1782845428452226600,6.3792265625,-0.12600134313106537,-0.027758393436670303,-0.009194829501211643
1782845428462230800,6.389230712890625,-0.1372033953666687,0.0024519723374396563,0.019364111125469208
1782845428472235800,6.39923583984375,-0.13783963024616241,0.01619228534400463,0.03449459373950958
1782845428482239700,6.40923974609375,-0.11765206605195999,0.020964404568076134,0.040414534509181976
1782845428492244700,6.41924462890625,-0.08940737694501877,0.017407219856977463,0.018517758697271347
1782845428502248700,6.429248779296875,-0.04428064450621605,0.01721653714776039,-0.02268454059958458
1782845428512253700,6.439253662109375,0.007985488511621952,0.01287425309419632,-0.0913243219256401
1782845428522258700,6.4492587890625,0.0627259686589241,0.01782400533556938,-0.15043345093727112
1782845428532263000,6.459262939453125,0.11393935233354568,0.025422535836696625,-0.1898152083158493
1782845428542268000,6.469267822265625,0.1463998258113861,0.0285248514264822,-0.20498590171337128
1782845428552271600,6.479271728515625,0.1731717884540558,0.034090857952833176,-0.20849648118019104
1782845428562276600,6.489276611328125,0.186814084649086,0.037218473851680756,-0.21244221925735474
1782845428572280600,6.499280517578125,0.1914386749267578,0.040521059185266495,-0.22175076603889465
1782845428582285600,6.50928564453125,0.1945686787366867,0.03092356026172638,-0.24309201538562775
1782845428592289800,6.519289794921875,0.19938874244689941,0.01613076590001583,-0.2731114327907562
1782845428602294800,6.529294677734375,0.21178042888641357,-0.002683667466044426,-0.3003222644329071
1782845428612298800,6.539298828125,0.2228786200284958,-0.02051779255270958,-0.3198152780532837
1782845428622303700,6.5493037109375,0.23055438697338104,-0.035828039050102234,-0.32184329628944397
1782845428632307700,6.5593076171875,0.21992357075214386,-0.044619131833314896,-0.3070366382598877
1782845428642312700,6.569312744140625,0.19991818070411682,-0.03663364425301552,-0.27819088101387024
1782845428652316700,6.579316650390625,0.17134006321430206,-0.027174895629286766,-0.24364808201789856
1782845428662321700,6.58932177734375,0.14184634387493134,-0.018278872594237328,-0.19863612949848175
1782845428672325600,6.59932568359375,0.1183820366859436,-0.008208128623664379,-0.1686691790819168
1782845428682330600,6.60933056640625,0.09981421381235123,-0.004388356581330299,-0.12425084412097931
1782845428692334600,6.61933447265625,0.08422912657260895,0.005661614239215851,-0.08822866529226303
1782845428702339600,6.629339599609375,0.0832461565732956,0.01056129764765501,-0.04896567761898041
1782845428712343800,6.63934375,0.08968807756900787,0.03160905838012695,0.004760134033858776
1782845428722348800,6.649348876953125,0.10348591208457947,0.05083202198147774,0.060562945902347565
1782845428732352800,6.659352783203125,0.1320515125989914,0.06709754467010498,0.09202739596366882
1782845428742357800,6.669357666015625,0.16456738114356995,0.088951975107193,0.11151081323623657
1782845428752362200,6.6793623046875,0.19596417248249054,0.1051996573805809,0.11219844222068787
1782845428762366200,6.6893662109375,0.22332842648029327,0.1179809644818306,0.10378338396549225
1782845428772371200,6.69937109375,0.25640594959259033,0.13456366956233978,0.07639357447624207
1782845428782375400,6.70937548828125,0.28366392850875854,0.13733841478824615,0.049499910324811935
1782845428792380400,6.71938037109375,0.3086848556995392,0.13600178062915802,0.017592309042811394
1782845428802384400,6.72938427734375,0.32808545231819153,0.1256798952817917,0.0007238471880555153
1782845428812389400,6.739389404296875,0.3394278585910797,0.11823210120201111,-0.01637098379433155
1782845428822393000,6.74939306640625,0.3448633849620819,0.11417743563652039,-0.008701079525053501
1782845428832398000,6.759398193359375,0.34262633323669434,0.11345252394676208,0.009138370864093304
1782845428842402300,6.76940234375,0.3361359238624573,0.11472072452306747,0.04568466544151306
1782845428852407300,6.7794072265625,0.3319379985332489,0.1189064159989357,0.09479229152202606
1782845428862411300,6.789411376953125,0.3197375237941742,0.12244682013988495,0.14141304790973663
1782845428872416300,6.799416259765625,0.29433122277259827,0.12054505944252014,0.17772924900054932
1782845428882420200,6.809420166015625,0.26207661628723145,0.12376508116722107,0.18930335342884064
1782845428892425200,6.81942529296875,0.23201219737529755,0.14209428429603577,0.1728293001651764
1782845428902429400,6.829429443359375,0.20541253685951233,0.14760863780975342,0.1397632211446762
1782845428912434400,6.839434326171875,0.18716482818126678,0.13256549835205078,0.10437087714672089
1782845428922438400,6.8494384765625,0.16350796818733215,0.12182363867759705,0.06851967424154282
1782845428932443400,6.859443359375,0.14338885247707367,0.10403025895357132,0.032222118228673935
1782845428942447000,6.869447021484375,0.12469399720430374,0.09685970097780228,-0.009358081966638565
1782845428952452000,6.8794521484375,0.10737945139408112,0.08645979315042496,-0.05380810424685478
1782845428962456300,6.889456298828125,0.09243565797805786,0.06931409239768982,-0.08103492856025696
1782845428972461300,6.89946142578125,0.0792016088962555,0.052202485501766205,-0.10107281804084778
1782845428982466300,6.90946630859375,0.06428631395101547,0.03207218274474144,-0.1114082857966423
1782845428992470300,6.91947021484375,0.05841191112995148,0.020236562937498093,-0.11418356001377106
1782845429002475300,6.929475341796875,0.05639296770095825,0.00577746145427227,-0.10336580127477646
1782845429012479200,6.939479248046875,0.059124838560819626,-0.009441970847547054,-0.0836765244603157
1782845429022484200,6.949484130859375,0.06410282105207443,-0.020010726526379585,-0.06125430390238762
1782845429032488400,6.959488525390625,0.0759086161851883,-0.032282572239637375,-0.027916319668293
1782845429042493400,6.969493408203125,0.08535724133253098,-0.0450202040374279,0.007084541022777557
1782845429052497200,6.9794970703125,0.09963897615671158,-0.046609047800302505,0.05428401008248329
1782845429062502400,6.98950244140625,0.10787399858236313,-0.03970133885741234,0.12875930964946747
1782845429072506000,6.999506103515625,0.104632668197155,-0.03315502405166626,0.21772301197052002
1782845429082511000,7.009510986328125,0.08754423260688782,-0.009190035983920097,0.29335543513298035
1782845429092515300,7.019515380859375,0.059716857969760895,0.013847638852894306,0.3433597683906555
1782845429102520300,7.029520263671875,0.03518887981772423,0.06746133416891098,0.3315848708152771
1782845429112524300,7.039524169921875,0.022116221487522125,0.11416491866111755,0.24308562278747559
1782845429122529300,7.049529296875,0.011041732504963875,0.15660639107227325,0.12082602083683014
1782845429132533200,7.059533203125,0.024888304993510246,0.18497571349143982,0.004916728008538485
1782845429142538200,7.069538330078125,0.07185554504394531,0.1801455318927765,-0.08189193904399872
1782845429152542500,7.07954248046875,0.1467771977186203,0.13994193077087402,-0.12888340651988983
1782845429162547500,7.08954736328125,0.22889576852321625,0.07183424383401871,-0.13237933814525604
1782845429172551200,7.09955126953125,0.2933828830718994,-0.019341740757226944,-0.08652344346046448
1782845429182556200,7.10955615234375,0.35824576020240784,-0.10397753119468689,-0.005628324579447508
1782845429192560000,7.11956005859375,0.41166263818740845,-0.16692213714122772,0.094563789665699
1782845429202565000,7.129565185546875,0.4398716390132904,-0.21694722771644592,0.20162339508533478
1782845429212570000,7.139570068359375,0.44869017601013184,-0.2417638897895813,0.30255240201950073
1782845429222574300,7.14957421875,0.44613754749298096,-0.24138812720775604,0.3855524957180023
1782845429232579300,7.159579345703125,0.4276365637779236,-0.21647398173809052,0.4385107755661011
1782845429242583300,7.169583251953125,0.3942626118659973,-0.18370911478996277,0.4507583975791931
1782845429252588300,7.17958837890625,0.3451629877090454,-0.1348417103290558,0.4306057095527649
1782845429262592300,7.18959228515625,0.2828202545642853,-0.09250489622354507,0.3917997181415558
1782845429272597200,7.19959716796875,0.22601795196533203,-0.06276857852935791,0.3652120530605316
1782845429282601500,7.2096015625,0.16638551652431488,-0.03617158532142639,0.36594122648239136
1782845429292606500,7.2196064453125,0.10850783437490463,-0.026188993826508522,0.38717034459114075
1782845429302610200,7.229610107421875,0.035111915320158005,-0.02190476655960083,0.41066503524780273
1782845429312615200,7.239615234375,-0.03134673833847046,-0.009416138753294945,0.41093188524246216
1782845429322619100,7.249619140625,-0.08760122209787369,0.00797297153621912,0.37801840901374817
1782845429332624100,7.2596240234375,-0.1343809813261032,0.027169302105903625,0.31905999779701233
1782845429342628400,7.26962841796875,-0.17498379945755005,0.04664553329348564,0.2410682737827301
1782845429352633300,7.27963330078125,-0.20750126242637634,0.07647613435983658,0.1636749505996704
1782845429362637300,7.28963720703125,-0.23719443380832672,0.0975116416811943,0.10239774733781815
1782845429372642300,7.299642333984375,-0.26603275537490845,0.10908307880163193,0.06604879349470139
1782845429382646300,7.309646240234375,-0.2907886803150177,0.12431769073009491,0.04415148124098778
1782845429392651300,7.3196513671875,-0.3060038685798645,0.13941408693790436,0.05836157873272896
1782845429402655500,7.329655517578125,-0.3066304922103882,0.13614052534103394,0.07746975868940353
1782845429412660500,7.339660400390625,-0.29649558663368225,0.13292528688907623,0.08864065259695053
1782845429422664200,7.349664306640625,-0.28335580229759216,0.11597240716218948,0.11245357245206833
1782845429432669200,7.359669189453125,-0.26315706968307495,0.0883232057094574,0.12309716641902924
1782845429442674200,7.369674072265625,-0.23447588086128235,0.06514624506235123,0.1332792341709137
1782845429452678100,7.37967822265625,-0.1916613131761551,0.02653813362121582,0.130513533949852
1782845429462683100,7.38968310546875,-0.14104419946670532,-0.01841709017753601,0.1112932339310646
1782845429472687400,7.399687255859375,-0.09784134477376938,-0.05139315128326416,0.09632706642150879
1782845429482692400,7.4096923828125,-0.04957740753889084,-0.08095024526119232,0.0656338706612587
1782845429492696300,7.4196962890625,-0.0027238810434937477,-0.10349789261817932,0.022354308515787125
1782845429502701300,7.429701416015625,0.016995495185256004,-0.1082276701927185,-0.02195882797241211
1782845429512705300,7.439705322265625,0.028112594038248062,-0.10369283705949783,-0.07272081077098846
1782845429522710300,7.449710205078125,0.03527223691344261,-0.10603588819503784,-0.11528504639863968
1782845429532714200,7.45971435546875,0.031751539558172226,-0.09880540519952774,-0.132961243391037
1782845429542719500,7.469719482421875,-0.0004362257895991206,-0.08520970493555069,-0.1318800002336502
1782845429552723200,7.47972314453125,-0.049672480672597885,-0.0694965198636055,-0.11071346700191498
1782845429562728200,7.489728271484375,-0.10562682896852493,-0.05083441734313965,-0.08562275767326355
1782845429572732200,7.499732177734375,-0.16456444561481476,-0.025018267333507538,-0.04836167395114899
1782845429582737200,7.509737060546875,-0.2212975025177002,-0.004462126176804304,0.005201419815421104
1782845429592741400,7.519741455078125,-0.263639360666275,0.013699034228920937,0.05241313949227333
1782845429602746400,7.529746337890625,-0.30604568123817444,0.02527499571442604,0.08939379453659058
1782845429612750300,7.539750244140625,-0.3339689075946808,0.0320865623652935,0.10287311673164368
1782845429622755300,7.54975537109375,-0.36229535937309265,0.024236897006630898,0.1016928032040596
1782845429632759300,7.55975927734375,-0.3840062618255615,0.01932416297495365,0.09125667810440063
1782845429642764300,7.569764404296875,-0.4111870229244232,0.012823919765651226,0.07395731657743454
1782845429652768300,7.579768310546875,-0.4300059676170349,-0.0018580874893814325,0.07487157732248306
1782845429662773200,7.589773193359375,-0.45859819650650024,0.0021638183388859034,0.08552821725606918
1782845429672778200,7.5997783203125,-0.4858364760875702,0.007699997629970312,0.08540678024291992
1782845429682782200,7.6097822265625,-0.5129594206809998,0.00911546777933836,0.079816535115242
1782845429692787200,7.619787109375,-0.5298212766647339,0.01546337828040123,0.07496026158332825
1782845429702791200,7.629791259765625,-0.5392720103263855,0.014940333552658558,0.05858927592635155
1782845429712796200,7.639796142578125,-0.5321312546730042,0.004810201469808817,0.03184235095977783
1782845429722800000,7.649800048828125,-0.5265594124794006,0.006271744146943092,-0.00998898409307003
1782845429732805400,7.659805419921875,-0.5182650089263916,0.010791394859552383,-0.060079317539930344
1782845429742809300,7.669809326171875,-0.5041329264640808,0.012979447841644287,-0.10958002507686615
1782845429752814800,7.67981494140625,-0.4824255108833313,0.024168984964489937,-0.16976507008075714
1782845429762818600,7.689818603515625,-0.4597010016441345,0.03116803988814354,-0.21417354047298431
1782845429772823600,7.699823486328125,-0.4241164028644562,0.04481806978583336,-0.2589074671268463
1782845429782827500,7.70982763671875,-0.3797784745693207,0.05891657993197441,-0.2953837215900421
1782845429792832500,7.71983251953125,-0.3475382626056671,0.06441041827201843,-0.3140348792076111
1782845429802836700,7.729836669921875,-0.3160860538482666,0.06369535624980927,-0.32085153460502625
1782845429812841700,7.739841796875,-0.2892051637172699,0.054491735994815826,-0.31401705741882324
1782845429822845700,7.749845703125,-0.27032071352005005,0.047756604850292206,-0.3012397289276123
1782845429832850700,7.7598505859375,-0.2646745443344116,0.048898566514253616,-0.2875007688999176
1782845429842854700,7.769854736328125,-0.2644452452659607,0.046250320971012115,-0.2621104419231415
1782845429852859600,7.779859619140625,-0.2736627161502838,0.04211869090795517,-0.22917699813842773
1782845429862864000,7.78986376953125,-0.2784651815891266,0.03310868516564369,-0.19128847122192383
1782845429872868900,7.799868896484375,-0.2799983620643616,0.025726135820150375,-0.15706898272037506
1782845429882872600,7.80987255859375,-0.27739620208740234,0.013528059236705303,-0.1256205141544342
1782845429892877600,7.819877685546875,-0.26523247361183167,-0.000755805114749819,-0.09204710274934769
1782845429902882600,7.829882568359375,-0.24817731976509094,-0.017960624769330025,-0.05245974659919739
1782845429912886500,7.839886474609375,-0.2322649359703064,-0.03347300365567207,-0.00754979532212019
1782845429922891500,7.8498916015625,-0.23402714729309082,-0.03176778182387352,0.032096683979034424
1782845429932895700,7.859895751953125,-0.22597721219062805,-0.011049455031752586,0.045698512345552444
1782845429942900700,7.869900634765625,-0.20446738600730896,0.002273540711030364,0.04364068806171417
1782845429952904700,7.87990478515625,-0.18197353184223175,0.013154684565961361,0.03263437747955322
1782845429962909700,7.88990966796875,-0.15840375423431396,0.009542105719447136,0.03521311283111572
1782845429972913700,7.89991357421875,-0.127765953540802,-0.012724051252007484,0.05179661884903908
1782845429982918700,7.909918701171875,-0.0991247221827507,-0.042984217405319214,0.06337977200746536
1782845429992923000,7.9199228515625,-0.07132264971733093,-0.07236793637275696,0.07870706170797348
1782845430002927900,7.929927978515625,-0.03904140740633011,-0.09382502734661102,0.09114988148212433
1782845430012931600,7.939931640625,-0.012019378133118153,-0.10625240206718445,0.08945771306753159
1782845430022936600,7.9499365234375,0.008058725856244564,-0.10432080924510956,0.07978431135416031
1782845430032940500,7.9599404296875,0.02636582776904106,-0.09525647759437561,0.07636028528213501
1782845430042945500,7.969945556640625,0.02713601291179657,-0.08830669522285461,0.08865956217050552
1782845430052949800,7.97994970703125,0.02437245100736618,-0.0873924270272255,0.09950155764818192
1782845430062954800,7.989954833984375,0.02719939686357975,-0.09770072996616364,0.10571284592151642
1782845430072958700,7.999958740234375,0.04844982549548149,-0.10921410471200943,0.1063312366604805
1782845430082963700,8.009963623046875,0.07539542019367218,-0.1249975934624672,0.11328394711017609
1782845430092967700,8.0199677734375,0.10906337201595306,-0.1465228646993637,0.14463335275650024
1782845430102972700,8.02997265625,0.12838193774223328,-0.15701544284820557,0.19527415931224823
1782845430112977000,8.039976806640626,0.12947623431682587,-0.16740337014198303,0.26232776045799255
1782845430122982000,8.04998193359375,0.10123127698898315,-0.16571226716041565,0.3004101514816284
1782845430132985600,8.059985595703125,0.04543565958738327,-0.14061729609966278,0.29143691062927246
1782845430142990600,8.069990478515624,-0.0022559636272490025,-0.10471522808074951,0.22059255838394165
1782845430152995600,8.07999560546875,-0.051119908690452576,-0.05795171484351158,0.08379236608743668
1782845430162999600,8.08999951171875,-0.11197100579738617,-0.019776634871959686,-0.12139274179935455
1782845430173004500,8.100004638671875,-0.16978131234645844,0.005307147279381752,-0.35117319226264954
1782845430183008800,8.1100087890625,-0.22443124651908875,-0.0033454629592597485,-0.5611027479171753
1782845430193013800,8.120013671875,-0.2632177770137787,-0.04590650647878647,-0.6821215748786926
1782845430203017700,8.130017822265625,-0.27377748489379883,-0.14430205523967743,-0.6627875566482544
1782845430213022700,8.140022705078126,-0.2684841752052307,-0.27017849683761597,-0.5157509446144104
1782845430223026700,8.150026611328125,-0.2595519423484802,-0.3648586571216583,-0.31083884835243225
1782845430233031700,8.16003173828125,-0.24335086345672607,-0.3979510962963104,-0.10864738374948502
1782845430243036000,8.170035888671874,-0.20703920722007751,-0.38325178623199463,0.07196792960166931
1782845430253041000,8.180041015625,-0.14997299015522003,-0.34936678409576416,0.23958009481430054
1782845430263044600,8.190044677734376,-0.08639054745435715,-0.3232739269733429,0.4003300964832306
1782845430273049600,8.200049560546875,-0.020083431154489517,-0.31499284505844116,0.5417633652687073
1782845430283053600,8.210053466796875,0.04478291794657707,-0.3057335615158081,0.6622706055641174
1782845430293058600,8.22005859375,0.10639435052871704,-0.27101606130599976,0.7592222094535828
1782845430303062800,8.230062744140625,0.15623141825199127,-0.2374221384525299,0.8310122489929199
1782845430313067800,8.24006787109375,0.1985679566860199,-0.2013930380344391,0.8556829690933228
1782845430323071700,8.25007177734375,0.22289806604385376,-0.15265372395515442,0.825996994972229
1782845430333076700,8.26007666015625,0.22829389572143555,-0.10495065152645111,0.7345373630523682
1782845430343080700,8.270080810546874,0.24054495990276337,-0.06219892576336861,0.5990930199623108
1782845430353085700,8.280085693359375,0.23633797466754913,-0.024683242663741112,0.42941048741340637
1782845430363090000,8.29008984375,0.21061423420906067,0.013360812328755856,0.2546927332878113
1782845430373095000,8.300094970703125,0.17898546159267426,0.04242921620607376,0.07845033705234528
1782845430383100000,8.310099853515625,0.15563753247261047,0.05622066184878349,-0.0939432755112648
1782845430393103600,8.320103515625,0.1303739845752716,0.06208654120564461,-0.23476377129554749
1782845430403108600,8.330108642578125,0.12493740767240524,0.054670169949531555,-0.33310580253601074
1782845430413112600,8.340112548828126,0.12467481940984726,0.04162174463272095,-0.40605428814888
1782845430423117600,8.35011767578125,0.1240878626704216,0.026193786412477493,-0.44250819087028503
1782845430433121800,8.360121826171875,0.11984757333993912,0.01098633836954832,-0.44230523705482483
1782845430443126800,8.370126708984374,0.10963967442512512,-0.012085424736142159,-0.4194353520870209
1782845430453130800,8.380130859375,0.09891699254512787,-0.036551885306835175,-0.3716638386249542
1782845430463135700,8.3901357421875,0.08653222769498825,-0.05727021396160126,-0.3048728108406067
1782845430473139700,8.4001396484375,0.08667337894439697,-0.06339068710803986,-0.230167955160141
1782845430483144700,8.410144775390625,0.09397176653146744,-0.06869810074567795,-0.14875511825084686
1782845430493148700,8.420148681640624,0.10615253448486328,-0.05735783278942108,-0.09301009774208069
1782845430503154000,8.43015380859375,0.11660677194595337,-0.040101878345012665,-0.046967774629592896
1782845430513157600,8.44015771484375,0.12624874711036682,-0.024878717958927155,-0.02834988199174404
1782845430523162600,8.45016259765625,0.13247814774513245,-0.00734313391149044,-0.029039375483989716
1782845430533166600,8.46016650390625,0.12957850098609924,-0.0014101437991485,-0.03598489984869957
1782845430543171600,8.470171630859374,0.11264372617006302,0.0005834985640831292,-0.047808267176151276
1782845430553175800,8.48017578125,0.08775834739208221,-0.002341451123356819,-0.0644620805978775
1782845430563180800,8.490180908203126,0.05692560225725174,-0.004001932218670845,-0.09521946310997009
1782845430573184800,8.500184814453124,0.023317573592066765,-0.0036815537605434656,-0.1487189084291458
1782845430583189800,8.510189697265625,-0.01398852001875639,0.008704275824129581,-0.2278193086385727
1782845430593193700,8.52019384765625,-0.06338083744049072,0.01836382783949375,-0.3058669865131378
1782845430603198700,8.53019873046875,-0.11290178447961807,0.025958362966775894,-0.3753725588321686
1782845430613202700,8.54020263671875,-0.15763570368289948,0.02576635032892227,-0.432125061750412
1782845430623207700,8.550207763671875,-0.18707294762134552,0.021149227395653725,-0.4672529399394989
1782845430633212700,8.560212646484375,-0.20038928091526031,0.00866086594760418,-0.48507240414619446
1782845430643216600,8.570216552734376,-0.1855863779783249,0.01197836548089981,-0.4848495125770569
1782845430653221600,8.5802216796875,-0.14775750041007996,0.0033188313245773315,-0.45186758041381836
1782845430663225600,8.5902255859375,-0.10427819937467575,-0.0041396175511181355,-0.3977217972278595
1782845430673230600,8.600230712890625,-0.045040443539619446,-0.012202337384223938,-0.32675468921661377
1782845430683234800,8.61023486328125,0.01950179599225521,-0.0020807278342545033,-0.240627259016037
1782845430693239800,8.62023974609375,0.09457950294017792,0.008809736929833889,-0.15372218191623688
1782845430703243800,8.630243896484375,0.16117344796657562,0.017595238983631134,-0.08135664463043213
1782845430713248800,8.640248779296876,0.21941064298152924,0.022274145856499672,-0.033359020948410034
1782845430723252700,8.650252685546874,0.27801138162612915,0.039808932691812515,-0.014228736981749535
1782845430733257700,8.6602578125,0.3307877779006958,0.05428134649991989,-0.009906427003443241
1782845430743261700,8.67026171875,0.3664208650588989,0.07241587340831757,-0.009823602624237537
1782845430753267200,8.68026708984375,0.3851040005683899,0.08962975442409515,-0.021458420902490616
1782845430763271400,8.690271484375,0.3910926580429077,0.10810703039169312,-0.04764501750469208
1782845430773276400,8.7002763671875,0.3945201337337494,0.11241202801465988,-0.0970623642206192
1782845430783280400,8.7102802734375,0.3893815875053406,0.1099986732006073,-0.14442749321460724
1782845430793285400,8.720285400390624,0.379116952419281,0.09884881228208542,-0.18665537238121033
1782845430803289300,8.730289306640625,0.3597499132156372,0.07695256918668747,-0.21380789577960968
1782845430813294300,8.74029443359375,0.3405493199825287,0.049196574836969376,-0.22580330073833466
1782845430823298300,8.75029833984375,0.3242933750152588,0.020607007667422295,-0.23235175013542175
1782845430833303300,8.76030322265625,0.3117744028568268,0.006791327148675919,-0.2355978786945343
1782845430843307300,8.770307373046874,0.30002665519714355,-0.009852897375822067,-0.2250184714794159
1782845430853312300,8.780312255859375,0.29330164194107056,-0.021162543445825577,-0.19295933842658997
1782845430863317200,8.790317138671876,0.27531784772872925,-0.02437484823167324,-0.15208832919597626
1782845430873321200,8.8003212890625,0.262029230594635,-0.03558169677853584,-0.11391165107488632
1782845430883326200,8.810326171875,0.251944899559021,-0.03680648282170296,-0.11108630895614624
1782845430893330400,8.820330322265624,0.26051095128059387,-0.03887948766350746,-0.09874415397644043
1782845430903335400,8.83033544921875,0.2669973373413086,-0.01780056767165661,-0.06971489638090134
1782845430913339400,8.84033935546875,0.27689898014068604,0.020982246845960617,-0.02713414840400219
1782845430923344400,8.850344482421875,0.29734912514686584,0.06360001116991043,0.026936275884509087
1782845430933348400,8.860348388671875,0.3104228377342224,0.11163865029811859,0.08045622706413269
1782845430943353300,8.870353271484374,0.33586376905441284,0.14487037062644958,0.10459405183792114
1782845430953357300,8.880357421875,0.37063533067703247,0.19033531844615936,0.13958773016929626
1782845430963362300,8.8903623046875,0.39090731739997864,0.15572701394557953,0.12678350508213043
1782845430973366300,8.9003662109375,0.4533720016479492,0.055684033781290054,0.04940376803278923
1782845430983371300,8.910371337890625,0.5169634819030762,-0.012054531835019588,-0.007440872024744749
1782845430993375200,8.920375244140626,0.5648974776268005,-0.027046265080571175,0.009080047719180584
1782845431003380200,8.930380126953125,0.5716493725776672,-0.020564664155244827,0.06162102147936821
1782845431013384400,8.940384521484376,0.5623959898948669,0.01631479151546955,0.09799021482467651
1782845431023389400,8.950389404296875,0.560227632522583,0.04067765548825264,0.12151231616735458
