time,seconds_elapsed,z,y,x
1782846399105395200,0.063395263671875,-1.0075225830078125,-0.021087646484375,-0.000152587890625
1782846399115400200,0.073400146484375,-0.9886932373046875,-0.02117919921875,0.003662109375
1782846399125405200,0.0834052734375,-0.9755706787109375,-0.0230712890625,0.0065460205078125
1782846399135410400,0.093410400390625,-0.993896484375,-0.0198822021484375,0.0016632080078125
1782846399145414400,0.103414306640625,-1.0004425048828125,-0.0197601318359375,0.0023956298828125
1782846399155419400,0.11341943359375,-0.98748779296875,-0.02166748046875,0.00518798828125
1782846399165424400,0.12342431640625,-0.9844818115234375,-0.02117919921875,0.0048675537109375
1782846399175429400,0.133429443359375,-0.9963226318359375,-0.0202178955078125,0.0021820068359375
1782846399185434400,0.143434326171875,-0.9968109130859375,-0.0213623046875,0.0015411376953125
1782846399195439400,0.153439453125,-0.986236572265625,-0.02001953125,0.0031280517578125
1782846399205444400,0.1634443359375,-0.9872283935546875,-0.0218963623046875,0.0040435791015625
1782846399215449300,0.173449462890625,-0.993896484375,-0.020843505859375,-0.0006561279296875
1782846399225454300,0.183454345703125,-0.9935150146484375,-0.02178955078125,0.0020904541015625
1782846399235459300,0.193459228515625,-0.9874420166015625,-0.023468017578125,0.003448486328125
1782846399245464300,0.20346435546875,-0.988128662109375,-0.0213775634765625,0.0027618408203125
1782846399255468300,0.21346826171875,-0.993438720703125,-0.0208892822265625,0.001739501953125
1782846399265473300,0.223473388671875,-0.993255615234375,-0.0207366943359375,0.0033111572265625
1782846399275478300,0.233478271484375,-0.988525390625,-0.0211181640625,0.00555419921875
1782846399285483300,0.243483154296875,-0.9896392822265625,-0.021636962890625,0.004852294921875
1782846399295488300,0.25348828125,-0.992431640625,-0.0212249755859375,0.002960205078125
1782846399305493200,0.2634931640625,-0.990234375,-0.0228729248046875,0.003143310546875
1782846399315498200,0.273498291015625,-0.989654541015625,-0.0206146240234375,0.0034637451171875
1782846399325503200,0.283503173828125,-0.99188232421875,-0.0207366943359375,0.003143310546875
1782846399335508200,0.29350830078125,-0.99267578125,-0.0217132568359375,0.002716064453125
1782846399345513200,0.30351318359375,-0.990814208984375,-0.0232696533203125,0.0028228759765625
1782846399355517400,0.313517333984375,-0.989959716796875,-0.0226287841796875,0.0027008056640625
1782846399365522400,0.3235224609375,-0.99310302734375,-0.0213775634765625,0.0018768310546875
1782846399375527400,0.33352734375,-0.9905548095703125,-0.021270751953125,0.00177001953125
1782846399385532400,0.343532470703125,-0.9901885986328125,-0.0205230712890625,0.0034637451171875
1782846399395537400,0.353537353515625,-0.9904937744140625,-0.0206451416015625,0.003448486328125
1782846399405542400,0.36354248046875,-0.9921875,-0.0217132568359375,0.0033111572265625
1782846399415547400,0.37354736328125,-0.99066162109375,-0.0205078125,0.0029144287109375
1782846399425552400,0.383552490234375,-0.990234375,-0.0208282470703125,0.002532958984375
1782846399435557400,0.393557373046875,-0.99176025390625,-0.0211944580078125,0.003448486328125
1782846399445562400,0.403562255859375,-0.991119384765625,-0.0213775634765625,0.003143310546875
1782846399455567400,0.4135673828125,-0.99053955078125,-0.0220184326171875,0.0028839111328125
1782846399465571300,0.4235712890625,-0.9900360107421875,-0.0215606689453125,0.0038909912109375
1782846399475576300,0.433576416015625,-0.9907684326171875,-0.0221710205078125,0.00433349609375
1782846399485581300,0.443581298828125,-0.990478515625,-0.022003173828125,0.005126953125
1782846399495586300,0.45358642578125,-0.9897918701171875,-0.02203369140625,0.0030517578125
1782846399505591300,0.46359130859375,-0.990692138671875,-0.0225830078125,0.00408935546875
1782846399515596300,0.47359619140625,-0.9915008544921875,-0.021270751953125,0.003662109375
1782846399525601300,0.483601318359375,-0.9901580810546875,-0.021759033203125,0.0023193359375
1782846399535606300,0.493606201171875,-0.9892578125,-0.021026611328125,0.0022125244140625
1782846399545611300,0.503611328125,-0.990081787109375,-0.0206756591796875,0.00274658203125
1782846399555616300,0.5136162109375,-0.9907379150390625,-0.020751953125,0.0033416748046875
1782846399565621500,0.52362158203125,-0.991119384765625,-0.021453857421875,0.002685546875
1782846399575625200,0.533625244140625,-0.9913177490234375,-0.0203704833984375,0.003387451171875
1782846399585630200,0.543630126953125,-0.9908294677734375,-0.02099609375,0.002838134765625
1782846399595635200,0.55363525390625,-0.991455078125,-0.021728515625,0.0034332275390625
1782846399605640200,0.56364013671875,-0.9907073974609375,-0.0214080810546875,0.0020751953125
1782846399615645200,0.573645263671875,-0.9908294677734375,-0.022308349609375,0.0017547607421875
1782846399625650200,0.583650146484375,-0.9904022216796875,-0.0197906494140625,0.002044677734375
1782846399635655400,0.593655517578125,-0.9908905029296875,-0.0211639404296875,0.0048675537109375
1782846399645660400,0.603660400390625,-0.9907989501953125,-0.0208892822265625,0.002685546875
1782846399655665400,0.61366552734375,-0.9914398193359375,-0.0207977294921875,0.0032501220703125
1782846399665670400,0.62367041015625,-0.9893646240234375,-0.021484375,0.0032806396484375
1782846399675676200,0.63367626953125,-0.99053955078125,-0.0223236083984375,0.0041961669921875
1782846399685680000,0.64368017578125,-0.9903106689453125,-0.020660400390625,0.0037689208984375
1782846399695685000,0.65368505859375,-0.99114990234375,-0.0209197998046875,0.00347900390625
1782846399705690000,0.663690185546875,-0.9911956787109375,-0.0207977294921875,0.0018768310546875
1782846399715695000,0.673695068359375,-0.9894256591796875,-0.0211181640625,0.001739501953125
1782846399725700000,0.6837001953125,-0.990814208984375,-0.02117919921875,0.000396728515625
1782846399735705000,0.693705078125,-0.9906463623046875,-0.0209808349609375,0.00164794921875
1782846399745710000,0.7037099609375,-0.99102783203125,-0.021759033203125,0.0035858154296875
1782846399755715000,0.713715087890625,-0.9900054931640625,-0.0220184326171875,0.003509521484375
1782846399765720000,0.723719970703125,-0.989471435546875,-0.022308349609375,0.0017547607421875
1782846399775725000,0.73372509765625,-0.9898834228515625,-0.02008056640625,0.003448486328125
1782846399785730000,0.74372998046875,-0.9912109375,-0.020538330078125,0.0034332275390625
1782846399795734000,0.753734130859375,-0.99066162109375,-0.02154541015625,0.00189208984375
1782846399805739000,0.763739013671875,-0.9906158447265625,-0.0205841064453125,0.0030059814453125
1782846399815744000,0.773743896484375,-0.9907989501953125,-0.022369384765625,0.002532958984375
1782846399825749000,0.7837490234375,-0.9912109375,-0.02099609375,0.0035247802734375
1782846399835754000,0.79375390625,-0.989898681640625,-0.0218048095703125,0.0019073486328125
1782846399845759200,0.80375927734375,-0.99163818359375,-0.023040771484375,0.0031280517578125
1782846399855764200,0.81376416015625,-0.9912567138671875,-0.0230865478515625,0.00457763671875
1782846399865769200,0.823769287109375,-0.9918670654296875,-0.0227508544921875,0.0035552978515625
1782846399875774200,0.833774169921875,-0.990570068359375,-0.0221405029296875,0.0020751953125
1782846399885779200,0.843779296875,-0.992645263671875,-0.0224609375,0.00421142578125
1782846399895784200,0.8537841796875,-0.9909820556640625,-0.0224761962890625,0.0021514892578125
1782846399905788000,0.863787841796875,-0.9891357421875,-0.0225372314453125,0.003204345703125
1782846399915793000,0.87379296875,-0.989471435546875,-0.0220794677734375,0.00225830078125
1782846399925798000,0.8837978515625,-0.9916839599609375,-0.0213775634765625,0.0030670166015625
1782846399935803000,0.893802978515625,-0.9914398193359375,-0.020843505859375,0.002288818359375
1782846399945808000,0.903807861328125,-0.9911346435546875,-0.0208282470703125,0.00201416015625
1782846399955812900,0.913812744140625,-0.9910736083984375,-0.019989013671875,0.00335693359375
1782846399965817900,0.92381787109375,-0.990020751953125,-0.0210113525390625,0.0018463134765625
1782846399975822800,0.93382275390625,-0.9900054931640625,-0.0228271484375,0.0031585693359375
1782846399985827800,0.943827880859375,-0.9917755126953125,-0.020294189453125,0.003662109375
1782846399995832800,0.953832763671875,-0.990997314453125,-0.02099609375,0.002166748046875
1782846400005837800,0.963837890625,-0.9913177490234375,-0.0226287841796875,0.0027923583984375
1782846400015842000,0.973842041015625,-0.9907073974609375,-0.0218505859375,0.0031890869140625
1782846400025847000,0.983846923828125,-0.990936279296875,-0.0218658447265625,0.003631591796875
1782846400035852000,0.99385205078125,-0.990631103515625,-0.02215576171875,0.0034332275390625
1782846400045857000,1.00385693359375,-0.9902496337890625,-0.0218505859375,0.0033111572265625
1782846400055862000,1.013862060546875,-0.9912261962890625,-0.0216064453125,0.0023956298828125
1782846400065867000,1.023866943359375,-0.99188232421875,-0.02117919921875,0.0040130615234375
1782846400075872000,1.0338720703125,-0.9925994873046875,-0.02166748046875,0.0033416748046875
1782846400085877000,1.043876953125,-0.991302490234375,-0.02117919921875,0.003753662109375
1782846400095882000,1.053882080078125,-0.9901885986328125,-0.0219268798828125,0.003753662109375
1782846400105887000,1.063886962890625,-0.9902496337890625,-0.021636962890625,0.002655029296875
1782846400115891000,1.073890869140625,-0.9911346435546875,-0.0211944580078125,0.0019683837890625
1782846400125896000,1.08389599609375,-0.9897613525390625,-0.0207977294921875,0.0027313232421875
1782846400135901000,1.09390087890625,-0.990936279296875,-0.0205230712890625,0.0015411376953125
1782846400145906000,1.103906005859375,-0.9926300048828125,-0.021026611328125,0.0019989013671875
1782846400155911000,1.113910888671875,-0.9911041259765625,-0.020721435546875,0.003936767578125
1782846400165916000,1.123916015625,-0.990753173828125,-0.02099609375,0.0048828125
1782846400175921000,1.1339208984375,-0.9906463623046875,-0.020965576171875,0.0027008056640625
1782846400185926000,1.14392578125,-0.9906005859375,-0.020751953125,0.0030517578125
1782846400195931000,1.153930908203125,-0.989654541015625,-0.0212554931640625,0.00299072265625
1782846400205935900,1.163935791015625,-0.991943359375,-0.0224456787109375,0.0032196044921875
1782846400215940900,1.17394091796875,-0.990447998046875,-0.0224456787109375,0.001007080078125
1782846400225945900,1.18394580078125,-0.990478515625,-0.020965576171875,0.0032196044921875
1782846400235950000,1.1939501953125,-0.991241455078125,-0.0212554931640625,0.0034637451171875
1782846400245955000,1.203955078125,-0.9903411865234375,-0.0214691162109375,0.00421142578125
1782846400255960000,1.2139599609375,-0.989837646484375,-0.0214080810546875,0.0041656494140625
1782846400265965000,1.223965087890625,-0.991729736328125,-0.022674560546875,0.0031890869140625
1782846400275970000,1.233969970703125,-0.9912261962890625,-0.022674560546875,0.00274658203125
1782846400285975000,1.24397509765625,-0.990478515625,-0.0219268798828125,0.00286865234375
1782846400295980000,1.25397998046875,-0.9919891357421875,-0.0217742919921875,0.0032958984375
1782846400305985000,1.263985107421875,-0.9903564453125,-0.0210723876953125,0.002593994140625
1782846400315990000,1.273989990234375,-0.98968505859375,-0.023101806640625,0.0038604736328125
1782846400325995000,1.2839951171875,-0.990234375,-0.0216217041015625,0.0029449462890625
1782846400335999000,1.2939990234375,-0.990966796875,-0.020355224609375,0.001800537109375
1782846400346004000,1.30400390625,-0.9930572509765625,-0.0196380615234375,0.0017242431640625
1782846400356009000,1.314009033203125,-0.9917144775390625,-0.02081298828125,0.0011444091796875
1782846400366014000,1.324013916015625,-0.9909210205078125,-0.020111083984375,0.0018463134765625
1782846400376019000,1.33401904296875,-0.9892425537109375,-0.0220184326171875,0.003265380859375
1782846400386024000,1.34402392578125,-0.990875244140625,-0.022247314453125,0.0025787353515625
1782846400396029000,1.35402880859375,-0.991119384765625,-0.021484375,0.002838134765625
1782846400406034000,1.364033935546875,-0.991607666015625,-0.0218963623046875,0.000946044921875
1782846400416039000,1.374038818359375,-0.9912109375,-0.021240234375,0.0012664794921875
1782846400426044000,1.3840439453125,-0.989501953125,-0.02142333984375,0.002655029296875
1782846400436049000,1.394048828125,-0.9899749755859375,-0.0206756591796875,0.002044677734375
1782846400446054000,1.404053955078125,-0.9909515380859375,-0.020172119140625,0.0027008056640625
1782846400456058000,1.41405810546875,-0.99163818359375,-0.0222320556640625,0.001068115234375
1782846400466063000,1.42406298828125,-0.9882965087890625,-0.0209808349609375,0.0013427734375
1782846400476068000,1.434068115234375,-0.99090576171875,-0.020477294921875,0.002166748046875
1782846400486073000,1.444072998046875,-0.990631103515625,-0.0214996337890625,0.00244140625
1782846400496078000,1.454078125,-0.9894256591796875,-0.0208740234375,0.0010833740234375
1782846400506083000,1.4640830078125,-0.9906463623046875,-0.0207061767578125,0.003173828125
1782846400516088000,1.474088134765625,-0.9896697998046875,-0.021820068359375,0.0021820068359375
1782846400526093000,1.484093017578125,-0.990386962890625,-0.0225830078125,0.0012969970703125
1782846400536098000,1.49409814453125,-0.990692138671875,-0.021148681640625,0.002349853515625
1782846400546103000,1.50410302734375,-0.990997314453125,-0.0206298828125,0.004486083984375
1782846400556107000,1.51410693359375,-0.990875244140625,-0.0208892822265625,0.0031280517578125
1782846400566112000,1.524112060546875,-0.9911651611328125,-0.021514892578125,0.002044677734375
1782846400576117000,1.534116943359375,-0.9917755126953125,-0.022186279296875,0.004974365234375
1782846400586122000,1.5441220703125,-0.991455078125,-0.022705078125,0.00244140625
1782846400596127000,1.554126953125,-0.9918212890625,-0.0220489501953125,0.002227783203125
1782846400606132000,1.564132080078125,-0.991607666015625,-0.0223388671875,0.002105712890625
1782846400616137000,1.574136962890625,-0.989288330078125,-0.02001953125,0.0024566650390625
1782846400626142000,1.584141845703125,-0.9905548095703125,-0.0223541259765625,0.0012664794921875
1782846400636147000,1.59414697265625,-0.989837646484375,-0.0218658447265625,0.002288818359375
1782846400646152000,1.60415185546875,-0.990447998046875,-0.020294189453125,0.0034942626953125
1782846400656157000,1.614156982421875,-0.9905242919921875,-0.020782470703125,0.0033111572265625
1782846400666161200,1.6241611328125,-0.990142822265625,-0.021514892578125,0.0056610107421875
1782846400676165600,1.63416552734375,-0.9917449951171875,-0.0199432373046875,0.0032958984375
1782846400686170600,1.644170654296875,-0.9911041259765625,-0.022125244140625,0.001220703125
1782846400696175600,1.654175537109375,-0.989501953125,-0.021636962890625,0.003021240234375
1782846400706180600,1.6641806640625,-0.99151611328125,-0.0203094482421875,0.003143310546875
1782846400716185600,1.674185546875,-0.991485595703125,-0.02178955078125,0.001953125
1782846400726190600,1.684190673828125,-0.99053955078125,-0.022552490234375,0.00213623046875
1782846400736195600,1.694195556640625,-0.99066162109375,-0.020416259765625,0.004150390625
1782846400746200600,1.70420068359375,-0.989166259765625,-0.02117919921875,0.0042877197265625
1782846400756205600,1.71420556640625,-0.992034912109375,-0.0211181640625,0.0043487548828125
1782846400766210600,1.72421044921875,-0.9911346435546875,-0.021026611328125,0.0033721923828125
1782846400776214500,1.734214599609375,-0.990234375,-0.021759033203125,0.0004730224609375
1782846400786219500,1.744219482421875,-0.9913482666015625,-0.0216522216796875,0.0032806396484375
1782846400796224500,1.754224609375,-0.9906768798828125,-0.021514892578125,0.0033416748046875
1782846400806229500,1.7642294921875,-0.9891204833984375,-0.022430419921875,0.00152587890625
1782846400816234500,1.774234375,-0.9911041259765625,-0.0218048095703125,0.0028839111328125
1782846400826239500,1.784239501953125,-0.990081787109375,-0.0216827392578125,0.002227783203125
1782846400836244500,1.794244384765625,-0.9901885986328125,-0.021209716796875,0.0016021728515625
1782846400846249500,1.80424951171875,-0.9894866943359375,-0.0207977294921875,0.001922607421875
1782846400856254500,1.81425439453125,-0.99029541015625,-0.0213775634765625,0.00177001953125
1782846400866259500,1.824259521484375,-0.9919586181640625,-0.0220184326171875,0.003753662109375
1782846400876264400,1.834264404296875,-0.99072265625,-0.0203704833984375,0.0029754638671875
1782846400886268700,1.8442685546875,-0.99114990234375,-0.0221405029296875,0.0042572021484375
1782846400896273700,1.854273681640625,-0.991973876953125,-0.0212860107421875,0.003662109375
1782846400906278700,1.864278564453125,-0.988555908203125,-0.020843505859375,0.002593994140625
1782846400916283600,1.87428369140625,-0.9896392822265625,-0.0221405029296875,0.0025482177734375
1782846400926288600,1.88428857421875,-0.9914703369140625,-0.0218353271484375,0.004425048828125
1782846400936293600,1.894293701171875,-0.9893341064453125,-0.0220947265625,0.0027313232421875
1782846400946298600,1.904298583984375,-0.9890594482421875,-0.022064208984375,0.002532958984375
1782846400956303600,1.9143037109375,-0.990142822265625,-0.0205230712890625,0.0039520263671875
1782846400966308600,1.92430859375,-0.9904937744140625,-0.02215576171875,0.0033721923828125
1782846400976313600,1.934313720703125,-0.9904632568359375,-0.021697998046875,0.0036773681640625
1782846400986318600,1.944318603515625,-0.9902191162109375,-0.020172119140625,0.00335693359375
1782846400996322600,1.954322509765625,-0.988983154296875,-0.0214691162109375,0.00262451171875
1782846401006327600,1.96432763671875,-0.9902191162109375,-0.0207672119140625,0.0039825439453125
1782846401016332500,1.97433251953125,-0.9903564453125,-0.0209197998046875,0.0032501220703125
1782846401026337500,1.984337646484375,-0.9900360107421875,-0.022125244140625,0.003143310546875
1782846401036342500,1.994342529296875,-0.989532470703125,-0.0219268798828125,0.0025787353515625
1782846401046347500,2.004347412109375,-0.9904327392578125,-0.0222930908203125,0.0037841796875
1782846401056352500,2.0143525390625,-0.9908447265625,-0.02105712890625,0.004486083984375
1782846401066357500,2.024357421875,-0.991851806640625,-0.02142333984375,0.001983642578125
1782846401076362500,2.034362548828125,-0.98980712890625,-0.0212554931640625,0.001556396484375
1782846401086367500,2.044367431640625,-0.9906005859375,-0.022064208984375,0.0031890869140625
1782846401096372500,2.05437255859375,-0.9896240234375,-0.0208282470703125,0.00201416015625
1782846401106376700,2.064376708984375,-0.9906768798828125,-0.0205230712890625,0.00250244140625
1782846401116381700,2.074381591796875,-0.99114990234375,-0.02093505859375,0.0017547607421875
1782846401126386700,2.08438671875,-0.9908905029296875,-0.0200347900390625,0.001678466796875
1782846401136391700,2.0943916015625,-0.991363525390625,-0.021392822265625,0.0015869140625
1782846401146396700,2.104396728515625,-0.9895477294921875,-0.0217742919921875,0.0027313232421875
1782846401156401700,2.114401611328125,-0.9888763427734375,-0.021453857421875,0.002532958984375
1782846401166406700,2.12440673828125,-0.9899444580078125,-0.0208282470703125,0.002777099609375
1782846401176411600,2.13441162109375,-0.990478515625,-0.0212249755859375,0.0034942626953125
1782846401186416600,2.144416748046875,-0.989715576171875,-0.02069091796875,0.002716064453125
1782846401196421600,2.154421630859375,-0.9909210205078125,-0.0216064453125,0.0029144287109375
1782846401206426600,2.164426513671875,-0.9902496337890625,-0.023101806640625,0.0038299560546875
1782846401216430600,2.1744306640625,-0.990447998046875,-0.0213470458984375,0.00439453125
1782846401226435600,2.184435546875,-0.9910430908203125,-0.02130126953125,0.0035400390625
1782846401236440600,2.194440673828125,-0.991302490234375,-0.021453857421875,0.00311279296875
1782846401246445600,2.204445556640625,-0.99102783203125,-0.021087646484375,0.0036163330078125
1782846401256450600,2.214450439453125,-0.9907989501953125,-0.02099609375,0.004119873046875
1782846401266455600,2.22445556640625,-0.9898529052734375,-0.0208892822265625,0.0029449462890625
1782846401276460500,2.23446044921875,-0.9910125732421875,-0.0204315185546875,0.0030364990234375
1782846401286465500,2.244465576171875,-0.9915008544921875,-0.0209503173828125,0.0024261474609375
1782846401296470500,2.254470458984375,-0.9903564453125,-0.021392822265625,0.0019683837890625
1782846401306475500,2.2644755859375,-0.9911041259765625,-0.0222930908203125,0.0020294189453125
1782846401316479700,2.274479736328125,-0.990447998046875,-0.0223388671875,0.003662109375
1782846401326484700,2.284484619140625,-0.9893951416015625,-0.021087646484375,0.002838134765625
1782846401336489700,2.29448974609375,-0.991241455078125,-0.02069091796875,0.003204345703125
1782846401346494700,2.30449462890625,-0.9906158447265625,-0.021697998046875,0.005279541015625
1782846401356499700,2.314499755859375,-0.989166259765625,-0.02142333984375,0.0042572021484375
1782846401366504700,2.324504638671875,-0.991058349609375,-0.021759033203125,0.0023193359375
1782846401376509700,2.334509765625,-0.9915008544921875,-0.0218505859375,0.003021240234375
1782846401386514700,2.3445146484375,-0.9915924072265625,-0.022430419921875,0.0027313232421875
1782846401396519700,2.354519775390625,-0.9919891357421875,-0.0204315185546875,0.0036468505859375
1782846401406524700,2.364524658203125,-0.989227294921875,-0.0195770263671875,0.00164794921875
1782846401416529700,2.37452978515625,-0.989654541015625,-0.0208740234375,0.0026092529296875
1782846401426534700,2.38453466796875,-0.9901580810546875,-0.0225982666015625,0.003448486328125
1782846401436538600,2.39453857421875,-0.990814208984375,-0.0206451416015625,0.0035552978515625
1782846401446543600,2.404543701171875,-0.9919586181640625,-0.021575927734375,0.0022125244140625
1782846401456548600,2.414548583984375,-0.99102783203125,-0.022186279296875,0.0010223388671875
1782846401466553600,2.4245537109375,-0.9898529052734375,-0.0215606689453125,0.003326416015625
1782846401476558600,2.43455859375,-0.99005126953125,-0.0205535888671875,0.003662109375
1782846401486563600,2.4445634765625,-0.99029541015625,-0.0213623046875,0.003326416015625
1782846401496568600,2.454568603515625,-0.9915771484375,-0.020751953125,0.0029144287109375
1782846401506573600,2.464573486328125,-0.991119384765625,-0.021881103515625,0.0017852783203125
1782846401516578600,2.47457861328125,-0.99066162109375,-0.0221099853515625,0.003448486328125
1782846401526583600,2.48458349609375,-0.9914398193359375,-0.022003173828125,0.0030670166015625
1782846401536587800,2.494587890625,-0.98822021484375,-0.02130126953125,0.0015869140625
1782846401546592800,2.5045927734375,-0.99114990234375,-0.022216796875,0.0037078857421875
1782846401556597800,2.51459765625,-0.990966796875,-0.0223388671875,0.003509521484375
1782846401566602800,2.524602783203125,-0.99139404296875,-0.0218658447265625,0.0048370361328125
1782846401576607700,2.534607666015625,-0.9915008544921875,-0.0218963623046875,0.002716064453125
1782846401586612700,2.54461279296875,-0.9922637939453125,-0.0216064453125,0.0039520263671875
1782846401596617700,2.55461767578125,-0.9904022216796875,-0.0222320556640625,0.0035400390625
1782846401606622700,2.564622802734375,-0.9898529052734375,-0.021270751953125,0.00286865234375
1782846401616627700,2.574627685546875,-0.991455078125,-0.021942138671875,0.00189208984375
1782846401626632700,2.5846328125,-0.9906768798828125,-0.0190887451171875,0.0020904541015625
1782846401636637700,2.5946376953125,-0.992095947265625,-0.0214385986328125,0.001953125
1782846401646641700,2.6046416015625,-0.9905853271484375,-0.020111083984375,0.0032501220703125
1782846401656646700,2.614646728515625,-0.990020751953125,-0.0208892822265625,0.00311279296875
1782846401666651600,2.624651611328125,-0.9902496337890625,-0.020751953125,0.0043487548828125
1782846401676656000,2.63465625,-0.9902801513671875,-0.0206298828125,0.0015869140625
1782846401686661000,2.6446611328125,-0.991180419921875,-0.0202178955078125,0.0024871826171875
1782846401696666400,2.654666259765625,-0.9906158447265625,-0.0201873779296875,0.0025177001953125
1782846401706671400,2.66467138671875,-0.9901885986328125,-0.02117919921875,0.0028839111328125
1782846401716676400,2.67467626953125,-0.99176025390625,-0.0216827392578125,0.0021514892578125
1782846401726681300,2.684681396484375,-0.991607666015625,-0.02288818359375,0.002899169921875
1782846401736686300,2.694686279296875,-0.9906463623046875,-0.02093505859375,0.00439453125
1782846401746691300,2.70469140625,-0.99066162109375,-0.0209808349609375,0.003662109375
1782846401756695300,2.7146953125,-0.99212646484375,-0.0213623046875,0.0042724609375
1782846401766700300,2.7247001953125,-0.990478515625,-0.0216522216796875,0.0041656494140625
1782846401776705300,2.734705322265625,-0.9914093017578125,-0.02093505859375,0.0033721923828125
1782846401786710300,2.744710205078125,-0.99078369140625,-0.02154541015625,0.0038909912109375
1782846401796715300,2.75471533203125,-0.991424560546875,-0.020965576171875,0.0042572021484375
1782846401806720300,2.76472021484375,-0.9902496337890625,-0.0219268798828125,0.0028533935546875
1782846401816725200,2.774725341796875,-0.9908905029296875,-0.021759033203125,0.00360107421875
1782846401826730200,2.784730224609375,-0.9908447265625,-0.0216217041015625,0.0025482177734375
1782846401836735200,2.7947353515625,-0.991363525390625,-0.02178955078125,0.0019378662109375
1782846401846740200,2.804740234375,-0.9903717041015625,-0.02178955078125,0.0027618408203125
1782846401856744200,2.814744140625,-0.990692138671875,-0.0218048095703125,0.0028228759765625
1782846401866749200,2.824749267578125,-0.991241455078125,-0.0208587646484375,0.003173828125
1782846401876754200,2.834754150390625,-0.990753173828125,-0.0204620361328125,0.0030670166015625
1782846401886759200,2.84475927734375,-0.990509033203125,-0.019317626953125,0.0026397705078125
1782846401896764200,2.85476416015625,-0.991729736328125,-0.02142333984375,0.002716064453125
1782846401906769200,2.86476904296875,-0.9903106689453125,-0.0218963623046875,0.0048675537109375
1782846401916774400,2.8747744140625,-0.9913177490234375,-0.0195465087890625,0.0036468505859375
1782846401926779400,2.884779296875,-0.989990234375,-0.0195159912109375,0.002838134765625
1782846401936784400,2.894784423828125,-0.9904632568359375,-0.0200958251953125,0.00128173828125
1782846401946789400,2.904789306640625,-0.990875244140625,-0.021240234375,0.003875732421875
1782846401956794400,2.91479443359375,-0.989593505859375,-0.02105712890625,0.0033721923828125
1782846401966798300,2.92479833984375,-0.9897003173828125,-0.0215606689453125,0.0046539306640625
1782846401976803300,2.93480322265625,-0.991455078125,-0.021484375,0.00396728515625
1782846401986808300,2.944808349609375,-0.990234375,-0.0220489501953125,0.0027313232421875
1782846401996813300,2.954813232421875,-0.991424560546875,-0.0209197998046875,0.0026092529296875
1782846402006818300,2.964818359375,-0.99169921875,-0.0200347900390625,0.0035552978515625
1782846402016823300,2.9748232421875,-0.9907379150390625,-0.0205841064453125,0.0033111572265625
1782846402026828300,2.984828369140625,-0.9907379150390625,-0.0211029052734375,0.0035400390625
1782846402036833300,2.994833251953125,-0.990142822265625,-0.021148681640625,0.0022125244140625
1782846402046838300,3.00483837890625,-0.9930572509765625,-0.0213775634765625,0.0034332275390625
1782846402056843300,3.01484326171875,-0.99395751953125,-0.02313232421875,0.003509521484375
1782846402066847000,3.024846923828125,-0.990081787109375,-0.02178955078125,0.00433349609375
1782846402076852000,3.03485205078125,-0.9906158447265625,-0.021942138671875,0.0028076171875
1782846402086857200,3.044857177734375,-0.9915924072265625,-0.0209808349609375,0.003387451171875
1782846402096862200,3.0548623046875,-0.9906158447265625,-0.02191162109375,0.0032806396484375
1782846402106867200,3.0648671875,-0.9896087646484375,-0.022857666015625,0.003021240234375
1782846402116872200,3.0748720703125,-0.9903106689453125,-0.0209808349609375,0.001800537109375
1782846402126877200,3.084877197265625,-0.98974609375,-0.021240234375,0.004119873046875
1782846402136882400,3.09488232421875,-0.9898681640625,-0.0227813720703125,0.0032806396484375
1782846402146887400,3.104887451171875,-0.99090576171875,-0.02203369140625,0.0027008056640625
1782846402156892400,3.114892333984375,-0.991607666015625,-0.0218048095703125,0.003753662109375
1782846402166897400,3.1248974609375,-0.990692138671875,-0.021575927734375,0.002716064453125
1782846402176901000,3.134901123046875,-0.990936279296875,-0.0220184326171875,0.00396728515625
1782846402186906000,3.144906005859375,-0.9899139404296875,-0.0218353271484375,0.0047149658203125
1782846402196911000,3.1549111328125,-0.98907470703125,-0.0220489501953125,0.0021209716796875
1782846402206916000,3.164916015625,-0.9913482666015625,-0.0211639404296875,0.0031585693359375
1782846402216921000,3.174921142578125,-0.99066162109375,-0.0210113525390625,0.0040130615234375
1782846402226926000,3.184926025390625,-0.9909820556640625,-0.020751953125,0.0042877197265625
1782846402236931000,3.19493115234375,-0.9913330078125,-0.0207061767578125,0.00299072265625
1782846402246936000,3.20493603515625,-0.9910888671875,-0.020965576171875,0.0022735595703125
1782846402256941300,3.21494140625,-0.990142822265625,-0.0211181640625,0.0021209716796875
1782846402266946300,3.2249462890625,-0.9908905029296875,-0.0209808349609375,0.0022430419921875
1782846402276950000,3.234949951171875,-0.9910888671875,-0.0220184326171875,0.0020599365234375
1782846402286955000,3.244955078125,-0.989837646484375,-0.02264404296875,0.0037078857421875
1782846402296960000,3.2549599609375,-0.991912841796875,-0.0205078125,0.003509521484375
1782846402306965000,3.264965087890625,-0.99224853515625,-0.0219268798828125,0.00360107421875
1782846402316970000,3.274969970703125,-0.991058349609375,-0.02130126953125,0.0034332275390625
1782846402326975200,3.284975341796875,-0.9908294677734375,-0.0212554931640625,0.0024566650390625
1782846402336980200,3.294980224609375,-0.9911956787109375,-0.021820068359375,0.00189208984375
1782846402346985200,3.304985107421875,-0.9921112060546875,-0.0210113525390625,0.0020599365234375
1782846402356990200,3.314990234375,-0.9905242919921875,-0.020599365234375,0.0033111572265625
1782846402366995200,3.3249951171875,-0.989349365234375,-0.02239990234375,0.00433349609375
1782846402377000200,3.335000244140625,-0.98919677734375,-0.0216064453125,0.0046539306640625
1782846402387004200,3.345004150390625,-0.9898834228515625,-0.0208587646484375,0.00482177734375
1782846402397009200,3.355009033203125,-0.9901885986328125,-0.02197265625,0.00189208984375
1782846402407014100,3.36501416015625,-0.9892425537109375,-0.0216217041015625,0.00152587890625
1782846402417019100,3.37501904296875,-0.99188232421875,-0.0214385986328125,0.0022735595703125
1782846402427024100,3.385024169921875,-0.98944091796875,-0.021148681640625,0.0019683837890625
1782846402437029000,3.395029052734375,-0.99017333984375,-0.019866943359375,0.0027618408203125
1782846402447034000,3.4050341796875,-0.991180419921875,-0.021575927734375,0.001983642578125
1782846402457039000,3.4150390625,-0.99066162109375,-0.021270751953125,0.0019378662109375
1782846402467044000,3.425044189453125,-0.9907379150390625,-0.022918701171875,0.003692626953125
1782846402477049000,3.435049072265625,-0.9912872314453125,-0.022735595703125,0.003173828125
1782846402487053000,3.445052978515625,-0.9902191162109375,-0.021881103515625,0.00335693359375
1782846402497058000,3.45505810546875,-0.9916839599609375,-0.022491455078125,0.0041961669921875
1782846402507063000,3.46506298828125,-0.98992919921875,-0.0216217041015625,0.0027313232421875
1782846402517068000,3.475068115234375,-0.9915771484375,-0.0222015380859375,0.0018768310546875
1782846402527073000,3.485072998046875,-0.9900054931640625,-0.021087646484375,0.0041656494140625
1782846402537078000,3.495078125,-0.990753173828125,-0.020965576171875,0.0029144287109375
1782846402547083300,3.505083251953125,-0.990570068359375,-0.0220794677734375,0.0030059814453125
1782846402557088300,3.515088134765625,-0.9901580810546875,-0.0207061767578125,0.0026092529296875
1782846402567093200,3.52509326171875,-0.990997314453125,-0.0210723876953125,0.003509521484375
1782846402577098200,3.53509814453125,-0.990570068359375,-0.022064208984375,0.003204345703125
1782846402587103200,3.545103271484375,-0.9906005859375,-0.0221405029296875,0.00140380859375
1782846402597107200,3.555107177734375,-0.9902191162109375,-0.0202789306640625,0.0029754638671875
1782846402607112200,3.5651123046875,-0.9908447265625,-0.02117919921875,0.003509521484375
1782846402617117200,3.5751171875,-0.99053955078125,-0.020111083984375,0.0014801025390625
1782846402627122200,3.5851220703125,-0.98944091796875,-0.0216064453125,0.0018768310546875
1782846402637127200,3.595127197265625,-0.9906463623046875,-0.022216796875,0.0001983642578125
1782846402647132200,3.605132080078125,-0.98931884765625,-0.0229034423828125,0.001800537109375
1782846402657137200,3.61513720703125,-0.98944091796875,-0.0219268798828125,0.0019989013671875
1782846402667142100,3.62514208984375,-0.990447998046875,-0.02130126953125,0.0024871826171875
1782846402677147600,3.635147705078125,-0.991363525390625,-0.02032470703125,0.00335693359375
1782846402687151600,3.645151611328125,-0.9891510009765625,-0.021942138671875,0.0026397705078125
1782846402697156600,3.655156494140625,-0.98980712890625,-0.022491455078125,0.002532958984375
1782846402707161600,3.66516162109375,-0.9907989501953125,-0.02197265625,0.001708984375
1782846402717166600,3.67516650390625,-0.9909210205078125,-0.0209808349609375,0.003753662109375
1782846402727171600,3.685171630859375,-0.991607666015625,-0.0208892822265625,0.0035858154296875
1782846402737176600,3.695176513671875,-0.9918212890625,-0.020751953125,0.0022125244140625
1782846402747181600,3.705181640625,-0.991119384765625,-0.0200958251953125,0.0030517578125
1782846402757186600,3.7151865234375,-0.9893646240234375,-0.0208587646484375,0.002349853515625
1782846402767191600,3.725191650390625,-0.99114990234375,-0.021514892578125,0.0020904541015625
1782846402777196500,3.735196533203125,-0.991241455078125,-0.021728515625,0.003173828125
1782846402787200800,3.74520068359375,-0.99102783203125,-0.021453857421875,0.00262451171875
1782846402797205800,3.755205810546875,-0.9907379150390625,-0.021087646484375,0.002227783203125
1782846402807210800,3.765210693359375,-0.9908294677734375,-0.0216217041015625,0.001800537109375
1782846402817215700,3.7752158203125,-0.99066162109375,-0.02215576171875,0.0017852783203125
1782846402827220700,3.785220703125,-0.991485595703125,-0.0210113525390625,0.0019989013671875
1782846402837225700,3.795225830078125,-0.990936279296875,-0.0203857421875,0.0023040771484375
1782846402847230700,3.805230712890625,-0.9904937744140625,-0.0206146240234375,0.0028076171875
1782846402857235700,3.815235595703125,-0.9912872314453125,-0.020538330078125,0.0024566650390625
1782846402867240700,3.82524072265625,-0.9911041259765625,-0.022613525390625,0.00238037109375
1782846402877245700,3.83524560546875,-0.991729736328125,-0.0218353271484375,0.0030517578125
1782846402887250700,3.845250732421875,-0.9895477294921875,-0.0231170654296875,0.003448486328125
1782846402897254400,3.85525439453125,-0.990325927734375,-0.02142333984375,0.00323486328125
1782846402907259400,3.86525927734375,-0.9915008544921875,-0.0221099853515625,0.0036468505859375
1782846402917264400,3.875264404296875,-0.9897613525390625,-0.022125244140625,0.0026092529296875
1782846402927269400,3.885269287109375,-0.990875244140625,-0.022125244140625,0.003143310546875
1782846402937274600,3.895274658203125,-0.9913482666015625,-0.0211639404296875,0.002410888671875
1782846402947279600,3.905279541015625,-0.9899444580078125,-0.021484375,0.003326416015625
1782846402957284600,3.91528466796875,-0.991973876953125,-0.0221710205078125,0.0041351318359375
1782846402967289600,3.92528955078125,-0.9911041259765625,-0.021453857421875,0.0035858154296875
1782846402977294600,3.935294677734375,-0.9897918701171875,-0.0203094482421875,0.0040740966796875
1782846402987299600,3.945299560546875,-0.9910888671875,-0.0221405029296875,0.004547119140625
1782846402997303600,3.955303466796875,-0.99273681640625,-0.0212860107421875,0.003326416015625
1782846403007308500,3.96530859375,-0.992095947265625,-0.0213775634765625,0.002227783203125
1782846403017313500,3.9753134765625,-0.9894866943359375,-0.0211029052734375,0.0026702880859375
1782846403027318500,3.985318603515625,-0.988433837890625,-0.020111083984375,0.0020904541015625
1782846403037323500,3.995323486328125,-0.990570068359375,-0.02044677734375,0.0045928955078125
1782846403047328500,4.00532861328125,-0.9909515380859375,-0.0221405029296875,0.00335693359375
1782846403057333500,4.01533349609375,-0.9912567138671875,-0.0214691162109375,0.0044403076171875
1782846403067338500,4.02533837890625,-0.98956298828125,-0.02020263671875,0.003570556640625
1782846403077343500,4.035343505859375,-0.99029541015625,-0.0204315185546875,0.0025482177734375
1782846403087348500,4.045348388671875,-0.99078369140625,-0.0221099853515625,0.002960205078125
1782846403097352400,4.0553525390625,-0.99090576171875,-0.0219268798828125,0.0037078857421875
1782846403107357400,4.065357421875,-0.9905548095703125,-0.0228424072265625,0.0028228759765625
1782846403117362400,4.075362548828125,-0.990081787109375,-0.0222930908203125,0.0030670166015625
1782846403127367400,4.085367431640625,-0.990570068359375,-0.020751953125,0.002349853515625
1782846403137372400,4.095372314453125,-0.990936279296875,-0.0207977294921875,0.0023956298828125
1782846403147377400,4.10537744140625,-0.99090576171875,-0.0207366943359375,0.0021514892578125
1782846403157382400,4.11538232421875,-0.991455078125,-0.0215911865234375,0.0038604736328125
1782846403167387400,4.125387451171875,-0.9905853271484375,-0.0218505859375,0.0038604736328125
1782846403177392400,4.135392333984375,-0.9916229248046875,-0.0211029052734375,0.003753662109375
1782846403187397400,4.1453974609375,-0.9910736083984375,-0.020843505859375,0.0025177001953125
1782846403197401600,4.155401611328125,-0.9915313720703125,-0.0202178955078125,0.0035858154296875
1782846403207406600,4.165406494140625,-0.9915008544921875,-0.0203857421875,0.0042266845703125
1782846403217411600,4.17541162109375,-0.98980712890625,-0.0203094482421875,0.00286865234375
1782846403227416600,4.18541650390625,-0.9900054931640625,-0.02105712890625,0.0029449462890625
1782846403237421600,4.195421630859375,-0.99029541015625,-0.0226593017578125,0.0024566650390625
1782846403247426600,4.205426513671875,-0.9910736083984375,-0.0217132568359375,0.004425048828125
1782846403257431600,4.215431640625,-0.990203857421875,-0.020050048828125,0.0031585693359375
1782846403267436500,4.2254365234375,-0.9902496337890625,-0.02069091796875,0.002227783203125
1782846403277441500,4.235441650390625,-0.99072265625,-0.022216796875,0.0035400390625
1782846403287445500,4.245445556640625,-0.9913330078125,-0.0221405029296875,0.003448486328125
1782846403297450500,4.255450439453125,-0.9898681640625,-0.0207672119140625,0.002685546875
1782846403307455500,4.26545556640625,-0.99114990234375,-0.020599365234375,0.003814697265625
1782846403317460500,4.27546044921875,-0.9906158447265625,-0.0213470458984375,0.00274658203125
1782846403327465500,4.285465576171875,-0.9886932373046875,-0.02301025390625,0.0009765625
1782846403337470500,4.295470458984375,-0.9907073974609375,-0.0218505859375,0.00347900390625
1782846403347475500,4.305475341796875,-0.990264892578125,-0.020904541015625,0.0040130615234375
1782846403357480400,4.31548046875,-0.990692138671875,-0.020172119140625,0.003662109375
1782846403367485400,4.3254853515625,-0.9897613525390625,-0.02178955078125,0.0023193359375
1782846403377490400,4.335490478515625,-0.9908294677734375,-0.021484375,0.0025787353515625
1782846403387494700,4.34549462890625,-0.990234375,-0.02020263671875,0.0026397705078125
1782846403397499600,4.355499755859375,-0.9906768798828125,-0.0216064453125,0.0038909912109375
1782846403407504600,4.365504638671875,-0.9906463623046875,-0.020904541015625,0.0035858154296875
1782846403417509600,4.375509521484375,-0.9910888671875,-0.02178955078125,0.00360107421875
1782846403427514600,4.3855146484375,-0.991546630859375,-0.021514892578125,0.0026092529296875
1782846403437519600,4.39551953125,-0.9905548095703125,-0.0214996337890625,0.003692626953125
1782846403447524600,4.405524658203125,-0.99072265625,-0.0220489501953125,0.00244140625
1782846403457529600,4.415529541015625,-0.9912109375,-0.020904541015625,0.0030059814453125
1782846403467534600,4.42553466796875,-0.989501953125,-0.0210418701171875,0.0033416748046875
1782846403477539600,4.43553955078125,-0.9904937744140625,-0.0223388671875,0.003448486328125
1782846403487543600,4.44554345703125,-0.9915771484375,-0.0221710205078125,0.0036163330078125
1782846403497548500,4.455548583984375,-0.9915313720703125,-0.0213470458984375,0.003204345703125
1782846403507553500,4.465553466796875,-0.9909210205078125,-0.02099609375,0.0031890869140625
1782846403517558500,4.47555859375,-0.9907989501953125,-0.0208587646484375,0.002227783203125
1782846403527563500,4.4855634765625,-0.990081787109375,-0.0218658447265625,0.001800537109375
1782846403537568500,4.495568603515625,-0.988800048828125,-0.02142333984375,0.0037841796875
1782846403547573500,4.505573486328125,-0.9910430908203125,-0.0210418701171875,0.0039215087890625
1782846403557578500,4.51557861328125,-0.9922027587890625,-0.02020263671875,0.0033111572265625
1782846403567583500,4.52558349609375,-0.9898681640625,-0.0224456787109375,0.001251220703125
1782846403577588500,4.53558837890625,-0.9903411865234375,-0.0219879150390625,0.004119873046875
1782846403587592700,4.5455927734375,-0.9915008544921875,-0.0224761962890625,0.00311279296875
1782846403597597700,4.55559765625,-0.9904632568359375,-0.019561767578125,0.003204345703125
1782846403607602700,4.565602783203125,-0.9903106689453125,-0.0217132568359375,0.0034027099609375
1782846403617607700,4.575607666015625,-0.99151611328125,-0.02215576171875,0.00140380859375
1782846403627612700,4.58561279296875,-0.990081787109375,-0.02142333984375,0.00274658203125
1782846403637617700,4.59561767578125,-0.991851806640625,-0.0203857421875,0.0028076171875
1782846403647622700,4.60562255859375,-0.9911346435546875,-0.0218353271484375,0.001251220703125
1782846403657627600,4.615627685546875,-0.990203857421875,-0.0213623046875,0.0028839111328125
1782846403667632600,4.625632568359375,-0.9905242919921875,-0.021392822265625,0.003021240234375
1782846403677636600,4.63563671875,-0.9909210205078125,-0.0203094482421875,0.0022430419921875
1782846403687641600,4.6456416015625,-0.9903564453125,-0.02191162109375,0.002716064453125
1782846403697646600,4.655646484375,-0.9905548095703125,-0.0223846435546875,0.0036773681640625
1782846403707651600,4.665651611328125,-0.9893035888671875,-0.02093505859375,0.0027008056640625
1782846403717656600,4.675656494140625,-0.9912261962890625,-0.0204925537109375,0.0028228759765625
1782846403727661600,4.68566162109375,-0.9910125732421875,-0.021881103515625,0.0035552978515625
1782846403737666600,4.69566650390625,-0.990478515625,-0.0212860107421875,0.003509521484375
1782846403747671600,4.705671630859375,-0.99090576171875,-0.0208587646484375,0.0030364990234375
1782846403757676500,4.715676513671875,-0.9908447265625,-0.0221710205078125,0.0034027099609375
1782846403767681500,4.725681640625,-0.9910888671875,-0.022705078125,0.0023956298828125
1782846403777685800,4.735685791015625,-0.9921722412109375,-0.0221405029296875,0.003173828125
1782846403787690800,4.745690673828125,-0.9917144775390625,-0.02099609375,0.00213623046875
1782846403797695700,4.75569580078125,-0.9910736083984375,-0.0205535888671875,0.002655029296875
1782846403807700700,4.76570068359375,-0.991363525390625,-0.0203704833984375,0.00238037109375
1782846403817705700,4.775705810546875,-0.9920196533203125,-0.020965576171875,0.0031280517578125
1782846403827710700,4.785710693359375,-0.9907379150390625,-0.02044677734375,0.0028228759765625
1782846403837715700,4.7957158203125,-0.990234375,-0.022064208984375,0.0044403076171875
1782846403847720700,4.805720703125,-0.9906768798828125,-0.0226287841796875,0.003631591796875
1782846403857725700,4.8157255859375,-0.9907073974609375,-0.0222320556640625,0.00323486328125
1782846403867729700,4.825729736328125,-0.990692138671875,-0.021087646484375,0.002593994140625
1782846403877734700,4.835734619140625,-0.9911346435546875,-0.0228271484375,0.0036468505859375
1782846403887739600,4.84573974609375,-0.991302490234375,-0.0215606689453125,0.0040283203125
1782846403897744600,4.85574462890625,-0.99072265625,-0.02178955078125,0.0029754638671875
1782846403907749600,4.86574951171875,-0.99114990234375,-0.0226593017578125,0.002960205078125
1782846403917754600,4.875754638671875,-0.99139404296875,-0.01995849609375,0.0040435791015625
1782846403927759600,4.885759521484375,-0.9912261962890625,-0.020477294921875,0.0029296875
1782846403937764600,4.8957646484375,-0.9909515380859375,-0.0205841064453125,0.0030670166015625
1782846403947769600,4.90576953125,-0.991485595703125,-0.0215911865234375,0.00360107421875
1782846403957774600,4.915774658203125,-0.991790771484375,-0.02191162109375,0.0029754638671875
1782846403967778600,4.925778564453125,-0.9911651611328125,-0.0223541259765625,0.00274658203125
1782846403977783600,4.935783447265625,-0.9908905029296875,-0.0211944580078125,0.00341796875
1782846403987788800,4.945788818359375,-0.9905242919921875,-0.0213775634765625,0.00299072265625
1782846403997793800,4.955793701171875,-0.9883880615234375,-0.02069091796875,0.0040130615234375
1782846404007798800,4.965798828125,-0.989349365234375,-0.0206756591796875,0.002532958984375
1782846404017803800,4.9758037109375,-0.993133544921875,-0.0215606689453125,0.004364013671875
1782846404027808800,4.985808837890625,-0.9929046630859375,-0.0213623046875,0.0026092529296875
1782846404037813800,4.995813720703125,-0.990020751953125,-0.0208282470703125,0.0042877197265625
1782846404047818800,5.00581884765625,-0.98931884765625,-0.020904541015625,0.0026397705078125
1782846404057822700,5.01582275390625,-0.9913787841796875,-0.0230560302734375,0.0029144287109375
1782846404067827700,5.02582763671875,-0.9913330078125,-0.0205230712890625,0.0023345947265625
1782846404077832700,5.035832763671875,-0.9903564453125,-0.0215301513671875,0.003631591796875
1782846404087837700,5.045837646484375,-0.991485595703125,-0.0206756591796875,0.0032501220703125
1782846404097842700,5.0558427734375,-0.990631103515625,-0.020294189453125,0.00115966796875
1782846404107847700,5.06584765625,-0.9898529052734375,-0.02020263671875,0.0013885498046875
1782846404117852700,5.075852783203125,-0.990936279296875,-0.0204925537109375,0.00341796875
1782846404127857700,5.085857666015625,-0.9904327392578125,-0.0215606689453125,0.00323486328125
1782846404137862700,5.095862548828125,-0.9907379150390625,-0.0220947265625,0.0022430419921875
1782846404147867600,5.10586767578125,-0.990325927734375,-0.0221099853515625,0.002227783203125
1782846404157871600,5.11587158203125,-0.9908599853515625,-0.0225677490234375,0.0037994384765625
1782846404167876600,5.125876708984375,-0.989654541015625,-0.02239990234375,0.00299072265625
1782846404177881600,5.135881591796875,-0.9915008544921875,-0.0212249755859375,0.00457763671875
1782846404187886600,5.145886474609375,-0.9906005859375,-0.0210113525390625,0.0031280517578125
1782846404197891800,5.155891845703125,-0.991119384765625,-0.02166748046875,0.0017547607421875
1782846404207896800,5.165896728515625,-0.9899139404296875,-0.0224151611328125,0.0028533935546875
1782846404217901800,5.17590185546875,-0.9900054931640625,-0.021697998046875,0.0037689208984375
1782846404227906800,5.18590673828125,-0.990020751953125,-0.021392822265625,0.002777099609375
1782846404237911800,5.195911865234375,-0.9901885986328125,-0.0218505859375,0.002777099609375
1782846404247915800,5.205915771484375,-0.989776611328125,-0.0214385986328125,0.0040283203125
1782846404257920800,5.215920654296875,-0.990692138671875,-0.0213165283203125,0.00299072265625
1782846404267925800,5.22592578125,-0.990447998046875,-0.0214996337890625,0.0022125244140625
1782846404277930800,5.2359306640625,-0.9920654296875,-0.0214996337890625,0.0031280517578125
1782846404287935700,5.245935791015625,-0.9896392822265625,-0.0194549560546875,0.0032806396484375
1782846404297940700,5.255940673828125,-0.9904327392578125,-0.020172119140625,0.0044097900390625
1782846404307945700,5.26594580078125,-0.991363525390625,-0.02166748046875,0.00299072265625
1782846404317950700,5.27595068359375,-0.9911346435546875,-0.0206756591796875,0.002655029296875
1782846404327955700,5.285955810546875,-0.990875244140625,-0.021270751953125,0.0027618408203125
1782846404337959700,5.295959716796875,-0.99090576171875,-0.021484375,0.00335693359375
1782846404347964700,5.305964599609375,-0.9911041259765625,-0.021820068359375,0.002960205078125
1782846404357969700,5.3159697265625,-0.9916534423828125,-0.0210723876953125,0.0040130615234375
1782846404367974700,5.325974609375,-0.989654541015625,-0.02117919921875,0.0023956298828125
1782846404377979600,5.335979736328125,-0.992401123046875,-0.0208282470703125,0.0015716552734375
1782846404387984600,5.345984619140625,-0.991241455078125,-0.0212249755859375,0.00213623046875
1782846404397989600,5.35598974609375,-0.9917755126953125,-0.021575927734375,0.003662109375
1782846404407994600,5.36599462890625,-0.9910125732421875,-0.0208587646484375,0.0029144287109375
1782846404418000000,5.375999755859375,-0.989288330078125,-0.021484375,0.0030517578125
1782846404428003600,5.386003662109375,-0.990509033203125,-0.019622802734375,0.0040740966796875
1782846404438008600,5.396008544921875,-0.9912109375,-0.01971435546875,0.004058837890625
1782846404448013600,5.406013671875,-0.9907379150390625,-0.0208740234375,0.00408935546875
1782846404458018600,5.4160185546875,-0.990997314453125,-0.0191650390625,0.002227783203125
1782846404468023800,5.42602392578125,-0.991058349609375,-0.020233154296875,0.0026702880859375
1782846404478028800,5.43602880859375,-0.991546630859375,-0.02142333984375,0.0032501220703125
1782846404488033800,5.44603369140625,-0.99139404296875,-0.021026611328125,0.002593994140625
1782846404498038800,5.456038818359375,-0.9905853271484375,-0.0210113525390625,0.0023345947265625
1782846404508043800,5.466043701171875,-0.9914703369140625,-0.02056884765625,0.001190185546875
1782846404518047500,5.476047607421875,-0.9921875,-0.0215911865234375,0.0023651123046875
1782846404528052500,5.486052490234375,-0.991119384765625,-0.0227813720703125,0.0026702880859375
1782846404538057500,5.496057373046875,-0.989471435546875,-0.0204010009765625,0.0036773681640625
1782846404548062500,5.5060625,-0.990203857421875,-0.0209197998046875,0.0042266845703125
1782846404558067500,5.5160673828125,-0.98944091796875,-0.0209503173828125,0.0031585693359375
1782846404568072400,5.526072509765625,-0.9907379150390625,-0.0201568603515625,0.0025634765625
1782846404578077400,5.536077392578125,-0.9899749755859375,-0.0214691162109375,0.0019378662109375
1782846404588082400,5.54608251953125,-0.990570068359375,-0.02227783203125,0.0039520263671875
1782846404598087400,5.55608740234375,-0.990447998046875,-0.020477294921875,0.001983642578125
1782846404608091600,5.566091552734375,-0.9907684326171875,-0.02191162109375,0.0032196044921875
1782846404618096600,5.5760966796875,-0.9907684326171875,-0.02239990234375,0.0030670166015625
1782846404628101600,5.5861015625,-0.9898529052734375,-0.022216796875,0.0025177001953125
1782846404638106600,5.596106689453125,-0.990875244140625,-0.0210418701171875,0.004547119140625
1782846404648111600,5.606111572265625,-0.9901275634765625,-0.0205230712890625,0.00396728515625
1782846404658116600,5.61611669921875,-0.991302490234375,-0.0221710205078125,0.0053253173828125
1782846404668121600,5.62612158203125,-0.9910888671875,-0.021392822265625,0.0033111572265625
1782846404678127000,5.636127197265625,-0.989715576171875,-0.022705078125,0.003265380859375
1782846404688132000,5.646132080078125,-0.9898681640625,-0.021575927734375,0.00457763671875
1782846404698136000,5.656135986328125,-0.9906005859375,-0.0217437744140625,0.0032501220703125
1782846404708141000,5.66614111328125,-0.9902191162109375,-0.02178955078125,0.0037078857421875
1782846404718146000,5.67614599609375,-0.9906005859375,-0.020782470703125,0.0018463134765625
1782846404728151000,5.686151123046875,-0.9913482666015625,-0.0213470458984375,0.0033111572265625
1782846404738156000,5.696156005859375,-0.99102783203125,-0.0209503173828125,0.0020294189453125
1782846404748161000,5.7061611328125,-0.99139404296875,-0.0214385986328125,0.002655029296875
1782846404758166000,5.716166015625,-0.9910125732421875,-0.0218353271484375,0.0025787353515625
1782846404768171000,5.7261708984375,-0.990020751953125,-0.0208892822265625,0.00396728515625
1782846404778176000,5.736176025390625,-0.99127197265625,-0.0219573974609375,0.002655029296875
1782846404788180200,5.74618017578125,-0.9920654296875,-0.02130126953125,0.0031280517578125
1782846404798185200,5.756185302734375,-0.9924468994140625,-0.0211944580078125,0.0021209716796875
1782846404808190200,5.766190185546875,-0.9912261962890625,-0.0222930908203125,0.00299072265625
1782846404818195200,5.7761953125,-0.9900665283203125,-0.02142333984375,0.00201416015625
1782846404828200200,5.7862001953125,-0.99066162109375,-0.0198822021484375,0.0013427734375
1782846404838205200,5.796205078125,-0.990570068359375,-0.021453857421875,0.0031890869140625
1782846404848210200,5.806210205078125,-0.99114990234375,-0.0214996337890625,0.002685546875
1782846404858215200,5.816215087890625,-0.9917755126953125,-0.020904541015625,0.0042572021484375
1782846404868220200,5.82622021484375,-0.9913482666015625,-0.01995849609375,0.0043792724609375
1782846404878224100,5.83622412109375,-0.9903717041015625,-0.021209716796875,0.003692626953125
1782846404888229000,5.84622900390625,-0.99090576171875,-0.021484375,0.0044403076171875
1782846404898234000,5.856234130859375,-0.9913177490234375,-0.02099609375,0.0023345947265625
1782846404908239000,5.866239013671875,-0.991058349609375,-0.0213470458984375,0.0020751953125
1782846404918244000,5.876244140625,-0.9896697998046875,-0.0215301513671875,0.00439453125
1782846404928249000,5.8862490234375,-0.9909515380859375,-0.021331787109375,0.003448486328125
1782846404938254000,5.896254150390625,-0.9888458251953125,-0.02020263671875,0.003204345703125
1782846404948259000,5.906259033203125,-0.99017333984375,-0.0218505859375,0.0046234130859375
1782846404958264000,5.91626416015625,-0.9904022216796875,-0.0218963623046875,0.0020751953125
1782846404968268000,5.92626806640625,-0.99078369140625,-0.0221710205078125,0.00433349609375
1782846404978273300,5.936273193359375,-0.991058349609375,-0.022369384765625,0.0027313232421875
1782846404988278300,5.9462783203125,-0.990234375,-0.0214996337890625,0.003326416015625
1782846404998283300,5.956283203125,-0.9896240234375,-0.0205841064453125,0.0034637451171875
1782846405008288300,5.966288330078125,-0.9905548095703125,-0.021148681640625,0.0022430419921875
1782846405018293200,5.976293212890625,-0.9898681640625,-0.0206146240234375,0.003570556640625
1782846405028298200,5.98629833984375,-0.98992919921875,-0.021392822265625,0.0031280517578125
1782846405038303200,5.99630322265625,-0.9903411865234375,-0.0207672119140625,0.0009002685546875
1782846405048308200,6.00630810546875,-0.9913482666015625,-0.0209808349609375,0.003875732421875
1782846405058312200,6.016312255859375,-0.991668701171875,-0.020843505859375,0.0035858154296875
1782846405068317200,6.026317138671875,-0.98956298828125,-0.021759033203125,0.002899169921875
1782846405078322200,6.036322265625,-0.9915008544921875,-0.0217437744140625,0.00262451171875
1782846405088327200,6.0463271484375,-0.9904937744140625,-0.022491455078125,0.0028533935546875
1782846405098332200,6.056332275390625,-0.9915008544921875,-0.021759033203125,0.0019989013671875
1782846405108337200,6.066337158203125,-0.9917449951171875,-0.0221405029296875,0.002410888671875
1782846405118342100,6.076342041015625,-0.9916229248046875,-0.0211029052734375,0.003875732421875
1782846405128347100,6.08634716796875,-0.9906463623046875,-0.021331787109375,0.0047607421875
1782846405138352000,6.09635205078125,-0.990692138671875,-0.0214691162109375,0.0042724609375
1782846405148356000,6.106356201171875,-0.990020751953125,-0.021575927734375,0.0027618408203125
1782846405158361000,6.116361083984375,-0.9891204833984375,-0.0220794677734375,0.0040130615234375
1782846405168366000,6.126365966796875,-0.99005126953125,-0.021148681640625,0.004241943359375
1782846405178371000,6.13637109375,-0.9904937744140625,-0.0220794677734375,0.00384521484375
1782846405188376000,6.1463759765625,-0.991455078125,-0.0217437744140625,0.00506591796875
1782846405198381300,6.15638134765625,-0.990325927734375,-0.02154541015625,0.00311279296875
1782846405208386300,6.16638623046875,-0.990478515625,-0.0217437744140625,0.0023651123046875
1782846405218391300,6.176391357421875,-0.9910125732421875,-0.0208587646484375,0.002960205078125
1782846405228395300,6.186395263671875,-0.9903106689453125,-0.0223236083984375,0.0030517578125
1782846405238400300,6.196400146484375,-0.98992919921875,-0.021209716796875,0.0029144287109375
1782846405248405200,6.2064052734375,-0.9912567138671875,-0.019561767578125,0.0031890869140625
1782846405258410200,6.21641015625,-0.991607666015625,-0.0224151611328125,0.002166748046875
1782846405268415200,6.226415283203125,-0.9912567138671875,-0.021484375,0.00146484375
1782846405278420200,6.236420166015625,-0.9918060302734375,-0.021087646484375,0.0033721923828125
1782846405288425200,6.24642529296875,-0.9895782470703125,-0.020233154296875,0.0033111572265625
1782846405298430200,6.25643017578125,-0.9904632568359375,-0.0225677490234375,0.002410888671875
1782846405308435200,6.266435302734375,-0.9897003173828125,-0.0212554931640625,0.0026397705078125
1782846405318439200,6.276439208984375,-0.991241455078125,-0.0209808349609375,0.00445556640625
1782846405328444200,6.286444091796875,-0.9897918701171875,-0.0217437744140625,0.0025482177734375
1782846405338449200,6.29644921875,-0.990997314453125,-0.0209808349609375,0.001739501953125
1782846405348454100,6.3064541015625,-0.99005126953125,-0.020965576171875,0.00341796875
1782846405358459100,6.316459228515625,-0.9903106689453125,-0.0204925537109375,0.0032958984375
1782846405368464100,6.326464111328125,-0.9908447265625,-0.021942138671875,0.0014495849609375
1782846405378469000,6.33646923828125,-0.989990234375,-0.0216827392578125,0.002288818359375
1782846405388474000,6.34647412109375,-0.989898681640625,-0.0209503173828125,0.0036163330078125
1782846405398479000,6.35647900390625,-0.9909210205078125,-0.0203094482421875,0.0027618408203125
1782846405408483300,6.3664833984375,-0.990020751953125,-0.021484375,0.0032501220703125
1782846405418488300,6.37648828125,-0.991790771484375,-0.0207672119140625,0.002685546875
1782846405428493300,6.386493408203125,-0.990570068359375,-0.0218505859375,0.00390625
1782846405438498300,6.396498291015625,-0.9915924072265625,-0.021881103515625,0.003082275390625
1782846405448503300,6.40650341796875,-0.9916839599609375,-0.0218658447265625,0.004547119140625
1782846405458508300,6.41650830078125,-0.989990234375,-0.02081298828125,0.0027008056640625
1782846405468513300,6.42651318359375,-0.9900665283203125,-0.0206756591796875,0.002899169921875
1782846405478518300,6.436518310546875,-0.9908447265625,-0.0211181640625,0.00201416015625
1782846405488522000,6.44652197265625,-0.9892578125,-0.021484375,0.00238037109375
1782846405498527000,6.45652685546875,-0.9922332763671875,-0.0214691162109375,0.003387451171875
1782846405508532000,6.466531982421875,-0.9911346435546875,-0.0209503173828125,0.005218505859375
1782846405518537000,6.476536865234375,-0.9909210205078125,-0.0218963623046875,0.002166748046875
1782846405528542000,6.4865419921875,-0.9902191162109375,-0.0203704833984375,0.00244140625
1782846405538547200,6.496547119140625,-0.9920806884765625,-0.0211181640625,0.003387451171875
1782846405548552200,6.50655224609375,-0.9920501708984375,-0.0186004638671875,0.004547119140625
1782846405558557200,6.51655712890625,-0.989471435546875,-0.0207061767578125,0.004425048828125
1782846405568562200,6.526562255859375,-0.989959716796875,-0.0223388671875,0.002227783203125
1782846405578566100,6.536566162109375,-0.991424560546875,-0.0226287841796875,0.0032806396484375
1782846405588571100,6.546571044921875,-0.9895172119140625,-0.0224609375,0.004608154296875
1782846405598576000,6.556576171875,-0.9907989501953125,-0.02166748046875,0.0037078857421875
1782846405608581000,6.5665810546875,-0.9899444580078125,-0.021087646484375,0.0028839111328125
1782846405618586000,6.576586181640625,-0.990997314453125,-0.021575927734375,0.00323486328125
1782846405628591000,6.586591064453125,-0.9908599853515625,-0.020843505859375,0.001800537109375
1782846405638596000,6.59659619140625,-0.991485595703125,-0.02081298828125,0.00360107421875
1782846405648601000,6.60660107421875,-0.9903411865234375,-0.02154541015625,0.0019378662109375
1782846405658605000,6.61660498046875,-0.9896240234375,-0.0199127197265625,0.0035400390625
1782846405668610000,6.626610107421875,-0.989044189453125,-0.02093505859375,0.0037689208984375
1782846405678615600,6.636615478515625,-0.98956298828125,-0.021759033203125,0.00250244140625
1782846405688620500,6.64662060546875,-0.9925079345703125,-0.02099609375,0.002716064453125
1782846405698625500,6.65662548828125,-0.991241455078125,-0.021148681640625,0.0029754638671875
1782846405708630500,6.666630615234375,-0.991180419921875,-0.021514892578125,0.00335693359375
1782846405718635500,6.676635498046875,-0.9913482666015625,-0.0201568603515625,0.003143310546875
1782846405728640500,6.686640625,-0.990020751953125,-0.0213775634765625,0.003509521484375
1782846405738645500,6.6966455078125,-0.991790771484375,-0.0218353271484375,0.0034332275390625
1782846405748649500,6.7066494140625,-0.992156982421875,-0.0201568603515625,0.0046844482421875
1782846405758654700,6.71665478515625,-0.9926605224609375,-0.021026611328125,0.0034332275390625
1782846405768659700,6.72665966796875,-0.9896697998046875,-0.0205535888671875,0.004302978515625
1782846405778664700,6.736664794921875,-0.9909820556640625,-0.021331787109375,0.0030059814453125
1782846405788669700,6.746669677734375,-0.9906158447265625,-0.0209197998046875,0.0019989013671875
1782846405798674700,6.7566748046875,-0.9912109375,-0.02154541015625,0.0029144287109375
1782846405808679700,6.7666796875,-0.992034912109375,-0.021575927734375,0.000885009765625
1782846405818684700,6.7766845703125,-0.9912109375,-0.021392822265625,0.0024566650390625
1782846405828688600,6.786688720703125,-0.9913177490234375,-0.0217437744140625,0.0024261474609375
1782846405838693600,6.796693603515625,-0.9900360107421875,-0.0218963623046875,0.003326416015625
1782846405848698600,6.80669873046875,-0.9889678955078125,-0.020599365234375,0.004150390625
1782846405858703600,6.81670361328125,-0.990325927734375,-0.0215301513671875,0.0023651123046875
1782846405868708600,6.82670849609375,-0.991455078125,-0.0221710205078125,0.003662109375
1782846405878713600,6.836713623046875,-0.990509033203125,-0.0212249755859375,0.0042266845703125
1782846405888718600,6.846718505859375,-0.9905548095703125,-0.0216217041015625,0.003387451171875
1782846405898723600,6.8567236328125,-0.9908905029296875,-0.02142333984375,0.0033416748046875
1782846405908728600,6.866728515625,-0.9913177490234375,-0.0211334228515625,0.0025177001953125
1782846405918732500,6.876732666015625,-0.9900970458984375,-0.022064208984375,0.003265380859375
1782846405928737500,6.886737548828125,-0.9904632568359375,-0.0213470458984375,0.0039520263671875
1782846405938742500,6.896742431640625,-0.991607666015625,-0.021331787109375,0.0047760009765625
1782846405948747500,6.90674755859375,-0.990814208984375,-0.02276611328125,0.0027618408203125
1782846405958752500,6.91675244140625,-0.991058349609375,-0.0222625732421875,0.0023040771484375
1782846405968757500,6.926757568359375,-0.99072265625,-0.0214080810546875,0.0019683837890625
1782846405978762800,6.9367626953125,-0.9912109375,-0.0218048095703125,0.002105712890625
1782846405988767700,6.946767822265625,-0.9921722412109375,-0.021484375,0.0040130615234375
1782846405998771700,6.956771728515625,-0.9912109375,-0.022491455078125,0.0037994384765625
1782846406008776700,6.966776611328125,-0.9901275634765625,-0.022125244140625,0.004425048828125
1782846406018781700,6.97678173828125,-0.990692138671875,-0.0203094482421875,0.004150390625
1782846406028786700,6.98678662109375,-0.990936279296875,-0.0216064453125,0.003448486328125
1782846406038791700,6.996791748046875,-0.9905242919921875,-0.0210113525390625,0.0026092529296875
1782846406048796700,7.006796630859375,-0.990997314453125,-0.019927978515625,0.0035400390625
1782846406058801700,7.0168017578125,-0.9910125732421875,-0.02117919921875,0.00286865234375
1782846406068806700,7.026806640625,-0.9914398193359375,-0.02197265625,0.0037689208984375
1782846406078811600,7.036811767578125,-0.9905548095703125,-0.0210723876953125,0.0045318603515625
1782846406088815600,7.046815673828125,-0.99005126953125,-0.021087646484375,0.0035552978515625
1782846406098820600,7.056820556640625,-0.9909515380859375,-0.0209197998046875,0.0030517578125
1782846406108825600,7.06682568359375,-0.989501953125,-0.0214080810546875,0.00299072265625
1782846406118830600,7.07683056640625,-0.9902191162109375,-0.0203857421875,0.00238037109375
1782846406128835600,7.086835693359375,-0.9902191162109375,-0.022705078125,0.003997802734375
1782846406138840600,7.096840576171875,-0.9911956787109375,-0.0228118896484375,0.002288818359375
1782846406148845600,7.106845458984375,-0.9916839599609375,-0.021942138671875,0.00323486328125
1782846406158850600,7.1168505859375,-0.991058349609375,-0.0215911865234375,0.00286865234375
1782846406168854800,7.126854736328125,-0.99102783203125,-0.02099609375,0.0045013427734375
1782846406178859800,7.13685986328125,-0.9902801513671875,-0.020721435546875,0.0020294189453125
1782846406188864800,7.14686474609375,-0.9909515380859375,-0.02252197265625,0.0025177001953125
1782846406198869800,7.156869873046875,-0.99102783203125,-0.0218048095703125,0.0033111572265625
1782846406208874800,7.166874755859375,-0.990447998046875,-0.0198974609375,0.0036163330078125
1782846406218879700,7.176879638671875,-0.990631103515625,-0.0203094482421875,0.0048370361328125
1782846406228884700,7.186884765625,-0.9912567138671875,-0.021209716796875,0.0037994384765625
1782846406238889700,7.1968896484375,-0.992156982421875,-0.0221099853515625,0.00421142578125
1782846406248893700,7.206893798828125,-0.9888458251953125,-0.0215606689453125,0.00274658203125
1782846406258898700,7.216898681640625,-0.9910430908203125,-0.0224151611328125,0.0012359619140625
1782846406268903700,7.226903564453125,-0.9894866943359375,-0.020965576171875,0.00274658203125
1782846406278908700,7.23690869140625,-0.9910125732421875,-0.0215911865234375,0.003387451171875
1782846406288913700,7.24691357421875,-0.99139404296875,-0.02178955078125,0.004730224609375
1782846406298918700,7.256918701171875,-0.9909820556640625,-0.021240234375,0.0026092529296875
1782846406308923600,7.266923583984375,-0.9913482666015625,-0.019683837890625,0.0021209716796875
1782846406318928600,7.2769287109375,-0.991607666015625,-0.0205230712890625,0.002197265625
1782846406328932900,7.286932861328125,-0.990234375,-0.021942138671875,0.0029144287109375
1782846406338937900,7.296937744140625,-0.9909820556640625,-0.0212554931640625,0.00347900390625
1782846406348942800,7.30694287109375,-0.990936279296875,-0.0209808349609375,0.0030670166015625
1782846406358947800,7.31694775390625,-0.990631103515625,-0.022308349609375,0.0025482177734375
1782846406368952800,7.326952880859375,-0.990997314453125,-0.0206451416015625,0.0041046142578125
1782846406378957800,7.336957763671875,-0.9891357421875,-0.01959228515625,0.0023956298828125
1782846406388962800,7.346962890625,-0.9910430908203125,-0.0212860107421875,0.002960205078125
1782846406398967800,7.3569677734375,-0.99114990234375,-0.0211029052734375,0.002960205078125
1782846406408972800,7.366972900390625,-0.9913330078125,-0.0219879150390625,0.0034942626953125
1782846406418976500,7.3769765625,-0.9907073974609375,-0.0210113525390625,0.0030364990234375
1782846406428981500,7.3869814453125,-0.9911346435546875,-0.021026611328125,0.0040740966796875
1782846406438986800,7.39698681640625,-0.9912109375,-0.021148681640625,0.004974365234375
1782846406448991700,7.40699169921875,-0.9909515380859375,-0.021697998046875,0.00555419921875
1782846406458996700,7.416996826171875,-0.99114990234375,-0.0211639404296875,0.003143310546875
1782846406469001700,7.427001708984375,-0.9914398193359375,-0.0208282470703125,0.0037384033203125
1782846406479006700,7.4370068359375,-0.989837646484375,-0.020660400390625,0.0034027099609375
1782846406489011700,7.44701171875,-0.9889373779296875,-0.020965576171875,0.0029144287109375
1782846406499015700,7.457015625,-0.9911346435546875,-0.0209503173828125,0.0038299560546875
1782846406509020700,7.467020751953125,-0.9911651611328125,-0.0203704833984375,0.003997802734375
1782846406519025700,7.477025634765625,-0.9889373779296875,-0.0193634033203125,0.003570556640625
1782846406529030700,7.48703076171875,-0.990447998046875,-0.020965576171875,0.0033721923828125
1782846406539035600,7.49703564453125,-0.99029541015625,-0.0215911865234375,0.00103759765625
1782846406549040600,7.50704052734375,-0.9910888671875,-0.021026611328125,0.0030059814453125
1782846406559045600,7.517045654296875,-0.9910736083984375,-0.021240234375,0.0023956298828125
1782846406569050600,7.527050537109375,-0.9913177490234375,-0.0215911865234375,0.0022125244140625
1782846406579054600,7.5370546875,-0.99188232421875,-0.021697998046875,0.0033111572265625
1782846406589059600,7.5470595703125,-0.990234375,-0.0216827392578125,0.0035858154296875
1782846406599064600,7.557064697265625,-0.990966796875,-0.02178955078125,0.0027313232421875
1782846406609069600,7.567069580078125,-0.9902496337890625,-0.0208740234375,0.00439453125
1782846406619074600,7.577074462890625,-0.9902496337890625,-0.02178955078125,0.0039520263671875
1782846406629079600,7.58707958984375,-0.9909515380859375,-0.0210113525390625,0.004150390625
1782846406639084500,7.59708447265625,-0.9903564453125,-0.020751953125,0.0044403076171875
1782846406649089500,7.607089599609375,-0.99017333984375,-0.0214996337890625,0.0035400390625
1782846406659093500,7.617093505859375,-0.990631103515625,-0.02166748046875,0.0045623779296875
1782846406669098500,7.627098388671875,-0.9904327392578125,-0.020721435546875,0.00384521484375
1782846406679103200,7.637103271484375,-0.9898529052734375,-0.0198822021484375,0.002685546875
1782846406689108200,7.647108154296875,-0.9905548095703125,-0.021759033203125,0.001861572265625
1782846406699113200,7.65711328125,-0.9900665283203125,-0.0224609375,0.0037078857421875
1782846406709118200,7.6671181640625,-0.990997314453125,-0.0203094482421875,0.0018768310546875
1782846406719123200,7.677123291015625,-0.9908599853515625,-0.021392822265625,0.0018310546875
1782846406729128200,7.687128173828125,-0.9905853271484375,-0.0219573974609375,0.0035400390625
1782846406739132200,7.697132080078125,-0.99139404296875,-0.022186279296875,0.0035400390625
1782846406749137200,7.70713720703125,-0.9904937744140625,-0.0211639404296875,0.0019989013671875
1782846406759142100,7.71714208984375,-0.9885101318359375,-0.020965576171875,0.0029754638671875
1782846406769147100,7.727147216796875,-0.98974609375,-0.0216522216796875,0.00262451171875
1782846406779152100,7.737152099609375,-0.9907073974609375,-0.021942138671875,0.00274658203125
1782846406789157000,7.7471572265625,-0.98968505859375,-0.0220184326171875,0.0015106201171875
1782846406799162000,7.757162109375,-0.989898681640625,-0.021270751953125,0.00439453125
1782846406809167000,7.7671669921875,-0.9905242919921875,-0.0211181640625,0.002899169921875
1782846406819171000,7.777171142578125,-0.9904632568359375,-0.01995849609375,0.00244140625
1782846406829176000,7.787176025390625,-0.9910125732421875,-0.020355224609375,0.001708984375
1782846406839181300,7.797181396484375,-0.990936279296875,-0.0206298828125,0.00341796875
1782846406849186300,7.807186279296875,-0.99029541015625,-0.020965576171875,0.003265380859375
1782846406859191300,7.81719140625,-0.991363525390625,-0.02203369140625,0.0038909912109375
1782846406869196300,7.8271962890625,-0.991424560546875,-0.0211029052734375,0.00164794921875
1782846406879201300,7.837201171875,-0.9890899658203125,-0.0205078125,0.00543212890625
1782846406889206300,7.847206298828125,-0.99090576171875,-0.02154541015625,0.003387451171875
1782846406899210000,7.8572099609375,-0.990936279296875,-0.0208282470703125,0.001708984375
1782846406909215000,7.867215087890625,-0.9915313720703125,-0.0211029052734375,0.00225830078125
1782846406919220000,7.877219970703125,-0.9903411865234375,-0.0205078125,0.0017852783203125
1782846406929225000,7.887224853515625,-0.9904022216796875,-0.0216827392578125,0.0036773681640625
1782846406939230000,7.89722998046875,-0.9900054931640625,-0.0224456787109375,0.002685546875
1782846406949235000,7.90723486328125,-0.990386962890625,-0.0214080810546875,0.0021514892578125
1782846406959240000,7.917239990234375,-0.9913787841796875,-0.020294189453125,0.003509521484375
1782846406969245200,7.9272451171875,-0.9916229248046875,-0.0204620361328125,0.0041046142578125
1782846406979249000,7.937248779296875,-0.99114990234375,-0.0218658447265625,0.0036163330078125
1782846406989254000,7.94725390625,-0.9895172119140625,-0.0215606689453125,0.0048370361328125
1782846406999259000,7.9572587890625,-0.99029541015625,-0.0211639404296875,0.00262451171875
1782846407009263900,7.967263916015625,-0.9929351806640625,-0.0211944580078125,0.00311279296875
1782846407019268900,7.977268798828125,-0.989501953125,-0.021881103515625,0.003082275390625
1782846407029274000,7.987274169921875,-0.9901885986328125,-0.0225830078125,0.0015869140625
1782846407039279000,7.997279052734375,-0.99072265625,-0.0214080810546875,0.0029144287109375
1782846407049283000,8.007282958984375,-0.990478515625,-0.0203857421875,0.0030670166015625
1782846407059288000,8.0172880859375,-0.9915771484375,-0.0207977294921875,0.0034637451171875
1782846407069293000,8.02729296875,-0.98876953125,-0.0207061767578125,0.00439453125
1782846407079298000,8.037298095703125,-0.98931884765625,-0.0212554931640625,0.0039215087890625
1782846407089303000,8.047302978515624,-0.99102783203125,-0.0217132568359375,0.002716064453125
1782846407099308000,8.05730810546875,-0.98895263671875,-0.0198516845703125,0.0011444091796875
1782846407109313000,8.06731298828125,-0.9904022216796875,-0.0229034423828125,0.0041656494140625
1782846407119318000,8.077318115234375,-0.9913482666015625,-0.0210113525390625,0.0043487548828125
1782846407129323000,8.087322998046876,-0.991424560546875,-0.0225677490234375,0.003173828125
1782846407139327000,8.097326904296875,-0.99005126953125,-0.0216827392578125,0.003204345703125
1782846407149332000,8.10733203125,-0.9906768798828125,-0.0207061767578125,0.003021240234375
1782846407159337000,8.1173369140625,-0.990692138671875,-0.0217437744140625,0.0041961669921875
1782846407169342000,8.127342041015625,-0.9891510009765625,-0.0213775634765625,0.0036468505859375
1782846407179347000,8.137346923828124,-0.9903564453125,-0.02001953125,0.0027923583984375
1782846407189352000,8.14735205078125,-0.99090576171875,-0.0223541259765625,0.003326416015625
1782846407199357000,8.15735693359375,-0.99005126953125,-0.022674560546875,0.0018463134765625
1782846407209362000,8.16736181640625,-0.9907989501953125,-0.0219573974609375,0.0027313232421875
1782846407219366100,8.1773662109375,-0.9904327392578125,-0.0212860107421875,0.0038909912109375
1782846407229371100,8.18737109375,-0.9913787841796875,-0.0212860107421875,0.004119873046875
1782846407239376100,8.197376220703125,-0.990081787109375,-0.021514892578125,0.0027618408203125
1782846407249381000,8.207381103515624,-0.9905242919921875,-0.0214385986328125,0.001251220703125
1782846407259386000,8.21738623046875,-0.9896240234375,-0.021392822265625,0.0032958984375
1782846407269391000,8.22739111328125,-0.9910736083984375,-0.0207366943359375,0.0035552978515625
1782846407279396000,8.23739599609375,-0.9906005859375,-0.021759033203125,0.0043487548828125
1782846407289400000,8.247400146484376,-0.9902801513671875,-0.021697998046875,0.00323486328125
1782846407299405000,8.257405029296875,-0.9915771484375,-0.02130126953125,0.0029144287109375
1782846407309410000,8.26741015625,-0.9909210205078125,-0.0207672119140625,0.0023193359375
1782846407319415000,8.2774150390625,-0.990875244140625,-0.0223236083984375,0.0041961669921875
1782846407329420000,8.287419921875,-0.9913177490234375,-0.020965576171875,0.002777099609375
1782846407339425000,8.297425048828124,-0.9902496337890625,-0.0208587646484375,0.0027618408203125
1782846407349430000,8.307429931640625,-0.99090576171875,-0.0222930908203125,0.002410888671875
1782846407359435000,8.31743505859375,-0.989501953125,-0.0216522216796875,0.00250244140625
1782846407369439200,8.327439208984375,-0.990325927734375,-0.02130126953125,0.0029144287109375
1782846407379444200,8.3374443359375,-0.9895782470703125,-0.02020263671875,0.004730224609375
1782846407389449200,8.34744921875,-0.990875244140625,-0.02154541015625,0.00341796875
1782846407399454200,8.3574541015625,-0.99078369140625,-0.022796630859375,0.004119873046875
1782846407409459200,8.367459228515624,-0.9892120361328125,-0.0211334228515625,0.00384521484375
1782846407419464200,8.377464111328125,-0.9907989501953125,-0.0209503173828125,0.003021240234375
1782846407429469200,8.38746923828125,-0.990447998046875,-0.01971435546875,0.0032196044921875
1782846407439474200,8.39747412109375,-0.991668701171875,-0.021270751953125,0.0032196044921875
1782846407449478100,8.40747802734375,-0.9914703369140625,-0.0218658447265625,0.002349853515625
1782846407459483100,8.417483154296875,-0.9915008544921875,-0.0203704833984375,0.003662109375
1782846407469488000,8.427488037109375,-0.9904327392578125,-0.02032470703125,0.0045623779296875
1782846407479493000,8.4374931640625,-0.9915313720703125,-0.021636962890625,0.003082275390625
1782846407489498000,8.447498046875,-0.990875244140625,-0.023193359375,0.0013580322265625
1782846407499503000,8.457503173828124,-0.9899444580078125,-0.0215606689453125,0.0033416748046875
1782846407509508000,8.467508056640625,-0.9915618896484375,-0.021728515625,0.00360107421875
1782846407519512000,8.477511962890626,-0.9915924072265625,-0.0215301513671875,0.002197265625
1782846407529517000,8.48751708984375,-0.9906158447265625,-0.021026611328125,0.0033721923828125
1782846407539522000,8.49752197265625,-0.9917144775390625,-0.02215576171875,0.0038299560546875
1782846407549527300,8.50752734375,-0.989471435546875,-0.0209503173828125,0.0038299560546875
1782846407559532300,8.5175322265625,-0.991943359375,-0.0210723876953125,0.002685546875
1782846407569537300,8.527537353515624,-0.989501953125,-0.0210418701171875,0.0037994384765625
1782846407579542300,8.537542236328125,-0.99053955078125,-0.0210418701171875,0.0025482177734375
1782846407589547300,8.54754736328125,-0.990478515625,-0.02020263671875,0.0042266845703125
1782846407599551000,8.557551025390625,-0.9904632568359375,-0.0209808349609375,0.0025177001953125
1782846407609556000,8.567555908203126,-0.9913177490234375,-0.02093505859375,0.00457763671875
1782846407619561200,8.577561279296875,-0.992462158203125,-0.02093505859375,0.00408935546875
1782846407629566200,8.587566162109376,-0.9894561767578125,-0.0207977294921875,0.0031280517578125
1782846407639571200,8.5975712890625,-0.99212646484375,-0.021331787109375,0.002471923828125
1782846407649576200,8.607576171875,-0.9893798828125,-0.0211334228515625,0.0025634765625
1782846407659581200,8.617581298828124,-0.9897308349609375,-0.0211334228515625,0.0023345947265625
1782846407669586200,8.627586181640625,-0.9907684326171875,-0.022125244140625,0.0022430419921875
1782846407679589400,8.63758935546875,-0.9892425537109375,-0.0217132568359375,0.00421142578125
1782846407689594400,8.647594482421875,-0.988861083984375,-0.0216217041015625,0.002716064453125
1782846407699599400,8.657599365234375,-0.9893646240234375,-0.0203857421875,0.002685546875
1782846407709604400,8.667604248046874,-0.9912872314453125,-0.0222625732421875,0.002685546875
1782846407719609300,8.677609375,-1.02203369140625,-0.0212554931640625,-0.005645751953125
1782846407729614300,8.6876142578125,-0.972442626953125,-0.0201873779296875,0.0051422119140625
1782846407739619300,8.697619384765625,-0.9112396240234375,-0.025726318359375,0.02606201171875
1782846407749623300,8.707623291015626,-1.0367584228515625,-0.0196380615234375,-0.009490966796875
1782846407759628300,8.717628173828125,-1.0560150146484375,-0.0183258056640625,-0.0155487060546875
