time,seconds_elapsed,z,y,x
1782846399112897300,0.070897216796875,0.010297522130608559,0.0017556662946008146,-0.02432006298358319
1782846399122902300,0.08090234375,0.1864285805404186,0.010662537784408777,0.04855842533335089
1782846399132907300,0.0909072265625,0.16309622026979922,0.004317132546752691,0.014379017007292712
1782846399142912500,0.10091259765625,0.011653612914681434,0.024985607370361686,-0.010083685300394427
1782846399152917500,0.11091748046875,0.029304420417547224,0.014540073337499052,0.008813921092904638
1782846399162922500,0.120922607421875,0.1666734942346811,-0.0035225481029599903,0.039864822134887797
1782846399172927500,0.130927490234375,0.107418756711483,0.012916362859494983,0.011655654174718073
1782846399182932500,0.140932373046875,-0.004514262554049492,0.01753673440283164,-0.016573250532383097
1782846399192937500,0.1509375,0.08377017009854316,0.009497275131009519,0.011882542282750364
1782846399202941200,0.160941162109375,0.1490150879472494,0.015417915617953986,0.006161127862066496
1782846399212946200,0.1709462890625,0.08033142782151699,0.00747910370901227,-0.0076825150433345694
1782846399222951200,0.180951171875,0.049797757869958874,0.014943868365418165,-0.018185069643193854
1782846399232956200,0.1909560546875,0.09319090939462184,-0.009367346874717622,-0.0035664557433454317
1782846399242961200,0.200961181640625,0.1265636021643877,0.005036021405830979,0.010043805381155107
1782846399252966400,0.21096630859375,0.08271686165332794,0.012511161325778812,0.0016212011437979526
1782846399262971400,0.220971435546875,0.05413023411631584,0.011830850911419838,0.001327273398253601
1782846399272976400,0.230976318359375,0.09797580558359623,0.0135335083771497,0.012970086357707623
1782846399282981400,0.2409814453125,0.10186872136890887,0.009445252682827412,0.023673403677076564
1782846399292986400,0.250986328125,0.08181728246510028,0.013759517419058828,0.013366810040734707
1782846399302990000,0.260989990234375,0.07942132723927497,-0.0010049940577708185,0.003061100037093274
1782846399312995000,0.2709951171875,0.09273907397389411,0.004553480319585651,0.008503590201830957
1782846399323000300,0.281000244140625,0.1006739586263895,0.009017528790049254,0.007788950542896054
1782846399333005300,0.29100537109375,0.06894727949798107,0.00857289029508829,0.0008391336882836185
1782846399343010300,0.30101025390625,0.07942308080494404,-0.0004800386019051075,0.0042516706616850565
1782846399353015300,0.311015380859375,0.10411796160042286,-0.018594353696983305,0.012646172182564622
1782846399363020300,0.321020263671875,0.08197276528775692,0.0064892524214461445,-0.005268053763150237
1782846399373025300,0.331025390625,0.07838204731941223,0.009429744586441665,-0.005478773904382251
1782846399383030300,0.3410302734375,0.0911012436389923,0.010631192798074333,-0.007383290068164933
1782846399393035300,0.35103515625,0.09828384861946106,0.02322245188904926,0.004102859608409926
1782846399403040300,0.361040283203125,0.08227087145149707,0.009367785266134887,0.007393279455928131
1782846399413044200,0.371044189453125,0.07673369559049606,0.006857592543493956,0.004962590843439102
1782846399423049200,0.38104931640625,0.10007774629890918,0.006229121914226561,0.003856033824046608
1782846399433054200,0.39105419921875,0.08227145597338675,0.008574479463975876,0.006948506246937904
1782846399443059200,0.40105908203125,0.07628536730110645,0.00426595034878701,0.0027528834712924432
1782846399453064200,0.411064208984375,0.08855448176562786,0.002212232689373195,0.009302640758187044
1782846399463069200,0.421069091796875,0.09184767809212208,-0.006212901431787759,0.008155448051018175
1782846399473074200,0.43107421875,0.09050269322395324,0.00480568324867636,0.016403202611545566
1782846399483079200,0.4410791015625,0.09469254612922667,-0.004057002039533108,0.020330548106133935
1782846399493084200,0.451084228515625,0.08631459388434887,-0.003389478041511029,0.015312498465122188
1782846399503089200,0.461089111328125,0.09948036492764949,-0.006565295066032558,0.012248608249321113
1782846399513094100,0.47109423828125,0.08242050905525684,-0.0014295030801557004,0.017091413204569833
1782846399523098000,0.48109814453125,0.09797931271493435,0.0024863734556362033,0.004613190600590314
1782846399533103000,0.49110302734375,0.09154197314381599,0.005019179868884384,-0.005505524913989939
1782846399543108400,0.5011083984375,0.09483458494842052,0.007368647338170557,0.00006687980730785057
1782846399553113300,0.51111328125,0.09408756597340107,0.02302316645728424,0.0038673018534434956
1782846399563118300,0.521118408203125,0.07418576467335224,0.0058364876011386515,0.005980898757220712
1782846399573123300,0.531123291015625,0.088548636546731,0.021812365895416585,0.005336415424779989
1782846399583128300,0.54112841796875,0.09258826732635497,0.012694646400213241,0.01208144868860254
1782846399593133300,0.55113330078125,0.08854922106862068,0.013796945086307823,0.0026216240577283316
1782846399603138300,0.56113818359375,0.08136427800059318,0.0032492475869134066,-0.001384597642638255
1782846399613143300,0.571143310546875,0.08839666085541248,0.00851246534474194,-0.01118903217681218
1782846399623148300,0.581148193359375,0.08330956684947013,0.01373737865248695,-0.012765661243232898
1782846399633152300,0.59115234375,0.08944412408173084,0.016152403904963284,0.019098289197706616
1782846399643157200,0.6011572265625,0.08450374507009982,0.008766312241647391,0.013151425140828359
1782846399653162200,0.611162353515625,0.08974106120169162,0.017447850542981178,0.0008291671334067359
1782846399663167200,0.621167236328125,0.09183715669810771,0.006173117410670966,0.000490936738543678
1782846399673173000,0.631173095703125,0.09662789810597897,-0.00004793079495429992,0.0029601581299793906
1782846399683178000,0.641177978515625,0.0900426744967699,0.012859518105722964,0.01458226622812217
1782846399693183000,0.651182861328125,0.08181026820242404,0.012815642431378364,0.005845559106871951
1782846399703188000,0.66118798828125,0.07597264809012412,0.01422877889862284,0.001819091486209072
1782846399713193000,0.67119287109375,0.0861474206238985,0.010491857392620294,-0.009071297954034526
1782846399723198000,0.681197998046875,0.09677227501273154,0.00734044415699318,-0.010978736727265641
1782846399733203000,0.691202880859375,0.09243570711314678,0.010634754728339612,-0.02296897945147939
1782846399743207000,0.70120703125,0.09004150545299053,0.007183426964376121,0.0015433615510584786
1782846399753212000,0.7112119140625,0.08585457515716552,0.0009045841569080949,0.015612314812047405
1782846399763217000,0.721216796875,0.10336275931894778,-0.008855305699352174,-0.006179460386489518
1782846399773222000,0.731221923828125,0.1030570543706417,0.021050112818647174,-0.006165973000542726
1782846399783227000,0.741226806640625,0.09437690430879592,0.010636873620189726,0.011386111951759084
1782846399793232000,0.75123193359375,0.08195639867484569,0.006180314336437732,-0.0070925794763024895
1782846399803236900,0.76123681640625,0.09003624475598335,0.014442695643939078,-0.001426233410835266
1782846399813241900,0.771241943359375,0.09003566023409366,-0.0027437822828069326,0.006263519657461438
1782846399823246800,0.781246826171875,0.08464753745496273,0.0021027079002931713,0.003653496989270206
1782846399833251800,0.791251953125,0.09437164361178875,0.014633615106157958,-0.003178840098669752
1782846399843256800,0.8012568359375,0.09227730168104172,-0.0026030038389377296,-0.0021991334624937736
1782846399853261000,0.811260986328125,0.07970715844333172,-0.005141618938464671,0.0029750063559506085
1782846399863266000,0.82126611328125,0.08390227204561233,-0.010012330247368664,0.0277382214135956
1782846399873271000,0.83127099609375,0.08868833727836609,0.009839567496348171,-0.01373174577943282
1782846399883276000,0.841276123046875,0.08255494908988475,-0.005509173609223216,0.013424527010763994
1782846399893281000,0.851281005859375,0.07267945176362992,0.0005871887708082795,0.005549622067331802
1782846399903286000,0.8612861328125,0.10095920530855655,-0.0070898121304810045,0.0014308273875620215
1782846399913291000,0.871291015625,0.11307751312553882,0.0027160357593558728,0.0022056157189188526
1782846399923296000,0.8812958984375,0.09093056324720382,0.0067544061636552214,-0.004844122412789147
1782846399933301000,0.891301025390625,0.08075462166965007,0.009343911200203002,0.0036328537767520174
1782846399943306000,0.901305908203125,0.09287234496474266,0.018157514915987848,-0.009272846124833449
1782846399953310000,0.91131005859375,0.08359305996596812,0.01944477824755013,0.0026146714438451454
1782846399963315000,0.92131494140625,0.09735971951186656,0.014504307904373853,0.0029320302973268554
1782846399973320000,0.93131982421875,0.09930442383885384,0.001356145583000034,-0.012411233198817352
1782846399983325000,0.941324951171875,0.07939969992935657,0.00852090437952429,0.014634370874695013
1782846399993330000,0.951329833984375,0.0813414816468954,0.013765618366282432,0.0038393224345520138
1782846400003335000,0.9613349609375,0.08103986835181713,0.010399247205723076,-0.007442230880900751
1782846400013340000,0.97133984375,0.08851999497413635,-0.006739592187013477,-0.0036427038839086886
1782846400023345000,0.981344970703125,0.08462532562315464,0.006922821533121168,0.009465051078551914
1782846400033350000,0.991349853515625,0.08806757503151894,0.007197601620201021,0.013195940135989803
1782846400043355000,1.00135498046875,0.09779226571023464,-0.001587141327280551,0.009808880097139627
1782846400053359900,1.01135986328125,0.08881108687520027,0.004539470060542225,-0.0014483835938503033
1782846400063364900,1.02136474609375,0.08177519688904285,0.009593228052463381,0.005517066938022617
1782846400073369000,1.031369140625,0.07354395963847636,0.014737349475268273,0.010824009673146064
1782846400083374000,1.0413740234375,0.07414192553162574,0.005769523312151432,0.000013599267089739441
1782846400093379000,1.051379150390625,0.08162205215394497,0.0030065066059119998,0.008768606946722138
1782846400103384000,1.061384033203125,0.10077157378196716,0.013533106518350541,0.003647459974128287
1782846400113389000,1.07138916015625,0.08745148895978927,0.0025511640538461505,-0.0048404805674217635
1782846400123394000,1.08139404296875,0.08879764287173747,0.011533164872787893,-0.006823393446370027
1782846400133399000,1.09139892578125,0.09373509927392006,0.02355223183268681,-0.003287300875247456
1782846400143404000,1.101404052734375,0.07772153758406639,0.010641330599598585,-0.016911506043421103
1782846400153409000,1.111408935546875,0.07308277186751365,0.016928630708158015,0.005401660397427622
1782846400163414000,1.1214140625,0.08879238217473029,0.011034385037794709,0.01152256584696006
1782846400173418000,1.13141796875,0.0902870046466589,0.00767690956974402,0.015269741602207067
1782846400183423000,1.141423095703125,0.0883393777102232,0.020954580022301522,0.0031563040398759766
1782846400193428000,1.151427978515625,0.09941197586655616,0.010044752945937216,0.006619671584793832
1782846400203433000,1.161432861328125,0.08713993879258632,0.004899206751026213,0.005578503385232761
1782846400213438000,1.17143798828125,0.07876023298203945,0.0008375833353027701,-0.005829925429611467
1782846400223443000,1.18144287109375,0.10045651648342609,0.007760240471642464,-0.01645726631976431
1782846400233448000,1.191447998046875,0.08563888657987118,0.011940814091917126,0.010561666659242472
1782846400243453000,1.201452880859375,0.08907762885689735,0.011455167733132838,0.010361655141692608
1782846400253458000,1.2114580078125,0.09311609059274197,0.012121029497031121,0.009834674408810678
1782846400263463000,1.221462890625,0.09491291088163852,0.0036607144646346565,0.008826136687083635
1782846400273468000,1.231468017578125,0.07441080560088158,0.0004490772080607712,-0.001907018648122903
1782846400283472100,1.24147216796875,0.09116554104685783,0.0033270985960960385,-0.002669374472880736
1782846400293477000,1.25147705078125,0.09071545919179916,-0.000639923605043441,0.0013960688847233541
1782846400303482000,1.261482177734375,0.07320610598623752,0.016803122898656875,-0.0036378655952983533
1782846400313487000,1.271487060546875,0.09055939184725284,-0.00034720600247383117,0.005343571251351386
1782846400323492000,1.2814921875,0.09310264658927916,0.006096709439903497,0.004301955527218524
1782846400333497000,1.2914970703125,0.08711655791699886,0.0179202355613932,-0.010970692701416556
1782846400343502000,1.301502197265625,0.07499649653434753,0.028377405233122408,-0.007792706552695016
1782846400353507000,1.311507080078125,0.07095335862338542,0.017120755746774373,-0.01672526732289698
1782846400363512000,1.321511962890625,0.0833721106916666,0.022430077668651936,-0.010266579003073274
1782846400373517000,1.33151708984375,0.09354688322544097,0.017805431808996946,0.0012870076032355426
1782846400383522000,1.34152197265625,0.09160100985467433,0.007358947928063571,0.0037173308895435183
1782846400393526000,1.351526123046875,0.08112637759149074,0.007367423495464026,0.007468687346274964
1782846400403531000,1.361531005859375,0.08681377557814121,0.012076751963887362,-0.009179697081819177
1782846400413536000,1.371535888671875,0.08502163146436215,0.006114135498739778,-0.024799720276286824
1782846400423541000,1.381541015625,0.08936112197339534,0.0067065849665552376,-0.01193549859598279
1782846400433546000,1.3915458984375,0.1062684176325798,0.01666687449943274,-0.0025200725125498137
1782846400443551000,1.401551025390625,0.08501987789869309,0.019671718871220944,-0.004239973374025431
1782846400453556000,1.411555908203125,0.08052724265456199,0.014888192655425517,-0.005599313277821056
1782846400463561000,1.42156103515625,0.09309446328282356,0.005718414179421961,-0.01979493197564734
1782846400473566000,1.43156591796875,0.11164718806147575,0.01452865689434111,-0.009090874870761764
1782846400483571000,1.441571044921875,0.08620645733475685,0.016283099346235393,0.00163001007133862
1782846400493576000,1.451575927734375,0.09458557862341403,0.010642590974923222,-0.010780348627932835
1782846400503580200,1.461580078125,0.09413432772457599,0.023148966527730224,-0.00839470701685641
1782846400513585200,1.471585205078125,0.08739946651160717,0.007491031608823686,0.010689861899462994
1782846400523590100,1.481590087890625,0.0894938084423542,-0.0006974259459413588,-0.012080382392811588
1782846400533595100,1.49159521484375,0.08575228382647038,0.009660356738232076,-0.020091295990161597
1782846400543600000,1.50160009765625,0.09263619812130927,0.014574176536500453,0.010413410445104819
1782846400553605000,1.511605224609375,0.08396189327836036,0.013777363603003322,0.015513832006789742
1782846400563610000,1.521610107421875,0.08829729213416576,0.017085191243048758,-0.0004264155683922581
1782846400573615000,1.531614990234375,0.08845043686926364,0.006596914047002792,0.008196289234771392
1782846400583620000,1.5416201171875,0.08127133902013302,0.004039283719751984,0.010383787058398592
1782846400593625000,1.551625,0.08755611837804317,0.004929291362036019,-0.00798332918739179
1782846400603630000,1.561630126953125,0.07079846032261848,-0.002948894667159766,-0.007679900677851401
1782846400613634000,1.571634033203125,0.09638356795608997,0.016953125828597693,-0.009167760048853233
1782846400623639000,1.58163916015625,0.09997311688065529,0.011032247879635542,-0.011742606372386217
1782846400633644000,1.59164404296875,0.09638181439042091,0.0014464359486475585,-0.01221356890198076
1782846400643649000,1.60164892578125,0.08695815248489379,0.0132550384956412,0.0019054568786988964
1782846400653654000,1.611654052734375,0.09428747245967388,0.026093148487154393,0.011607485917746088
1782846400663659000,1.621658935546875,0.0957809258878231,0.01335548492912203,0.010890074346412438
1782846400673663700,1.631663818359375,0.08545417766273021,0.01000602837074548,0.020532119109819176
1782846400683668700,1.641668701171875,0.06525310115516185,0.011943170445784926,-0.007080973520188126
1782846400693673700,1.651673828125,0.0987736779630184,0.003784340844303369,-0.00852482935268199
1782846400703678700,1.6616787109375,0.08904431110918522,0.018451218899246304,0.0026141166047076695
1782846400713683700,1.67168359375,0.07063830132484436,0.021764380301535127,0.004548564399161841
1782846400723687700,1.681687744140625,0.09427519749999046,0.008864767647441476,-0.006519492296082899
1782846400733692700,1.691692626953125,0.09546937572062016,0.010024641739670187,0.003249373167788144
1782846400743697700,1.70169775390625,0.09217559487223624,0.01637306091831997,0.017683812440035397
1782846400753702700,1.71170263671875,0.08902852901816367,0.003834755857288837,0.013303517279867082
1782846400763707600,1.721707763671875,0.06777531310915946,0.012410806223843246,0.01088970217036549
1782846400773712600,1.731712646484375,0.09021978462934493,0.007387205908168107,-0.01344214714913396
1782846400783717600,1.741717529296875,0.08094459128379822,0.00833762023448944,-0.01339323682335671
1782846400793722600,1.75172265625,0.0875327375024557,0.01354465082567185,0.008716248855111188
1782846400803727600,1.7617275390625,0.10069617045819759,0.008814681428018957,-0.004002728268760256
1782846400813732600,1.771732666015625,0.0945610287040472,0.004039886507950723,-0.0011737245210679248
1782846400823737600,1.781737548828125,0.08767419179975985,0.009270480637811124,-0.0074883510279702015
1782846400833741600,1.791741455078125,0.09410627067387103,0.008782423126231878,-0.009503768803877755
1782846400843746600,1.80174658203125,0.0957499462276697,0.01813992446037009,-0.013299854884902014
1782846400853751600,1.81175146484375,0.09230535873174667,0.017242957354336976,-0.003258218627946917
1782846400863756500,1.821756591796875,0.09005670302212238,0.008465630528330803,0.004756702140951529
1782846400873761500,1.831761474609375,0.07644026560187339,0.013524850146658718,0.006574706781771965
1782846400883766500,1.8417666015625,0.10127718521654605,0.018445665941294282,0.0018684950023307465
1782846400893771800,1.851771728515625,0.0798778388351202,0.008892368040420115,0.01241440697001526
1782846400903776800,1.86177685546875,0.0924473975509405,0.012641272245161235,0.0003263595772674307
1782846400913781800,1.87178173828125,0.10472001914680004,0.017214626308996228,-0.00011457085695583372
1782846400923786800,1.881786865234375,0.09244973563849926,0.0018092231127433479,0.009677764530759305
1782846400933791700,1.891791748046875,0.08811024512946605,0.011384623247571288,0.00327252799780108
1782846400943795700,1.901795654296875,0.10741466505825518,0.008049779736436903,-0.0006811186985345557
1782846400953800700,1.91180078125,0.09948270301520824,0.019171879590302705,0.006443470201094169
1782846400963805700,1.9218056640625,0.08960954377651215,0.016644626135006547,0.003119301064312458
1782846400973810700,1.931810791015625,0.08601882580816746,0.003420074109174311,0.0031855940664419903
1782846400983815700,1.941815673828125,0.10008651412725449,0.02681817482607439,0.011994884650001767
1782846400993820700,1.951820556640625,0.09888824425339698,0.006974825714994221,-0.00389580186214298
1782846401003825700,1.96182568359375,0.09933481897711753,0.0211478193057701,0.010316035034833476
1782846401013830700,1.97183056640625,0.09678688805997371,0.015487254527118056,0.01228409968781052
1782846401023835600,1.981835693359375,0.0970879168331623,0.012261899272445588,0.007791761271201539
1782846401033840600,1.991840576171875,0.1021767644047737,0.010119443883653729,-0.007697244538296945
1782846401043845600,2.001845703125,0.09110884242355823,0.006467679910454899,0.010022050207073334
1782846401053849600,2.011849609375,0.09231178847253323,0.012047818130347877,0.018658527807262727
1782846401063854600,2.0218544921875,0.08303133442997931,0.010229863721877336,0.0006872721613966859
1782846401073859600,2.031859619140625,0.07734393644332885,0.019247885702271015,-0.01363782270157244
1782846401083864600,2.041864501953125,0.09679507136642933,0.00422625765921548,0.0008130402658018283
1782846401093869600,2.05186962890625,0.08946282878220081,0.016480229353532196,0.00021506752278655766
1782846401103874600,2.06187451171875,0.09738953012824057,0.022055563534144312,-0.005932458788901567
1782846401113879800,2.0718798828125,0.08930909952521324,0.018355887032300233,-0.00662438429252943
1782846401123884800,2.081884765625,0.08362403962612151,0.03040505686951801,-0.010382755011937115
1782846401133889800,2.091889892578125,0.08916413809657096,0.014684157983306795,-0.01440155534937512
1782846401143894800,2.101894775390625,0.0932061069637537,0.017583532686624676,-0.0026370773551869205
1782846401153899800,2.111899658203125,0.1005436102449894,0.013624547661468386,-0.0029159536620718424
1782846401163903700,2.12190380859375,0.09994798243939876,0.014673307795729488,0.00716752385905711
1782846401173908700,2.13190869140625,0.09096914169192313,0.01872744202474132,-0.007217205936391837
1782846401183913700,2.141913818359375,0.09066869744062424,0.012793576730042696,0.0027638660896103827
1782846401193918700,2.151918701171875,0.09306114553511143,0.014062226692680268,-0.0011556637079920618
1782846401203923700,2.161923828125,0.0932101986169815,0.0019743688128888606,-0.002267636688018683
1782846401213928700,2.1719287109375,0.09231120395064353,0.010252513945102692,0.015660384887608233
1782846401223933700,2.18193359375,0.09126490976810454,0.01093826771955937,0.013451435567287262
1782846401233938700,2.191938720703125,0.0792939014673233,0.015534509468637405,-0.00036120941165136174
1782846401243943700,2.201943603515625,0.08063830181360244,0.005315039276611059,0.002364786052715499
1782846401253948700,2.21194873046875,0.08198737833499908,0.01569317062906921,0.01320539751750184
1782846401263953700,2.22195361328125,0.09096037386357783,0.01365934498021379,0.000008144490548875182
1782846401273957600,2.23195751953125,0.08572598034143447,0.02656582576651126,-0.0011824649499496444
1782846401283962600,2.241962646484375,0.07869184392094612,0.017168814405892043,-0.0003717445053975098
1782846401293967600,2.251967529296875,0.08018588187098502,0.021451734155789017,-0.007478669884172268
1782846401303972600,2.26197265625,0.08766659301519393,0.006680062285810709,-0.01709189954504836
1782846401313977600,2.2719775390625,0.08691548238694667,0.0026267135080881416,0.0013677241396508179
1782846401323982600,2.281982666015625,0.10397124660611153,0.013523224445153028,0.010900534091633744
1782846401333987800,2.29198779296875,0.0878074627906084,0.0209864912642166,0.0003396620168350637
1782846401343992800,2.301992919921875,0.09214870686531067,0.008334898554440587,0.01691555659745354
1782846401353997800,2.311997802734375,0.1015758759021759,0.021064013479836285,0.018287881563697008
1782846401364002800,2.3220029296875,0.09229600638151168,0.009368241923861206,0.0028669976705219596
1782846401374006800,2.3320068359375,0.08615735749602317,0.0014236213286407291,0.006177967115724459
1782846401384011800,2.34201171875,0.08106558731496334,0.007752842616476118,-0.0033767989397398192
1782846401394016800,2.352016845703125,0.07567863357961177,0.01195170081211254,0.007630047353869304
1782846401404021800,2.362021728515625,0.09123860628306865,0.029542960147466508,-0.007002524289384018
1782846401414026800,2.37202685546875,0.10201309827566146,0.021885540729481727,-0.012199677373946179
1782846401424031700,2.38203173828125,0.0895937616854906,0.0017948475275188682,0.007762439278594683
1782846401434036700,2.39203662109375,0.09079670773446559,0.013669628912210463,0.010373991750169079
1782846401444041700,2.402041748046875,0.08586217394173144,0.025051585278660058,-0.0017157201599911785
1782846401454046700,2.412046630859375,0.07463818461596965,0.0021784400176256893,-0.016092513244156725
1782846401464051700,2.4220517578125,0.09513853633105754,0.015802914613857865,-0.003350694100814871
1782846401474056700,2.432056640625,0.09214578425586223,0.014141813001222907,0.01573753949375823
1782846401484060700,2.442060791015625,0.0905003551363945,0.008911291936598717,0.0014833156266249716
1782846401494065700,2.452065673828125,0.08855565080940724,0.01785637654494494,-0.002038131931214593
1782846401504070700,2.462070556640625,0.07972820123136043,0.017683303266670555,-0.008183699181256816
1782846401514075600,2.47207568359375,0.09259645063281059,0.004984711343701928,-0.005124560489098076
1782846401524080600,2.48208056640625,0.07778875760138035,0.007862750998046248,0.004818428565817885
1782846401534085600,2.492085693359375,0.09604805239140987,0.008914086681883782,-0.009934392473218031
1782846401544090600,2.502090576171875,0.09993804556727409,0.006106189654301852,-0.013207973067078273
1782846401554095900,2.512095947265625,0.08093406988978386,0.0013104432777501641,0.0073334344608942045
1782846401564100900,2.522100830078125,0.08871639432907104,0.00858503739060834,0.014454365532135124
1782846401574105900,2.53210595703125,0.08662439048588276,0.015935582816507667,0.0023818673349684104
1782846401584110800,2.54211083984375,0.07929623955488205,0.007815514322835952,0.00782945836650906
1782846401594114600,2.552114501953125,0.0804921713411808,0.01579655793830752,0.009004619076126255
1782846401604119800,2.562119873046875,0.10473521671593189,0.0022721827156841753,-0.002353440391505137
1782846401614124800,2.572124755859375,0.08693067995607852,0.004393193457648158,-0.006997946295677683
1782846401624129800,2.5821298828125,0.09964929175376891,0.024936215270683168,-0.006013065727462526
1782846401634134800,2.592134765625,0.0757078596740961,0.014738354122266173,-0.004139383093360811
1782846401644139800,2.602139892578125,0.08124328196942805,0.01717966459346935,-0.0031141864977777003
1782846401654144800,2.612144775390625,0.09006956250369548,0.018312979472335428,0.0037698739275336263
1782846401664149800,2.622149658203125,0.09575403788089752,0.017797138904687017,0.01501413200647803
1782846401674154800,2.63215478515625,0.09141279380619526,0.016512652052100747,0.008003093333786819
1782846401684159200,2.6421591796875,0.0951537339001894,0.018305398954078553,-0.015827978273166808
1782846401694164200,2.652164306640625,0.09515490294396876,0.028299627289175986,-0.00036327578786294907
1782846401704168200,2.662168212890625,0.08108721462488173,0.019096421467605977,-0.008455332896602339
1782846401714173400,2.67217333984375,0.08707271877527237,0.0041484979815781114,-0.004168264411261771
1782846401724178400,2.682178466796875,0.07988894475102425,0.011519081548508257,-0.002779285137739498
1782846401734183400,2.692183349609375,0.07868950583338737,0.0026497473238036033,0.010905639525013975
1782846401744188400,2.7021884765625,0.09170622379481792,0.01377754626609385,0.007404040595248807
1782846401754193400,2.712193359375,0.08467267189621924,0.016355360864847898,0.01217690841971198
1782846401764198400,2.722198486328125,0.07928630268275737,0.014381266046594827,0.00011968542349059134
1782846401774203400,2.732203369140625,0.08631927005946635,0.013175726181734352,0.0061463801007950675
1782846401784208400,2.74220849609375,0.07868424513638018,0.0074695321630686515,-0.002538624232681468
1782846401794213400,2.75221337890625,0.08571896607875823,0.014875661967415361,0.016427343822247347
1782846401804217000,2.762217041015625,0.08587327985763549,0.017352719605434684,0.0029726500020828095
1782846401814222000,2.77222216796875,0.09410042545497417,0.01028309174645692,0.010390317263884934
1782846401824227000,2.78222705078125,0.08886720097661018,0.018919055606704205,-0.002537126395339146
1782846401834232000,2.792232177734375,0.07869418200850486,0.0026714842315763232,-0.007570282273937482
1782846401844237000,2.802237060546875,0.08663023570477962,0.015315898281894624,-0.002374590494099539
1782846401854242000,2.812241943359375,0.09186872088015079,0.005526234341878444,-0.00464573203016771
1782846401864247000,2.8222470703125,0.08887363071739673,0.019707173777092246,0.012478989788959734
1782846401874252300,2.832252197265625,0.07675240029096603,0.011194178709387778,-0.003980329207284376
1782846401884257300,2.84225732421875,0.09830313784182071,0.029603622559830546,0.004462292621505912
1782846401894262300,2.85226220703125,0.08498772919476032,0.02187100074747577,-0.006141482446680311
1782846401904267300,2.862267333984375,0.0866308202266693,0.004199954174179584,0.004156272579368669
1782846401914271200,2.872271240234375,0.07884849578738212,0.020874993713758883,0.018668980702618135
1782846401924276200,2.882276123046875,0.0854331348747015,0.02996577040310949,0.004154914022632874
1782846401934281200,2.89228125,0.09755378077924251,0.02520356096997857,-0.006528410821477882
1782846401944286200,2.9022861328125,0.09366378760337829,0.006591689882613718,-0.015384422057017217
1782846401954291200,2.912291259765625,0.09186638279259204,0.011775339598208666,0.00750650545587996
1782846401964296200,2.922296142578125,0.10159165799319743,0.012579915713053195,0.011115147239982616
1782846401974301200,2.93230126953125,0.08229016067385674,0.008466909169964492,0.02182577336626127
1782846401984306200,2.94230615234375,0.09201835848391056,0.0010364121093414723,-0.00710750305079855
1782846401994311200,2.952311279296875,0.09411562302410602,0.009309917599055915,0.0008874640587484463
1782846402004316200,2.962316162109375,0.07810323037803173,0.03000750891929492,0.0026234552552108653
1782846402014321200,2.972321044921875,0.08303951773643493,0.010052223866339772,0.00660332323819166
1782846402024325000,2.9823251953125,0.08498772919476032,0.01679040954755619,0.008048560460307636
1782846402034330000,2.992330078125,0.09097557143270969,0.018341949838493018,-0.0007595747792045586
1782846402044335000,3.002335205078125,0.08364332884848118,0.017584555599931627,-0.005281863092794083
1782846402054340000,3.012340087890625,0.05281798247396945,0.0035290691752918064,0.008883515730395447
1782846402064345000,3.022344970703125,0.07556289824545383,0.0083420772138983,0.011634494938969146
1782846402074350000,3.03235009765625,0.09142448424398898,0.007878514822758734,0.009635729187051766
1782846402084355000,3.04235498046875,0.08514145845174789,0.013646211504004895,0.0013064726388198322
1782846402094360000,3.052360107421875,0.0818470930814743,0.016592421023733914,0.007949102690804283
1782846402104365000,3.062364990234375,0.10010463430583476,0.003212550572026521,0.0005757061122800223
1782846402114370000,3.0723701171875,0.09950374580323695,-0.0034219190063886342,-0.006766685689915903
1782846402124374300,3.082374267578125,0.09456687392294406,0.01671040311390534,-0.005821349397511221
1782846402134379300,3.092379150390625,0.10668693530559539,0.005339406532887369,0.006441830799856689
1782846402144384300,3.10238427734375,0.08902969806194305,0.0011549056561663746,-0.005154243241308722
1782846402154389200,3.11238916015625,0.08005319540202617,0.00001216536182910204,0.004090897459269036
1782846402164394200,3.122394287109375,0.08334872981607913,0.006277947758324444,-0.00010521622343221678
1782846402174399200,3.132399169921875,0.09352291782796382,0.0028827340957708657,0.0084634979367489
1782846402184404200,3.142404296875,0.08559095578491688,0.007117887447495013,0.014124147197080309
1782846402194409200,3.1524091796875,0.10474456906616687,0.005327770894020796,0.0002809769324259832
1782846402204414200,3.162414306640625,0.08169803999960422,0.007951525260042398,-0.0013045432599261403
1782846402214419200,3.172419189453125,0.08334230007529259,0.012527637536544352,0.0016796715990756636
1782846402224424200,3.182424072265625,0.09231997177898883,0.011787486693728715,0.010323101813148241
1782846402234428200,3.19242822265625,0.07286649876832961,0.02497837391197681,0.007769346226705238
1782846402244433200,3.20243310546875,0.08514028940796851,0.018713705760333686,-0.00514068279012572
1782846402254438100,3.212438232421875,0.09442015892863273,0.021452556139696387,-0.00832595947944792
1782846402264443100,3.222443115234375,0.09606734161376952,0.012536715892143547,-0.004581900413183029
1782846402274448100,3.2324482421875,0.0796072052001953,0.00897449336592108,-0.008246836678497493
1782846402284453000,3.242453125,0.09591770401000976,-0.0016306334091350436,-0.0005719569523469544
1782846402294458000,3.2524580078125,0.0870885008662939,0.005424691929854453,0.01645402861648472
1782846402304463000,3.262463134765625,0.07377250769734382,0.014305917521752417,0.008606208042800425
1782846402314468000,3.272468017578125,0.07841127341389656,-0.000526818619389087,0.012707425966684241
1782846402324473000,3.28247314453125,0.09068447953164577,0.01625864075841382,-0.0005938514070352539
1782846402334477300,3.292477294921875,0.09188391844928263,0.012410075571481138,0.00032538461302174254
1782846402344482300,3.302482421875,0.07482523162066936,0.009156626733485608,-0.012814820447470992
1782846402354487300,3.3124873046875,0.0806622672110796,0.01792511266591027,0.0000939322110149078
1782846402364492300,3.3224921875,0.10011340213418006,0.008707056335080414,-0.002729388431273401
1782846402374497300,3.332497314453125,0.11163666666746139,0.003588069353532046,0.010069286882283632
1782846402384502300,3.342502197265625,0.09532850594520569,0.012008983957301824,0.027315975130244623
1782846402394507300,3.35250732421875,0.09248656051754951,0.003910305311530828,-0.0008813813778338953
1782846402404512300,3.36251220703125,0.09712357266843319,0.011917250553239136,-0.020276934205775615
1782846402414517200,3.372517333984375,0.09248889860510826,0.008152345061767846,-0.0067418846087995915
1782846402424522200,3.382522216796875,0.0890489872843027,0.014519048815779386,-0.010433649515535217
1782846402434527200,3.39252734375,0.0987783541381359,0.019460231545008717,-0.013541945128643419
1782846402444531200,3.40253125,0.07842530193924903,0.016400515180826185,0.0002677749575581401
1782846402454536200,3.4125361328125,0.08396423136591911,0.014508089030347764,-0.011800752600678243
1782846402464541200,3.422541259765625,0.08636310920119285,0.005640526637621224,0.0017401467817719093
1782846402474546200,3.432546142578125,0.08292085979282855,-0.007063764373771846,0.0060675358610576945
1782846402484551200,3.44255126953125,0.08112403950393199,0.012884524682816118,0.0014217901311581954
1782846402494556200,3.45255615234375,0.09159458011388778,0.004379785986803472,0.006192787942232098
1782846402504561200,3.46256103515625,0.08919804036617278,0.011377152327168733,0.01417555772390915
1782846402514566100,3.472566162109375,0.08904723371863364,0.00274707021843642,-0.008606959244760218
1782846402524571100,3.482571044921875,0.0863560949385166,0.010570091994293034,0.0050562581929727455
1782846402534576000,3.492576171875,0.08680559227168559,0.0201078635324724,0.006249043607537168
1782846402544580000,3.502580078125,0.08934943153560161,0.013654467875696718,0.0005165963361854664
1782846402554585300,3.51258544921875,0.0878553935855627,0.010254413641244173,-0.004385918900067918
1782846402564590300,3.52259033203125,0.094290979591012,0.01512678718427196,-0.0005801836412865668
1782846402574595300,3.53259521484375,0.08755787194371223,0.008231365114729852,0.0044179991053417324
1782846402584600300,3.542600341796875,0.07992693867385386,-0.0015330913187935947,-0.0011880224744789303
1782846402594605300,3.552605224609375,0.09399111986160277,0.0096105627797544,-0.00995251950166421
1782846402604610300,3.5626103515625,0.09848492414951324,0.019849650987703353,0.006365240165998693
1782846402614615300,3.572615234375,0.08083119403719902,0.01548782078269869,-0.013416058293229434
1782846402624620300,3.582620361328125,0.09100713561475277,0.016946659555193037,-0.0011196037306333891
1782846402634625300,3.592625244140625,0.08981003478467464,0.0060177259195595975,-0.025400453515257684
1782846402644629200,3.602629150390625,0.09250643426179886,0.010368943399004637,-0.014690809203090611
1782846402654634200,3.61263427734375,0.10671908400952815,-0.0007276566874235868,-0.013765033844392746
1782846402664639200,3.62263916015625,0.09624445174634456,0.009596643852256238,-0.0051170347697683605
1782846402674644200,3.632644287109375,0.0896592281371355,0.01848703913129866,-0.0015354453893727622
1782846402684649500,3.6426494140625,0.09639408935010432,0.0075189425290562205,-0.0026262591336504554
1782846402694654500,3.652654541015625,0.1067214220970869,-0.005007343300618231,-0.004978350101574324
1782846402704659500,3.662659423828125,0.0923562121361494,0.008909264376293868,-0.009345411320833955
1782846402714664400,3.67266455078125,0.08756839333772659,0.01800354819698259,-0.006670814966852776
1782846402724669700,3.682669677734375,0.0836813227713108,0.014276362633705138,0.0059753412326914255
1782846402734674700,3.6926748046875,0.07440262229442596,0.009371000136528163,-0.0042776019706740045
1782846402744678400,3.702678466796875,0.08652268367707729,0.02003569334540516,0.001243079413252417
1782846402754683400,3.712683349609375,0.09325929845571518,0.024395678653195498,-0.011606887696124613
1782846402764688400,3.7226884765625,0.10103870028555392,0.01472774139670655,-0.009477787262538914
1782846402774693400,3.732693359375,0.08966565787792205,0.007267689448036253,-0.0031051081421785056
1782846402784698400,3.742698486328125,0.08786942211091518,0.007741590570099651,-0.0021108683738624676
1782846402794703400,3.752703369140625,0.08742050929963588,0.008660203252360225,-0.0048604890257003715
1782846402804708600,3.76270849609375,0.0893669671922922,0.008145002005528658,-0.012513700342737138
1782846402814713600,3.772713623046875,0.09101590344309807,0.004890420656371862,-0.018105168240820056
1782846402824718600,3.782718505859375,0.08757365403473377,0.0034274171654134987,-0.009639412131614516
1782846402834723600,3.7927236328125,0.08248656002879143,0.018661500649061052,-0.005955830531334504
1782846402844727600,3.8027275390625,0.08847147965729237,0.01688902935013175,-0.0071153118979185815
1782846402854732500,3.812732666015625,0.08143675871491432,0.01185476150996983,-0.010676406479557045
1782846402864737500,3.822737548828125,0.08787117567658424,0.010666629437636584,-0.0024690775442519223
1782846402874742500,3.832742431640625,0.07994272076487541,0.0036309221145696935,-0.005671666127978823
1782846402884747500,3.84274755859375,0.09325929845571518,-0.00006740268040448426,0.0022118650799035095
1782846402894752500,3.85275244140625,0.09774784204661846,-0.001788162058405578,0.0022468519116053357
1782846402904757500,3.862757568359375,0.08652560628652572,0.0050703620668500655,0.010035838987119496
1782846402914762500,3.872762451171875,0.08053893309235573,0.005446227908227593,-0.0004892836375744082
1782846402924767500,3.882767578125,0.09714753806591034,0.003259367122128606,-0.0013626461057341657
1782846402934772500,3.8927724609375,0.0841255594074726,0.010270725455228238,-0.0015339703849167562
1782846402944776400,3.9027763671875,0.089811203828454,0.009088493400719017,-0.009259790280438027
1782846402954781400,3.912781494140625,0.0851712690681219,0.001834595016017556,0.016169327640300615
1782846402964786400,3.922786376953125,0.07305179220736026,0.010606222753599286,0.011343453270255122
1782846402974791400,3.93279150390625,0.08457330317497253,0.0146690152131021,0.006543916634574998
1782846402984796400,3.94279638671875,0.09385434173941612,0.021970661729667336,0.006807867083675228
1782846402994801400,3.952801513671875,0.07634791114330292,0.0029084895915351804,0.012780406721215694
1782846403004806400,3.962806396484375,0.07095978836417198,0.009681527390424162,-0.0013044770445558242
1782846403014811400,3.972811279296875,0.08113572994172573,0.011311850272305309,-0.012552196589065714
1782846403024816600,3.982816650390625,0.11345862139761448,0.02023315214626491,-0.0032992972737178206
1782846403034821600,3.992821533203125,0.09655307930409908,0.018445629408676178,0.004235135085415095
1782846403044825600,4.00282568359375,0.08353811490833758,0.016641466063540427,0.01621706663900986
1782846403054830600,4.01283056640625,0.08054653187692165,0.009986921811476349,-0.0025310733971768058
1782846403064835600,4.022835693359375,0.09312018224596977,0.016282770552672444,0.014592451978707685
1782846403074840600,4.032840576171875,0.10090075311958789,0.016148312251735478,-0.0014571011898457072
1782846403084845600,4.042845458984375,0.09506722466051577,0.003611651158519089,-0.004244699781492818
1782846403094850600,4.0528505859375,0.08982873948514461,0.006200462075322866,0.0028636092701926825
1782846403104855600,4.06285546875,0.083393738001585,-0.007107658314425498,0.012417235964629798
1782846403114860500,4.072860595703125,0.09821136790513992,0.004715520747192204,-0.0018770664678537286
1782846403124865500,4.082865478515625,0.08788403515815735,0.00586746726129204,0.0014671841924428007
1782846403134870500,4.09287060546875,0.08070259922146797,0.013929795952048152,-0.0023391264550737105
1782846403144874500,4.10287451171875,0.08518997376859187,0.0060538201462477445,0.0005996418270049616
1782846403154879500,4.11287939453125,0.08459142335355281,0.012621307169366627,-0.0034232318973517976
1782846403164884500,4.122884521484375,0.08638882816433906,0.007920801328215748,0.006308411395247094
1782846403174889500,4.132889404296875,0.08504442781805992,0.005554693251382559,-0.0035128532594302666
1782846403184894500,4.14289453125,0.08938684093654155,0.01169854803495109,0.006132840199209749
1782846403194899500,4.1528994140625,0.08714461496770382,0.01279576868712902,0.00030875085534062233
1782846403204904400,4.162904541015625,0.08400164076685905,0.020318382744304836,0.008657805799297057
1782846403214909400,4.172909423828125,0.09177928903102875,0.024942718076705932,0.0059576617288170375
1782846403224914400,4.18291455078125,0.1006044005215168,0.02493798710266128,-0.004357690602715593
1782846403234919400,4.19291943359375,0.0949228477537632,0.0035058161638677116,-0.003168560733250342
1782846403244923600,4.202923583984375,0.08460252926945686,-0.005526216075569391,-0.0018238589928718282
1782846403254928600,4.2129287109375,0.08744622826278209,0.015245152866933493,0.0011439321710029616
1782846403264933600,4.22293359375,0.08864157552719115,0.015755075150448827,-0.01137634404299315
1782846403274938600,4.232938720703125,0.08999065204858779,0.00009597118776291609,-0.0033326584039139557
1782846403284943600,4.242943603515625,0.07652209866642952,0.003578607405442744,0.0069069663768634194
1782846403294948600,4.252948486328125,0.08939327067732811,0.009908230552077292,0.00548399121890543
1782846403304953600,4.26295361328125,0.08774901060163974,0.017431922321487218,-0.0041406777180149216
1782846403314958600,4.27295849609375,0.08460778996646404,0.011532251557335256,-0.00037577679312089456
1782846403324963600,4.282963623046875,0.09418401208519935,0.0015304792365990578,-0.015076602783438283
1782846403334968600,4.292968505859375,0.09747896197736262,-0.003687346743233502,-0.0052095855911611574
1782846403344972500,4.30297265625,0.09313771790266036,0.014639898716472088,0.008246665431850124
1782846403354977500,4.3129775390625,0.08400865502953529,0.010953081696201116,0.006906203758460469
1782846403364982500,4.322982421875,0.08700023806095122,0.020162187535595146,0.002525276127341203
1782846403374987500,4.332987548828125,0.09044073390364646,-0.0028640476616099476,-0.008196538113232236
1782846403384992500,4.342992431640625,0.09193710994124411,0.019452267434261736,-0.005229520984203554
1782846403394997500,4.35299755859375,0.09088847767114638,0.012600319180265069,-0.009927599689539057
1782846403405002500,4.36300244140625,0.08685001593530177,0.011454016955662519,0.01531114904154092
1782846403415007500,4.373007568359375,0.08101239582300186,0.01886993750166148,0.004885762747563422
1782846403425012500,4.383012451171875,0.08669862476587295,-0.00010753376139327883,0.001374882249510847
1782846403435016700,4.3930166015625,0.0784703101247549,0.011034074510540812,-0.007707850413990672
1782846403445021700,4.403021728515625,0.09134031309187411,0.004822269057296216,0.011833118217031004
1782846403455026700,4.413026611328125,0.08550503106713295,0.011832933270651847,-0.008646855147019959
1782846403465031700,4.42303173828125,0.10346388160586356,0.02265645203674212,0.015054726595059036
1782846403475036700,4.43303662109375,0.08954641541242599,0.0059749644900672135,-0.007767163402773439
1782846403485041700,4.443041748046875,0.08610591956973075,0.0030608306090347467,0.004256148190691601
1782846403495046700,4.453046630859375,0.07114332823753357,0.008386135551333426,0.0015458160863374359
1782846403505051600,4.4630517578125,0.08416121524274349,0.010952040516585111,0.004186016980372369
1782846403515056600,4.473056640625,0.08969780658185482,0.014681472835876046,-0.005463366272696293
1782846403525061600,4.4830615234375,0.08056815918684006,0.011488649877626449,-0.013883294495777226
1782846403535065600,4.493065673828125,0.10256313337385654,0.0028892003691755232,0.00033490136003820224
1782846403545070600,4.503070556640625,0.09208850111067295,0.010210099575482308,0.005701243848912418
1782846403555075600,4.51307568359375,0.07547755804955959,0.019850710433628408,0.006405565326521173
1782846403565080600,4.52308056640625,0.08789514107406139,0.007522668856102973,-0.0043407691506668926
1782846403575085600,4.53308544921875,0.10031097053289413,0.002013440447952598,-0.004536764363513793
1782846403585090600,4.543090576171875,0.08190671431422233,0.007375789465010166,0.012785582936543504
1782846403595095600,4.553095458984375,0.0875941123008728,0.009575655863154679,-0.005975517045916058
1782846403605100500,4.5631005859375,0.08490297352075576,0.018307919704727827,-0.00043253249863628294
1782846403615105500,4.57310546875,0.08879472026228905,0.005205496221221983,-0.015064300424291285
1782846403625110500,4.583110595703125,0.08849719862043857,0.005577507871389388,-0.008774098255881107
1782846403635114800,4.59311474609375,0.0772720402508974,0.009594999884441494,0.00444857462340733
1782846403645119700,4.60311962890625,0.08609832078516483,0.012084588210470974,-0.012081297991552855
1782846403655124700,4.613124755859375,0.08235445808172226,0.0038252573765814304,-0.004687020738492719
1782846403665129700,4.623129638671875,0.09627133975327014,0.0039503998599015175,-0.0030829328429885206
1782846403675134700,4.633134765625,0.0854980168044567,0.019917656456306575,0.00031466000631917264
1782846403685139700,4.6431396484375,0.09058218820095061,0.013672770717367529,-0.004959270941768772
1782846403695144700,4.653144775390625,0.08878536791205406,-0.00004920943658798933,0.0030348696172935886
1782846403705149700,4.663149658203125,0.09522036939561367,0.005594185011554509,0.0013894496309803798
1782846403715154700,4.67315478515625,0.09746434893012046,0.01862949807560071,-0.007460618204250932
1782846403725159700,4.68315966796875,0.08519231185615062,0.010014869264326988,0.0069340484633226875
1782846403735163600,4.69316357421875,0.08160042484402656,0.011070150470919906,-0.0026236265018582342
1782846403745168600,4.703168701171875,0.09611410336494446,0.012448946277145295,0.00564620060987072
1782846403755173600,4.713173583984375,0.08219371456205844,0.0021454693297855553,-0.007835584429907613
1782846403765178600,4.7231787109375,0.08937398145496844,-0.0033001192576251922,0.0007677375360624864
1782846403775183600,4.73318359375,0.08772270711660385,-0.006653904931247234,-0.008426963035354855
1782846403785188600,4.743188720703125,0.07694879964590072,0.012502356964815407,-0.004690278991369996
1782846403795193600,4.753193603515625,0.08562544257640838,0.0063092014131136236,-0.005777368691889569
1782846403805198600,4.763198486328125,0.09086158966422081,0.02191352471495047,-0.0035366679598577318
1782846403815203600,4.77320361328125,0.07530103243887425,0.016127726121433077,-0.0027710858482634646
1782846403825207800,4.783207763671875,0.08113806802928447,0.01580991061022505,0.004503295918751973
1782846403835212800,4.793212890625,0.08532324475944042,0.0049432468221522865,0.00037248200762551273
1782846403845217800,4.8032177734375,0.08547288236320018,0.006558408667519688,0.003940348823345266
1782846403855222800,4.813222900390625,0.084274027967453,-0.0000852488643489778,0.0017700555795570835
1782846403865227800,4.823227783203125,0.08427695057690143,0.01714165240433067,0.002056437056174036
1782846403875232800,4.833232666015625,0.08248071480989455,-0.0003255238936282694,0.00012911540553905068
1782846403885237800,4.84323779296875,0.0845744722187519,0.0025558219626545904,0.013515682742802891
1782846403895242800,4.85324267578125,0.08682195888459682,0.00329281273400411,0.003535403017955832
1782846403905247700,4.863247802734375,0.08592296421825885,0.0037858752142637966,-0.002088852904876694
1782846403915251700,4.873251708984375,0.08337444877922534,0.009237126357480883,0.002463928728387691
1782846403925256700,4.883256591796875,0.08741407955884933,0.032452107326127584,-0.0023653249088325537
1782846403935261700,4.89326171875,0.08427519701123237,0.016449943813122807,0.00320146520572016
1782846403945266700,4.9032666015625,0.08816519018709659,0.010319295570999384,-0.009568819696991703
1782846403955271700,4.913271728515625,0.08008417506217956,0.010347169958613813,-0.0007232339573442004
1782846403965276700,4.923276611328125,0.08441840487420559,0.003120214379765093,-0.010705520692898426
1782846403975281700,4.93328173828125,0.08770809406936168,0.003847743203025311,-0.00499378513272386
1782846403985286700,4.94328662109375,0.08142331471145152,0.011010985895898192,-0.000870942182210274
1782846403995291600,4.953291748046875,0.10192308190464973,0.010293503542616963,-0.004874860044347588
1782846404005296600,4.963296630859375,0.11090250717401504,0.013999554986320436,0.0007554557265131733
1782846404015300900,4.97330078125,0.08920563915073872,0.003059259706456214,0.0020435364754055624
1782846404025305900,4.983305908203125,0.0610726006001234,0.009554667874053121,0.004285474749875721
1782846404035310800,4.993310791015625,0.08890344133377075,0.007419756470900029,0.00299548060511006
1782846404045315800,5.00331591796875,0.09997720853388309,0.023570425076503306,0.011276199003611691
1782846404055320800,5.01332080078125,0.0859118583023548,-0.005030468447878957,-0.0063413227175828065
1782846404065325800,5.023325927734375,0.08366729424595833,0.0117343865333125,0.0019188734826981089
1782846404075330800,5.033330810546875,0.0755862791210413,0.021474749705195424,-0.005497627018613275
1782846404085335800,5.043335693359375,0.09443769458532333,0.004099672137480229,-0.001172413913393393
1782846404095340800,5.0533408203125,0.08650573254227638,0.012235595787409691,-0.007847884505765977
1782846404105344800,5.0633447265625,0.09428513437211512,0.026222291292157023,-0.021799942521972114
1782846404115349800,5.073349853515625,0.09069207831621169,0.018394922134745865,-0.0033422413663007316
1782846404125354800,5.083354736328125,0.08934650892615317,0.018923402988258748,0.009680449678190052
1782846404135359700,5.09335986328125,0.0869534763097763,-0.0011635456203483044,-0.003865450106363278
1782846404145364700,5.10336474609375,0.10221534284949302,0.007106964194681495,-0.012903140335029456
1782846404155369700,5.11336962890625,0.08994389029741287,-0.002696088949870318,0.0004111883165081963
1782846404165374700,5.123374755859375,0.09817571206986904,0.0011174231899902223,-0.00904387565756915
1782846404175379700,5.133379638671875,0.089497900095582,0.005257025479059666,0.006227114903519395
1782846404185384700,5.143384765625,0.07483341492712497,0.018729487851355225,0.00752896159957163
1782846404195388700,5.153388671875,0.09173954154253006,0.011239460889529436,-0.003318673261045478
1782846404205393700,5.1633935546875,0.08754735054969787,0.004466879748366773,-0.016727441013674252
1782846404215398700,5.173398681640625,0.09652911390662193,0.0017553922999650239,0.0016514318852801806
1782846404225403600,5.183403564453125,0.09413549676835536,0.00400030341623351,0.008805591655976604
1782846404235408600,5.19340869140625,0.09129062873125075,0.015593052989151328,-0.008024453498935326
1782846404245413600,5.20341357421875,0.09323357949256897,0.011336546322144567,-0.002080075943376869
1782846404255419000,5.2134189453125,0.09847148014605045,0.006068816785980016,0.010511614689149427
1782846404265424000,5.223423828125,0.09473463170528411,0.012182751355320215,-0.009730551880632992
1782846404275428900,5.233428955078125,0.0812631557136774,0.008450195497181266,-0.010858058073220309
1782846404285433900,5.243433837890625,0.09038812693357468,0.019210019643604755,-0.004043080828746315
1782846404295437600,5.2534375,0.10250935736000537,0.029651626420021057,0.008008796988788525
1782846404305442600,5.263442626953125,0.07602116340696811,0.018385332322493196,0.00583425682814559
1782846404315447600,5.273447509765625,0.0894891322672367,0.015388342463597654,-0.006903593959554564
1782846404325452500,5.28345263671875,0.07781973726153374,0.024419278724491594,-0.0017318881267914547
1782846404335457500,5.29345751953125,0.09428162724077702,0.008332615265809,0.0010132344464422202
1782846404345462500,5.303462646484375,0.08709785321652888,0.006578410275932401,-0.005203409295412712
1782846404355467500,5.313467529296875,0.08111293358802794,0.012550324292387812,0.0028821701234788633
1782846404365472500,5.323472412109375,0.08351122690141201,0.016862451870460062,0.005518051035422832
1782846404375477500,5.3334775390625,0.08381459376215934,0.012188560041598975,-0.009399438496434594
1782846404385481500,5.3434814453125,0.0779822343468666,0.017261223663389683,-0.008711547563818749
1782846404395486700,5.35348681640625,0.0773854374974966,0.016157956862915306,-0.0032381827702047303
1782846404405491700,5.36349169921875,0.08426935179233551,0.006104308224469423,0.00028863279920769854
1782846404415496700,5.37349658203125,0.09743979901075363,0.014367200988624243,0.011426672291010617
1782846404425501700,5.383501708984375,0.0898071121752262,0.013963734754268079,-0.003051259063091129
1782846404435506700,5.393506591796875,0.0929483328104019,0.031208354342728853,0.010224386112450155
1782846404445511700,5.40351171875,0.08666121536493301,0.019955047590937466,0.012250042154581751
1782846404455516700,5.4135166015625,0.09324468540847301,0.024184593185782432,-0.0019871620790916492
1782846404465521700,5.423521728515625,0.0869622441381216,0.023324889350216833,-0.007885494836105499
1782846404475525600,5.433525634765625,0.07573942385613917,0.012118472213763743,-0.00337770540532656
1782846404485530600,5.443530517578125,0.08501520172357559,0.016549787458404897,-0.0022219435159233397
1782846404495535600,5.45353564453125,0.08396773849725722,0.011768836792185901,0.00045251812402857464
1782846404505540600,5.46354052734375,0.08651157776117324,0.019427772313822058,-0.01579040219215676
1782846404515545600,5.473545654296875,0.08322481117546558,0.015445278548914938,-0.004848969834554009
1782846404525550600,5.483550537109375,0.08337854043245314,0.003575575198139995,-0.002641210107610095
1782846404535555600,5.4935556640625,0.09475099831819533,0.00538072492396459,-0.0012885511063504963
1782846404545560600,5.503560546875,0.10507365489006042,0.01927966908002272,0.013483495222963392
1782846404555565600,5.513565673828125,0.09414894077181815,0.01454904209524393,0.007336688147194218
1782846404565569500,5.523569580078125,0.09504559735059738,0.020893479218520222,-0.005260249482607469
1782846404575574500,5.533574462890625,0.09339549205601215,0.013415489754360169,-0.01407825766216265
1782846404585579500,5.54357958984375,0.09533961186110973,0.000448839746043086,0.006721115815406665
1782846404595584500,5.55358447265625,0.09264496594965457,0.01128552852096036,-0.0019126994702382944
1782846404605589500,5.563589599609375,0.08531330788731574,0.017994780368637293,0.00005963493247982114
1782846404615594800,5.5735947265625,0.08785890071690082,0.014316621578857302,0.012665571002778597
1782846404625599700,5.583599853515625,0.09773498256504536,-0.0022814437343738974,0.003646535242232494
1782846404635604700,5.593604736328125,0.08860708873569965,0.014339856323972344,0.005522341334761586
1782846404645609700,5.603609619140625,0.09144786511957645,0.022965207458660004,0.007806568397977389
1782846404655613700,5.61361376953125,0.08860416612625122,0.012670206078700721,0.011665928973560221
1782846404665618700,5.62361865234375,0.08261515484452248,0.006249379250966012,0.01807042343771318
1782846404675623700,5.633623779296875,0.0909925225675106,0.007972860309015959,-0.004237292793171946
1782846404685629200,5.643629150390625,0.09817395850419998,0.00441224521799013,0.014161956173530778
1782846404695634200,5.65363427734375,0.09533318212032317,0.011357242050301282,0.004635923022206407
1782846404705639200,5.66363916015625,0.09099310708940028,0.00013697905158624053,0.002541724938643165
1782846404715644200,5.67364404296875,0.08874912755489349,0.021205668706540018,-0.003060730144334957
1782846404725649200,5.683649169921875,0.09338847779333591,0.01952851100824773,0.0006409625013708137
1782846404735654100,5.693654052734375,0.07512976752519607,0.009628390697389841,-0.009667366434331052
1782846404745658000,5.703658203125,0.08814590096473693,0.016131087122298778,-0.0021130192317534236
1782846404755663000,5.7136630859375,0.07737023992836475,0.003958309171721339,-0.010998815967491827
1782846404765668000,5.723668212890625,0.10161562339067458,0.020552355896960944,-0.0015726447277585975
1782846404775673000,5.733673095703125,0.09129179777503013,0.019589885806664823,0.0013674158956855534
1782846404785678000,5.743677978515625,0.08500351128578186,0.004033127973601221,-0.008660767224652227
1782846404795683000,5.75368310546875,0.07722352493405342,0.011299995437730102,-0.00041499455865705385
1782846404805688000,5.76368798828125,0.07303367202877997,0.010702303539216518,-0.0005589353572810069
1782846404815693000,5.773693115234375,0.0911404066056013,0.003818389244377613,-0.008119869847560766
1782846404825698000,5.783697998046875,0.08814823905229568,0.018312742010317743,-0.01563956586186541
1782846404835702300,5.793702392578125,0.09054185619056224,0.02107497326526791,-0.013629219270008616
1782846404845707300,5.803707275390625,0.08411094636023043,0.004616298156417906,-0.0025020801981328984
1782846404855712300,5.813712158203125,0.08530980075597762,0.015473956654127687,0.006145352620910853
1782846404865717200,5.82371728515625,0.0772287856310606,0.01653588679721579,0.02355648788269609
1782846404875722200,5.83372216796875,0.09383622156083583,0.015315532955713569,0.0048487346558249555
1782846404885727200,5.843727294921875,0.08276479244828223,0.016410579917114226,0.00916459312752122
1782846404895732200,5.853732177734375,0.0869534763097763,0.01199004179481417,0.011649614876287523
1782846404905737200,5.8637373046875,0.07812719577550888,0.01651024089930579,-0.00906765154208988
1782846404915742200,5.8737421875,0.09548808042109012,0.0033581330551765856,-0.007074973037664313
1782846404925746200,5.88374609375,0.0942903950691223,0.013102496548742055,0.018726663423317948
1782846404935751200,5.893751220703125,0.09249532834589481,0.016983027776516973,-0.004677513124630786
1782846404945756200,5.903756103515625,0.10222294163405894,0.009592186872847379,0.006148688505601603
1782846404955761200,5.91376123046875,0.08905658606886863,0.0032536863000132143,-0.0006502258033491671
1782846404965766100,5.92376611328125,0.08516951550245284,0.008192677072156221,-0.007464088802970946
1782846404975771100,5.933771240234375,0.07933131086826324,-0.004429634744208306,0.008603068520931992
1782846404985776000,5.943776123046875,0.0939946269929409,0.011317092703003436,-0.012051094649534206
1782846404995781000,5.953781005859375,0.08621347159743309,0.017919523175340145,0.009934490654629188
1782846405005786000,5.9637861328125,0.09818681798577308,0.0040395029154606165,-0.005100741222093347
1782846405015790300,5.973790283203125,0.0990834745645523,0.01100483014974743,0.0041223885760759
1782846405025795300,5.98379541015625,0.10013093779087066,0.011142357190605252,0.009404779108543879
1782846405035800300,5.99380029296875,0.0978852046906948,0.00744319214541465,-0.018067859304579905
1782846405045805300,6.003805419921875,0.09205050718784331,0.018319171751104295,-0.001993384040612727
1782846405055810300,6.013810302734375,0.07573883933424949,0.015541852524876594,0.007666906482249033
1782846405065815300,6.023815185546875,0.10327215842604637,0.014021748551819473,0.0010376382353366352
1782846405075820300,6.0338203125,0.09609189153313637,0.007785904635861516,-0.002739699762733653
1782846405085825300,6.0438251953125,0.08936404458284378,0.0029149741312488914,0.003533489622082561
1782846405095830300,6.053830322265625,0.09535013325512409,0.0052688620473258195,-0.004816645317396615
1782846405105834200,6.063834228515625,0.07873802115023136,0.00026919059650972485,-0.008699183555878698
1782846405115839200,6.073839111328125,0.08053367239534855,0.008662285611592232,0.004612834407563787
1782846405125844200,6.08384423828125,0.08128302945792674,0.008135192997567355,0.013988357738871127
1782846405135849200,6.09384912109375,0.09250643426179886,0.010510160234291107,0.01656088652444305
1782846405145854200,6.103854248046875,0.09460136071443558,0.013963022368215023,-0.00841529543044744
1782846405155859200,6.113859130859375,0.10343114838004111,0.011058606163598597,0.00477224448666675
1782846405165864200,6.1238642578125,0.09819733937978745,0.0046251390499994155,0.009989100068830884
1782846405175869200,6.133869140625,0.08832242657542229,0.00039385815579444166,0.012660609416582156
1782846405185873200,6.143873046875,0.08383096037507057,0.001238126960210502,0.011290179579902906
1782846405195878100,6.153878173828125,0.08652502176463603,0.0037781302992254493,0.01129978994175326
1782846405205883400,6.16388330078125,0.09355331296622753,0.007289828214608132,-0.008571056814317125
1782846405215888400,6.173888427734375,0.08936404458284378,0.015339626217354088,-0.005649168885091785
1782846405225893400,6.183893310546875,0.08622340846955776,0.012438114355877041,-0.0023372975408798083
1782846405235898400,6.1938984375,0.09700374568104743,0.006326791868731379,0.0013193184206611475
1782846405245903400,6.2039033203125,0.08683364932239056,0.025098146100435405,-0.004924124279862735
1782846405255908400,6.213908447265625,0.0869844559699297,0.012162530551198869,-0.0053076848039287135
1782846405265913300,6.223913330078125,0.08787877446115017,0.004830342765897513,-0.0050228879296220835
1782846405275917000,6.2339169921875,0.08189210126698017,0.0117904275694862,-0.008988149715226608
1782846405285922000,6.243922119140625,0.09760580322742461,0.011560655667912215,0.012493283175793476
1782846405295927000,6.253927001953125,0.09251812469959259,0.006954166519455612,-0.003111122324434109
1782846405305932000,6.26393212890625,0.09311609059274197,0.005042633809708059,-0.004773212601046543
1782846405315937000,6.27393701171875,0.0973059434980154,0.013402484142314642,0.0012880442162742838
1782846405325942300,6.2839423828125,0.08937807310819626,0.008500628776475786,0.014816965466563123
1782846405335947300,6.293947265625,0.08788403515815735,0.0049711029434576625,-0.019113658013485836
1782846405345952300,6.3039521484375,0.09162205264270305,0.01465962633024901,-0.004148988888633903
1782846405355957200,6.313957275390625,0.09222001853585243,0.010333433694206178,0.0024992397870752026
1782846405365961000,6.3239609375,0.09087152653634548,0.016393756646476684,-0.0036684433966525827
1782846405375966000,6.333966064453125,0.08922551289498805,-0.0045498270577751096,-0.010307191857963334
1782846405385971000,6.343970947265625,0.09686229138374328,0.011820457381568849,0.0016296447451575658
1782846405395976200,6.35397607421875,0.0950707317918539,0.02139032282475382,0.01275384522456443
1782846405405981200,6.363981201171875,0.09267594560980796,0.014234879845846444,0.003479953353537712
1782846405415986200,6.373986083984375,0.08923077359199523,0.016634488333482293,-0.002251302041148301
1782846405425991200,6.3839912109375,0.08459376144111155,0.013863945907913148,0.006565573627245612
1782846405435996200,6.39399609375,0.08923194263577461,0.005072828018572181,-0.0024374311638181096
1782846405446000000,6.404000244140625,0.08220248239040374,0.00027311785295605656,0.009936874407960566
1782846405456005000,6.414005126953125,0.08070493730902671,0.011866251018363982,0.0006463076800573617
1782846405466010000,6.424010009765625,0.09836100550889969,0.017307547023147345,-0.005639245712698903
1782846405476015000,6.43401513671875,0.09087620271146298,0.008326167258713393,-0.0034872210612520572
1782846405486020000,6.44402001953125,0.09596329671740532,0.012823551743198186,-0.013415471488051115
1782846405496025000,6.454025146484375,0.08923077359199523,0.005007525963708758,0.002246221723943017
1782846405506030000,6.464030029296875,0.07082534832954407,0.014567600665241478,0.017157201599911787
1782846405516035000,6.47403515625,0.08399462650418281,-0.0011887348605319856,0.010331125289399641
1782846405526040000,6.4840400390625,0.0982078607738018,0.0043085473814979194,-0.019391273945046122
1782846405536044000,6.4940439453125,0.0890799669444561,0.010901187112182378,-0.001098844070394989
1782846405546049000,6.504049072265625,0.07486381006538867,0.02634142415979877,0.010526896739960647
1782846405556054000,6.514053955078125,0.0794984841287136,0.029986575729120522,0.019825603391835464
1782846405566059000,6.52405908203125,0.10957330439686774,0.009731230017356573,0.00316285022838274
1782846405576064000,6.53406396484375,0.08637889129221439,0.004077314175199717,0.0020079696883913128
1782846405586069000,6.544069091796875,0.09161386933624743,-0.004664046288281679,0.006349458074977155
1782846405596074000,6.554073974609375,0.08817220444977283,0.006999393900670111,0.008568812341592274
1782846405606079000,6.564078857421875,0.08443126435577869,0.011639328661002217,0.0034553417853778225
1782846405616083200,6.574083251953125,0.09370821126699447,0.011662873933371155,0.0024711347873089835
1782846405626088200,6.584088134765625,0.08473053956329822,0.0023769582644104954,0.00108392277918756
1782846405636093200,6.59409326171875,0.08622691560089588,0.016611527583003043,-0.0046600391167332415
1782846405646098200,6.60409814453125,0.07216390345692635,0.017502320676576345,0.002640347024507355
1782846405656103200,6.614103271484375,0.1004424879580736,0.015830697669927028,-0.00910978963378584
1782846405666108200,6.624108154296875,0.09595219080150127,0.023961287557613103,0.013291201220988294
1782846405676113200,6.634113037109375,0.10567863504588604,0.009904942616447806,0.005159592986572534
1782846405686118700,6.64411865234375,0.08024258049428462,0.012809961609262972,-0.010161958717973903
1782846405696123600,6.65412353515625,0.08368482990264892,0.014134908336400985,0.00002003129116492346
1782846405706127600,6.664127685546875,0.09026829994618892,0.012082725046947598,-0.0032174162601004354
1782846405716132600,6.674132568359375,0.08113982159495353,0.013596983801107854,0.0025433346571284345
1782846405726137600,6.6841376953125,0.08383154489696025,0.015783899386133997,0.006752084059116896
1782846405736142600,6.694142578125,0.08996551760733128,0.0077555094975978135,0.005038106048351619
1782846405746147600,6.704147705078125,0.07320552146434783,0.01211264526117593,0.011458268439094536
1782846405756152600,6.714152587890625,0.07545183908641338,0.01325894748577848,0.006934190027217846
1782846405766157600,6.724157470703125,0.08547814306020736,0.018168876560218632,0.014179188152833375
1782846405776162600,6.73416259765625,0.09041559946238995,0.015819098563678562,0.010484687866317108
1782846405786167600,6.74416748046875,0.0826356131106615,0.00740167282493785,-0.0035429310205741782
1782846405796171800,6.754171875,0.09610182840526103,0.01345425086217001,-0.0028065133546711874
1782846405806176800,6.7641767578125,0.07081248884797096,0.01106814117692411,-0.010449564037297385
1782846405816181800,6.774181640625,0.07500526436269282,0.01632140379631892,-0.005694172504020389
1782846405826186800,6.784186767578125,0.08682605053782462,0.0006387910938821733,0.00023946902839234096
1782846405836191700,6.794191650390625,0.09116320295929908,0.009708543261513113,0.0007835241936612874
1782846405846196700,6.80419677734375,0.09431026881337165,0.006513802340812981,0.014195650663867127
1782846405856201700,6.81420166015625,0.1122726264834404,0.014795545935910195,0.007049877412314527
1782846405866206700,6.824206787109375,0.07246902388334274,0.004959613435063511,0.004781921063887421
1782846405876210700,6.834210693359375,0.0974585037112236,0.005263491752464324,0.007776805730664637
1782846405886215700,6.844215576171875,0.08324526944160461,0.010841693743597716,0.008197049569885711
1782846405896220700,6.854220703125,0.09282149156033992,0.01610100251128897,0.003189781617792323
1782846405906225700,6.8642255859375,0.07815349926054477,0.014004760884400457,0.004518584819429088
1782846405916230700,6.874230712890625,0.09237199422717093,0.011641447552852333,-0.002628524155972991
1782846405926235600,6.884235595703125,0.09252221635282039,0.00006753054456785321,0.009968370091344695
1782846405936240600,6.89424072265625,0.08189794648587703,0.009054171006008983,0.019051607361633794
1782846405946245600,6.90424560546875,0.08010287976264953,-0.0038549035961739715,0.010929846951086073
1782846405956249600,6.91424951171875,0.09207505710721016,-0.0042147864171303805,0.0012602428938960656
1782846405966254600,6.924254638671875,0.07995382668077945,0.013615907697286456,-0.005901168601494282
1782846405976259600,6.934259521484375,0.09371931718289851,0.006212864899169653,-0.008617138145479838
1782846405986264800,6.944264892578125,0.07800444617867469,0.016980689688958227,0.0006315393691882491
1782846405996269800,6.954269775390625,0.07471241889595985,0.0009756948980502784,0.004942628050933126
1782846406006274800,6.96427490234375,0.08384031272530555,0.0063621737093664706,0.019419810486363712
1782846406016279800,6.97427978515625,0.09386837026476859,0.003565638326015323,0.005609492178540677
1782846406026284800,6.984284912109375,0.08429039458036422,0.01798612213814631,0.015722780316043645
1782846406036289800,6.994289794921875,0.09910743996202945,0.012025551499612628,0.0008612130893510766
1782846406046293800,7.004293701171875,0.08833411701321602,0.01871273764595389,0.0041288982319645584
1782846406056298800,7.014298828125,0.0836947667747736,0.01948361242059618,0.006926830987958237
1782846406066303700,7.0243037109375,0.07621464015245437,0.001307666798774153,0.006384819366014562
1782846406076308700,7.034308837890625,0.08923428072333335,0.014884722056705504,0.007174939980532508
1782846406086313700,7.044313720703125,0.09222703279852866,0.02580870552258566,0.012652871351409703
1782846406096318700,7.054318603515625,0.08324819205105304,0.01373745171772316,0.005649454296170734
1782846406106323700,7.06432373046875,0.09850655145943164,0.011383381138555705,-0.0015912809295696205
1782846406116328700,7.07432861328125,0.09611001171171665,0.017459175654593855,0.0008575073119020089
1782846406126332700,7.084332763671875,0.09266776230335234,0.007471943315863609,0.0005506515861256047
1782846406136337700,7.094337646484375,0.08773205946683883,-0.005480732966028154,0.009514995734079275
1782846406146342700,7.1043427734375,0.0850409206867218,0.005035911807976663,0.008381000435200984
1782846406156347600,7.11434765625,0.08279635663032531,0.005804101435188204,0.002002158718823921
1782846406166352600,7.1243525390625,0.08549217158555984,0.01106247862111777,0.007458239017496817
1782846406176357600,7.134357666015625,0.08160510101914405,0.018666195090487597,0.0001958125497563742
1782846406186362600,7.144362548828125,0.08953647854030132,0.011585972772259265,0.0001664471746655181
1782846406196367600,7.15436767578125,0.08384849603176116,0.00270049113035202,0.004623778209974989
1782846406206372900,7.164372802734375,0.08893792812526226,0.027185236306488513,-0.0015918814344797283
1782846406216376600,7.17437646484375,0.09133622143864631,0.017408011722937225,0.018537451860995497
1782846406226381800,7.1843818359375,0.08460428283512592,0.02479203929333016,0.01748511838002596
1782846406236386800,7.19438671875,0.0717342798680067,0.007476765621453523,0.011757797091652172
1782846406246391800,7.204391845703125,0.09448036468327045,-0.0028884514505043623,0.011075185122352558
1782846406256396800,7.214396728515625,0.09642682257592677,0.004825136867817491,-0.0032655434178770516
1782846406266401800,7.22440185546875,0.08939560876488685,0.001770224542915821,-0.015083817975514101
1782846406276406800,7.23440673828125,0.09134265117943287,0.01876490622460842,-0.0032603877521469255
1782846406286411800,7.244411865234375,0.08131517816185951,-0.0004963686821982265,0.018654602834105024
1782846406296415500,7.25441552734375,0.07907061410546302,0.007428177239373326,0.008797285051934885
1782846406306420500,7.26442041015625,0.09014321226179599,0.023296558304876088,-0.008744289922795724
1782846406316425500,7.274425537109375,0.0790717831492424,0.020390278936736284,-0.000491569209494628
1782846406326430500,7.284430419921875,0.08879822739362717,0.011998517362214625,-0.004329676934494636
1782846406336435500,7.294435546875,0.09208791658878326,0.004744144053477794,0.0011120825778809375
1782846406346440400,7.3044404296875,0.08475625852644443,0.014598543792776763,0.013161606324836612
1782846406356445400,7.314445556640625,0.09462941776514053,0.004557115315087139,-0.009028442909708246
1782846406366450400,7.324450439453125,0.08505027303695678,0.010214684419054538,0.010281390696426387
1782846406376454700,7.33445458984375,0.0934282252818346,0.020609091052878645,0.005536726053140591
1782846406386459600,7.344459716796875,0.09716916537582873,0.01835809725569561,0.00592142137165647
1782846406396464600,7.354464599609375,0.07771452332139014,0.011563048554398119,-0.009061954736954066
1782846406406469600,7.3644697265625,0.09133154526352882,0.00870431638872251,0.009550494022434576
1782846406416474600,7.374474609375,0.0887877059996128,0.00224041760424152,-0.0037015099826152435
1782846406426479600,7.384479736328125,0.09148118286728858,0.015410536029096691,0.0003185918293427676
1782846406436484600,7.394484619140625,0.0838514186412096,0.020862152498494834,0.01701103002829477
1782846406446489600,7.404489501953125,0.08579787653386592,0.010502141324616968,0.022388423634145872
1782846406456493600,7.41449365234375,0.09103519266545772,0.012131057700701057,0.0105087719948031
1782846406466498600,7.42449853515625,0.07906535340845584,0.016577935840655117,-0.002642785576765891
1782846406476503600,7.434503662109375,0.08055880683660507,0.010422719412855804,0.0033587221436435356
1782846406486508500,7.444508544921875,0.10495090529322623,0.01772032907512039,0.0031188626728951927
1782846406496513500,7.454513427734375,0.09926526087224483,0.011728815309051423,0.002562977789225988
1782846406506518500,7.4645185546875,0.0825046802073717,0.010897131991572677,0.012112898706214036
1782846406516523500,7.4745234375,0.1046516300857067,0.025662922110036013,0.004735179862310178
1782846406526528500,7.484528564453125,0.09417582877874374,0.01853043988160789,0.004919238042191136
1782846406536532700,7.49453271484375,0.09058569533228873,0.013059680320322512,-0.008371986011683475
1782846406546537700,7.504537841796875,0.08744096756577491,0.008547299196105449,-0.013135476369736715
1782846406556542700,7.514542724609375,0.07666706009507179,0.013783738544862716,0.0045836402791203
1782846406566547700,7.524547607421875,0.08879238217473029,0.011038312294241041,-0.009935575216729194
1782846406576552700,7.534552734375,0.0700876817047596,0.0017619499049149453,-0.0025836917836917564
1782846406586557700,7.5445576171875,0.09372691596746444,0.00892318330379203,0.007780559457174967
1782846406596562700,7.554562744140625,0.08414835576117038,0.006920045054145157,0.0005833117467118427
1782846406606567700,7.564567626953125,0.09536766891181468,0.006615856209490448,0.002104297069180757
1782846406616571600,7.574571533203125,0.09327508054673671,0.013566716527007519,0.02227529124902794
1782846406626576600,7.58457666015625,0.09312836555242537,-0.00017981354631483554,0.005032991481816861
1782846406636581600,7.59458154296875,0.08669511763453483,0.012915084217861294,0.019789673561928792
1782846406646586600,7.604586669921875,0.08834639197289944,0.0068852294690907,0.012860328673187177
1782846406656591600,7.614591552734375,0.09912146848738193,0.009546758562233299,0.013710008871660101
1782846406666596600,7.6245966796875,0.0944827027708292,0.009248287072312086,0.024108968383015596
1782846406676601600,7.6346015625,0.09088906219303608,0.02745214361436665,-0.0003032595461816527
1782846406686606000,7.644606201171875,0.09732464819848537,0.017817670236062257,-0.001794477634760551
1782846406696610000,7.654610107421875,0.08864917431175708,0.00645648266300559,0.004356727054913062
1782846406706615000,7.664614990234375,0.08954816897809505,0.007720401651598513,0.0039515757535467854
1782846406716620000,7.6746201171875,0.08311725914776324,0.009345555168017744,-0.01729569218857214
1782846406726625000,7.684625,0.09075053050518035,0.0044670076125301415,-0.008535444361530245
1782846406736630000,7.694630126953125,0.08491466395854949,0.007160886339005083,0.014067320709617342
1782846406746635000,7.704635009765625,0.08476561087667941,0.001309091570880264,-0.015408444536710158
1782846406756640000,7.714639892578125,0.09628945993185042,0.013808489393629133,0.0049283666301402265
1782846406766645200,7.724645263671875,0.10482114143371582,0.01041196055682376,-0.006724186838616151
1782846406776649000,7.73464892578125,0.08701602015197277,0.0016625811836682258,-0.002707994016795419
1782846406786654000,7.744654052734375,0.10228080930113792,0.0018674926386214792,-0.016540999080461916
1782846406796659000,7.754658935546875,0.0959989525526762,0.007584682975336909,0.0024657096935203297
1782846406806664000,7.764663818359375,0.10168635053932666,0.01605217666719109,0.0075793834624229926
1782846406816669000,7.7746689453125,0.08747311626970768,0.011745638579688966,-0.00238362090063747
1782846406826674000,7.784673828125,0.09166238465309143,0.02435923736663535,-0.011408947121363599
1782846406836679000,7.794678955078125,0.07535247036516667,0.013255440354440361,0.0019970395857119
1782846406846684000,7.804683837890625,0.09405483274757862,0.010938925306685268,0.001430409545742441
1782846406856689000,7.81468896484375,0.08926526038348674,0.011578702781256287,0.01958338300064206
1782846406866693000,7.824693115234375,0.07774024228453635,0.0010810367023572325,-0.009237637814134359
1782846406876698000,7.834697998046875,0.09270634074807166,0.021498130580782888,0.011271232850837986
1782846406886703000,7.844703125,0.09839315421283244,0.00878141847923398,0.02106032596869627
1782846406896708000,7.8547080078125,0.0859732331007719,0.004909399351477623,-0.010715975871542468
1782846406906713000,7.864713134765625,0.09270809431374072,0.009949640274699776,-0.01187450054018991
1782846406916718000,7.874718017578125,0.08567220432758331,0.014231299649272113,-0.007786242562578991
1782846406926723000,7.88472314453125,0.09165770847797393,0.013607012004777787,-0.002104221720655914
1782846406936727000,7.89472705078125,0.0919558146417141,0.0013974457077682017,0.014518231398449278
1782846406946732000,7.90473193359375,0.09045710051655768,0.005232457293383777,-0.0100421568467631
1782846406956737000,7.914737060546875,0.08761573961079121,0.024316749931778757,0.0024994772490928878
1782846406966742000,7.924741943359375,0.0781874015301466,0.024530319617222993,0.009804553265182767
1782846406976747000,7.9347470703125,0.07504325828552245,0.008127101022657006,0.010587613951251842
1782846406986752000,7.944751953125,0.09255144244730472,0.0015250541428104042,0.009831977844936772
1782846406996757000,7.954757080078125,0.09868658420145511,0.011531319975573568,0.008111889753793365
1782846407006762000,7.964761962890625,0.08312485793232917,0.013320870273467152,-0.001426788249972742
1782846407016766000,7.974765869140625,0.07698854713439941,0.006777933169715106,0.009675198114337398
1782846407026771000,7.98477099609375,0.11065759250223636,-0.0028219620855525133,-0.0029912862038938325
1782846407036776200,7.994776123046875,0.08416881402730941,0.0032954978814348575,-0.0046039181654574345
1782846407046781200,8.00478125,0.09165361682474613,0.020222667284868656,0.0007923422543564811
1782846407056786200,8.0147861328125,0.09000409605205059,0.007933971337042748,0.003869850003556348
1782846407066791200,8.024791259765625,0.09164484899640082,0.011922620848100631,0.01217170252163196
1782846407076796200,8.034796142578125,0.10585925230979919,0.02005795997614041,0.015462720590771641
1782846407086801200,8.04480126953125,0.09089783002138137,0.0030710962747223674,0.003749721622071229
1782846407096805000,8.05480517578125,0.0982294880837202,0.010908712831512093,-0.008187925548513886
1782846407106810000,8.06481005859375,0.10182137509584427,0.015663926268275827,-0.0055269490112201305
1782846407116815000,8.074815185546875,0.08880115000307559,-0.005209551341831683,0.015108308529376517
1782846407126820000,8.084820068359376,0.08535773155093193,0.00937616950199008,0.018127416605246253
1782846407136825000,8.0948251953125,0.08640227216780186,0.003069251377508044,0.0013518781165475957
1782846407146830000,8.104830078125,0.09642740709781646,0.01986596280168742,0.004667697266803588
1782846407156835000,8.1148349609375,0.08520692490339278,0.00286251329164952,0.01111919322743779
1782846407166840000,8.124840087890625,0.08895078760683536,0.010341580468043685,0.019509087071858812
1782846407176844000,8.134843994140626,0.10406535463035106,0.008520338123943656,-0.00047329376728739585
1782846407186849000,8.14484912109375,0.08730477396547794,0.015303787718992679,0.01097255586493993
1782846407196854000,8.15485400390625,0.09299158743023872,-0.002844393113069236,-0.0003321340142167173
1782846407206859000,8.16485888671875,0.09763035314679146,-0.00195255883987993,-0.011008469711826183
1782846407216864000,8.174864013671876,0.09179331755638122,0.006457688239403069,0.009625853963720146
1782846407226869000,8.184868896484375,0.08924889377057552,0.013220825698785483,0.012724968473240733
1782846407236874000,8.1948740234375,0.08984569061994552,0.014177450570184737,0.012334411952807567
1782846407246879000,8.20487890625,0.08835106814801692,0.009300583515129983,-0.00883005481037544
1782846407256883200,8.21488330078125,0.0937421135365963,0.009252049931976944,-0.009281734967476222
1782846407266888200,8.22488818359375,0.09389116661846637,0.013325838709529489,0.00008818060695193707
1782846407276893200,8.23489306640625,0.07937807261943816,0.0012489588814787566,0.012294022860203403
1782846407286898200,8.244898193359376,0.0885047974050045,0.003854264275357127,0.002061875849694479
1782846407296903200,8.254903076171875,0.08595745100975036,0.004733549594227224,0.003202163892041426
1782846407306908200,8.264908203125,0.08820201506614685,0.011625537597667426,-0.004308700361836236
1782846407316913200,8.2749130859375,0.080126260638237,-0.003100742494314909,0.005942128516256343
1782846407326918100,8.284918212890625,0.09224982915222645,0.007244619099702685,0.002227569539111573
1782846407336922000,8.294922119140624,0.08566869719624519,0.01773552664425224,-0.0010257240352570078
1782846407346927000,8.304927001953125,0.07998480634093284,0.004470807004813105,-0.0027555823184549806
1782846407356932000,8.31493212890625,0.09524667288064956,-0.004444101660978049,-0.005214067686744965
1782846407366937000,8.32493701171875,0.08970774345397949,0.009869725172594188,-0.005262763383390847
1782846407376942000,8.334942138671876,0.09165420134663581,0.016548636680934578,0.010070912583789322
1782846407386947000,8.344947021484375,0.09404957205057143,0.0206880928395316,0.013955428150226361
1782846407396952000,8.3549521484375,0.08522562960386276,-0.0022926592481322585,0.0028379199897986835
1782846407406957000,8.36495703125,0.09435527699887752,0.0025826186380349097,0.02394432043979177
1782846407416961300,8.374961181640625,0.09360591993629931,0.007269771807268261,0.0015742064971826038
1782846407426966300,8.38496630859375,0.08118599882423877,0.021305421020276844,0.0024324079288286157
1782846407436971300,8.39497119140625,0.09614859015643597,0.01583036887636408,0.003184379356889985
1782846407446976300,8.404976318359376,0.07490238851010798,0.0006126337393186986,-0.0011007323500933125
1782846407456981200,8.414981201171875,0.09061550594866276,0.009088931792136282,-0.005074362388532609
1782846407466986200,8.424986328125,0.08388532091081143,0.025696203325130045,0.012578292294836136
1782846407476991200,8.4349912109375,0.09735153620541095,0.015571845804341136,0.003566487709386274
1782846407486995000,8.444994873046875,0.07625029598772526,-0.0027596374390646814,-0.013900167998764663
1782846407497000000,8.455,0.09899696532487869,0.0038763299766927956,-0.014048775839351582
1782846407507005000,8.4650048828125,0.08956687367856501,0.005642773393634707,0.010440344117803034
1782846407517010000,8.475010009765626,0.07670096236467361,-0.004059358393400907,-0.01109876464405097
1782846407527015000,8.485014892578125,0.08238777582943439,0.015965722226444632,0.005422506822634022
1782846407537020000,8.49502001953125,0.08552958098649978,0.009127345840074122,0.003790953248180449
1782846407547025000,8.50502490234375,0.0957066916078329,0.008149659914337097,0.014776409693888853
1782846407557030000,8.51502978515625,0.09106675684750079,0.011360475187003612,-0.0003649608548730612
1782846407567034000,8.5250341796875,0.08597966284155845,0.007312113111652433,0.010688434844068251
1782846407577039000,8.5350390625,0.09480652789771556,0.006649521017074584,-0.008409404545777942
1782846407587044000,8.545044189453124,0.09121639445126056,0.01274425769560039,0.005617127495724707
1782846407597049000,8.555049072265625,0.08911679182350635,0.011005396405328065,0.00905912802562816
1782846407607054000,8.56505419921875,0.08582710262835025,0.014774064756464212,0.004892948256887029
1782846407617059000,8.57505908203125,0.07520341728329658,0.01941487629963085,0.0185583850511699
1782846407627064000,8.58506396484375,0.09256313288509845,0.009747980222757906,0.008769376414990983
1782846407637068000,8.595068115234374,0.08448153323829173,0.0076990483363159,-0.0023524448776617644
1782846407647073000,8.605072998046875,0.0743090987920761,-0.0011163089451380072,-0.007791268080857117
1782846407657078000,8.615078125,0.10468553235530853,0.014888905041478573,0.0014128898720722645
1782846407667083000,8.6250830078125,0.09675824648737907,-0.001872844667173922,-0.009455609680060297
1782846407677088000,8.635087890625,0.09047112904191017,0.006164112120307982,-0.004581265658943448
1782846407687092200,8.64509228515625,0.09974749143123626,-0.0014250826333649456,0.011251804347871801
1782846407697097200,8.65509716796875,0.10753040039241313,0.017659337869193405,-0.00616149318824755
1782846407707102200,8.665102294921875,0.0900169555336237,0.016095065960846842,0.0036441081064171156
1782846407717106400,8.6751064453125,-0.006868716725707054,0.003501139988750219,-0.025426074296992736
1782846407727111400,8.685111328125,-0.2556067461848259,0.03498993697436526,-0.13633163879448548
1782846407737116400,8.695116455078125,0.8959726881682872,-0.02261803798880428,0.22871517732897773
1782846407747121400,8.705121337890626,0.26920214081704613,-0.006888115545921027,0.04166206254889257
1782846407757126400,8.71512646484375,-0.6637076546043157,0.03592944631418213,-0.21552745018219574
