time,seconds_elapsed,z,y,x
1782846399112897300,0.070897216796875,0.0004112604074180126,0.00980045273900032,0.0008163257734850049
1782846399122902300,0.08090234375,-0.0005780486389994621,-0.022894669324159622,-0.004686621017754078
1782846399132907300,0.0909072265625,-0.0014904476702213287,-0.0003054719418287277,0.00010866671800613403
1782846399142912500,0.10091259765625,-0.0025643184781074524,0.01586267352104187,0.0033186585642397404
1782846399152917500,0.11091748046875,0.000017882557585835457,-0.0025171313900500536,0.001135931583121419
1782846399162922500,0.120922607421875,0.0009218438062816858,-0.014637806452810764,-0.00023062003310769796
1782846399172927500,0.130927490234375,0.0003378125838935375,0.0007310304790735245,-0.0003214337630197406
1782846399182932500,0.140932373046875,0.0019318540580570698,0.009903899393975735,0.0020009679719805717
1782846399192937500,0.1509375,0.0010623321868479252,-0.0023024328984320164,0.00043742608977481723
1782846399202941200,0.160941162109375,0.0013431981205940247,-0.004142335616052151,0.0005496444064192474
1782846399212946200,0.1709462890625,0.0009005807805806398,0.0066834138706326485,0.0015768256271257997
1782846399222951200,0.180951171875,0.0015618277247995138,0.004282929934561253,0.003323069540783763
1782846399232956200,0.1909560546875,-0.00022755004465579987,-0.004680204670876265,-0.0023433382157236338
1782846399242961200,0.200961181640625,-0.002051293384283781,-0.004063813481479883,0.0006655215402133763
1782846399252966400,0.21096630859375,-0.003087263088673353,0.004352574702352285,0.0027193513233214617
1782846399262971400,0.220971435546875,-0.0018181982450187206,0.0031168609857559204,-0.00031858787406235933
1782846399272976400,0.230976318359375,0.0021981149911880493,-0.004743192810565233,-0.0022283405996859074
1782846399282981400,0.2409814453125,-0.00003301282413303852,-0.002241692040115595,-0.003232159884646535
1782846399292986400,0.250986328125,-0.0005163764581084251,0.00412299670279026,0.0009420787682756782
1782846399302990000,0.260989990234375,-0.0015892665833234787,-0.0013192477636039257,0.0010042967041954398
1782846399312995000,0.2709951171875,0.0019013388082385063,-0.0030178120359778404,-0.0025076139718294144
1782846399323000300,0.281000244140625,0.00041284249164164066,0.00016948627308011055,0.0008791865548118949
1782846399333005300,0.29100537109375,0.0007659776601940393,0.0035975072532892227,0.0015460420399904251
1782846399343010300,0.30101025390625,-0.002106660744175315,-0.002256551291793585,-0.002308193827047944
1782846399353015300,0.311015380859375,-0.0014920030953362584,-0.0017177937552332878,-0.0023449454456567764
1782846399363020300,0.321020263671875,-0.0012140668695792556,0.002226688899099827,0.0001017996110022068
1782846399373025300,0.331025390625,-0.0006803693249821663,0.002596602076664567,0.00009594066068530083
1782846399383030300,0.3410302734375,-0.0004700636491179466,-0.0006041554734110832,-0.0017463505500927567
1782846399393035300,0.35103515625,0.002798167522996664,-0.00105875707231462,0.0014209470245987177
1782846399403040300,0.361040283203125,-0.001963788876309991,-0.001581849530339241,0.0030648745596408844
1782846399413044200,0.371044189453125,-0.00040770391933619976,0.0012911685043945909,0.0014544610166922212
1782846399423049200,0.38104931640625,0.0015507005155086517,0.0005916515365242958,-0.001862422446720302
1782846399433054200,0.39105419921875,-0.0011987469624727964,0.0001543604303151369,-0.001180653111077845
1782846399443059200,0.40105908203125,0.0025615941267460585,0.00023563485592603683,0.0008364669047296047
1782846399453064200,0.411064208984375,-0.0015940021257847548,0.0007674682419747114,0.0015046539483591914
1782846399463069200,0.421069091796875,0.0026415735483169556,-0.000821735942736268,0.0008283936767838895
1782846399473074200,0.43107421875,0.0013355594128370285,0.001892291707918048,-0.0003114392748102546
1782846399483079200,0.4410791015625,0.00042942515574395657,-0.0006849723868072033,-0.002066070679575205
1782846399493084200,0.451084228515625,-0.0025192266330122948,0.0019464971264824271,-0.0011632590321823955
1782846399503089200,0.461089111328125,-0.0001387402880936861,-0.0014869519509375095,0.0004712318768724799
1782846399513094100,0.47109423828125,0.0019254761282354593,0.00029337103478610516,0.002777263056486845
1782846399523098000,0.48109814453125,-0.0002260629553347826,-0.0009088485967367887,0.001359104411676526
1782846399533103000,0.49110302734375,-0.0014447255525738,-0.0010465339291840792,0.0022685739677399397
1782846399543108400,0.5011083984375,-0.0006592037389054894,0.0011024253908544779,-0.0020733296405524015
1782846399553113300,0.51111328125,-0.0008432281902059913,-0.0014542094431817532,-0.00040379411075264215
1782846399563118300,0.521118408203125,-0.0017405606340616941,-0.002586954040452838,0.0007513292948715389
1782846399573123300,0.531123291015625,-0.00014612614177167416,0.0007790154777467251,0.0005438690423034132
1782846399583128300,0.54112841796875,-0.00014123879373073578,0.0012974372366443276,-0.0003905647899955511
1782846399593133300,0.55113330078125,0.0010233616922050714,0.0035691135562956333,-0.00009468768257647753
1782846399603138300,0.56113818359375,0.001259111100807786,0.0025174040347337723,0.000431977619882673
1782846399613143300,0.571143310546875,-0.00013958103954792023,0.00014532660134136677,0.00001173082273453474
1782846399623148300,0.581148193359375,-0.00012771668843925,-0.0008772935252636671,-0.00027184479404240847
1782846399633152300,0.59115234375,-0.0005836497293785214,0.0014239440206438303,-0.000550411525182426
1782846399643157200,0.6011572265625,0.000614051939919591,0.00013017375022172928,-0.0011821346124634147
1782846399653162200,0.611162353515625,-0.0011811850126832724,0.000032169511541724205,-0.0005094201769679785
1782846399663167200,0.621167236328125,0.00036598858423531055,-0.000251224497333169,-0.001952497405000031
1782846399673173000,0.631173095703125,0.0011135379318147898,-0.0006807923782616854,0.002018542028963566
1782846399683178000,0.641177978515625,0.0019714252557605505,0.0004980722442269325,0.0005664287600666285
1782846399693183000,0.651182861328125,-0.001752206590026617,0.0007481430657207966,0.00005430285818874836
1782846399703188000,0.66118798828125,-0.0013436466688290238,0.0016352420207113028,-0.0009306077845394611
1782846399713193000,0.67119287109375,0.0013221774715930223,-0.0006793113425374031,0.0008771459106355906
1782846399723198000,0.681197998046875,-0.0007817531004548073,0.00025646970607340336,-0.002466631820425391
1782846399733203000,0.691202880859375,0.0006744633428752422,0.0026844735257327557,-0.0008386415429413319
1782846399743207000,0.70120703125,0.0010139255318790674,0.0012536381836980581,0.0005477552185766399
1782846399753212000,0.7112119140625,0.0012283101677894592,0.0014059711247682571,-0.00235269358381629
1782846399763217000,0.721216796875,0.00014289142563939095,0.00004982110112905502,0.002662158105522394
1782846399773222000,0.731221923828125,-0.0015791085315868258,-0.0003714908380061388,0.0026752077974379063
1782846399783227000,0.741226806640625,0.0016520614735782146,-0.001344452379271388,0.0012976059224456549
1782846399793232000,0.75123193359375,-0.002290748292580247,-0.00025948043912649155,0.0009058549767360091
1782846399803236900,0.76123681640625,0.0021736621856689453,0.0009973146952688694,-0.00028253067284822464
1782846399813241900,0.771241943359375,-0.0011180047877132893,0.0011373970191925764,-0.00031848333310335875
1782846399823246800,0.781246826171875,0.0001440772321075201,0.0011453032493591309,0.002335337921977043
1782846399833251800,0.791251953125,-0.0020959076937288046,0.000032368116080760956,-0.0006700394442304969
1782846399843256800,0.8012568359375,0.0009215257596224546,0.002467072568833828,-0.002371637150645256
1782846399853261000,0.811260986328125,0.0023513766936957836,-0.00042192451655864716,0.0008776856120675802
1782846399863266000,0.82126611328125,0.0016279572155326605,0.001907878089696169,-0.0029545133002102375
1782846399873271000,0.83127099609375,0.00029531121253967285,0.0001856118906289339,0.000861530308611691
1782846399883276000,0.841276123046875,-0.0004407090600579977,0.00025357981212437153,-0.002110820496454835
1782846399893281000,0.851281005859375,0.0007744913455098867,-0.0009272659663110971,0.0012934983242303133
1782846399903286000,0.8612861328125,-0.000717467162758112,-0.00029961438849568367,0.00023218977730721235
1782846399913291000,0.871291015625,-0.0008732620626688004,0.0009763061534613371,0.0008194167749024928
1782846399923296000,0.8812958984375,-0.002860369859263301,-0.00023128255270421505,0.00120146619156003
1782846399933301000,0.891301025390625,0.00014820322394371033,-0.0005223660264164209,0.00008293858263641596
1782846399943306000,0.901305908203125,-0.0016579185612499714,0.0005550801288336515,0.0019930051639676094
1782846399953310000,0.91131005859375,0.0014007219579070807,-0.00017782184295356274,-0.0010419333120808005
1782846399963315000,0.92131494140625,0.0015443963930010796,0.0012155990116298199,0.0022223382256925106
1782846399973320000,0.93131982421875,0.0006977773737162352,-0.0003940155729651451,-0.001307681784965098
1782846399983325000,0.941324951171875,0.0014249945525079966,0.0004732497036457062,0.0016618076479062438
1782846399993330000,0.951329833984375,0.0010646688751876354,-0.00021677534095942974,-0.00012064608745276928
1782846400003335000,0.9613349609375,-0.00008974457159638405,-0.00019346480257809162,0.0008031839970499277
1782846400013340000,0.97133984375,-0.0014213251415640116,0.0026060501113533974,0.0012577855959534645
1782846400023345000,0.981344970703125,0.00003676977939903736,0.000012027798220515251,0.0015466848853975534
1782846400033350000,0.991349853515625,0.00014888891018927097,0.00048101041465997696,0.0010638537351042032
1782846400043355000,1.00135498046875,-0.0006641404470428824,0.0006618313491344452,0.0023497273214161396
1782846400053359900,1.01135986328125,-0.000829256372526288,0.00042560906149446964,-0.0009866808541119099
1782846400063364900,1.02136474609375,-0.000244692200794816,0.00043372088111937046,0.0021219123154878616
1782846400073369000,1.031369140625,0.002120461082085967,0.0003482336178421974,0.00039485242450609803
1782846400083374000,1.0413740234375,-0.0006637135520577431,-0.0002689075190573931,0.0016400254098698497
1782846400093379000,1.051379150390625,-0.00043947529047727585,0.00040700286626815796,0.001911667874082923
1782846400103384000,1.061384033203125,0.0010013831779360771,0.0005238605663180351,-0.0007473434088751674
1782846400113389000,1.07138916015625,0.0027793096378445625,0.0012058960273861885,0.00136880436912179
1782846400123394000,1.08139404296875,-0.0007363036274909973,-0.0012126343790441751,0.0008733668364584446
1782846400133399000,1.09139892578125,0.0025566949043422937,0.0019408147782087326,0.0027391775511205196
1782846400143404000,1.101404052734375,0.000022829044610261917,-0.002106317551806569,-0.001969848293811083
1782846400153409000,1.111408935546875,-0.0003665252588689327,-0.0003393101505935192,0.00163873506244272
1782846400163414000,1.1214140625,-0.00030408473685383797,0.00009521795436739922,-0.0012863273732364178
1782846400173418000,1.13141796875,-0.0016124958638101816,-0.0005713712889701128,0.0019957523327320814
1782846400183423000,1.141423095703125,-0.0025173297617584467,-0.0010559612419456244,0.00028162403032183647
1782846400193428000,1.151427978515625,-0.000507175805978477,0.001224237261340022,0.0026137540116906166
1782846400203433000,1.161432861328125,0.00013351603411138058,0.0011320619378238916,0.0007617398514412344
1782846400213438000,1.17143798828125,-0.00002946937456727028,0.002337941201403737,0.0019250086043030024
1782846400223443000,1.18144287109375,-0.0001614079810678959,0.0000600963830947876,0.0019504404626786709
1782846400233448000,1.191447998046875,0.0019321031868457794,0.0016374867409467697,-0.0003380138659849763
1782846400243453000,1.201452880859375,-0.0004553713370114565,-0.0014139213599264622,0.0015411530621349812
1782846400253458000,1.2114580078125,0.00001973658800125122,0.0033739095088094473,0.000026879715733230114
1782846400263463000,1.221462890625,-0.000009119277819991112,0.0006228003185242414,-0.0013082673540338874
1782846400273468000,1.231468017578125,-0.00019713840447366238,0.0008156131953001022,0.003737890161573887
1782846400283472100,1.24147216796875,0.00022969581186771393,-0.00009881402365863323,0.0029808152467012405
1782846400293477000,1.25147705078125,0.0001982704270631075,0.00019946019165217876,-0.0012810413027182221
1782846400303482000,1.261482177734375,-0.0008781191427260637,-0.0008948144968599081,0.0019740660209208727
1782846400313487000,1.271487060546875,0.00040552462451159954,0.0006665969267487526,-0.00008056266233325005
1782846400323492000,1.2814921875,-0.002243784023448825,0.0014363115187734365,0.0013422316405922174
1782846400333497000,1.2914970703125,-0.002865365706384182,0.0003452145028859377,0.0014873738400638103
1782846400343502000,1.301502197265625,0.00043519260361790657,0.000788545235991478,0.0014379714848473668
1782846400353507000,1.311507080078125,-0.0006383276777341962,0.0006737629882991314,0.0034630391746759415
1782846400363512000,1.321511962890625,-0.0008752790745347738,0.0025633980985730886,-0.0006791043560951948
1782846400373517000,1.33151708984375,-0.0009309391025453806,0.0018834930378943682,0.0018482354935258627
1782846400383522000,1.34152197265625,-0.0015111456159502268,-0.0008407533168792725,0.00014211703091859818
1782846400393526000,1.351526123046875,0.0003701113164424896,-0.0006679142825305462,0.00036022986751049757
1782846400403531000,1.361531005859375,0.0009849851485341787,-0.0000062121544033288956,-0.00009055016562342644
1782846400413536000,1.371535888671875,-0.000009172828868031502,-0.00038997363299131393,0.0007797708967700601
1782846400423541000,1.381541015625,-0.0009409521007910371,-0.0015236926265060902,0.00007753039244562387
1782846400433546000,1.3915458984375,-0.00012016575783491135,0.00036874949000775814,-0.000680937897413969
1782846400443551000,1.401551025390625,0.00023069116286933422,-0.0007730964571237564,0.0014658202417194843
1782846400453556000,1.411555908203125,0.0005635861307382584,0.0008040275424718857,0.000286572496406734
1782846400463561000,1.42156103515625,0.002216941909864545,-0.0026884290855377913,0.0003622099757194519
1782846400473566000,1.43156591796875,-0.0014062888221815228,-0.001480952138081193,0.0013853964628651738
1782846400483571000,1.441571044921875,-0.0010879531037062407,-0.0010521488729864359,-0.00014718296006321907
1782846400493576000,1.451575927734375,0.0010100852232426405,0.0009625325910747051,0.001132466015405953
1782846400503580200,1.461580078125,0.00020978576503694057,0.0007805456407368183,0.0024087983183562756
1782846400513585200,1.471585205078125,0.00005345814861357212,0.002394687617197633,0.0008481858531013131
1782846400523590100,1.481590087890625,-0.0013709310442209244,-0.0022489961702376604,0.0015237419866025448
1782846400533595100,1.49159521484375,-0.0009746525902301073,0.00004371907562017441,0.00009389081969857216
1782846400543600000,1.50160009765625,0.0017432570457458496,0.0013582679675891995,-0.000763830728828907
1782846400553605000,1.511605224609375,-0.0015057993587106466,0.0009031337685883045,-0.0008892655605450273
1782846400563610000,1.521610107421875,-0.001476275734603405,0.0012797440867871046,-0.00016339845024049282
1782846400573615000,1.531614990234375,0.003417548956349492,-0.0008824763353914022,-0.0017274729907512665
1782846400583620000,1.5416201171875,-0.0012412562500685453,0.0008495934307575226,-0.0017727140802890062
1782846400593625000,1.551625,-0.0007096893386915326,0.00010284315794706345,-0.0015263715758919716
1782846400603630000,1.561630126953125,-0.0027759955264627934,-0.000014520017430186272,-0.0003700372762978077
1782846400613634000,1.571634033203125,0.0023290179669857025,-0.00042384793050587177,0.00007764005567878485
1782846400623639000,1.58163916015625,0.0016120094805955887,0.000557194696739316,0.00123500800691545
1782846400633644000,1.59164404296875,-0.0018242672085762024,0.000014442484825849533,-0.0004899214254692197
1782846400643649000,1.60164892578125,-0.0011894662166014314,-0.0001420881599187851,-0.00031215324997901917
1782846400653654000,1.611654052734375,0.0016928729601204395,0.0021586166694760323,-0.000829339143820107
1782846400663659000,1.621658935546875,0.003293269081041217,0.002567471005022526,0.0012849285267293453
1782846400673663700,1.631663818359375,-0.0007688505575060844,-0.0007372454274445772,0.00117414107080549
1782846400683668700,1.641668701171875,-0.0015288457507267594,-0.0007115956395864487,0.00018525129416957498
1782846400693673700,1.651673828125,-0.0026353891007602215,-0.002515354659408331,0.0037472292315214872
1782846400703678700,1.6616787109375,-0.0015640215715393424,-0.0003023175522685051,-0.0008283475181087852
1782846400713683700,1.67168359375,-0.0007482953369617462,-0.0014578632544726133,-0.000008360249921679497
1782846400723687700,1.681687744140625,0.0012884652242064476,0.002124842256307602,0.0020781736820936203
1782846400733692700,1.691692626953125,0.000504430616274476,0.0020430833101272583,-0.0014220188604667783
1782846400743697700,1.70169775390625,0.0010719455312937498,0.0006387822795659304,0.000273072742857039
1782846400753702700,1.71170263671875,-0.0017289009410887957,0.00272004259750247,0.0020414115861058235
1782846400763707600,1.721707763671875,0.0019535706378519535,-0.0009608352556824684,0.00039816636126488447
1782846400773712600,1.731712646484375,-0.0008779021445661783,-0.002148338593542576,0.0006213393062353134
1782846400783717600,1.741717529296875,-0.0005260446341708302,-0.0007908826228231192,-0.0010700057027861476
1782846400793722600,1.75172265625,0.0006255062762647867,-0.001016718801110983,0.00005358201451599598
1782846400803727600,1.7617275390625,0.000044564250856637955,0.00043489178642630577,0.0028807162307202816
1782846400813732600,1.771732666015625,-0.0010763602331280708,-0.0011214592959731817,0.0023717861622571945
1782846400823737600,1.781737548828125,0.0005025947466492653,0.0013179975794628263,-0.00042692036367952824
1782846400833741600,1.791741455078125,-0.0009035543771460652,-0.0010969566646963358,0.00016004033386707306
1782846400843746600,1.80174658203125,0.0014595522079616785,0.0009281383827328682,0.003439344000071287
1782846400853751600,1.81175146484375,-0.0012648615520447493,-0.0029470270965248346,0.0027993866242468357
1782846400863756500,1.821756591796875,-0.001108441036194563,-0.000839512562379241,-0.0011657876893877983
1782846400873761500,1.831761474609375,-0.0000722052063792944,-0.0023591124918311834,0.0035815632436424494
1782846400883766500,1.8417666015625,0.0007857689633965492,0.0033267000690102577,0.0006413506343960762
1782846400893771800,1.851771728515625,-0.00037217349745333195,-0.00029866117984056473,0.0009673215681686997
1782846400903776800,1.86177685546875,0.00041604158468544483,-0.0013997030910104513,-0.00040768051985651255
1782846400913781800,1.87178173828125,-0.0014321921626105905,-0.001734995050355792,0.001054661232046783
1782846400923786800,1.881786865234375,0.0014532075729221106,-0.0007180899847298861,-0.0014771763235330582
1782846400933791700,1.891791748046875,-0.0008980974089354277,-0.0008834723848849535,0.00047119223745539784
1782846400943795700,1.901795654296875,0.0002651331014931202,-0.0005218158476054668,0.0009605317027308047
1782846400953800700,1.91180078125,-0.0017727178055793047,-0.0004049029666930437,-0.0011492245830595493
1782846400963805700,1.9218056640625,-0.00045531708747148514,-0.0015406892634928226,-0.0017431904561817646
1782846400973810700,1.931810791015625,0.0009135475847870111,0.0017017092322930694,-0.0018590379040688276
1782846400983815700,1.941815673828125,-0.0005742339417338371,0.0019357410492375493,0.00017270899843424559
1782846400993820700,1.951820556640625,0.002258836990222335,0.00025049271062016487,-0.00011118396650999784
1782846401003825700,1.96182568359375,-0.0019652696792036295,0.00021880189888179302,0.002904783468693495
1782846401013830700,1.97183056640625,-0.0007596565410494804,0.0013509116834029555,0.0005193900433368981
1782846401023835600,1.981835693359375,0.002286426955834031,-0.0009959531016647816,-0.00234956294298172
1782846401033840600,1.991840576171875,-0.001807117834687233,-0.0012055439874529839,-0.0008771010907366872
1782846401043845600,2.001845703125,-0.00042005954310297966,0.0007800250314176083,-0.0022980328649282455
1782846401053849600,2.011849609375,-0.001164945657365024,0.00009585893712937832,-0.0012908254284411669
1782846401063854600,2.0218544921875,-0.0000924132764339447,-0.0005565532483160496,0.0008728422108106315
1782846401073859600,2.031859619140625,0.00044554518535733223,-0.0004870446864515543,0.0003247637068852782
1782846401083864600,2.041864501953125,-0.0008141892030835152,0.0008997742552310228,0.0017765488009899855
1782846401093869600,2.05186962890625,0.0009850424248725176,0.0010395902208983898,-0.0016530699795112014
1782846401103874600,2.06187451171875,-0.000663818558678031,-0.0020475396886467934,0.004351383075118065
1782846401113879800,2.0718798828125,-0.0007319954456761479,0.0008686215151101351,-0.000003683962859213352
1782846401123884800,2.081884765625,0.002060964936390519,0.0007688209880143404,-0.0013631266774609685
1782846401133889800,2.091889892578125,-0.0017300446052104235,0.0024721790105104446,-0.0009474073303863406
1782846401143894800,2.101894775390625,0.0021420272532850504,0.0005552107468247414,-0.0020258864387869835
1782846401153899800,2.111899658203125,0.000495394691824913,0.0012361810076981783,-0.002674632240086794
1782846401163903700,2.12190380859375,-0.0016819549491629004,0.00048644351772964,-0.001545258448459208
1782846401173908700,2.13190869140625,0.0021274308674037457,0.0020760842598974705,0.0023629304487258196
1782846401183913700,2.141913818359375,-0.0006712045287713408,-0.0006853397935628891,0.0023927991278469563
1782846401193918700,2.151918701171875,-0.0014030411839485168,0.0002752623986452818,0.001213817740790546
1782846401203923700,2.161923828125,-0.00010239239782094955,0.0006579773034900427,0.002229842357337475
1782846401213928700,2.1719287109375,-0.0016259867697954178,0.00045557692646980286,-0.0012373270001262426
1782846401223933700,2.18193359375,0.0005177552811801434,0.0009458668064326048,-0.0017968111205846071
1782846401233938700,2.191938720703125,0.002232830971479416,0.002484641270712018,0.0014240158488973975
1782846401243943700,2.201943603515625,0.00012226635590195656,0.0011135961394757032,-0.000906318542547524
1782846401253948700,2.21194873046875,0.0012740835081785917,0.0014808459673076868,-0.0012709053698927164
1782846401263953700,2.22195361328125,-0.0013938824413344264,-0.00033228565007448196,0.0021159159950912
1782846401273957600,2.23195751953125,-0.0017384954262524843,0.0005883690901100636,-0.0020537953823804855
1782846401283962600,2.241962646484375,-0.0013711008941754699,0.002833000384271145,0.00115868728607893
1782846401293967600,2.251967529296875,-0.0018752373289316893,0.002372806193307042,0.0008803869131952524
1782846401303972600,2.26197265625,0.0005554731469601393,-0.0008822751697152853,0.0016549165593460202
1782846401313977600,2.2719775390625,0.0024814715143293142,0.0014668991789221764,0.0007963133975863457
1782846401323982600,2.281982666015625,0.000003239605575799942,-0.00003272830508649349,0.001425347407348454
1782846401333987800,2.29198779296875,0.0001867313403636217,0.000030921073630452156,0.002574235200881958
1782846401343992800,2.301992919921875,-0.0011468756711110473,-0.00020605768077075481,-0.002438901923596859
1782846401353997800,2.311997802734375,0.0019996492192149162,-0.001647094264626503,0.00258009135723114
1782846401364002800,2.3220029296875,-0.0011070274049416184,-0.0014817730989307165,0.0020114583894610405
1782846401374006800,2.3320068359375,-0.00009582517668604851,0.000378977507352829,0.0014937400119379163
1782846401384011800,2.34201171875,-0.0007404088973999023,0.0002138088457286358,0.00037438335129991174
1782846401394016800,2.352016845703125,0.00003217416815459728,0.0004998324438929558,0.00119330536108464
1782846401404021800,2.362021728515625,-0.00016690464690327644,0.0014888946898281574,-0.00041097658686339855
1782846401414026800,2.37202685546875,-0.0006140494951978326,0.0006489336956292391,0.0007922395598143339
1782846401424031700,2.38203173828125,-0.00029441644437611103,-0.001217592740431428,-0.0014016457134857774
1782846401434036700,2.39203662109375,0.002107222331687808,-0.0003792296629399061,-0.0007105553522706032
1782846401444041700,2.402041748046875,-0.0007637192029505968,0.0021032250951975584,-0.00159911485388875
1782846401454046700,2.412046630859375,-0.0008468098239973187,-0.0003514103591442108,0.00155992666259408
1782846401464051700,2.4220517578125,0.0010325431358069181,-0.0016490884590893984,-0.001628186902962625
1782846401474056700,2.432056640625,0.000809103948995471,0.0010502918157726526,-0.0004880876513198018
1782846401484060700,2.442060791015625,-0.0003336805384606123,0.00016334024257957935,0.0007733461679890752
1782846401494065700,2.452065673828125,-0.002313208067789674,-0.0010803558398038149,0.00007346743950620294
1782846401504070700,2.462070556640625,-0.0002768223639577627,0.0010180280078202486,-0.0008687315857969224
1782846401514075600,2.47207568359375,-0.0007703062146902084,-0.0011199575383216143,-0.0014021627139300108
1782846401524080600,2.48208056640625,-0.0016843434423208237,0.0013655590591952205,-0.0029546513687819242
1782846401534085600,2.492085693359375,-0.0008031034376472235,-0.001275497954338789,-0.0005511484341695905
1782846401544090600,2.502090576171875,-0.0007941622752696276,-0.0013265286106616259,-0.00040549866389483213
1782846401554095900,2.512095947265625,-0.0028756889514625072,-0.0002703191712498665,-0.00006807618774473667
1782846401564100900,2.522100830078125,-0.00030638882890343666,0.0026286798529326916,-0.0019323760643601418
1782846401574105900,2.53210595703125,-0.0008291674312204123,0.0008715263102203608,-0.0016628641169518232
1782846401584110800,2.54211083984375,-0.0032196096144616604,-0.0006719855591654778,-0.0011282428167760372
1782846401594114600,2.552114501953125,-0.0005367409903556108,-0.0001710450742393732,-0.0006137200980447233
1782846401604119800,2.562119873046875,-0.0012667224509641528,-0.00007386901415884495,-0.0010874250438064337
1782846401614124800,2.572124755859375,0.0005375691689550877,0.0007125623524188995,-0.002465078141540289
1782846401624129800,2.5821298828125,0.0004610505420714617,0.0009531357791274786,0.00019587244605645537
1782846401634134800,2.592134765625,-0.0006441612495109439,0.0018727253191173077,0.001283507444895804
1782846401644139800,2.602139892578125,-0.0011697784066200256,0.001186060719192028,0.0013299629790708423
1782846401654144800,2.612144775390625,0.0010137474164366722,-0.00009065866470336914,0.0011129153426736593
1782846401664149800,2.622149658203125,0.0010693252552300692,-0.0013258159160614014,0.00043393054511398077
1782846401674154800,2.63215478515625,-0.0011517511447891593,-0.0010909251868724823,0.0011417986825108528
1782846401684159200,2.6421591796875,0.00004440569318830967,0.000829662661999464,0.001279786927625537
1782846401694164200,2.652164306640625,0.0009187215473502874,0.0003074167761951685,0.00017910252790898085
1782846401704168200,2.662168212890625,0.0013504722155630589,0.00046459888108074665,0.0034998105838894844
1782846401714173400,2.67217333984375,0.0005043861456215382,-0.0015546097420156002,-0.001683766138739884
1782846401724178400,2.682178466796875,-0.002487658988684416,-0.0012568009551614523,0.0014181184815242887
1782846401734183400,2.692183349609375,0.0006777741946280003,0.0018867944600060582,-0.0004719268763437867
1782846401744188400,2.7021884765625,-0.00019050529226660728,-0.0005411386955529451,0.0008201184100471437
1782846401754193400,2.712193359375,0.0002699552569538355,0.001036251662299037,0.0012603389332070947
1782846401764198400,2.722198486328125,-0.0028133459854871035,0.00034750718623399734,-0.0016266872407868505
1782846401774203400,2.732203369140625,0.0011116208042949438,0.0022886854130774736,0.001215704600326717
1782846401784208400,2.74220849609375,-0.0014182128943502903,-0.0005472691264003515,-0.0019102836959064007
1782846401794213400,2.75221337890625,0.0012806346639990807,-0.0004998648073524237,-0.0012511513195931911
1782846401804217000,2.762217041015625,0.0003976505249738693,0.0015820657135918736,-0.0013925465755164623
1782846401814222000,2.77222216796875,-0.00114724924787879,0.0010843209456652403,0.0000575446174480021
1782846401824227000,2.78222705078125,0.003483588807284832,-0.0013476009480655193,0.000045405293349176645
1782846401834232000,2.792232177734375,0.00019431859254837036,-0.0011489293538033962,0.002471278654411435
1782846401844237000,2.802237060546875,-0.0013117268681526184,-0.00000886945053935051,-0.0006443379679694772
1782846401854242000,2.812241943359375,-0.0020116055384278297,0.0024633430875837803,0.0004510201688390225
1782846401864247000,2.8222470703125,0.0013649682514369488,-0.0007260171696543694,0.004077046178281307
1782846401874252300,2.832252197265625,-0.00005423021502792835,0.00044018100015819073,-0.00009159994078800082
1782846401884257300,2.84225732421875,-0.0007853383431211114,0.0009974329732358456,-0.0008706057560630143
1782846401894262300,2.85226220703125,0.0009334657806903124,-0.0018207239918410778,-0.0000895006232894957
1782846401904267300,2.862267333984375,0.0006672432646155357,-0.0002811024896800518,0.0005099540576338768
1782846401914271200,2.872271240234375,-0.002232939237728715,0.0006390197668224573,0.0004769308434333652
1782846401924276200,2.882276123046875,-0.0014987769536674023,-0.000619890633970499,-0.000063280516769737
1782846401934281200,2.89228125,-0.00005161529406905174,-0.0006419948767870665,-0.00018099223962053657
1782846401944286200,2.9022861328125,-0.0006153864087536931,-0.00014014076441526413,0.0011043974664062262
1782846401954291200,2.912291259765625,0.0006357666570693254,-0.0032336688600480556,0.001830108929425478
1782846401964296200,2.922296142578125,0.00019222544506192207,0.0006314998026937246,-0.000035300967283546925
1782846401974301200,2.93230126953125,0.00010221055708825588,0.000046936096623539925,0.00034579739440232515
1782846401984306200,2.94230615234375,0.0001816321164369583,0.002133329398930073,-0.0005051087937317789
1782846401994311200,2.952311279296875,0.0020788677502423525,-0.0009269090369343758,0.0007313969545066357
1782846402004316200,2.962316162109375,0.0010841544717550278,-0.0012281001545488834,0.00227084057405591
1782846402014321200,2.972321044921875,-0.0015284065157175064,0.00039269961416721344,0.0003192761796526611
1782846402024325000,2.9823251953125,0.002055621240288019,-0.0005420004017651081,-0.0008575210813432932
1782846402034330000,2.992330078125,-0.0010032856371253729,0.00009529408998787403,0.0028820896986871958
1782846402044335000,3.002335205078125,-0.0004377487348392606,0.0004524379037320614,-0.0013596221106126904
1782846402054340000,3.012340087890625,-0.002152824541553855,-0.0016195012722164392,0.0005085853626951575
1782846402064345000,3.022344970703125,0.0011056610383093357,0.00017811940051615238,0.0009979982860386372
1782846402074350000,3.03235009765625,-0.002175353467464447,-0.0006762226112186909,-0.00035036017652601004
1782846402084355000,3.04235498046875,0.00035991170443594456,0.0013302535517141223,0.00006542913615703583
1782846402094360000,3.052360107421875,-0.0025501244235783815,-0.0007158531807363033,0.00008140807040035725
1782846402104365000,3.062364990234375,-0.0002488733734935522,0.00047603133134543896,-0.00044152146438136697
1782846402114370000,3.0723701171875,0.0007122613023966551,0.00010372139513492584,0.001304979668930173
1782846402124374300,3.082374267578125,0.002014923607930541,0.0014824260724708438,-0.001553165726363659
1782846402134379300,3.092379150390625,-0.0006421123398467898,-0.00023984024301171303,0.0014082693960517645
1782846402144384300,3.10238427734375,-0.0010500228963792324,0.0034738178364932537,-0.0005636794958263636
1782846402154389200,3.11238916015625,-0.0008444269187748432,0.0010908213444054127,-0.0027647821698337793
1782846402164394200,3.122394287109375,0.0009096993599087,-0.00002216314896941185,0.0006229866994544864
1782846402174399200,3.132399169921875,-0.0006365319713950157,0.0008822462987154722,0.0029236916452646255
1782846402184404200,3.142404296875,0.0011569014750421047,-0.0002676506992429495,-0.002412994857877493
1782846402194409200,3.1524091796875,0.0004682079888880253,0.0003661816008388996,0.0031572729349136353
1782846402204414200,3.162414306640625,0.0008029991295188665,0.00011942489072680473,-0.0014507286250591278
1782846402214419200,3.172419189453125,0.00015585101209580898,0.0022848411463201046,-0.0007069077109917998
1782846402224424200,3.182424072265625,0.0009300690144300461,0.001105358125641942,0.002034143079072237
1782846402234428200,3.19242822265625,-0.001066502882167697,-0.0029900509398430586,-0.0018543382175266743
1782846402244433200,3.20243310546875,-0.0015412516659125686,-0.0006540555041283369,-0.0012982627376914024
1782846402254438100,3.212438232421875,-0.00032125762663781643,0.0005736616440117359,-0.0011038521770387888
1782846402264443100,3.222443115234375,0.0012635230086743832,-0.00012775789946317673,-0.0015295390039682388
1782846402274448100,3.2324482421875,0.0003143723588436842,-0.0016084755770862103,0.00012055574916303158
1782846402284453000,3.242453125,0.0012493880931288004,0.0030285322573035955,0.0006304609123617411
1782846402294458000,3.2524580078125,0.00022247317247092724,-0.0016082976944744587,-0.0016510691493749619
1782846402304463000,3.262463134765625,-0.0006622838554903865,0.0004885075613856316,0.0008835447370074689
1782846402314468000,3.272468017578125,0.0031409766525030136,0.0014469792367890477,0.0003708862350322306
1782846402324473000,3.28247314453125,0.001258122967556119,-0.0002341819927096367,-0.0015247899573296309
1782846402334477300,3.292477294921875,0.0003928618971258402,-0.00041634240187704563,0.0025106980465352535
1782846402344482300,3.302482421875,-0.0017039580270648003,0.0005587700288742781,-0.00029735034331679344
1782846402354487300,3.3124873046875,-0.0003207121044397354,0.0008402660023421049,0.0005801612278446555
1782846402364492300,3.3224921875,-0.0037893233820796013,-0.00036654435098171234,0.0018501061713322997
1782846402374497300,3.332497314453125,0.0015748157165944576,-0.0008278039749711752,0.0012016263790428638
1782846402384502300,3.342502197265625,0.0013827774673700333,0.00026067858561873436,-0.0017282397020608187
1782846402394507300,3.35250732421875,0.00017423485405743122,0.0012969146482646465,0.0006555556319653988
1782846402404512300,3.36251220703125,-0.002261785324662924,-0.0007192089688032866,-0.0005950231570750475
1782846402414517200,3.372517333984375,0.0015079192817211151,-0.0014646279159933329,-0.002750852145254612
1782846402424522200,3.382522216796875,0.0010989578440785408,0.002157333306968212,-0.001290924963541329
1782846402434527200,3.39252734375,0.00014661159366369247,0.0010859437752515078,0.0009932683315128088
1782846402444531200,3.40253125,-0.001108695287257433,0.0013272997457534075,0.0014401633525267243
1782846402454536200,3.4125361328125,-0.0007497011683881283,-0.0035191206261515617,-0.0013388453517109156
1782846402464541200,3.422541259765625,0.0005108632612973452,-0.0003532380796968937,-0.0021517518907785416
1782846402474546200,3.432546142578125,-0.0014012863393872976,0.000037447549402713776,0.0018432558281347156
1782846402484551200,3.44255126953125,-0.0005900640971958637,0.001406477764248848,0.0028847912326455116
1782846402494556200,3.45255615234375,0.0003090191166847944,-0.00008808821439743042,0.0007784972549416125
1782846402504561200,3.46256103515625,0.000846055569127202,-0.0008698992896825075,0.0022223624400794506
1782846402514566100,3.472566162109375,0.002130764303728938,0.0022521247155964375,0.00046307838056236506
1782846402524571100,3.482571044921875,0.0015372007619589567,0.0031867260113358498,-0.0011297455057501793
1782846402534576000,3.492576171875,0.00011933385394513607,0.0031893893610686064,-0.0012245539110153913
1782846402544580000,3.502580078125,0.0020926473662257195,0.0002658416051417589,0.00027851556660607457
1782846402554585300,3.51258544921875,0.0011818460188806057,0.0013321713777258992,-0.00005943956784904003
1782846402564590300,3.52259033203125,-0.000978759373538196,-0.0006768535822629929,-0.0013166589196771383
1782846402574595300,3.53259521484375,0.001208494883030653,0.0004318205174058676,0.0008032171754166484
1782846402584600300,3.542600341796875,-0.0004843160277232528,0.001330590690486133,0.0006960188038647175
1782846402594605300,3.552605224609375,-0.0006331867771223187,0.0015518993604928255,-0.0005471447948366404
1782846402604610300,3.5626103515625,0.00010832911357283592,0.0022062980569899082,-0.003430410521104932
1782846402614615300,3.572615234375,-0.0004935454344376922,0.0004960158839821815,-0.0001400749897584319
1782846402624620300,3.582620361328125,0.0008709535468369722,0.00046554580330848694,0.0008574705570936203
1782846402634625300,3.592625244140625,-0.0006302703404799104,0.0014280121540650725,-0.00024374655913561583
1782846402644629200,3.602629150390625,0.0012096473947167397,-0.000021796440705657005,0.0001430498668923974
1782846402654634200,3.61263427734375,0.001475164433941245,0.00021229544654488564,0.000341189035680145
1782846402664639200,3.62263916015625,0.0013058632612228394,0.0011717374436557293,0.0008970479248091578
1782846402674644200,3.632644287109375,0.001542351907119155,-0.00046317698433995247,-0.002112323883920908
1782846402684649500,3.6426494140625,-0.0007893894799053669,0.0009386069141328335,0.0011664535850286484
1782846402694654500,3.652654541015625,0.00014058640226721764,0.0012997315498068929,-0.0013355861883610487
1782846402704659500,3.662659423828125,-0.0004909008275717497,0.0013756509870290756,0.00017180782742798328
1782846402714664400,3.67266455078125,-0.000893570831976831,-0.0004392932169139385,-0.00012406939640641212
1782846402724669700,3.682669677734375,0.00015833787620067596,-0.0006261728703975677,-0.0021059182472527027
1782846402734674700,3.6926748046875,0.000943970400840044,0.002319016959518194,0.001217440702021122
1782846402744678400,3.702678466796875,0.00022767274640500546,0.0007910178974270821,-0.00032685580663383007
1782846402754683400,3.712683349609375,-0.0016802159370854497,0.00040272902697324753,-0.0011188798816874623
1782846402764688400,3.7226884765625,-0.0009661058429628611,0.0015449256170541048,0.001610324252396822
1782846402774693400,3.732693359375,-0.0004856715677306056,-0.0008367390837520361,-0.000388910761103034
1782846402784698400,3.742698486328125,-0.0007161889225244522,-0.0000808092299848795,0.0021368288435041904
1782846402794703400,3.752703369140625,0.000308329239487648,-0.0003039820585399866,-0.0002600161824375391
1782846402804708600,3.76270849609375,0.0013105147518217564,-0.0008598954882472754,-0.0009230290306732059
1782846402814713600,3.772713623046875,-0.00019204081036150455,-0.0021523276809602976,-0.000982417375780642
1782846402824718600,3.782718505859375,-0.0006852621445432305,0.001236491254530847,0.0002815784537233412
1782846402834723600,3.7927236328125,0.0007437900640070438,0.0006079853046685457,0.0011159467976540327
1782846402844727600,3.8027275390625,-0.0005628711078315973,0.003622888820245862,0.0018656390020623803
1782846402854732500,3.812732666015625,0.001366056501865387,0.0006486703641712666,0.0010890612611547112
1782846402864737500,3.822737548828125,-0.00002307048998773098,-0.0015630896668881178,-0.0008487986633554101
1782846402874742500,3.832742431640625,0.0012456595432013273,0.0014159223064780235,-0.0007143090479075909
1782846402884747500,3.84274755859375,-0.001897140173241496,-0.001197955571115017,0.0046238950453698635
1782846402894752500,3.85275244140625,0.0006451134104281664,-0.0005207138601690531,-0.0006851163925603032
1782846402904757500,3.862757568359375,0.0005663631018251181,-0.0020990418270230293,-0.002449029590934515
1782846402914762500,3.872762451171875,-0.0009106260258704424,-0.0015909108333289623,0.001070870435796678
1782846402924767500,3.882767578125,0.0003481463063508272,0.0011787093244493008,0.0010750980582088232
1782846402934772500,3.8927724609375,0.003587615443393588,0.0019699344411492348,0.0023283816408365965
1782846402944776400,3.9027763671875,0.001110132783651352,0.00024243001826107502,0.00015953503316268325
1782846402954781400,3.912781494140625,-0.0007309103384613991,-0.0012534675188362598,-0.00003381050191819668
1782846402964786400,3.922786376953125,0.0009737019427120686,-0.0003299389500170946,-0.0015141121111810207
1782846402974791400,3.93279150390625,-0.00037518911994993687,-0.0009674998000264168,-0.002110660308972001
1782846402984796400,3.94279638671875,-0.00003686780110001564,0.0013026806991547346,-0.0011831887532025576
1782846402994801400,3.952801513671875,0.0012065621558576822,-0.0027932608500123024,0.0008775651804171503
1782846403004806400,3.962806396484375,-0.0010863494826480746,0.001338902278803289,0.0015366735169664025
1782846403014811400,3.972811279296875,-0.0014634530525654554,0.0005660529714077711,0.001085533993318677
1782846403024816600,3.982816650390625,-0.00041144562419503927,0.0003182142972946167,-0.003064199350774288
1782846403034821600,3.992821533203125,-0.00020904536359012127,0.00046309037134051323,0.0006221482180990279
1782846403044825600,4.00282568359375,0.0005564750172197819,0.00009039067663252354,-0.0015080533921718597
1782846403054830600,4.01283056640625,-0.004283021204173565,-0.0028039326425641775,0.001103442395105958
1782846403064835600,4.022835693359375,0.0008181750308722258,-0.0016989132855087519,-0.00007453979924321175
1782846403074840600,4.032840576171875,0.0019526819232851267,0.0025802538730204105,-0.0005027761217206717
1782846403084845600,4.042845458984375,-0.0003695562481880188,0.00041523040272295475,-0.0021062009036540985
1782846403094850600,4.0528505859375,0.0009063640609383583,0.003491980256512761,0.0014856044435873628
1782846403104855600,4.06285546875,0.0005215650890022516,0.0004305748734623194,-0.0006108084926381707
1782846403114860500,4.072860595703125,-0.001057955902069807,-0.00045918719843029976,0.00017828616546466947
1782846403124865500,4.082865478515625,0.0003699187655001879,-0.00026069371961057186,0.0015994792338460684
1782846403134870500,4.09287060546875,-0.0000849489588290453,-0.00047694239765405655,-0.0008500963449478149
1782846403144874500,4.10287451171875,0.0029014612082391977,0.0006677580531686544,0.0009588127140887082
1782846403154879500,4.11287939453125,0.0011400466319173574,0.0005625630728900433,0.001241107820533216
1782846403164884500,4.122884521484375,0.0007611829787492752,-0.0012248915154486895,-0.0008891132893040776
1782846403174889500,4.132889404296875,-0.0009775948710739613,0.00035462924279272556,-0.001224139123223722
1782846403184894500,4.14289453125,0.0013873225543648005,0.0007044854573905468,0.00011342519428581
1782846403194899500,4.1528994140625,-0.0007669084006920457,-0.002611416159197688,0.00014511682093143463
1782846403204904400,4.162904541015625,-0.00047156272921711206,0.0018156800651922822,-0.00019761023577302694
1782846403214909400,4.172909423828125,-0.0031530996784567833,0.00045214151032269,0.003482612082734704
1782846403224914400,4.18291455078125,0.0003729993477463722,-0.00003607128746807575,-0.00021612481214106083
1782846403234919400,4.19291943359375,0.0021794212516397238,-0.00027948408387601376,-0.0032846189569681883
1782846403244923600,4.202923583984375,0.0008436155039817095,0.0003768589813262224,0.0005453038611449301
1782846403254928600,4.2129287109375,0.0009477450512349606,0.0012727463617920876,0.000559684936888516
1782846403264933600,4.22293359375,-0.0010731724323704839,0.00023188069462776184,0.00044336472637951374
1782846403274938600,4.232938720703125,0.00011752685531973839,-0.0015662855003029108,0.000031906296499073505
1782846403284943600,4.242943603515625,0.0007535610347986221,0.0020192526280879974,0.00014748354442417622
1782846403294948600,4.252948486328125,-0.0004552478203549981,-0.0005970369093120098,0.00001725496258586645
1782846403304953600,4.26295361328125,-0.0017441869713366032,-0.00003907224163413048,-0.0022515244781970978
1782846403314958600,4.27295849609375,0.00023507419973611832,0.0020850650034844875,-0.0002693337155506015
1782846403324963600,4.282963623046875,0.0008510465268045664,-0.0015652196016162634,0.00006749248132109642
1782846403334968600,4.292968505859375,-0.000017676735296845436,0.000306716188788414,0.0001756169367581606
1782846403344972500,4.30297265625,0.0017494887579232454,0.00019647926092147827,0.002351057017222047
1782846403354977500,4.3129775390625,-0.000017518876120448112,-0.0004229720216244459,0.0015526413917541504
1782846403364982500,4.322982421875,0.0009862114675343037,-0.0003014851827174425,0.0011635195696726441
1782846403374987500,4.332987548828125,0.00050551095046103,0.00044846092350780964,-0.00039016862865537405
1782846403384992500,4.342992431640625,-0.001628641039133072,-0.0001430606935173273,0.0014796886825934052
1782846403394997500,4.35299755859375,0.0012465075124055147,0.0012865241151303053,0.0001989745069295168
1782846403405002500,4.36300244140625,-0.0016404299531131983,0.0016495472518727183,-0.00031152681913226843
1782846403415007500,4.373007568359375,-0.0006816920358687639,-0.0017308031674474478,0.0011633317917585373
1782846403425012500,4.383012451171875,0.0006584890652447939,-0.001312922453507781,-0.0018063392490148544
1782846403435016700,4.3930166015625,0.0022899415343999863,0.0006668712012469769,0.0010432431008666754
1782846403445021700,4.403021728515625,-0.000485478900372982,0.001248873770236969,-0.002411960158497095
1782846403455026700,4.413026611328125,0.00022318819537758827,-0.0006904401816427708,0.0006006077746860683
1782846403465031700,4.42303173828125,0.00032361759804189205,-0.0023471314925700426,-0.00017436419147998095
1782846403475036700,4.43303662109375,-0.0012463157763704658,0.0026162019930779934,-0.0007496069883927703
1782846403485041700,4.443041748046875,0.000433207955211401,0.00027087144553661346,0.0001500491052865982
1782846403495046700,4.453046630859375,-0.0017220884328708053,0.0032490845769643784,-0.000880061648786068
1782846403505051600,4.4630517578125,-0.0006569073302671313,0.001772689283825457,0.001958235865458846
1782846403515056600,4.473056640625,-0.003092101775109768,-0.0035552307963371277,0.0011901803081855178
1782846403525061600,4.4830615234375,-0.00038449931889772415,0.0007831549737602472,0.0016879860777407885
1782846403535065600,4.493065673828125,-0.0015863839071244001,0.00012588687241077423,0.00008769251871854067
1782846403545070600,4.503070556640625,-0.001362726790830493,-0.0002996837720274925,-0.00020909844897687435
1782846403555075600,4.51307568359375,-0.0002002569381147623,0.0009397512767463923,-0.00023333332501351833
1782846403565080600,4.52308056640625,-0.0018292679451406002,0.0008053812198340893,0.0036712312139570713
1782846403575085600,4.53308544921875,0.0007196434307843447,-0.0005949088372290134,0.0007188509916886687
1782846403585090600,4.543090576171875,-0.0003249130677431822,-0.000356665113940835,-0.0019509338308125734
1782846403595095600,4.553095458984375,-0.0004285098984837532,-0.0005601304583251476,-0.003152019577100873
1782846403605100500,4.5631005859375,0.0009805001318454742,0.000721984775736928,0.0010357374558225274
1782846403615105500,4.57310546875,0.0018976929131895304,0.000045009423047304153,-0.001468166708946228
1782846403625110500,4.583110595703125,0.0004775100387632847,-0.0015227696858346462,0.0005299773765727878
1782846403635114800,4.59311474609375,-0.00031904131174087524,-0.00042315060272812843,0.0024101692251861095
1782846403645119700,4.60311962890625,0.00204231939278543,0.0015044603496789932,0.00019389367662370205
1782846403655124700,4.613124755859375,0.0005086048040539026,0.0003188210539519787,0.0016056353924795985
1782846403665129700,4.623129638671875,0.0011042363476008177,-0.0006689312867820263,0.00042535935062915087
1782846403675134700,4.633134765625,0.0009710784070193768,0.0022514911834150553,0.0009617200121283531
1782846403685139700,4.6431396484375,-0.0005745033267885447,-0.0019405016209930182,0.002511447062715888
1782846403695144700,4.653144775390625,-0.0020999619737267494,0.000388698885217309,-0.0007378758164122701
1782846403705149700,4.663149658203125,0.002432712120935321,0.004073919728398323,0.0014027941506356
1782846403715154700,4.67315478515625,-0.0003185993991792202,0.0005665365606546402,-0.0006688787834718823
1782846403725159700,4.68315966796875,-0.0022757400292903185,0.002453383756801486,0.0012628764379769564
1782846403735163600,4.69316357421875,0.001462805550545454,0.0014064951101318002,-0.001135832630097866
1782846403745168600,4.703168701171875,0.002242536284029484,-0.000054788775742053986,0.002457953756675124
1782846403755173600,4.713173583984375,-0.0015442122239619493,0.0007793132681399584,0.0016307758633047342
1782846403765178600,4.7231787109375,0.0007645192090421915,0.00011356384493410587,0.0015430639032274485
1782846403775183600,4.73318359375,-0.0003742482513189316,0.001016109250485897,0.0021191055420786142
1782846403785188600,4.743188720703125,0.0018943820614367723,0.0009690865408629179,0.000016549951396882534
1782846403795193600,4.753193603515625,-0.0014622663147747517,0.0004524332471191883,0.0013958009658381343
1782846403805198600,4.763198486328125,0.0005707154050469398,0.0015440849820151925,-0.0015587357338517904
1782846403815203600,4.77320361328125,0.003340935567393899,0.0012101244647055864,0.0008101460989564657
1782846403825207800,4.783207763671875,0.001722667133435607,-0.00023276545107364655,0.0014979958068579435
1782846403835212800,4.793212890625,-0.0006728463340550661,0.0012335710925981402,0.0024181180633604527
1782846403845217800,4.8032177734375,-0.0005511461058631539,-0.00004675518721342087,0.00032465753611177206
1782846403855222800,4.813222900390625,0.0006406183820217848,0.00014818832278251648,0.00030921120196580887
1782846403865227800,4.823227783203125,0.0008146825712174177,0.0012636590981855989,0.000893222342710942
1782846403875232800,4.833232666015625,0.00016513769514858723,0.0014508792664855719,0.002793654100969434
1782846403885237800,4.84323779296875,0.0005506561137735844,0.001369419856928289,-0.00186305888928473
1782846403895242800,4.85324267578125,0.0008590500801801682,0.001860773074440658,-0.0019163221586495638
1782846403905247700,4.863247802734375,-0.0008093417854979634,0.001413814490661025,0.0007350778905674815
1782846403915251700,4.873251708984375,0.0013550091534852982,0.0002305721864104271,0.003696512896567583
1782846403925256700,4.883256591796875,-0.0012907509226351976,-0.0015110564418137074,-0.00188074994366616
1782846403935261700,4.89326171875,0.0005079479888081551,-0.0022261152043938637,0.00016082939691841602
1782846403945266700,4.9032666015625,0.0018484508618712425,0.000026942463591694832,0.0005070050247013569
1782846403955271700,4.913271728515625,-0.00006689457222819328,-0.0017645659390836954,0.0014079523971304297
1782846403965276700,4.923276611328125,-0.0003435539547353983,-0.0007828723173588514,0.003810103051364422
1782846403975281700,4.93328173828125,0.0004521985538303852,-0.0014254932757467031,0.0006132444832473993
1782846403985286700,4.94328662109375,-0.0019207102013751864,-0.000059178099036216736,-0.0007616188377141953
1782846403995291600,4.953291748046875,-0.0017697089351713657,-0.00022109830752015114,0.0007526546251028776
1782846404005296600,4.963296630859375,-0.000175906578078866,-0.0010200885590165854,0.001026302226819098
1782846404015300900,4.97330078125,0.00008668098598718643,0.000011087395250797272,-0.00039476051460951567
1782846404025305900,4.983305908203125,-0.0004793552216142416,-0.0012504162732511759,0.0013063647784292698
1782846404035310800,4.993310791015625,-0.0006956038996577263,-0.0026333958376199007,0.002023287583142519
1782846404045315800,5.00331591796875,-0.002231439808383584,0.0019559005741029978,0.00015022186562418938
1782846404055320800,5.01332080078125,-0.0008780213538557291,0.0016845244681462646,-0.0019424899946898222
1782846404065325800,5.023325927734375,-0.001252971705980599,-0.0004885562229901552,0.0014531654305756092
1782846404075330800,5.033330810546875,0.0010125793050974607,0.0012518195435404778,0.0006824465817771852
1782846404085335800,5.043335693359375,-0.0002914231736212969,-0.0007612875197082758,0.00020951428450644016
1782846404095340800,5.0533408203125,-0.00033749593421816826,0.0011676398571580648,-0.0008770553395152092
1782846404105344800,5.0633447265625,-0.0008890463504940271,-0.0006424144376069307,0.0020123966969549656
1782846404115349800,5.073349853515625,0.002138701267540455,0.002215157262980938,0.00030078296549618244
1782846404125354800,5.083354736328125,0.000519557623192668,-0.0008666384965181351,0.000004237983375787735
1782846404135359700,5.09335986328125,-0.0001978978980332613,0.0010295319370925426,-0.0011318664764985442
1782846404145364700,5.10336474609375,0.000018294434994459152,-0.0012400515843182802,0.002303969580680132
1782846404155369700,5.11336962890625,-0.0014941147528588772,-0.0009223364759236574,0.000545484246686101
1782846404165374700,5.123374755859375,0.0010058756452053785,0.00024074013344943523,-0.0016010089311748743
1782846404175379700,5.133379638671875,0.0019089533016085625,0.0003882793243974447,-0.0016137922648340464
1782846404185384700,5.143384765625,-0.0018444466404616833,-0.0006506065838038921,0.001206960529088974
1782846404195388700,5.153388671875,-0.0009368413593620062,0.00023063342086970806,0.0011542299762368202
1782846404205393700,5.1633935546875,0.001291085733100772,-0.0009607304818928242,0.0004882155917584896
1782846404215398700,5.173398681640625,-0.0018642274662852287,0.00033969106152653694,-0.0020234116818755865
1782846404225403600,5.183403564453125,0.001005538273602724,-0.0015751244500279427,0.00012845604214817286
1782846404235408600,5.19340869140625,0.0005714430008083582,0.0017804584931582212,0.000976939219981432
1782846404245413600,5.20341357421875,0.00041853636503219604,0.0006170030683279037,-0.0009969935053959489
1782846404255419000,5.2134189453125,-0.0013687111204490066,-0.00015930854715406895,-0.000652380520477891
1782846404265424000,5.223423828125,0.000569086754694581,0.0014137831749394536,-0.0008183985482901335
1782846404275428900,5.233428955078125,0.0011421989183872938,-0.0003455011174082756,0.002717480529099703
1782846404285433900,5.243433837890625,-0.000023471424356102943,0.00039282580837607384,0.00033938075648620725
1782846404295437600,5.2534375,0.001151248812675476,0.0017395862378180027,-0.0002499767579138279
1782846404305442600,5.263442626953125,-0.0029035299085080624,-0.001838837517425418,0.0022422659676522017
1782846404315447600,5.273447509765625,0.0009481997694820166,0.0005537462420761585,0.0007913758745416999
1782846404325452500,5.28345263671875,0.000564508605748415,-0.0013051663991063833,0.00034656753996387124
1782846404335457500,5.29345751953125,0.0013898219913244247,0.0015790372854098678,-0.001697408501058817
1782846404345462500,5.303462646484375,-0.001751826494000852,-0.00022566993720829487,0.0033681599888950586
1782846404355467500,5.313467529296875,-0.0004093269817531109,0.001017227303236723,-0.002036725403741002
1782846404365472500,5.323472412109375,-0.002479491988196969,-0.00301609025336802,-0.0018902096198871732
1782846404375477500,5.3334775390625,-0.0016158288344740868,0.0011632086243480444,-0.00031841197051107883
1782846404385481500,5.3434814453125,0.0016155363991856575,0.0009934138506650925,-0.0012587481178343296
1782846404395486700,5.35348681640625,0.0016972953453660011,0.001212059403769672,-0.00006165716331452131
1782846404405491700,5.36349169921875,0.0011012626346200705,0.0005559846758842468,-0.0005470055621117353
1782846404415496700,5.37349658203125,-0.0011576305842027068,-0.00048371334560215473,0.0004263798473402858
1782846404425501700,5.383501708984375,0.0016266161110252142,0.0005249697715044022,0.0004884947557002306
1782846404435506700,5.393506591796875,-0.00032601342536509037,0.0013564085820689797,0.0030147694051265717
1782846404445511700,5.40351171875,-0.00014887400902807713,-0.0010905873496085405,0.0025851670652627945
1782846404455516700,5.4135166015625,-0.001297229202464223,-0.0014330700505524874,0.000027733505703508854
1782846404465521700,5.423521728515625,-0.0001596480142325163,0.0005030476022511721,0.0012434959644451737
1782846404475525600,5.433525634765625,0.000037425896152853966,-0.001491127535700798,-0.0032109071034938097
1782846404485530600,5.443530517578125,-0.00023218500427901745,-0.002154311630874872,0.002231886610388756
1782846404495535600,5.45353564453125,-0.0008646856294944882,-0.001155093777924776,-0.00013246783055365086
1782846404505540600,5.46354052734375,0.0006538676097989082,-0.00034844991751015186,0.0003785752924159169
1782846404515545600,5.473545654296875,-0.001765347784385085,0.0003117478918284178,-0.0017277187434956431
1782846404525550600,5.483550537109375,0.0012997076846659184,0.0014316787710413337,0.0016608994919806719
1782846404535555600,5.4935556640625,0.0005513594951480627,-0.0007409281097352505,-0.002489637117832899
1782846404545560600,5.503560546875,0.0016486661043018103,-0.0025973485317081213,0.002443251432850957
1782846404555565600,5.513565673828125,0.003379188245162368,0.0025729124899953604,0.00008049490861594677
1782846404565569500,5.523569580078125,-0.0013627831358462572,0.0015424860175698996,0.00371652003377676
1782846404575574500,5.533574462890625,-0.00011189631186425686,-0.00012731598690152168,0.00047252356307581067
1782846404585579500,5.54357958984375,-0.00041293527465313673,-0.0014732943382114172,-0.0026731849648058414
1782846404595584500,5.55358447265625,0.000013436656445264816,-0.0001912487205117941,0.000010482268407940865
1782846404605589500,5.563589599609375,0.000929840374737978,-0.002119293436408043,-0.0009409365011379123
1782846404615594800,5.5735947265625,-0.0008717882446944714,-0.00009715510532259941,0.0023350180126726627
1782846404625599700,5.583599853515625,0.0010115811601281166,-0.0009800323750823736,0.0004720949218608439
1782846404635604700,5.593604736328125,-0.001459565944969654,-0.0013326348271220922,0.00195121462456882
1782846404645609700,5.603609619140625,-0.0002264713402837515,0.0011324752122163773,0.001117407577112317
1782846404655613700,5.61361376953125,0.0002659473102539778,0.00079585169441998,0.0016130218282341957
1782846404665618700,5.62361865234375,0.00206055399030447,0.0006594762671738863,-0.00047869980335235596
1782846404675623700,5.633623779296875,0.000026697758585214615,0.0008986280299723148,0.00002570287324488163
1782846404685629200,5.643629150390625,0.00035803671926259995,-0.001231171889230609,0.0013442414347082376
1782846404695634200,5.65363427734375,-0.00116475869435817,-0.000689751235768199,0.00036925822496414185
1782846404705639200,5.66363916015625,-0.0013658707030117512,0.0013875598087906837,0.0006130542606115341
1782846404715644200,5.67364404296875,0.0010229847393929958,-0.0002588063944131136,0.0008969472255557775
1782846404725649200,5.683649169921875,0.00044561433605849743,-0.0009624792728573084,0.0016228232998400927
1782846404735654100,5.693654052734375,0.0013415017165243626,0.0011262379121035337,0.0012337354710325599
1782846404745658000,5.703658203125,-0.0009107048390433192,-0.0014270709361881018,-0.0003840378485620022
1782846404755663000,5.7136630859375,0.00044857244938611984,-0.0006086817011237144,-0.0017321299528703094
1782846404765668000,5.723668212890625,-0.0033712643198668957,-0.0009002755396068096,-0.0024103564210236073
1782846404775673000,5.733673095703125,-0.0001717426348477602,-0.0011748475953936577,0.0011630731169134378
1782846404785678000,5.743677978515625,-0.0004649932961910963,-0.0002909714821726084,-0.00331895612180233
1782846404795683000,5.75368310546875,0.0001917423214763403,0.0004472567234188318,0.00002863758709281683
1782846404805688000,5.76368798828125,0.0005921348929405212,-0.000035566044971346855,0.0015758356312289834
1782846404815693000,5.773693115234375,-0.0013434505090117455,0.00024566357024013996,0.0007068462437018752
1782846404825698000,5.783697998046875,0.0013360697776079178,-0.0015739970840513706,0.0002862985711544752
1782846404835702300,5.793702392578125,-0.002548683201894164,-0.0024379263631999493,-0.000045264954678714275
1782846404845707300,5.803707275390625,-0.0003881892189383507,-0.0019452995620667934,0.00016757345292717218
1782846404855712300,5.813712158203125,-0.0005389241268858314,0.0015213371952995658,-0.0006771811749786139
1782846404865717200,5.82371728515625,-0.0023311481345444918,-0.0024266818072646856,0.0025416985154151917
1782846404875722200,5.83372216796875,-0.0004869090626016259,0.000723038800060749,-0.0012024396564811468
1782846404885727200,5.843727294921875,0.0012327434960752726,0.00037198816426098347,-0.004440879449248314
1782846404895732200,5.853732177734375,0.0008881303947418928,0.0029430037830024958,0.000024709152057766914
1782846404905737200,5.8637373046875,-0.0016409982927143574,0.0002569975331425667,-0.002441433724015951
1782846404915742200,5.8737421875,-0.0005765327950939536,0.0000021329615265130997,-0.00017188792116940022
1782846404925746200,5.88374609375,-0.0026929606683552265,-0.0014251177199184895,0.0006666599656455219
1782846404935751200,5.893751220703125,-0.001659387955442071,-0.0004879510961472988,0.0016525621758773923
1782846404945756200,5.903756103515625,-0.0018383425194770098,-0.0017428158316761255,-0.0021007019095122814
1782846404955761200,5.91376123046875,-0.002469245344400406,-0.0014322909992188215,-0.0011369041167199612
1782846404965766100,5.92376611328125,-0.0006767717422917485,-0.00018299277871847153,-0.0013247545575723052
1782846404975771100,5.933771240234375,-0.0007907550316303968,-0.00019284640438854694,0.002682237420231104
1782846404985776000,5.943776123046875,-0.0008324617519974709,0.00004966370761394501,-0.0017505097202956676
1782846404995781000,5.953781005859375,-0.00044603704009205103,-0.00015486706979572773,-0.00029908691067248583
1782846405005786000,5.9637861328125,0.0005813913885504007,-0.0026022454258054495,0.002260511042550206
1782846405015790300,5.973790283203125,0.0010892562568187714,-0.0010179306846112013,0.0002535528619773686
1782846405025795300,5.98379541015625,-0.00048554292879998684,0.0005018638912588358,0.0006332196062430739
1782846405035800300,5.99380029296875,0.0007283259183168411,0.0017913664923980832,-0.0018312697065994143
1782846405045805300,6.003805419921875,-0.0017434419132769108,-0.000378303462639451,0.00012825103476643562
1782846405055810300,6.013810302734375,-0.0011261211475357413,-0.0004952163435518742,0.0024505273904651403
1782846405065815300,6.023815185546875,0.0005207546055316925,0.0004049150738865137,-0.0006531364051625133
1782846405075820300,6.0338203125,-0.0010830009123310447,-0.0021304143592715263,-0.0005817636847496033
1782846405085825300,6.0438251953125,0.002214516280218959,-0.00038179592229425907,-0.0022201351821422577
1782846405095830300,6.053830322265625,0.00029411097057163715,-0.0003916495479643345,0.001102424575947225
1782846405105834200,6.063834228515625,0.0015135479625314474,0.0009068793151527643,0.0015914817340672016
1782846405115839200,6.073839111328125,-0.0016047474928200245,-0.00040073273703455925,-0.0016059093177318573
1782846405125844200,6.08384423828125,-0.0001792216207832098,0.0013849349925294518,-0.003532315604388714
1782846405135849200,6.09384912109375,0.00028763036243617535,-0.001532557886093855,0.0004808019148185849
1782846405145854200,6.103854248046875,0.0016210486646741629,0.0010962241794914007,-0.000526880263350904
1782846405155859200,6.113859130859375,0.0012418145779520273,-0.00007636565715074539,-0.0021202494390308857
1782846405165864200,6.1238642578125,0.0019458988681435585,-0.0007894246373325586,0.0005654690321534872
1782846405175869200,6.133869140625,0.0007679830305278301,0.0007437572348862886,0.0006730607710778713
1782846405185873200,6.143873046875,-0.00196037907153368,-0.0009322040714323521,-0.0014716224977746606
1782846405195878100,6.153878173828125,-0.0016458597965538502,-0.001473092008382082,0.0005739515763707459
1782846405205883400,6.16388330078125,0.0006260182708501816,0.0015379937831312418,0.0013486359966918826
1782846405215888400,6.173888427734375,0.001542411744594574,-0.001054859720170498,-0.0000668341526761651
1782846405225893400,6.183893310546875,0.0003952723927795887,-0.0004881282802671194,-0.0034019891172647476
1782846405235898400,6.1938984375,-0.0017653502291068435,-0.0015195708256214857,-0.0023649539798498154
1782846405245903400,6.2039033203125,-0.0002921363338828087,0.0010413131676614285,-0.00229499489068985
1782846405255908400,6.213908447265625,-0.002479923190549016,-0.0013981424272060394,0.00041583675192669034
1782846405265913300,6.223913330078125,0.0002618958242237568,-0.0011352596338838339,0.0012900815345346928
1782846405275917000,6.2339169921875,0.001393206650391221,0.0005310801789164543,-0.002740879077464342
1782846405285922000,6.243922119140625,0.001310504274442792,-0.0006741203833371401,-0.0019023105269297957
1782846405295927000,6.253927001953125,-0.000670354813337326,0.0019605448469519615,0.004506053868681192
1782846405305932000,6.26393212890625,-0.0024610727559775114,-0.0012305728159844875,-0.0031575344037264585
1782846405315937000,6.27393701171875,-0.00018087425269186497,0.00030180998146533966,-0.0004799923626706004
1782846405325942300,6.2839423828125,-0.00282532861456275,-0.0022233237978070974,-0.0007544177351519465
1782846405335947300,6.293947265625,-0.00007321801967918873,0.002324822824448347,-0.00011312856804579496
1782846405345952300,6.3039521484375,0.001158188795670867,0.000022865133360028267,-0.0004937346093356609
1782846405355957200,6.313957275390625,0.0006838797125965357,0.00035416241735219955,0.002356114098802209
1782846405365961000,6.3239609375,-0.0006138236494734883,0.001971463207155466,0.0013400852913036942
1782846405375966000,6.333966064453125,-0.0014527193270623684,0.0009464125614613295,-0.0019800777081400156
1782846405385971000,6.343970947265625,0.00040004425682127476,-0.0021537342108786106,-0.0034283220302313566
1782846405395976200,6.35397607421875,-0.00005748681724071503,-0.0026360326446592808,0.001465236535295844
1782846405405981200,6.363981201171875,-0.000125205609947443,-0.0005812286399304867,0.0021411278285086155
1782846405415986200,6.373986083984375,-0.0005587681662291288,0.00006139208562672138,0.0023704259656369686
1782846405425991200,6.3839912109375,-0.0013105713296681643,0.00008153170347213745,-0.0014462448889389634
1782846405435996200,6.39399609375,-0.00211351434700191,0.0001507739070802927,0.0007135787745937705
1782846405446000000,6.404000244140625,0.0008641958702355623,0.0003567710518836975,-0.0016432125121355057
1782846405456005000,6.414005126953125,-0.0006045374320819974,-0.002580429194495082,0.0021970656234771013
1782846405466010000,6.424010009765625,0.0013559923972934484,-0.0007032696157693863,0.0008950473857112229
1782846405476015000,6.43401513671875,-0.000996377901174128,0.0004986149724572897,0.0034857704304158688
1782846405486020000,6.44402001953125,0.001238520722836256,0.002747569466009736,-0.00031092821154743433
1782846405496025000,6.454025146484375,-0.0005636403802782297,0.00010198517702519894,-0.0008371688891202211
1782846405506030000,6.464030029296875,0.0003636942710727453,0.0017519856337457895,-0.0003820111742243171
1782846405516035000,6.47403515625,-0.0014589731581509113,-0.0009015882387757301,0.0014012415194883943
1782846405526040000,6.4840400390625,0.00007782806642353535,-0.0005793757736682892,-0.0003995185252279043
1782846405536044000,6.4940439453125,-0.00004041637293994427,0.000039809150621294975,-0.00037022377364337444
1782846405546049000,6.504049072265625,0.00041940086521208286,0.000288558192551136,0.001231868751347065
1782846405556054000,6.514053955078125,-0.001879972405731678,-0.002037713071331382,0.002076357137411833
1782846405566059000,6.52405908203125,0.0009163750801235437,-0.0009101810865104198,0.0025709415785968304
1782846405576064000,6.53406396484375,-0.001147042028605938,0.000749500934034586,-0.00007544166874140501
1782846405586069000,6.544069091796875,0.0017543756403028965,0.00009012199006974697,0.0011234524426981807
1782846405596074000,6.554073974609375,-0.0014874902553856373,-0.00018418347463011742,0.000773246749304235
1782846405606079000,6.564078857421875,0.0012068937066942453,0.0014467677101492882,-0.0006562735652551055
1782846405616083200,6.574083251953125,0.0003482906613498926,-0.0000752289779484272,0.0024857239332050085
1782846405626088200,6.584088134765625,0.0012958708684891462,-0.0017616641707718372,-0.0011585502652451396
1782846405636093200,6.59409326171875,0.002117722062394023,0.0015760756796225905,-0.001549235894344747
1782846405646098200,6.60409814453125,0.0008510404732078314,-0.0014184340834617615,0.002072266535833478
1782846405656103200,6.614103271484375,0.000052358489483594894,0.002321709180250764,-0.002122478326782584
1782846405666108200,6.624108154296875,-0.0006222804076969624,0.00015872553922235966,-0.0004171361215412617
1782846405676113200,6.634113037109375,-0.0014073803322389722,-0.0010615349747240543,0.000042525469325482845
1782846405686118700,6.64411865234375,0.000930542591959238,-0.0013164919801056385,-0.0010828759986907244
1782846405696123600,6.65412353515625,0.001954261679202318,0.0011019245721399784,-0.000869822921231389
1782846405706127600,6.664127685546875,-0.0013465615920722485,0.0007479824125766754,-0.0005119576817378402
1782846405716132600,6.674132568359375,-0.0005505427252501249,-0.001119159860536456,0.0014686352806165814
1782846405726137600,6.6841376953125,0.0012583122588694096,-0.0015601245686411858,-0.0011300090700387955
1782846405736142600,6.694142578125,-0.0012913980754092336,-0.000987278763204813,0.0023374268785119057
1782846405746147600,6.704147705078125,-0.0005757645703852177,-0.001412025187164545,-0.0006874282844364643
1782846405756152600,6.714152587890625,-0.0007347553037106991,-0.0008002971298992634,-0.0012110058451071382
1782846405766157600,6.724157470703125,-0.0006085599306970835,-0.0012535627465695143,0.0007819376769475639
1782846405776162600,6.73416259765625,-0.0016192295588552952,-0.000825593015179038,0.00047594046918675303
1782846405786167600,6.74416748046875,-0.0015869010239839554,-0.0016351998783648014,0.0007732444209977984
1782846405796171800,6.754171875,0.0008813166059553623,-0.00017072772607207298,0.0002446069847792387
1782846405806176800,6.7641767578125,0.002275420119985938,0.0008584198076277971,0.0009215085301548243
1782846405816181800,6.774181640625,0.00003436999395489693,0.0024067815393209457,0.000002984306775033474
1782846405826186800,6.784186767578125,0.0006902753375470638,-0.00004360079765319824,0.0009441615547984838
1782846405836191700,6.794191650390625,-0.0003443625755608082,-0.0003959371242672205,-0.0012225862592458725
1782846405846196700,6.80419677734375,0.0017326576635241508,0.0004035111051052809,-0.004078029654920101
1782846405856201700,6.81420166015625,-0.0015195946907624602,-0.001125409733504057,-0.0013232555938884616
1782846405866206700,6.824206787109375,0.002287594135850668,-0.0018152643460780382,0.0025947336107492447
1782846405876210700,6.834210693359375,0.0006766482256352901,0.0007565503474324942,0.0004500900977291167
1782846405886215700,6.844215576171875,-0.0006516978610306978,-0.0017742617055773735,-0.0020406453404575586
1782846405896220700,6.854220703125,0.001823177793994546,0.0012407030444592237,0.0011940301628783345
1782846405906225700,6.8642255859375,0.00035319244489073753,0.0003619571216404438,-0.000059648649767041206
1782846405916230700,6.874230712890625,0.00229410408064723,0.0006447848863899708,-0.0009400895796716213
1782846405926235600,6.884235595703125,-0.0014932566555216908,0.00032281712628901005,0.00031324836891144514
1782846405936240600,6.89424072265625,0.0002652285620570183,0.00027914135716855526,0.00030206312658265233
1782846405946245600,6.90424560546875,0.0008111339993774891,0.0021116253919899464,-0.0011481731198728085
1782846405956249600,6.91424951171875,-0.0026059679221361876,0.0005305067170411348,0.0009519957820884883
1782846405966254600,6.924254638671875,-0.002755308523774147,-0.003555119503289461,-0.0005596665432676673
1782846405976259600,6.934259521484375,-0.002112421439960599,-0.0021399157121777534,0.001559677068144083
1782846405986264800,6.944264892578125,-0.0005062241107225418,-0.0013248813338577747,-0.0008003574330359697
1782846405996269800,6.954269775390625,-0.0003538911696523428,-0.000998910516500473,0.00256028538569808
1782846406006274800,6.96427490234375,0.0009113310370594263,0.0012025432661175728,0.00032157497480511665
1782846406016279800,6.97427978515625,0.0019241312984377146,-0.001722140470519662,-0.0017010958399623632
1782846406026284800,6.984284912109375,0.001003054901957512,0.0004096399061381817,-0.0011248328955844045
1782846406036289800,6.994289794921875,-0.0023107165470719337,-0.00040368945337831974,-0.0015791681362316012
1782846406046293800,7.004293701171875,0.00038497382774949074,-0.0016368257347494364,0.0003714003833010793
1782846406056298800,7.014298828125,-0.0009109203238040209,-0.0008932712953537703,0.001185528701171279
1782846406066303700,7.0243037109375,0.0017044865526258945,0.0005605206824839115,-0.00031162251252681017
1782846406076308700,7.034308837890625,-0.001468403497710824,0.00010831584222614765,-0.0005707481177523732
1782846406086313700,7.044313720703125,-0.0005911131156608462,-0.0015488301869481802,0.0011280779726803303
1782846406096318700,7.054318603515625,0.00011568982154130936,-0.0010159316007047892,0.0005328615079633892
1782846406106323700,7.06432373046875,0.0020003989338874817,0.0030102571472525597,-0.0012440478894859552
1782846406116328700,7.07432861328125,-0.0004475787281990051,-0.0023272503167390823,0.0022116699256002903
1782846406126332700,7.084332763671875,0.00043684011325240135,-0.0013679082039743662,-0.0006229747086763382
1782846406136337700,7.094337646484375,0.0012560284230858088,0.0009101596660912037,0.00025453686248511076
1782846406146342700,7.1043427734375,-0.001206412329338491,0.0008009476587176323,-0.0010211002081632614
1782846406156347600,7.11434765625,-0.002241316717118025,0.000015315134078264236,0.002368304878473282
1782846406166352600,7.1243525390625,-0.0017528426833450794,0.0013016154989600182,-0.0025659375824034214
1782846406176357600,7.134357666015625,0.0008434730116277933,0.0003322248812764883,-0.0009928082581609488
1782846406186362600,7.144362548828125,0.0001711919903755188,0.00007027597166597843,0.0013831561664119363
1782846406196367600,7.15436767578125,0.0013067638501524925,-0.0023840933572500944,0.002402880461886525
1782846406206372900,7.164372802734375,0.000024497276172041893,0.0024980667512863874,-0.002007492119446397
1782846406216376600,7.17437646484375,0.0004601904656738043,0.0015204203082248569,0.00026498327497392893
1782846406226381800,7.1843818359375,-0.0003075520507991314,0.0017396275652572513,-0.0008461913093924522
1782846406236386800,7.19438671875,-0.0011166204931214452,-0.0009970366954803467,0.0018321496900171041
1782846406246391800,7.204391845703125,0.0014915454667061567,-0.0009402441792190075,-0.00046712637413293123
1782846406256396800,7.214396728515625,-0.0008637541905045509,-0.0025703650899231434,-0.0006210569990798831
1782846406266401800,7.22440185546875,-0.0017762273782864213,-0.0010804468765854836,-0.0012301119277253747
1782846406276406800,7.23440673828125,0.0008022452238947153,0.001313468674197793,0.0001792328548617661
1782846406286411800,7.244411865234375,0.002401481382548809,0.0011734971776604652,-0.0002649197122082114
1782846406296415500,7.25441552734375,0.0007410002872347832,0.0007942630909383297,0.0009745154529809952
1782846406306420500,7.26442041015625,-0.000017741229385137558,0.00058903475292027,-0.0002579031279310584
1782846406316425500,7.274425537109375,-0.0006430515786632895,0.0008156697731465101,-0.0011830851435661316
1782846406326430500,7.284430419921875,-0.0006881818408146501,0.0005184882320463657,-0.0003546405350789428
1782846406336435500,7.294435546875,-0.0013198836240917444,0.0006567062810063362,0.001183335087262094
1782846406346440400,7.3044404296875,-0.001533527160063386,-1.0780058801174164e-7,-0.0016861970070749521
1782846406356445400,7.314445556640625,0.0015653271693736315,0.0008449130691587925,0.0012989402748644352
1782846406366450400,7.324450439453125,0.0002448451705276966,-0.0030185028444975615,0.0008547242032364011
1782846406376454700,7.33445458984375,-0.002018575556576252,0.002254289574921131,-0.0007913756417110562
1782846406386459600,7.344459716796875,-0.0026606163010001183,0.0006060432642698288,-0.00021768419537693262
1782846406396464600,7.354464599609375,-0.0008723036153241992,0.0018462772713974118,0.0016475939191877842
1782846406406469600,7.3644697265625,0.0007240574341267347,0.0002512778155505657,-0.00046319887042045593
1782846406416474600,7.374474609375,0.00045534432865679264,0.0013844529166817665,0.0013237822568044066
1782846406426479600,7.384479736328125,-0.000580616993829608,-0.0011050375178456306,0.0004005020600743592
1782846406436484600,7.394484619140625,-0.00006929016672074795,0.0012332177720963955,-0.0027026133611798286
1782846406446489600,7.404489501953125,-0.0017451239982619882,-0.0004561415407806635,0.00023763923672959208
1782846406456493600,7.41449365234375,-0.00048331834841519594,-0.00006945058703422546,0.00036626990186050534
1782846406466498600,7.42449853515625,0.0012992862612009048,-0.00023694708943367004,-0.00010634551290422678
1782846406476503600,7.434503662109375,-0.0003880925942212343,-0.0017722593620419502,-0.001296778442338109
1782846406486508500,7.444508544921875,0.00023737200535833836,0.00048117642290890217,0.0008215921698138118
1782846406496513500,7.454513427734375,-0.0008073861245065928,-0.0024115489795804024,0.0016003004275262356
1782846406506518500,7.4645185546875,-0.00027770246379077435,0.0010744188912212849,0.0011800164356827736
1782846406516523500,7.4745234375,0.0005356268957257271,0.0011327420361340046,-0.0002913799835368991
1782846406526528500,7.484528564453125,0.0019268118776381016,0.0026892132591456175,0.000736454501748085
1782846406536532700,7.49453271484375,0.0007925713434815407,0.000040433136746287346,0.0003332518972456455
1782846406546537700,7.504537841796875,0.0005757736507803202,0.0004040924832224846,0.002496081404387951
1782846406556542700,7.514542724609375,0.0023816630709916353,-0.0014670442324131727,-0.001517302356660366
1782846406566547700,7.524547607421875,-0.0008994797244668007,-0.0013416865840554237,-0.0025917193852365017
1782846406576552700,7.534552734375,-0.00038708746433258057,0.0026051178574562073,0.002581737469881773
1782846406586557700,7.5445576171875,-0.0004869720432907343,-0.00037530576810240746,0.0008636215352453291
1782846406596562700,7.554562744140625,0.001024904428049922,0.0003695804625749588,0.0009594953153282404
1782846406606567700,7.564567626953125,-0.0026398461777716875,-0.00257296790368855,0.0008260975009761751
1782846406616571600,7.574571533203125,0.002387403044849634,0.0012175093870609999,0.0015688531566411257
1782846406626576600,7.58457666015625,0.0006690192967653275,0.00041295657865703106,0.0013318939600139856
1782846406636581600,7.59458154296875,-0.001011169166304171,-0.0008360659703612328,-0.0022868092637509108
1782846406646586600,7.604586669921875,-0.0001959637738764286,-0.0004875392187386751,-0.002840534783899784
1782846406656591600,7.614591552734375,0.0007891396526247263,0.001725813839584589,0.0007877557072788477
1782846406666596600,7.6245966796875,0.00028030690737068653,-0.002192316111177206,-0.00020209280773997307
1782846406676601600,7.6346015625,0.0006691284943372011,0.0022682123817503452,-0.001058831694535911
1782846406686606000,7.644606201171875,-0.00036197458393871784,0.0002954427618533373,-0.0008458083029836416
1782846406696610000,7.654610107421875,0.002392000053077936,0.00115484488196671,-0.0013384930789470673
1782846406706615000,7.664614990234375,0.0011436794884502888,0.0004633639473468065,-0.002231522463262081
1782846406716620000,7.6746201171875,0.0016819045413285494,0.0008990571368485689,-0.0020719990134239197
1782846406726625000,7.684625,0.00044160126708447933,-0.0013601381797343493,0.001520445803180337
1782846406736630000,7.694630126953125,0.001110587501898408,0.0008438942022621632,0.0005390709266066551
1782846406746635000,7.704635009765625,0.001342155272141099,-0.0032429846469312906,0.000024719396606087685
1782846406756640000,7.714639892578125,0.0004364142660051584,-0.000687415013089776,-0.0011779642663896084
1782846406766645200,7.724645263671875,0.0003203239757567644,-0.00117705506272614,-0.0006366354646161199
1782846406776649000,7.73464892578125,-0.0003052526153624058,0.0010584022384136915,-0.001360216410830617
1782846406786654000,7.744654052734375,-0.00005831662565469742,0.0015808382304385304,-0.0035584247671067715
1782846406796659000,7.754658935546875,-0.0004846887895837426,-0.0005478262901306152,0.00024217215832322836
1782846406806664000,7.764663818359375,0.0013603887055069208,0.000243406742811203,-0.001079636625945568
1782846406816669000,7.7746689453125,0.0013502687215805054,0.0013909628614783287,0.0012658092891797423
1782846406826674000,7.784673828125,-0.0012184142833575606,-0.0003924919292330742,-0.0013585686683654785
1782846406836679000,7.794678955078125,0.002159006427973509,-0.0001461496576666832,0.0030774585902690887
1782846406846684000,7.804683837890625,-0.0005315005546435714,0.002181791700422764,-0.0011355339083820581
1782846406856689000,7.81468896484375,-0.0008673251140862703,0.0023165475577116013,0.0009984570788219571
1782846406866693000,7.824693115234375,-0.0003708512522280216,-0.0004311222583055496,0.0007376979338005185
1782846406876698000,7.834697998046875,0.001085365191102028,-0.003374447813257575,-0.0012857719557359815
1782846406886703000,7.844703125,-0.00003107846714556217,-0.002123126992955804,0.0004459155607037246
1782846406896708000,7.8547080078125,0.002370027359575033,0.0010766610503196716,-0.0006475783884525299
1782846406906713000,7.864713134765625,0.0001051959116011858,0.0015530601376667619,-0.0006661044899374247
1782846406916718000,7.874718017578125,-0.00014487490989267826,0.001187674468383193,0.002501459326595068
1782846406926723000,7.88472314453125,0.001762600615620613,0.0009227048140019178,-0.0023562598507851362
1782846406936727000,7.89472705078125,0.0010821628384292126,0.00025345245376229286,0.0014738984173163772
1782846406946732000,7.90473193359375,-0.0013308924390003085,-0.00010991515591740608,0.0014250725507736206
1782846406956737000,7.914737060546875,0.0018526504281908274,-0.001357073662802577,-0.002643971238285303
1782846406966742000,7.924741943359375,-0.0016431750264018774,-0.001750394469127059,0.0005614578258246183
1782846406976747000,7.9347470703125,-0.0011017544893547893,0.0009609695989638567,-0.001751497620716691
1782846406986752000,7.944751953125,-0.00007928861305117607,-0.0004693777300417423,-0.00021597149316221476
1782846406996757000,7.954757080078125,-0.00032483204267919064,0.0011098769027739763,-0.0020040180534124374
1782846407006762000,7.964761962890625,0.00240800972096622,-0.003395482199266553,0.0010051445569843054
1782846407016766000,7.974765869140625,-0.0003294534981250763,-0.0004755924455821514,-0.0018524272600188851
1782846407026771000,7.98477099609375,-0.00020335521548986435,0.0017606952460482717,-0.00014521228149533272
1782846407036776200,7.994776123046875,0.000913840951398015,0.0015732087194919586,0.0015131381805986166
1782846407046781200,8.00478125,-0.0007611502660438418,0.001352500170469284,0.0008639275911264122
1782846407056786200,8.0147861328125,-0.0014186847256496549,-0.0002840121742337942,-0.00042237923480570316
1782846407066791200,8.024791259765625,-0.0014650297816842794,0.00014378619380295277,0.002094926545396447
1782846407076796200,8.034796142578125,0.0018727101851254702,-0.0007449106778949499,-0.0025450990069657564
1782846407086801200,8.04480126953125,-0.0002852736506611109,-0.0033433178905397654,0.001226679072715342
1782846407096805000,8.05480517578125,-0.00019765552133321762,-0.0002884059213101864,-0.000757908564992249
1782846407106810000,8.06481005859375,0.0012444169260561466,0.00008744350634515285,0.0010132546303793788
1782846407116815000,8.074815185546875,-0.0006453623063862324,0.0013684240402653813,0.0003093811683356762
1782846407126820000,8.084820068359376,0.0020687284413725138,-0.001257498748600483,0.0011951514752581716
1782846407136825000,8.0948251953125,-0.0007209324976429343,0.00035770819522440434,0.0034993183799088
1782846407146830000,8.104830078125,-0.002239784225821495,-0.0008581681177020073,0.0012806295417249203
1782846407156835000,8.1148349609375,0.0023411193396896124,0.00043905782513320446,-0.0029793628491461277
1782846407166840000,8.124840087890625,0.0011354349553585052,-0.00012217299081385136,-0.00045210146345198154
1782846407176844000,8.134843994140626,0.00010159588418900967,0.00012123980559408665,-0.0019970012363046408
1782846407186849000,8.14484912109375,-0.00041895778849720955,0.00048270728439092636,0.0009621059289202094
1782846407196854000,8.15485400390625,0.0003371136263012886,0.0013029607944190502,0.0005011127796024084
1782846407206859000,8.16485888671875,0.0006329256575554609,0.0016114808386191726,-0.00013340194709599018
1782846407216864000,8.174864013671876,-0.00022008479572832584,0.0021819300018250942,-0.00006149662658572197
1782846407226869000,8.184868896484375,0.00010148342698812485,-0.0007466583047062159,0.0009982967749238014
1782846407236874000,8.1948740234375,0.0010319920256733894,0.0021061196457594633,0.0009951009415090084
1782846407246879000,8.20487890625,0.0017482866533100605,0.0006764070130884647,-0.00209167436696589
1782846407256883200,8.21488330078125,0.0013056693132966757,-0.00030390266329050064,-0.00029697001446038485
1782846407266888200,8.22488818359375,-0.0013082291698083282,0.000016462523490190506,-0.0004187739687040448
1782846407276893200,8.23489306640625,-0.002622765488922596,0.000544833717867732,-0.0013428907841444016
1782846407286898200,8.244898193359376,-0.000018488848581910133,0.0011296470183879137,0.001170157571323216
1782846407296903200,8.254903076171875,-0.00041476706974208355,-0.0008179224096238613,-0.0026038079522550106
1782846407306908200,8.264908203125,-0.0000682617537677288,0.0015064935432747006,-0.0023431340232491493
1782846407316913200,8.2749130859375,-0.00016333675011992455,-0.00041764043271541595,-0.0012336610816419125
1782846407326918100,8.284918212890625,0.0019309143535792828,0.0011828870046883821,-0.0012091727694496512
1782846407336922000,8.294922119140624,-0.0011924410937353969,-0.00045016338117420673,-0.0017119775293394923
1782846407346927000,8.304927001953125,-0.00021529896184802055,-0.002006232040002942,-0.0018641637871041894
1782846407356932000,8.31493212890625,-0.0015812341589480639,-0.0006749175954610109,0.0005348116392269731
1782846407366937000,8.32493701171875,0.0006534114945679903,0.0002587614580988884,0.0008723752107471228
1782846407376942000,8.334942138671876,0.0008835084736347198,0.0007570390589535236,0.0015847708564251661
1782846407386947000,8.344947021484375,0.0007773181423544884,0.0011897825170308352,-0.003465743502601981
1782846407396952000,8.3549521484375,0.0008601425215601921,-0.0008480683900415897,-0.0015306908171623945
1782846407406957000,8.36495703125,-0.002886500209569931,0.0012923902831971645,0.0006317968363873661
1782846407416961300,8.374961181640625,-0.0005258742021396756,0.000764551805332303,0.001538869459182024
1782846407426966300,8.38496630859375,-0.0015340808313339949,-0.0008817131165415049,0.00002848869189620018
1782846407436971300,8.39497119140625,0.0003144191578030586,0.00047649932093918324,0.0026373211294412613
1782846407446976300,8.404976318359376,0.00015032757073640823,-0.0003593487199395895,-0.0006623485824093223
1782846407456981200,8.414981201171875,0.0007039988413453102,0.001918453024700284,-0.0011864586267620325
1782846407466986200,8.424986328125,0.0025710274931043386,0.0011201626621186733,-0.0013061290374025702
1782846407476991200,8.4349912109375,-0.00003487570211291313,-0.0006388553883880377,0.0010821936884894967
1782846407486995000,8.444994873046875,0.0018438471015542746,0.0014540202682837844,0.00009446253534406424
1782846407497000000,8.455,0.00047471607103943825,-0.00030020391568541527,0.0023006252013146877
1782846407507005000,8.4650048828125,-0.0004944101674482226,0.00020571495406329632,0.0004921162617392838
1782846407517010000,8.475010009765626,0.0019548991695046425,-0.0006124081555753946,-0.000524678616784513
1782846407527015000,8.485014892578125,-0.001155861304141581,-0.0015674855094403028,-0.0014441115781664848
1782846407537020000,8.49502001953125,0.00033630779944360256,-0.00011899205856025219,0.00027735577896237373
1782846407547025000,8.50502490234375,0.0013166624121367931,-0.0014367583207786083,-0.00029138231184333563
1782846407557030000,8.51502978515625,-0.0007731202058494091,-0.001510261557996273,0.000004228553734719753
1782846407567034000,8.5250341796875,0.0030509126372635365,-0.00034925551153719425,0.00012937828432768583
1782846407577039000,8.5350390625,-0.001165936584584415,-0.0010762987658381462,-0.0018003482837229967
1782846407587044000,8.545044189453124,0.0009110232349485159,-0.0013065868988633156,0.00032527127768844366
1782846407597049000,8.555049072265625,0.0005554910749197006,-0.00026475824415683746,0.0006216811016201973
1782846407607054000,8.56505419921875,-0.0005171038210391998,-0.00045588728971779346,0.0014855770859867334
1782846407617059000,8.57505908203125,-0.00009525916539132595,0.0014155161334201694,-0.0011770513374358416
1782846407627064000,8.58506396484375,-0.0008648191578686237,0.0008950154297053814,0.001383466413244605
1782846407637068000,8.595068115234374,-0.000103421276435256,0.0024787974543869495,-0.0005550485802814364
1782846407647073000,8.605072998046875,-0.0006781722186133265,-0.001291066175326705,0.002711341716349125
1782846407657078000,8.615078125,-0.0012262507807463408,0.0001347903162240982,-0.001043182797729969
1782846407667083000,8.6250830078125,0.0008486984297633171,-0.0007063436787575483,0.0013031706912443042
1782846407677088000,8.635087890625,-0.0008155109826475382,0.0008476106449961662,0.0005036897491663694
1782846407687092200,8.64509228515625,0.00035639270208775997,0.002607847796753049,0.00002383312676101923
1782846407697097200,8.65509716796875,-0.0005570715293288231,0.0006890404038131237,-0.00045233999844640493
1782846407707102200,8.665102294921875,-0.0006555437576025724,0.007297089789062738,0.008878285065293312
1782846407717106400,8.6751064453125,-0.0030899392440915108,0.12629592418670654,0.027588054537773132
1782846407727111400,8.685111328125,0.0005427652504295111,-0.06192048639059067,-0.014086340554058552
1782846407737116400,8.695116455078125,0.0025896711740642786,-0.16059139370918274,-0.03952405974268913
1782846407747121400,8.705121337890626,-0.0018328414298593998,0.01946956291794777,0.005661075934767723
1782846407757126400,8.71512646484375,-0.002279719803482294,0.12577283382415771,0.030633537098765373
