time,seconds_elapsed,z,y,x
1782846399105395200,0.063395263671875,0.0021875204984098673,0.023865651339292526,0.0046445527113974094
1782846399115400200,0.073400146484375,0.002385659608989954,-0.005048021674156189,-0.0015004249289631844
1782846399125405200,0.0834052734375,0.0036008600145578384,-0.023849673569202423,-0.006104497704654932
1782846399135410400,0.093410400390625,0.0005733785801567137,0.0013148026773706079,0.00028043086058460176
1782846399145414400,0.103414306640625,0.0003712446487043053,0.013166136108338833,0.002584864152595401
1782846399155419400,0.11341943359375,0.0034293525386601686,-0.010845190845429897,-0.0028636970091611147
1782846399165424400,0.12342431640625,0.004720985423773527,-0.014622884802520275,-0.0014879080699756742
1782846399175429400,0.133429443359375,0.003245860803872347,0.002751844236627221,0.0012607404496520758
1782846399185434400,0.143434326171875,0.002377137541770935,0.003736148588359356,0.002685531508177519
1782846399195439400,0.153439453125,0.0011749867117032409,-0.008916529826819897,-0.004577441141009331
1782846399205444400,0.1634443359375,0.00373002327978611,-0.009780459105968475,-0.0016793893883004785
1782846399215449300,0.173449462890625,0.0001680454588495195,0.0033129723742604256,0.003338006092235446
1782846399225454300,0.183454345703125,0.0018804579740390182,-0.0003347593592479825,-0.0014594122767448425
1782846399235459300,0.193459228515625,0.00224903947673738,-0.007714378647506237,-0.004701810888946056
1782846399245464300,0.20346435546875,0.0023643544409424067,-0.006089317612349987,-0.003175287041813135
1782846399255468300,0.21346826171875,0.00199310970492661,0.0009957558941096067,-0.001246625673957169
1782846399265473300,0.223473388671875,0.0010514160385355353,-0.0043590618297457695,0.0015592807903885841
1782846399275478300,0.233478271484375,0.0029763488564640284,-0.007237672805786133,-0.001127582392655313
1782846399285483300,0.243483154296875,-0.00038935415796004236,-0.005426190793514252,-0.004000334069132805
1782846399295488300,0.25348828125,0.0011020160745829344,0.0029031119775027037,-0.00022903185163158923
1782846399305493200,0.2634931640625,0.0025776736438274384,-0.004427505191415548,0.0011033476330339909
1782846399315498200,0.273498291015625,0.0025542378425598145,-0.004318315535783768,-0.003440005239099264
1782846399325503200,0.283503173828125,0.0029643645975738764,-0.0009475527331233025,0.00282002124004066
1782846399335508200,0.29350830078125,0.0021526331547647715,-0.001996039180085063,-0.000056459015468135476
1782846399345513200,0.30351318359375,0.002954510971903801,-0.0037292244378477335,-0.001073786523193121
1782846399355517400,0.313517333984375,0.00410552928224206,-0.0032719597220420837,0.000004793690095539205
1782846399365522400,0.3235224609375,0.0009859022684395313,-0.0016186692519113421,-0.0034503915812820196
1782846399375527400,0.33352734375,0.0020793962758034468,-0.0018570221727713943,-0.0019497001776471734
1782846399385532400,0.343532470703125,0.003486610483378172,-0.005780923645943403,-0.0021933794487267733
1782846399395537400,0.353537353515625,0.00040187101694755256,-0.002383529208600521,-0.001555552356876433
1782846399405542400,0.36354248046875,0.0016639430541545153,-0.0034061830956488848,-0.00004713794987765141
1782846399415547400,0.37354736328125,0.0013515542959794402,-0.0020269318483769894,-0.0036770266015082598
1782846399425552400,0.383552490234375,0.004756139125674963,-0.0027198863681405783,-0.0011587414192035794
1782846399435557400,0.393557373046875,0.0029590383637696505,-0.0040914141573011875,-0.0037055222783237696
1782846399445562400,0.403562255859375,0.0010423612548038363,-0.0009867012267932296,-0.0008096009842120111
1782846399455567400,0.4135673828125,0.0017904432024806738,-0.004581169690936804,-0.0014655375853180885
1782846399465571300,0.4235712890625,0.0008644621120765805,-0.00461765518411994,-0.0020421119406819344
1782846399475576300,0.433576416015625,0.0013321131700649858,-0.003427488263696432,-0.001231711939908564
1782846399485581300,0.443581298828125,0.002266882685944438,-0.0032730249222368,-0.0025185514241456985
1782846399495586300,0.45358642578125,0.001312405802309513,-0.003540672594681382,-0.0017619474092498422
1782846399505591300,0.46359130859375,0.00024820660473778844,-0.0036645096261054277,-0.001205080421641469
1782846399515596300,0.47359619140625,0.004108192399144173,-0.002447711303830147,-0.0014112089993432164
1782846399525601300,0.483601318359375,0.0011329087428748608,-0.003365170443430543,-0.0015701997326686978
1782846399535606300,0.493606201171875,0.0004194478678982705,-0.005637113004922867,0.0030482541769742966
1782846399545611300,0.503611328125,0.00224903947673738,-0.0037710361648350954,-0.0010309095960110426
1782846399555616300,0.5136162109375,0.002234392100945115,-0.004286890383809805,0.0010165285784751177
1782846399565621500,0.52362158203125,0.0019837887957692146,-0.0049036783166229725,0.00038509309524670243
1782846399575625200,0.533625244140625,0.0012311793398112059,-0.003567836945876479,0.00004820321555598639
1782846399585630200,0.543630126953125,0.001306280493736267,-0.0028807413764297962,-0.003055178327485919
1782846399595635200,0.55363525390625,0.0025366609916090965,-0.0030085730832070112,-0.003632285399362445
1782846399605640200,0.56364013671875,0.000025300030756625347,-0.0027891285717487335,-0.0013528858544304967
1782846399615645200,0.573645263671875,0.00367170013487339,-0.002055694116279483,0.00196354859508574
1782846399625650200,0.583650146484375,0.004622715059667826,-0.004064782522618771,-0.00022210762836039066
1782846399635655400,0.593655517578125,0.002668221015483141,-0.002581668319180608,-0.000040746363083599135
1782846399645660400,0.603660400390625,0.0002793656021822244,-0.0034373418893665075,-0.0019558256026357412
1782846399655665400,0.61366552734375,0.0028668928425759077,-0.0020900487434118986,0.0013856426812708378
1782846399665670400,0.62367041015625,0.0030218889005482197,-0.001547030289657414,-0.00138031633105129
1782846399675676200,0.63367626953125,0.005821403581649065,-0.0028274781070649624,-0.0005281048361212015
1782846399685680000,0.64368017578125,0.003317766124382615,-0.005549761466681957,-0.003549461020156741
1782846399695685000,0.65368505859375,0.002189118415117264,-0.003154247999191284,-0.0030272151343524456
1782846399705690000,0.663690185546875,-0.00017603494052309543,-0.0011169298086315393,-0.0026644926983863115
1782846399715695000,0.673695068359375,0.0021318604703992605,-0.0029851372819393873,-0.0010575412306934595
1782846399725700000,0.6837001953125,0.0036764938849955797,-0.00005512743518920615,-0.0018663433147594333
1782846399735705000,0.693705078125,0.004087686073035002,-0.0025539714843034744,-0.0011795139871537685
1782846399745710000,0.7037099609375,0.002112952060997486,-0.0017100156983360648,-0.001499625970609486
1782846399755715000,0.713715087890625,0.002382996492087841,-0.0037382792215794325,-0.0021025657188147306
1782846399765720000,0.723719970703125,0.003662645351141691,-0.005629656370729208,0.002033855998888612
1782846399775725000,0.73372509765625,0.003373159794136882,-0.0034471957478672266,-0.002624012529850006
1782846399785730000,0.74372998046875,0.0023515713401138783,-0.007451790850609541,-0.0019981698133051395
1782846399795734000,0.753734130859375,0.0030117689166218042,-0.003643736941739917,-0.002174204681068659
1782846399805739000,0.763739013671875,0.0035020567011088133,-0.003562244353815913,0.00006817692337790504
1782846399815744000,0.773743896484375,0.0018940401496365666,-0.003084739437326789,-0.0038892803713679314
1782846399825749000,0.7837490234375,0.003020290983840823,-0.003082076320424676,-0.0037438718136399984
1782846399835754000,0.79375390625,0.0015688681742176414,-0.0016474314033985138,-0.0009701895760372281
1782846399845759200,0.80375927734375,0.0018937737913802266,-0.001749164192005992,-0.0016788567882031202
1782846399855764200,0.81376416015625,0.0018125474452972412,-0.0012181298807263374,-0.0036719664931297302
1782846399865769200,0.823769287109375,0.003379285102710128,-0.0010104032699018717,-0.003611779073253274
1782846399875774200,0.833774169921875,0.0025859293527901173,-0.003567836945876479,0.00004394215648062527
1782846399885779200,0.843779296875,0.001118793967179954,-0.00555215822532773,-0.0011622034944593906
1782846399895784200,0.8537841796875,0.004610997159034014,-0.0028429245576262474,-0.0013225257862359285
1782846399905788000,0.863787841796875,0.0007089334540069103,-0.00412363838404417,-0.00031611722079105675
1782846399915793000,0.87379296875,0.004367584362626076,-0.0036695697344839573,0.00012863067968282849
1782846399925798000,0.8837978515625,0.0009105347562581301,-0.0017861821688711643,-0.0036847495939582586
1782846399935803000,0.893802978515625,0.0017150756902992725,-0.0026045716367661953,-0.0030091057997196913
1782846399945808000,0.903807861328125,0.00273693073540926,-0.004600078333169222,-0.0004822984628845006
1782846399955812900,0.913812744140625,0.001306280493736267,-0.0027257453184574842,-0.0035981968976557255
1782846399965817900,0.92381787109375,0.002302835462614894,-0.002697515767067671,0.0012210593558847904
1782846399975822800,0.93382275390625,0.0005962817813269794,-0.003171025775372982,-0.0016202671686187387
1782846399985827800,0.943827880859375,0.001222390914335847,-0.0033566481433808804,0.0005544701125472784
1782846399995832800,0.953832763671875,0.0008040083339437842,-0.0011475561186671257,-0.0017278589075431228
1782846400005837800,0.963837890625,0.003186205867677927,-0.0016306535108014941,0.0015326491557061672
1782846400015842000,0.973842041015625,-0.0003193130251020193,-0.003020024625584483,-0.004050934221595526
1782846400025847000,0.983846923828125,0.0028330706991255283,-0.005597698036581278,0.001856223214417696
1782846400035852000,0.99385205078125,0.0022037657909095287,-0.002573146251961589,-0.0009829727932810783
1782846400045857000,1.00385693359375,-0.0002849582233466208,-0.001630387152545154,-0.001907089608721435
1782846400055862000,1.013862060546875,0.001532116555608809,-0.002950516063719988,-0.0028727517928928137
1782846400065867000,1.023866943359375,0.0036543896421790123,-0.003198190126568079,-0.0003707120195031166
1782846400075872000,1.0338720703125,-0.000011717908819264267,-0.0046701193787157536,0.0011142665753141046
1782846400085877000,1.043876953125,0.0017755294684320688,-0.0035571842454373837,0.00015419702685903758
1782846400095882000,1.053882080078125,0.003745736088603735,-0.002419215627014637,-0.0012964267516508698
1782846400105887000,1.063886962890625,0.0019145464757457376,-0.0015307849971577525,0.0014982944121584296
1782846400115891000,1.073890869140625,0.003623230615630746,-0.0037433390971273184,-0.0023244069889187813
1782846400125896000,1.08389599609375,0.0033475933596491814,-0.003976898267865181,0.001728657865896821
1782846400135901000,1.09390087890625,0.0030634342692792416,-0.005390238016843796,-0.0005036037764512002
1782846400145906000,1.103906005859375,0.0033657029271125793,-0.0017014936311170459,-0.0037081853952258825
1782846400155911000,1.113910888671875,0.004432565066963434,-0.0036637107841670513,0.0027225494850426912
1782846400165916000,1.123916015625,0.001960885478183627,-0.002429601736366749,-0.0030450583435595036
1782846400175921000,1.1339208984375,0.000949150591623038,-0.004058391321450472,0.002005093963816762
1782846400185926000,1.14392578125,0.0027348001021891832,-0.00341550400480628,-0.0009171926649287343
1782846400195931000,1.153930908203125,0.0015875103417783976,-0.00392816262319684,-0.0010287790792062879
1782846400205935900,1.163935791015625,0.0037228327710181475,-0.0038626487366855145,-0.0007209177128970623
1782846400215940900,1.17394091796875,0.0036011263728141785,-0.004759867675602436,0.0003270361921750009
1782846400225945900,1.18394580078125,0.002665557898581028,-0.003055178327485919,-0.0005209143273532391
1782846400235950000,1.1939501953125,0.0038775624707341194,0.00016484966909047216,-0.002840261207893491
1782846400245955000,1.203955078125,0.002889796160161495,-0.0038370825350284576,-0.0009289105655625463
1782846400255960000,1.2139599609375,0.001981125446036458,-0.004728975240141153,-0.003421629313379526
1782846400265965000,1.223965087890625,0.0016900419723242521,-0.0012229235144332051,-0.0009933591354638338
1782846400275970000,1.233969970703125,0.00037976677413098514,-0.004758802708238363,-0.0009486179915256798
1782846400285975000,1.24397509765625,0.004262655507773161,-0.0036218990571796894,-0.00009347695595351979
1782846400295980000,1.25397998046875,0.0021164140198379755,-0.0021667478140443563,-0.004097007215023041
1782846400305985000,1.263985107421875,0.003581685246899724,-0.002769953804090619,0.0006849650526419282
1782846400315990000,1.273989990234375,0.0027297399938106537,-0.0014556838432326913,-0.00202293717302382
1782846400325995000,1.2839951171875,0.0019014970166608691,-0.0025209481827914715,-0.003314836649224162
1782846400335999000,1.2939990234375,0.001097755040973425,-0.006640059407800436,-0.001175519311800599
1782846400346004000,1.30400390625,0.0022985744290053844,-0.004313255660235882,-0.0033992587123066187
1782846400356009000,1.314009033203125,0.002154231071472168,-0.004908472299575806,0.0003890878288075328
1782846400366014000,1.324013916015625,0.0031353395897895098,-0.0029968551825731993,-0.0010905644157901406
1782846400376019000,1.33401904296875,0.0054336474277079105,-0.0020354539155960083,0.000594950164668262
1782846400386024000,1.34402392578125,0.0035574506036937237,-0.004595817066729069,-0.0006317017832770944
1782846400396029000,1.35402880859375,0.0025768745690584183,-0.004480502102524042,-0.0008207862265408039
1782846400406034000,1.364033935546875,0.002101234160363674,-0.0034993935842067003,-0.00013395700079854578
1782846400416039000,1.374038818359375,0.004008323885500431,-0.0018887137994170189,-0.000020506340661086142
1782846400426044000,1.3840439453125,0.0025334651581943035,-0.0031036478467285633,-0.005017661955207586
1782846400436049000,1.394048828125,0.004049070179462433,-0.002100967802107334,-0.0020719394087791443
1782846400446054000,1.404053955078125,0.003394198836758733,-0.004622715059667826,0.000028762138754245825
1782846400456058000,1.41405810546875,0.000059388490626588464,-0.0032115059439092875,0.00008069378236541525
1782846400466063000,1.42406298828125,0.0032594427466392517,-0.0057289921678602695,0.001996838254854083
1782846400476068000,1.434068115234375,0.0015547533985227346,-0.005585980135947466,0.00014061490946915
1782846400486073000,1.444072998046875,0.0024224112275987864,-0.002094842493534088,-0.0007068029372021556
1782846400496078000,1.454078125,0.0022863238118588924,-0.0029411951545625925,-0.000464188982732594
1782846400506083000,1.4640830078125,0.00293373828753829,-0.0031886028591543436,0.0010394317796453834
1782846400516088000,1.474088134765625,0.0025630262680351734,-0.0006596649764105678,-0.0009286442655138671
1782846400526093000,1.484093017578125,0.0019765980541706085,-0.002880208659917116,0.0008149272762238979
1782846400536098000,1.49409814453125,0.005330316722393036,-0.0028181569650769234,-0.0035148400347679853
1782846400546103000,1.50410302734375,0.002642388455569744,-0.004704740364104509,-0.004141215234994888
1782846400556107000,1.51410693359375,0.00007270430069183931,-0.003433879930526018,-0.0001536643976578489
1782846400566112000,1.524112060546875,0.003363838652148843,-0.0037670412566512823,-0.004227768164128065
1782846400576117000,1.534116943359375,0.0019867182709276676,-0.00510021997615695,-0.0006713828770443797
1782846400586122000,1.5441220703125,0.001927595934830606,-0.0041558630764484406,0.00045540055725723505
1782846400596127000,1.554126953125,0.0019736685790121555,-0.002121474128216505,-0.00041784998029470444
1782846400606132000,1.564132080078125,0.0021552962716668844,-0.0032780850306153297,-0.0013275857781991363
1782846400616137000,1.574136962890625,0.004197141621261835,-0.0023465112317353487,-0.004379035905003548
1782846400626142000,1.584141845703125,0.0017646105261519551,-0.0049215215258300304,0.0011486213188618422
1782846400636147000,1.59414697265625,0.001612011343240738,-0.0046152579598128796,-0.0009717874927446246
1782846400646152000,1.60415185546875,0.00370179396122694,-0.0031092404387891293,-0.0018777948571369052
1782846400656157000,1.614156982421875,-0.00023941817926242948,-0.0021933794487267733,0.0012029499048367143
1782846400666161200,1.6241611328125,0.0016101471846923232,-0.0031489215325564146,-0.0020666129421442747
1782846400676165600,1.63416552734375,0.0021550299134105444,-0.0046818372793495655,-0.001463939668610692
1782846400686170600,1.644170654296875,0.0015046859625726938,-0.002653839997947216,-0.001990180229768157
1782846400696175600,1.654175537109375,0.0013411679537966847,-0.0041159153915941715,0.0015076154377311468
1782846400706180600,1.6641806640625,0.0010495517635717988,-0.0020908478181809187,0.00048363005043938756
1782846400716185600,1.674185546875,0.002793123247101903,-0.003111903788521886,0.0001227717293659225
1782846400726190600,1.684190673828125,0.0033686324022710323,-0.0027204190846532583,0.0010072075529024005
1782846400736195600,1.694195556640625,0.000737695605494082,-0.0043774377554655075,-0.00021012341312598437
1782846400746200600,1.70420068359375,0.0002966761530842632,-0.0056829191744327545,-0.00043116576853208244
1782846400756205600,1.71420556640625,0.0033483924344182014,-0.0019291938515380025,0.0015925703337416053
1782846400766210600,1.72421044921875,0.0044022053480148315,-0.00418329332023859,-0.0006346312584355474
1782846400776214500,1.734214599609375,0.0010660634143278003,-0.0015033544041216373,-0.002478603972122073
1782846400786219500,1.744219482421875,0.001802960061468184,-0.0036397422663867474,0.0003515372518450022
1782846400796224500,1.754224609375,0.0015198660548776388,-0.003326288191601634,-0.001181111903861165
1782846400806229500,1.7642294921875,0.001927862293086946,-0.0022767363116145134,0.0005430185701698065
1782846400816234500,1.774234375,0.0013398362789303064,-0.000758734589908272,-0.0004444815858732909
1782846400826239500,1.784239501953125,0.0018748653819784522,-0.0033481260761618614,-2.6631610694494157e-7
1782846400836244500,1.794244384765625,0.0026815368328243494,-0.0018703379901126027,-0.001109739183448255
1782846400846249500,1.80424951171875,0.0019377160351723433,-0.004631503485143185,-0.00005512743518920615
1782846400856254500,1.81425439453125,0.0034405377227813005,-0.0026674221735447645,0.002380067016929388
1782846400866259500,1.824259521484375,0.0009406284661963582,-0.005766276270151138,0.00027377295191399753
1782846400876264400,1.834264404296875,0.0008298410102725029,-0.003180080559104681,0.0015273229219019413
1782846400886268700,1.8442685546875,0.005626460537314415,-0.0016767261549830437,-0.002031991956755519
1782846400896273700,1.854273681640625,0.0025864620693027973,-0.003081277245655656,-0.0011235876008868217
1782846400906278700,1.864278564453125,0.003318032482638955,-0.004316984210163355,-0.002368349116295576
1782846400916283600,1.87428369140625,0.0001179780374513939,-0.003424558788537979,-0.0009680590592324734
1782846400926288600,1.88428857421875,0.0019520970527082682,-0.003970240708440542,-0.0007685882737860084
1782846400936293600,1.894293701171875,0.0030213561840355396,-0.004232828039675951,-0.0010215885704383254
1782846400946298600,1.904298583984375,0.0037084517534822226,-0.0009739180095493793,-0.0015949672088027
1782846400956303600,1.9143037109375,0.0038860845379531384,-0.003299123840406537,-0.0011651329696178436
1782846400966308600,1.92430859375,0.0031065773218870163,-0.0029433255549520254,-0.001237571006640792
1782846400976313600,1.934313720703125,0.0025454494170844555,-0.0012418320402503014,-0.0021196098532527685
1782846400986318600,1.944318603515625,0.0013946974650025368,-0.005641906522214413,0.0019558256026357412
1782846400996322600,1.954322509765625,0.000556600687559694,-0.005822202656418085,-0.00012223910016473383
1782846401006327600,1.96432763671875,0.0006511429091915488,-0.0023284016642719507,-0.000022636868379777297
1782846401016332500,1.97433251953125,0.0034527883399277925,-0.002814162289723754,-0.0015864450251683593
1782846401026337500,1.984337646484375,0.0026522420812398195,-0.005649629980325699,-0.0007297061383724213
1782846401036342500,1.994342529296875,-0.0001555285998620093,-0.004207794554531574,-0.0004548678989522159
1782846401046347500,2.004347412109375,0.0026381274219602346,-0.00036272252327762544,-0.0034298852551728487
1782846401056352500,2.0143525390625,0.003939347807317972,-0.004351338837295771,0.0014181332662701607
1782846401066357500,2.024357421875,-0.0012572783743962646,-0.004767857491970062,0.000020240024241502397
1782846401076362500,2.034362548828125,0.0004724447790067643,-0.0032858080230653286,0.00036192359402775764
1782846401086367500,2.044367431640625,0.0021877868566662073,-0.00281948852352798,-0.0028796761762350798
1782846401096372500,2.05437255859375,0.0008066715090535581,-0.003096990054473281,0.0011342403013259172
1782846401106376700,2.064376708984375,0.002064748667180538,-0.006195311434566975,-0.0014849785948172212
1782846401116381700,2.074381591796875,0.0009414274245500565,-0.0019062906503677368,-0.0009720537927933037
1782846401126386700,2.08438671875,0.0018679412314668298,-0.003716441337019205,-0.0016042882343754172
1782846401136391700,2.0943916015625,-0.0007837683078832924,-0.0041249701753258705,-0.004351871553808451
1782846401146396700,2.104396728515625,0.003482881933450699,-0.00401578051969409,-0.0013187973527237773
1782846401156401700,2.114401611328125,0.004037085920572281,-0.0021917815320193768,-0.00253479671664536
1782846401166406700,2.12440673828125,0.0009725864510983229,-0.003179814200848341,-0.0017486315919086337
1782846401176411600,2.13441162109375,0.0022176143247634172,-0.0032748891972005367,-0.0021289309952408075
1782846401186416600,2.144416748046875,0.0016285229939967394,-0.003376355627551675,-0.002915096003562212
1782846401196421600,2.154421630859375,0.002326004905626178,-0.002776079112663865,-0.0023792681749910116
1782846401206426600,2.164426513671875,0.002004827605560422,-0.001817341079004109,-0.0025720810517668724
1782846401216430600,2.1744306640625,0.0023523701820522547,-0.005526059307157993,-0.0006141249323263764
1782846401226435600,2.184435546875,0.0027326694689691067,-0.001412806916050613,-0.0015132081462070346
1782846401236440600,2.194440673828125,0.0026109630707651377,-0.0017483652336522937,-0.002662362065166235
1782846401246445600,2.204445556640625,0.002493251347914338,-0.004005926661193371,0.0001536643976578489
1782846401256450600,2.214450439453125,-0.00020426444825716317,-0.002566754585132003,-0.00045060686534270644
1782846401266455600,2.22445556640625,0.003385144053027034,-0.0032469260040670633,-0.002159290947020054
1782846401276460500,2.23446044921875,0.0017917747609317303,-0.0016772588714957237,0.0005864280392415822
1782846401286465500,2.244465576171875,0.003291134489700198,-0.0008239820599555969,-0.0000021305288555595325
1782846401296470500,2.254470458984375,0.00041571943438611925,-0.0011203918838873506,-0.00041625206358730793
1782846401306475500,2.2644755859375,0.003313771216198802,-0.00418515782803297,-0.002662362065166235
1782846401316479700,2.274479736328125,0.003569700988009572,-0.005466138012707233,-0.0007515440811403096
1782846401326484700,2.284484619140625,0.0030192257836461067,-0.0033190976828336716,-0.0006548712844960392
1782846401336489700,2.29448974609375,0.0026527747977524996,-0.00279046013019979,-0.001973136095330119
1782846401346494700,2.30449462890625,0.0018458369886502624,-0.0032586439047008753,0.00138058268930763
1782846401356499700,2.314499755859375,0.0007864314829930663,-0.003704190719872713,0.001249555149115622
1782846401366504700,2.324504638671875,0.0007448861724697053,-0.0016056197928264737,-0.0001917476038215682
1782846401376509700,2.334509765625,0.00185036426410079,-0.0036599822342395782,0.0011057445080950856
1782846401386514700,2.3445146484375,0.002371811307966709,-0.003142263740301132,-0.0018437063554301858
1782846401396519700,2.354519775390625,0.0012357067316770554,-0.002936401404440403,-0.0008492820779792964
1782846401406524700,2.364524658203125,0.003275688039138913,-0.003370763035491109,-0.0011113371001556516
1782846401416529700,2.37452978515625,0.0010016148444265127,-0.0037028591614216566,0.001284708851017058
1782846401426534700,2.38453466796875,0.0036970002111047506,-0.0032642364967614412,-0.002414954360574484
1782846401436538600,2.39453857421875,-0.00046152580762282014,-0.0024580976460129023,0.0011430287268012762
1782846401446543600,2.404543701171875,0.0011387676931917667,-0.00589623861014843,-0.00219524372369051
1782846401456548600,2.414548583984375,0.0011912320042029023,-0.0025361282750964165,0.00043329631444066763
1782846401466553600,2.4245537109375,0.00447038235142827,-0.001734250457957387,-0.0022005699574947357
1782846401476558600,2.43455859375,0.0012325108982622623,-0.0036722328513860703,-0.0007014766451902688
1782846401486563600,2.4445634765625,0.0025872609112411737,-0.0029862024821341038,-0.0006258428329601884
1782846401496568600,2.454568603515625,0.0030072415247559547,-0.0037561224307864904,-0.0011608719360083342
1782846401506573600,2.464573486328125,0.002377403900027275,-0.004363589454442263,0.0009867012267932296
1782846401516578600,2.47457861328125,0.0024607607629150152,-0.0036365464329719543,-0.000176301269675605
1782846401526583600,2.48458349609375,0.001044491771608591,-0.003091131104156375,-0.001689509372226894
1782846401536587800,2.494587890625,0.0003656520275399089,-0.0027952538803219795,-0.00202240445651114
1782846401546592800,2.5045927734375,0.0012428972404450178,-0.005575327668339014,0.0008916263468563557
1782846401556597800,2.51459765625,0.0013789847726002336,-0.003305515507236123,-0.0001901497016660869
1782846401566602800,2.524602783203125,0.003855990944430232,-0.0018053569365292788,-0.0008266451768577099
1782846401576607700,2.534607666015625,0.000945954816415906,-0.004594485275447369,-0.000502804818097502
1782846401586612700,2.54461279296875,0.0026114957872778177,-0.0018319884547963738,-0.00233825552277267
1782846401596617700,2.55461767578125,0.0036677054595202208,-0.004150270018726587,-0.0013145363191142678
1782846401606622700,2.564622802734375,0.0038519962690770626,-0.0029348034877330065,-0.0025507756508886814
1782846401616627700,2.574627685546875,0.0016556872287765145,-0.0025355955585837364,-0.0014799186028540134
1782846401626632700,2.5846328125,0.004573180340230465,-0.0034796863328665495,-0.0025632926262915134
1782846401636637700,2.5946376953125,0.00410473020747304,-0.0035976641811430454,-0.0008239820599555969
1782846401646641700,2.6046416015625,0.000028229507734067738,-0.002067412016913295,0.0017425062833353877
1782846401656646700,2.614646728515625,0.004338821861892939,-0.0016309198690578341,-0.003037601476535201
1782846401666651600,2.624651611328125,0.0043619913049042225,-0.003662378992885351,0.000014913702216290403
1782846401676656000,2.63465625,0.0024173513520509005,-0.0007858988246880472,-0.0004820321628358215
1782846401686661000,2.6446611328125,0.0036735644098371267,-0.0030312100425362587,0.0007651261985301971
1782846401696666400,2.654666259765625,0.0024168186355382204,-0.004276770167052746,0.0002348908019484952
1782846401706671400,2.66467138671875,0.0017512947088107467,-0.004290618933737278,0.00105354655534029
1782846401716676400,2.67467626953125,0.003590740030631423,-0.00458836043253541,-0.002040780382230878
1782846401726681300,2.684681396484375,0.003257312346249819,-0.0018397116800770164,-0.0007070692372508347
1782846401736686300,2.694686279296875,0.000571248063351959,-0.0025097629986703396,-0.0002844255941454321
1782846401746691300,2.70469140625,0.002144909929484129,-0.0005882922559976578,-0.0016287893522530794
1782846401756695300,2.7146953125,0.002627474721521139,-0.0026610305067151785,-0.002064748667180538
1782846401766700300,2.7247001953125,-0.00032650353386998177,-0.005284510552883148,0.0002913498319685459
1782846401776705300,2.734705322265625,0.0034317492973059416,-0.004029628820717335,0.0013076120521873236
1782846401786710300,2.744710205078125,0.001246625673957169,-0.00558198569342494,-0.0036770266015082598
1782846401796715300,2.75471533203125,0.0036935380194336176,-0.0031396006233990192,-0.002532133599743247
1782846401806720300,2.76472021484375,0.0036613137926906347,-0.0031547807157039642,-0.004580104257911444
1782846401816725200,2.774725341796875,0.0032892702147364616,-0.005426723510026932,-0.0007685882737860084
1782846401826730200,2.784730224609375,0.002404301892966032,-0.004120975267142057,-0.004595817066729069
1782846401836735200,2.7947353515625,0.002888997085392475,-0.001716939965263009,-0.0024109596852213144
1782846401846740200,2.804740234375,0.0019984361715614796,-0.001698564155958593,-0.002641589380800724
1782846401856744200,2.814744140625,0.0032525185961276293,-0.002752643311396241,-0.0013957626651972532
1782846401866749200,2.824749267578125,0.0028807413764297962,-0.0028698223177343607,-0.0004410194815136492
1782846401876754200,2.834754150390625,0.0035236284602433443,-0.003040264593437314,-0.0026530411560088396
1782846401886759200,2.84475927734375,0.0028069717809557915,-0.0037534593138843775,-0.0020700751338154078
1782846401896764200,2.85476416015625,0.004706870764493942,-0.0029550434555858374,-0.0010783139150589705
1782846401906769200,2.86476904296875,0.0033694314770400524,-0.0028940571937710047,0.0006567355012521148
1782846401916774400,2.8747744140625,0.001415736391209066,-0.0022895196452736855,-0.0012634035665541887
1782846401926779400,2.884779296875,0.0000857537888805382,-0.002377936616539955,-0.001746234716847539
1782846401936784400,2.894784423828125,0.0009246495319530368,-0.0031558459158986807,-0.002547047333791852
1782846401946789400,2.904789306640625,0.00569889834150672,-0.0021704763639718294,-0.002435993403196335
1782846401956794400,2.91479443359375,0.0019923108629882336,-0.0020152139477431774,-0.0017073525814339519
1782846401966798300,2.92479833984375,0.0031076427549123764,-0.0019054916920140386,0.002438656520098448
1782846401976803300,2.93480322265625,0.003704190719872713,-0.0017446368001401424,-0.0017859158106148243
1782846401986808300,2.944808349609375,0.0008343683439306915,-0.0027257453184574842,-0.0020413128659129143
1782846401996813300,2.954813232421875,0.00253426400013268,-0.00392896169796586,0.0009957558941096067
1782846402006818300,2.964818359375,0.0030333404429256916,-0.0029707562644034624,-0.002627208363264799
1782846402016823300,2.9748232421875,0.003064233111217618,-0.0006769755273126066,-0.0036216326989233494
1782846402026828300,2.984828369140625,0.004048271104693413,-0.0007688545738346875,-0.001041295938193798
1782846402036833300,2.994833251953125,0.0005496764206327498,-0.0019137475173920393,0.001404018490575254
1782846402046838300,3.00483837890625,0.0022205437999218702,-0.004206995479762554,-0.002447977662086487
1782846402056843300,3.01484326171875,0.0039175101555883884,-0.0025718146935105324,-0.0012926984345540404
1782846402066847000,3.024846923828125,0.0005747101386077702,-0.0036629117093980312,-0.0035960664972662926
1782846402076852000,3.03485205078125,0.0027049726340919733,-0.004747084807604551,-0.0010311759542673826
1782846402086857200,3.044857177734375,0.0017512947088107467,-0.0012783173006027937,-0.0008117315010167658
1782846402096862200,3.0548623046875,0.0025457157753407955,-0.004545749630779028,-0.0005877596559002995
1782846402106867200,3.0648671875,0.0027366643771529198,-0.0029001825023442507,-0.0007579356315545738
1782846402116872200,3.0748720703125,0.003832288784906268,-0.002740659052506089,0.000055926382628967986
1782846402126877200,3.084877197265625,0.004336691461503506,-0.0030399984680116177,-0.0009217200567945838
1782846402136882400,3.09488232421875,0.0036309538409113884,-0.0033955303952097893,-0.0021912488155066967
1782846402146887400,3.104887451171875,0.0030301446095108986,-0.0030184267088770866,-0.0013550163712352514
1782846402156892400,3.114892333984375,-0.0000045273736759554595,-0.004484763368964195,-0.0006745787104591727
1782846402166897400,3.1248974609375,0.0016732640797272325,-0.004580370616167784,-0.00008122641156660393
1782846402176901000,3.134901123046875,0.0026160231791436672,-0.002767823403701186,0.00023968449386302382
1782846402186906000,3.144906005859375,0.0033449302427470684,-0.0005877596559002995,-0.0016684704460203648
1782846402196911000,3.1549111328125,0.00023568976030219346,-0.0018551580142229795,-0.0008162588928826153
1782846402206916000,3.164916015625,0.0019736685790121555,-0.0020365193486213684,-0.0010373012628406286
1782846402216921000,3.174921142578125,0.0027680895291268826,-0.0031734227668493986,-0.0022892532870173454
1782846402226926000,3.184926025390625,0.004683701321482658,-0.0038541266694664955,-0.000055660068028373644
1782846402236931000,3.19493115234375,0.0016498282784596086,-0.0016330503858625889,-0.0011411645682528615
1782846402246936000,3.20493603515625,0.001927595934830606,-0.003909253980964422,-0.0005004079430364072
1782846402256941300,3.21494140625,0.0034416031558066607,-0.001651692553423345,-0.0007925567333586514
1782846402266946300,3.2249462890625,0.0023451796732842922,-0.006148706190288067,-0.0029819414485245943
1782846402276950000,3.234949951171875,0.0030652983114123344,-0.004692223388701677,-0.0030333404429256916
1782846402286955000,3.244955078125,0.0031188279390335083,-0.004307929426431656,-0.002520149340853095
1782846402296960000,3.2549599609375,-0.0004905542591586709,-0.0012479572324082255,-0.0034179009962826967
1782846402306965000,3.264965087890625,0.001748897833749652,-0.000711064029019326,-0.002347310073673725
1782846402316970000,3.274969970703125,0.0010913633741438389,-0.0026754115242511034,-0.0031121699139475822
1782846402326975200,3.284975341796875,0.000571248063351959,-0.004062119405716658,-0.0019885823130607605
1782846402336980200,3.294980224609375,0.0032594427466392517,-0.0028937908355146646,-0.003602724289521575
1782846402346985200,3.304985107421875,0.0023185480386018753,-0.002469815546646714,-0.0006431533838622272
1782846402356990200,3.314990234375,0.003186738584190607,-0.0026490462478250265,0.0013856426812708378
1782846402366995200,3.3249951171875,0.003281813347712159,-0.0029052423778921366,-0.0002306297537870705
1782846402377000200,3.335000244140625,0.0012245214311406016,-0.0018748653819784522,0.0005065332516096532
1782846402387004200,3.345004150390625,0.001794171635992825,-0.002573412610217929,-0.0015984292840585113
1782846402397009200,3.355009033203125,0.0010868359822779894,-0.0018255969043821096,0.0029140308033674955
1782846402407014100,3.36501416015625,0.0036575854755938053,-0.0024317323695868254,-0.003055444685742259
1782846402417019100,3.37501904296875,0.004545483272522688,-0.0024746092967689037,-0.0014780544443055987
1782846402427024100,3.385024169921875,0.002071140334010124,-0.0032661007717251778,-0.0008290420519188046
1782846402437029000,3.395029052734375,0.0007464840309694409,-0.0025683525018393993,-0.00242187874391675
1782846402447034000,3.4050341796875,0.0018572885310277343,-0.001541171339340508,-0.0002008023438975215
1782846402457039000,3.4150390625,0.0021963089238852262,-0.004195277579128742,-0.002156095113605261
1782846402467044000,3.425044189453125,0.002865294925868511,-0.003099653171375394,0.0001411475386703387
1782846402477049000,3.435049072265625,0.002546248259022832,-0.0051801144145429134,-0.0012711267918348312
1782846402487053000,3.445052978515625,0.0014008227735757828,-0.0019465044606477022,0.0008245146600529552
1782846402497058000,3.45505810546875,-0.0007179882377386093,-0.001714010490104556,-0.0013432984706014395
1782846402507063000,3.46506298828125,0.0017230651574209332,-0.0034320156555622816,-0.0016639430541545153
1782846402517068000,3.475068115234375,0.0018421085551381111,-0.0017041567480191588,-0.0025798040442168713
1782846402527073000,3.485072998046875,0.0018700717482715845,-0.002508697798475623,-0.0002311623829882592
1782846402537078000,3.495078125,0.0018546254141256213,-0.0030067088082432747,0.0006780407857149839
1782846402547083300,3.505083251953125,0.0010982876410707831,-0.0043739755637943745,-0.0005486111622303724
1782846402557088300,3.515088134765625,0.002189384773373604,-0.004738562274724245,0.00008974852971732616
1782846402567093200,3.52509326171875,0.003059173235669732,-0.004192348103970289,-0.002258360618725419
1782846402577098200,3.53509814453125,0.00010572749306447804,-0.001990180229768157,-0.001748897833749652
1782846402587103200,3.545103271484375,0.0037204360123723745,-0.0042144525796175,0.0004527373821474612
1782846402597107200,3.555107177734375,0.0031140341889113188,-0.002974750939756632,-0.0017507621087133884
1782846402607112200,3.5651123046875,0.0008804410463199019,-0.004150270018726587,-0.0032631712965667248
1782846402617117200,3.5751171875,0.00449861166998744,-0.0026264095213264227,-0.0028522454667836428
1782846402627122200,3.5851220703125,0.0020716730505228043,-0.006548712961375713,0.0011707255616784096
1782846402637127200,3.595127197265625,0.0017648768844082952,-0.003419232554733753,-0.0029939257074147463
1782846402647132200,3.605132080078125,0.002865028567612171,-0.0020602215081453323,0.0007033408619463444
1782846402657137200,3.61513720703125,0.0006844323943369091,-0.00370099488645792,-0.002173938322812319
1782846402667142100,3.62514208984375,0.0009147958480753005,-0.005366535857319832,0.0001882854849100113
1782846402677147600,3.635147705078125,0.0025952504947781563,-0.004008590243756771,-0.00101173494476825
1782846402687151600,3.645151611328125,0.0021142836194485426,-0.004452272783964872,0.0005400890368036926
1782846402697156600,3.655156494140625,0.0026466494891792536,-0.0024493092205375433,-0.0032645028550177813
1782846402707161600,3.66516162109375,0.0022120214998722076,-0.0024807346053421497,-0.0010213222121819854
1782846402717166600,3.67516650390625,0.003704190719872713,-0.0031457259319722652,-0.0014444985426962376
1782846402727171600,3.685171630859375,0.001987517112866044,-0.004311923868954182,-0.003150785807520151
1782846402737176600,3.695176513671875,0.0019206717843189836,-0.002025866648182273,-0.003288205014541745
1782846402747181600,3.705181640625,0.0031071100383996964,-0.005624596029520035,0.00008016114588826895
1782846402757186600,3.7151865234375,0.0006079996819607913,0.00003328951424919069,-0.0018578211311250925
1782846402767191600,3.725191650390625,0.0032796829473227262,-0.0018975022248923779,-0.0008594020619057119
1782846402777196500,3.735196533203125,0.003329484025016427,-0.005374791566282511,-0.0034386736806482077
1782846402787200800,3.74520068359375,0.0021291973534971476,-0.002484462922438979,-0.0022799321450293064
1782846402797205800,3.755205810546875,0.0046938215382397175,-0.0024708807468414307,0.0001233043585671112
1782846402807210800,3.765210693359375,0.003439206164330244,-0.003727360162883997,-0.0014146711910143495
1782846402817215700,3.7752158203125,0.001058872789144516,-0.003385144053027034,-0.0016223976854234934
1782846402827220700,3.785220703125,0.001020523370243609,-0.002016279147937894,-0.0026935210917145014
1782846402837225700,3.795225830078125,0.003344131400808692,-0.0019835224375128746,0.001496430253610015
1782846402847230700,3.805230712890625,0.0008764463127590716,-0.0009856359101831913,-0.0008106662426143885
1782846402857235700,3.815235595703125,0.003909786697477102,-0.006359096150845289,0.0003856257244478911
1782846402867240700,3.82524072265625,0.0021853898651897907,-0.0032988577149808407,-0.0028248149901628494
1782846402877245700,3.83524560546875,0.0005946838646195829,-0.0013401026371866465,0.00045673211570829153
1782846402887250700,3.845250732421875,0.0012450277572497725,-0.004304467234760523,-0.00018961707246489823
1782846402897254400,3.85525439453125,0.0027105652261525393,-0.003343865042552352,-0.0019449065439403057
1782846402907259400,3.86525927734375,0.003293531248345971,-0.0033193640410900116,-0.00038056570338085294
1782846402917264400,3.875264404296875,0.001916144392453134,-0.0024381240364164114,-0.0025425199419260025
1782846402927269400,3.885269287109375,0.0022000374738126993,-0.0009033442474901676,-0.0018722022650763392
1782846402937274600,3.895274658203125,0.0022679478861391544,-0.0024258734192699194,-0.003585413796827197
1782846402947279600,3.905279541015625,0.0020791299175471067,-0.004351338837295771,-0.00022157499915920198
1782846402957284600,3.91528466796875,0.0020996362436562777,-0.0020072245970368385,-0.002688993699848652
1782846402967289600,3.92528955078125,0.003570766421034932,-0.0024519723374396563,-0.0003810983616858721
1782846402977294600,3.935294677734375,0.002025333931669593,-0.0023193468805402517,-0.0026786073576658964
1782846402987299600,3.945299560546875,0.0026466494891792536,-0.0032256206031888723,-0.0005725796218030155
1782846402997303600,3.955303466796875,0.0015877765836194158,-0.0026522420812398195,-0.0023494407068938017
1782846403007308500,3.96530859375,0.0028421254828572273,-0.002698048483580351,-0.0005752427969127893
1782846403017313500,3.9753134765625,0.001838646363466978,-0.004391286056488752,-0.0003784351865760982
1782846403027318500,3.985318603515625,0.0048799761570990086,-0.0044104610569775105,-0.0012247877893969417
1782846403037323500,3.995323486328125,0.001972869737073779,-0.004673315212130547,0.0016791230300441384
1782846403047328500,4.00532861328125,0.0024863271974027157,-0.004206462763249874,-0.0009853695519268513
1782846403057333500,4.01533349609375,0.0010969560826197267,-0.003915912006050348,-0.0019742012955248356
1782846403067338500,4.02533837890625,0.0041468082927167416,-0.003897003596648574,-0.0007158577209338546
1782846403077343500,4.035343505859375,0.0019491675775498152,-0.0018306568963453174,0.0006197175825946033
1782846403087348500,4.045348388671875,0.002296443795785308,-0.0036842171102762222,-0.0017084177816286683
1782846403097352400,4.0553525390625,0.0012607404496520758,-0.002755839144811034,0.002295911079272628
1782846403107357400,4.065357421875,0.00044528054422698915,-0.00455640209838748,-0.00007936220208648592
1782846403117362400,4.075362548828125,0.00361683894880116,-0.0030272151343524456,0.0011472897604107857
1782846403127367400,4.085367431640625,0.001019990653730929,-0.005556685384362936,0.00006205165118444711
1782846403137372400,4.095372314453125,-0.0003813646617345512,-0.002816559048369527,0.00023382554354611784
1782846403147377400,4.10537744140625,0.004284227266907692,-0.0025859293527901173,0.002409894485026598
1782846403157382400,4.11538232421875,0.001773398951627314,-0.002177134156227112,-0.002379800658673048
1782846403167387400,4.125387451171875,0.0035931370221078396,-0.002058357233181596,0.000642620783764869
1782846403177392400,4.135392333984375,0.0009110674145631492,-0.004320978652685881,-0.001886317040771246
1782846403187397400,4.1453974609375,0.0021166803780943155,-0.0035441347863525152,-0.002025067573413253
1782846403197401600,4.155401611328125,0.0023094932548701763,-0.002959304489195347,0.00010253170330543071
1782846403207406600,4.165406494140625,0.0010865697404369712,-0.0036360137164592743,0.0008732505375519395
1782846403217411600,4.17541162109375,0.0041702440939843655,-0.003968109842389822,-0.0015757924411445856
1782846403227416600,4.18541650390625,0.0005328985280357301,-0.004026167094707489,-0.005967078730463982
1782846403237421600,4.195421630859375,0.004729241598397493,-0.0028333370573818684,-0.0015952334506437182
1782846403247426600,4.205426513671875,0.0013520868960767984,-0.0017989652696996927,0.0014945659786462784
1782846403257431600,4.215431640625,0.003201119601726532,-0.0035414716694504023,-0.002222940558567643
1782846403267436500,4.2254365234375,0.0026296053547412157,-0.002567820018157363,-0.0014053500490263104
1782846403277441500,4.235441650390625,-0.0008045409340411425,-0.001996039180085063,-0.0009629990672692657
1782846403287445500,4.245445556640625,0.0026378610637038946,-0.006803577765822411,-0.001353152096271515
1782846403297450500,4.255450439453125,0.003064499469473958,-0.00247567449696362,-0.0009619337506592274
1782846403307455500,4.26545556640625,0.0017219999572262168,-0.002418416552245617,-0.002323075430467725
1782846403317460500,4.27546044921875,0.0034107104875147343,-0.004233627114444971,-0.0032405343372374773
1782846403327465500,4.285465576171875,0.0025574336759746075,-0.0035888757556676865,-0.0005110605852678418
1782846403337470500,4.295470458984375,0.002846652874723077,-0.0032442628871649504,0.00010998855577781796
1782846403347475500,4.305475341796875,0.002969158347696066,-0.0038107172586023808,0.00012144014181103557
1782846403357480400,4.31548046875,0.002868490759283304,-0.004463990684598684,-0.001461010193452239
1782846403367485400,4.3254853515625,0.006835269276052713,-0.0026610305067151785,-0.004550276789814234
1782846403377490400,4.335490478515625,0.0016407734947279096,-0.0015451660146936774,-0.0016450346447527409
1782846403387494700,4.34549462890625,0.003352387109771371,-0.002110022585839033,-0.00006764429417671636
1782846403397499600,4.355499755859375,0.0019057580502703786,-0.0018578211311250925,-0.00284984870813787
1782846403407504600,4.365504638671875,0.0037207023706287146,-0.003790477057918906,-0.00038988678716123104
1782846403417509600,4.375509521484375,-0.0006234460161067545,-0.006096774712204933,-0.00005805691034765914
1782846403427514600,4.3855146484375,0.003091397462412715,-0.0035457327030599117,-0.0015464976895600557
1782846403437519600,4.39551953125,0.0025936525780707598,-0.004598746541887522,0.000809068325906992
1782846403447524600,4.405524658203125,0.0031198931392282248,-0.0027023095171898603,0.0007414240390062332
1782846403457529600,4.415529541015625,0.0014194648247212172,-0.006835535634309053,-0.0014863101532682776
1782846403467534600,4.42553466796875,0.0031135017052292824,-0.005270662251859903,-0.002176867797970772
1782846403477539600,4.43553955078125,0.0024762072134763002,-0.0043686493299901485,0.00026498452643863857
1782846403487543600,4.44554345703125,0.0029675604309886694,-0.004493551794439554,-0.00475507415831089
1782846403497548500,4.455548583984375,-0.00041438787593506277,-0.00424321461468935,0.0013028184184804559
1782846403507553500,4.465553466796875,0.002287921728566289,-0.003823234001174569,0.0022210762836039066
1782846403517558500,4.47555859375,0.0006532734259963036,-0.004620584659278393,0.00045060686534270644
1782846403527563500,4.4855634765625,0.004600344225764275,-0.0020327907986938953,-0.0008516788948327303
1782846403537568500,4.495568603515625,0.0015752597246319056,-0.0054999603889882565,-0.001960619119927287
1782846403547573500,4.505573486328125,0.00039654469583183527,-0.00210629403591156,0.000993891735561192
1782846403557578500,4.51557861328125,0.0035388083197176456,-0.0022977753542363644,-0.0017747305100783706
1782846403567583500,4.52558349609375,0.002198439557105303,0.0008932242053560913,-0.0024682176299393177
1782846403577588500,4.53558837890625,0.0010016148444265127,-0.002957174088805914,-0.0009376989910379052
1782846403587592700,4.5455927734375,0.0026098978705704212,-0.004237888380885124,-0.0015954998089000583
1782846403597597700,4.55559765625,0.0020682108588516712,-0.0033774208277463913,-0.003278883872553706
1782846403607602700,4.565602783203125,0.004860268905758858,-0.0002311623829882592,-0.0007709851488471031
1782846403617607700,4.575607666015625,0.0016935041639953852,-0.002840261207893491,0.0005182511522434652
1782846403627612700,4.58561279296875,0.005657352972775698,-0.0031521173659712076,-0.0017001620726659894
1782846403637617700,4.59561767578125,0.0029521139804273844,-0.0031465247739106417,-0.0046418895944952965
1782846403647622700,4.60562255859375,0.0009856359101831913,-0.0017164073651656508,-0.00048655952559784055
1782846403657627600,4.615627685546875,0.004464523401111364,-0.0012575446162372828,0.0008157262345775962
1782846403667632600,4.625632568359375,0.002386192325502634,-0.002579271560534835,-0.0007036071619950235
1782846403677636600,4.63563671875,0.00307648372836411,-0.0020221380982548,-0.002316950121894479
1782846403687641600,4.6456416015625,0.0024434502702206373,-0.005535380449146032,-0.001719603082165122
1782846403697646600,4.655646484375,0.00105301383882761,-0.0014982944121584296,-0.0014684670604765415
1782846403707651600,4.665651611328125,0.002796851797029376,-0.001844505313783884,-0.0008183894096873701
1782846403717656600,4.675656494140625,0.0015715312911197543,-0.0018341189716011286,-0.0022066952660679817
1782846403727661600,4.68566162109375,0.002578738844022155,-0.00012516857532318681,0.0011749867117032409
1782846403737666600,4.69566650390625,0.004496747627854347,-0.00569969741627574,-0.0022397185675799847
1782846403747671600,4.705671630859375,0.0020335898734629154,-0.0035814191214740276,-0.001032241270877421
1782846403757676500,4.715676513671875,0.0014540859265252948,-0.002628007438033819,0.0012088088551536202
1782846403767681500,4.725681640625,0.0011134676169604063,-0.0035060516092926264,0.0002460760879330337
1782846403777685800,4.735685791015625,0.0025065671652555466,-0.003498861100524664,0.00018642126815393567
1782846403787690800,4.745690673828125,0.003029079409316182,-0.0017307883827015758,-0.004036553204059601
1782846403797695700,4.75569580078125,0.0014018879737704992,-0.003430151380598545,-0.0010402307379990816
1782846403807700700,4.76570068359375,0.004249073565006256,-0.0035334820859134197,-0.0004886900424025953
1782846403817705700,4.775705810546875,0.00427117757499218,-0.002098038326948881,-0.002079928759485483
1782846403827710700,4.785710693359375,0.000651675509288907,-0.0020421119406819344,-0.00041758365114219487
1782846403837715700,4.7957158203125,0.0035449336282908916,-0.00105301383882761,-0.0025774072855710983
1782846403847720700,4.805720703125,0.003585413796827197,-0.003120692213997245,-0.0025534387677907944
1782846403857725700,4.8157255859375,0.0021920478902757168,-0.0030370689928531647,-0.0017603494925424457
1782846403867729700,4.825729736328125,0.0017787253018468618,-0.006220079027116299,-0.0024407871533185244
1782846403877734700,4.835734619140625,0.0000327568814100232,-0.003126284806057811,-0.002668221015483141
1782846403887739600,4.84573974609375,0.0034911378752440214,-0.002210956299677491,-0.003704989794641733
1782846403897744600,4.85574462890625,0.00301682879216969,-0.0025872609112411737,0.000046339002437889576
1782846403907749600,4.86574951171875,0.0007329019135795534,-0.005046157632023096,-0.0012202603975310922
1782846403917754600,4.875754638671875,0.0019803266040980816,-0.004548146389424801,-0.0023305322974920273
1782846403927759600,4.885759521484375,0.0014820491196587682,-0.003531884169206023,-0.0014572817599400878
1782846403937764600,4.8957646484375,0.0005765743553638458,-0.0029236183036118746,-0.0036511938087642193
1782846403947769600,4.90576953125,0.004261324182152748,-0.001561677665449679,0.000245543458731845
1782846403957774600,4.915774658203125,0.0038924762047827244,-0.004028563853353262,0.00032384038786403835
1782846403967778600,4.925778564453125,0.0035478631034493446,-0.0031696942169219255,-0.0024399880785495043
1782846403977783600,4.935783447265625,0.002120941411703825,-0.004421113524585962,-0.0007677893154323101
1782846403987788800,4.945788818359375,0.0009206547983922064,-0.003824033075943589,0.0011800467036664486
1782846403997793800,4.955793701171875,0.003619768423959613,-0.002246909076347947,-0.00011132013605674729
1782846404007798800,4.965798828125,0.0019979034550487995,-0.0029081718530505896,-0.00398595305159688
1782846404017803800,4.9758037109375,0.0029963224660605192,-0.0009451558580622077,0.000008255799002654385
1782846404027808800,4.985808837890625,0.0023816649336367846,-0.005833920557051897,0.0008186557097360492
1782846404037813800,4.995813720703125,0.0008532768115401268,-0.00430073868483305,-0.0007965514669194818
1782846404047818800,5.00581884765625,0.0000500674286740832,-0.003734018187969923,0.0013646037550643086
1782846404057822700,5.01582275390625,0.0019150790758430958,-0.0034298852551728487,-0.00162399560213089
1782846404067827700,5.02582763671875,0.0036639769095927477,-0.0038482677191495895,-0.0013171994360163808
1782846404077832700,5.035832763671875,0.001621332485228777,-0.003567037871107459,-0.0001984054979402572
1782846404087837700,5.045837646484375,0.004286357667297125,-0.004727110732346773,-0.00572979124262929
1782846404097842700,5.0558427734375,0.002439189236611128,-0.004671717062592506,0.00016298545233439654
1782846404107847700,5.06584765625,0.001740642124786973,-0.0034165694378316402,-0.0018628811230883002
1782846404117852700,5.075852783203125,0.0025182850658893585,-0.0007123955874703825,0.001112668658606708
1782846404127857700,5.085857666015625,0.003421895671635866,-0.00475534051656723,-0.0006356965750455856
1782846404137862700,5.095862548828125,0.0032783513888716698,-0.003010969841852784,-0.001282312092371285
1782846404147867600,5.10586767578125,0.00384453940205276,-0.0029294772539287806,-0.0020985708106309175
1782846404157871600,5.11587158203125,0.0010439591715112329,-0.00145222176797688,0.0004748416249640286
1782846404167876600,5.125876708984375,0.0018855180824175477,-0.0027686222456395626,-0.003329484025016427
1782846404177881600,5.135881591796875,0.0017901768442243338,-0.00577959232032299,-0.0009800433181226254
1782846404187886600,5.145886474609375,0.0011057445080950856,-0.0028706213925033808,0.00007856325100874528
1782846404197891800,5.155891845703125,0.0007454187725670636,-0.003864779369905591,-0.000041811628761934116
1782846404207896800,5.165896728515625,0.002454369328916073,-0.00498170917853713,-0.0010934938909485936
1782846404217901800,5.17590185546875,0.0007198524544946849,-0.0021664814557880163,-0.0024085629265755415
1782846404227906800,5.18590673828125,0.004658934194594622,-0.0034882084000855684,-0.002033855998888612
1782846404237911800,5.195911865234375,0.0030003173742443323,-0.0026671558152884245,-0.0006255765329115093
1782846404247915800,5.205915771484375,0.0006649913266301155,-0.0035143073182553053,-0.0037388119380921125
1782846404257920800,5.215920654296875,0.0018255969043821096,-0.003820570884272456,-0.00042637207661755383
1782846404267925800,5.22592578125,0.0025457157753407955,-0.0015763250412419438,-0.0003249056462664157
1782846404277930800,5.2359306640625,0.0010511496802791953,-0.00038242992013692856,0.0005121259018778801
1782846404287935700,5.245935791015625,0.001731853699311614,-0.00427091121673584,0.0002825613773893565
1782846404297940700,5.255940673828125,0.0015651397407054901,-0.003722566645592451,-0.0004146541759837419
1782846404307945700,5.26594580078125,0.0012905678013339639,-0.005534847732633352,-0.002210956299677491
1782846404317950700,5.27595068359375,0.004745486658066511,-0.003002181416377425,-0.0037918086163699627
1782846404327955700,5.285955810546875,0.00021172130072955042,-0.006307696923613548,0.0014114753575995564
1782846404337959700,5.295959716796875,0.0028767467010766268,-0.0010420948965474963,-0.0006285060080699623
1782846404347964700,5.305964599609375,0.0018522285390645266,-0.0029089709278196096,-0.002546780975535512
1782846404357969700,5.3159697265625,0.0019081549253314734,-0.0043798345141112804,-0.0016530241118744016
1782846404367974700,5.325974609375,-0.00011904330312972888,-0.005614476278424263,-0.003766775131225586
1782846404377979600,5.335979736328125,-0.000107858024421148,-0.0037819549906998873,0.00009081379539566115
1782846404387984600,5.345984619140625,0.004521514754742384,-0.005134308245033026,-0.0010410296963527799
1782846404397989600,5.35598974609375,0.0020266654901206493,-0.002103098202496767,-0.0019773971289396286
1782846404407994600,5.36599462890625,0.0025486452504992485,-0.0027089675422757864,-0.003061569994315505
1782846404418000000,5.375999755859375,0.0006072007236070931,-0.002983539365231991,0.00009853696246864274
1782846404428003600,5.386003662109375,0.0014018879737704992,-0.0018676748732104897,-0.0010311759542673826
1782846404438008600,5.396008544921875,0.0015219965716823936,-0.005834985990077257,-0.002235191175714135
1782846404448013600,5.406013671875,0.0007206514128483832,0.00014567491598427296,-0.001202150946483016
1782846404458018600,5.4160185546875,0.0027505126781761646,-0.00003328951424919069,-0.002654372714459896
1782846404468023800,5.42602392578125,0.0023060310631990433,-0.0021869877818971872,0.001044758129864931
1782846404478028800,5.43602880859375,0.001514539704658091,-0.0026644926983863115,-0.0011211908422410488
1782846404488033800,5.44603369140625,0.004985437728464603,-0.0026847326662391424,-0.0012431635987013578
1782846404498038800,5.456038818359375,0.0008777778712101281,-0.0008607336785644293,-0.0007688545738346875
1782846404508043800,5.466043701171875,0.003894340479746461,-0.0006679208017885685,-0.0009302421822212636
1782846404518047500,5.476047607421875,-0.0007707187905907631,-0.005397162400186062,-0.0029547770973294973
1782846404528052500,5.486052490234375,-0.00032916670897975564,-0.0031254857312887907,-0.0004316983977332711
1782846404538057500,5.496057373046875,0.0023513049818575382,-0.0036104475148022175,0.0010287790792062879
1782846404548062500,5.5060625,0.003373692510649562,-0.0038892803713679314,-0.004175037611275911
1782846404558067500,5.5160673828125,0.0038088529836386442,0.0003504719934426248,0.0011448930017650127
1782846404568072400,5.526072509765625,-0.00045673211570829153,-0.0011997540714219213,0.0008466189028695226
1782846404578077400,5.536077392578125,0.00195156445261091,-0.0028035095892846584,-0.0006460828590206802
1782846404588082400,5.54608251953125,0.0022090920247137547,-0.004396612755954266,0.0001978728687390685
1782846404598087400,5.55608740234375,0.0034932682756334543,-0.001927595934830606,-0.001198688754811883
1782846404608091600,5.566091552734375,0.003150519449263811,-0.005677859298884869,-0.0023422501981258392
1782846404618096600,5.5760966796875,0.00019494339358061552,-0.0037446708884090185,-0.0015701997326686978
1782846404628101600,5.5861015625,0.0037729002069681883,-0.003933488857001066,-0.0011832424206659198
1782846404638106600,5.596106689453125,0.002222674200311303,-0.0031201594974845648,-0.000931307440623641
1782846404648111600,5.606111572265625,0.0032173648942261934,-0.002825613832101226,-0.00034461304312571883
1782846404658116600,5.61611669921875,0.005802761763334274,-0.0005331648280844092,-0.0023731428664177656
1782846404668121600,5.62612158203125,0.00213612150400877,0.00010812433902174234,-0.002668753731995821
1782846404678127000,5.636127197265625,0.002083390951156616,-0.0027113643009215593,0.0003888215287588537
1782846404688132000,5.646132080078125,0.0009302421822212636,-0.002767290687188506,-0.0022855247370898724
1782846404698136000,5.656135986328125,0.003326288191601634,-0.0022274679504334927,-0.003367300843819976
1782846404708141000,5.66614111328125,0.003178216516971588,-0.0015635418239980936,-0.0006197175825946033
1782846404718146000,5.67614599609375,0.0009720537927933037,-0.003938548732548952,-0.0036312201991677284
1782846404728151000,5.686151123046875,0.002912432886660099,-0.005794239696115255,-0.0024839304387569427
1782846404738156000,5.696156005859375,0.0027244137600064278,-0.0020852552261203527,-0.0006687197601422668
1782846404748161000,5.7061611328125,0.002240251051262021,-0.0033095101825892925,-0.002005626680329442
1782846404758166000,5.716166015625,-0.00032676986302249134,-0.002703907433897257,-0.0033755565527826548
1782846404768171000,5.7261708984375,0.0021947110071778297,-0.0032778186723589897,-0.0007701861904934049
1782846404778176000,5.736176025390625,0.0018636800814419985,-0.0025893915444612503,-0.00011638013529591262
1782846404788180200,5.74618017578125,0.0035665053874254227,-0.003567836945876479,-0.0026253440883010626
1782846404798185200,5.756185302734375,0.0016847157385200262,-0.0018543590558692813,-0.001169394003227353
1782846404808190200,5.766190185546875,0.0006551376427523792,-0.0021827267482876778,-0.001954493811354041
1782846404818195200,5.7761953125,0.0026205505710095167,-0.004019509069621563,-0.0006527407676912844
1782846404828200200,5.7862001953125,0.0020698087755590677,-0.004358263220638037,0.0016434367280453444
1782846404838205200,5.796205078125,0.004402738064527512,-0.004418983124196529,0.0014807175612077117
1782846404848210200,5.806210205078125,0.000666322885081172,-0.004874916281551123,0.0010279801208525896
1782846404858215200,5.816215087890625,0.004935103934258223,-0.0034474621061235666,-0.0054424358531832695
1782846404868220200,5.82622021484375,0.0009422263829037547,-0.004147340543568134,-0.0005054679932072759
1782846404878224100,5.83622412109375,0.0038693067617714405,-0.0031907332595437765,-0.0029108349699527025
1782846404888229000,5.84622900390625,0.002751844236627221,-0.004175037611275911,-0.000988032785244286
1782846404898234000,5.856234130859375,0.001876995898783207,-0.002689260058104992,-0.0008096009842120111
1782846404908239000,5.866239013671875,0.0016532903537154198,-0.0028045750223100185,-0.0033784860279411077
1782846404918244000,5.876244140625,0.0028040423057973385,-0.00023568976030219346,-0.0011435613268986344
1782846404928249000,5.8862490234375,0.003197657410055399,-0.0034906051587313414,0.0010223875287920237
1782846404938254000,5.896254150390625,0.003168362658470869,-0.001958488719537854,-0.0014530207263305783
1782846404948259000,5.906259033203125,0.003454119898378849,-0.005290902219712734,-0.002901247702538967
1782846404958264000,5.91626416015625,0.002238120650872588,-0.003581685246899724,-0.00041092574247159064
1782846404968268000,5.92626806640625,0.0025957829784601927,-0.0030037793330848217,0.0009928264189511538
1782846404978273300,5.936273193359375,0.0032535837963223457,-0.003323891432955861,0.00010173275222769007
1782846404988278300,5.9462783203125,0.003485811408609152,-0.003841077210381627,-0.002162220422178507
1782846404998283300,5.956283203125,0.001270061475224793,-0.003876230912283063,-0.00010093380114994943
1782846405008288300,5.966288330078125,0.00321816373616457,-0.0017499631503596902,-0.0012538161827251315
1782846405018293200,5.976293212890625,0.0021046961192041636,-0.0036043222062289715,-0.001969673903658986
1782846405028298200,5.98629833984375,0.0010343717876821756,-0.0005632585380226374,-0.001916410750709474
1782846405038303200,5.99630322265625,0.006334328558295965,-0.002246110001578927,-0.001067927572876215
1782846405048308200,6.00630810546875,0.0016863135388121009,-0.001525991247035563,-0.0032083101104944944
1782846405058312200,6.016312255859375,0.0018024274613708258,-0.0036847495939582586,-0.0011883024126291275
1782846405068317200,6.026317138671875,0.0007483482477255166,-0.0040826257318258286,0.00030599720776081085
1782846405078322200,6.036322265625,0.0009318400407209992,-0.0028759476263076067,-0.003084206720814109
1782846405088327200,6.0463271484375,0.0010732539230957627,-0.0009369000908918679,-0.0019313243683427572
1782846405098332200,6.056332275390625,0.0021547635551542044,-0.0029313412960618734,-0.0014543522847816348
1782846405108337200,6.066337158203125,0.003282346064224839,-0.0021377194207161665,0.000018908443962573074
1782846405118342100,6.076342041015625,0.0018170748371630907,-0.003236539661884308,-0.0031164311803877354
1782846405128347100,6.08634716796875,0.002222674200311303,-0.0041244374588131905,-0.00301709515042603
1782846405138352000,6.09635205078125,0.004554005339741707,-0.0025390577502548695,-0.001841575838625431
1782846405148356000,6.106356201171875,0.0029284118209034204,-0.004061054438352585,-0.0008114652009680867
1782846405158361000,6.116361083984375,0.0022538332268595695,-0.0033364081755280495,-0.002429868094623089
1782846405168366000,6.126365966796875,0.0005555353709496558,-0.006487193983048201,-0.002183259464800358
1782846405178371000,6.13637109375,0.003935087006539106,-0.0017409083666279912,0.0011789813870564103
1782846405188376000,6.1463759765625,0.001805623178370297,-0.0030719563364982605,-0.0008098672842606902
1782846405198381300,6.15638134765625,0.0023228090722113848,-0.0017614146927371621,-0.0010378338629379869
1782846405208386300,6.16638623046875,0.0030652983114123344,-0.00180881901178509,-0.00008708536915946752
1782846405218391300,6.176391357421875,0.003040530951693654,-0.002481799805536866,0.001076715998351574
1782846405228395300,6.186395263671875,0.0007600661483593285,-0.0056986319832503796,-0.0021949773654341698
1782846405238400300,6.196400146484375,0.0019523634109646082,-0.0032589102629572153,-0.0010314423125237226
1782846405248405200,6.2064052734375,0.003270095447078347,-0.00287461606785655,-0.004611529875546694
1782846405258410200,6.21641015625,0.0026234800461679697,-0.0037907434161752462,-0.001332645770162344
1782846405268415200,6.226415283203125,0.0019861855544149876,-0.0035518580116331577,-0.0005789712304249406
1782846405278420200,6.236420166015625,0.0026666230987757444,-0.003073287894949317,-0.0003038666909560561
1782846405288425200,6.24642529296875,0.0030216225422918797,-0.005249356850981712,-0.0002532666258048266
1782846405298430200,6.25643017578125,0.0025100293569266796,-0.002100435085594654,-0.001119060325436294
1782846405308435200,6.266435302734375,0.0004082625964656472,-0.0024919197894632816,0.0007510114228352904
1782846405318439200,6.276439208984375,0.0009944243356585503,-0.004576376173645258,-0.002085521351546049
1782846405328444200,6.286444091796875,0.0017150756902992725,-0.005144428461790085,-0.0007739146240055561
1782846405338449200,6.29644921875,0.0014234596164897084,-0.0003193130251020193,-0.00034594463068060577
1782846405348454100,6.3064541015625,0.0031302794814109802,-0.002234924817457795,-0.0010018812026828527
1782846405358459100,6.316459228515625,0.0028964539524167776,-0.0036013927310705185,0.000401604687795043
1782846405368464100,6.326464111328125,0.004291151650249958,-0.002313754288479686,-0.0026812704745680094
1782846405378469000,6.33646923828125,0.0009835053933784366,-0.0027390611357986927,-0.00461579067632556
1782846405388474000,6.34647412109375,0.0028181569650769234,-0.004790227860212326,-0.0017590179340913892
1782846405398479000,6.35647900390625,0.0025270734913647175,-0.004027232062071562,-0.0018586200894787908
1782846405408483300,6.3664833984375,0.0028008464723825455,-0.005688245873898268,0.00010679275874281302
1782846405418488300,6.37648828125,0.0010926949325948954,-0.00321869645267725,0.0010338390711694956
1782846405428493300,6.386493408203125,0.0026700852904468775,-0.0036045885644853115,-0.0008759136544540524
1782846405438498300,6.396498291015625,0.0007789746159687638,-0.003608583239838481,-0.0013792511308565736
1782846405448503300,6.40650341796875,0.0006016080733388662,-0.005303418729454279,0.000467118457891047
1782846405458508300,6.41650830078125,0.0024780714884400368,-0.002273274352774024,0.0001358212175546214
1782846405468513300,6.42651318359375,0.003772101365029812,-0.002183259464800358,-0.0008215851848945022
1782846405478518300,6.436518310546875,0.0020754013676196337,-0.002804841147735715,-0.0019952403381466866
1782846405488522000,6.44652197265625,0.0009768474847078323,-0.0031273500062525272,0.0000066579027588886674
1782846405498527000,6.45652685546875,0.0018245317041873932,-0.0043737092055380344,-0.002341717481613159
1782846405508532000,6.466531982421875,0.0037534593138843775,-0.0008298410102725029,-0.0016357135027647018
1782846405518537000,6.476536865234375,0.004607534967362881,-0.0020306603983044624,-0.0035958001390099525
1782846405528542000,6.4865419921875,0.004721518140286207,-0.00350472005084157,-0.0010988202411681414
1782846405538547200,6.496547119140625,0.00008229167724493891,-0.0034525219816714525,-0.0005856291390955448
1782846405548552200,6.50655224609375,0.0008809737046249211,-0.0027710190042853355,-0.00024288028362207115
1782846405558557200,6.51655712890625,0.0011925635626539588,-0.0032477248460054398,-0.001276453142054379
1782846405568562200,6.526562255859375,0.003236806020140648,-0.0033103092573583126,0.00033342777169309556
1782846405578566100,6.536566162109375,0.0033896714448928833,-0.004603540059179068,-0.0008548747282475233
1782846405588571100,6.546571044921875,0.001966211711987853,-0.004333229269832373,0.0008783105295151472
1782846405598576000,6.556576171875,0.000758734589908272,-0.002432531211525202,-0.0005491438205353916
1782846405608581000,6.5665810546875,0.0035276231355965137,-0.0020897823851555586,-0.0027531760279089212
1782846405618586000,6.576586181640625,0.0028969866689294577,-0.003909786697477102,0.000011717908819264267
1782846405628591000,6.586591064453125,0.0002924150903709233,-0.004364388529211283,-0.0026471822056919336
1782846405638596000,6.59659619140625,0.004908205941319466,-0.002823217073455453,-0.00058323226403445
1782846405648601000,6.60660107421875,0.0027632960118353367,-0.0020208065398037434,-0.00012250541476532817
1782846405658605000,6.61660498046875,0.0034237599465996027,-0.0006420881254598498,-0.0009454221581108868
1782846405668610000,6.626610107421875,0.005282113794237375,-0.0035145736765116453,-0.0009142631897702813
1782846405678615600,6.636615478515625,0.004790227860212326,-0.00398595305159688,-0.0037111148703843355
1782846405688620500,6.64662060546875,0.0020671456586569548,-0.004680505488067865,-0.0014319816837087274
1782846405698625500,6.65662548828125,0.0006452839006669819,-0.004263454582542181,-0.00036458674003370106
1782846405708630500,6.666630615234375,0.001960619119927287,-0.002055427758023143,-0.003334810258820653
1782846405718635500,6.676635498046875,0.002519616624340415,-0.004997954238206148,-0.0025366609916090965
1782846405728640500,6.686640625,0.002995789982378483,-0.0029225528705865145,-0.0020807278342545033
1782846405738645500,6.6966455078125,0.0009062737226486206,-0.0014005564153194427,0.0012926984345540404
1782846405748649500,6.7066494140625,0.003287405939772725,-0.005277586169540882,-0.003709783311933279
1782846405758654700,6.71665478515625,0.0013281183782964945,-0.0017917747609317303,0.0008173241512849927
1782846405768659700,6.72665966796875,0.0029148298781365156,-0.0015694007743149996,-0.0012836436508223414
1782846405778664700,6.736664794921875,0.002086054068058729,-0.0036762275267392397,-0.0013496900210157037
1782846405788669700,6.746669677734375,0.0013627394801005721,-0.0028751487843692303,0.002380599733442068
1782846405798674700,6.7566748046875,0.0005685848882421851,-0.0041002025827765465,-0.0005720470217056572
1782846405808679700,6.7666796875,0.0019417107105255127,-0.004526308737695217,-0.0007334345718845725
1782846405818684700,6.7766845703125,0.002635996788740158,-0.003552124137058854,-0.0016474314033985138
1782846405828688600,6.786688720703125,0.0037795582320541143,-0.004670917987823486,0.001389371114782989
1782846405838693600,6.796693603515625,0.0006580671179108322,-0.003959321416914463,-0.0007225155713967979
1782846405848698600,6.80669873046875,0.0018194715958088636,-0.003404052462428808,-0.0021318604703992605
1782846405858703600,6.81670361328125,0.0016346483025699854,-0.004458664450794458,-0.00038296254933811724
1782846405868708600,6.82670849609375,0.0006053365068510175,-0.0033420007675886154,-0.0006434197421185672
1782846405878713600,6.836713623046875,0.0017776599852368236,-0.0019092201255261898,0.001324123702943325
1782846405888718600,6.846718505859375,0.0031470574904233217,-0.002808303339406848,-0.0015667376574128866
1782846405898723600,6.8567236328125,0.003346261801198125,-0.004730839282274246,-0.003285009181126952
1782846405908728600,6.866728515625,0.0023433153983205557,-0.0023313311394304037,0.0013768542557954788
1782846405918732500,6.876732666015625,0.0015608787070959806,-0.0034855452831834555,-0.0015329155139625072
1782846405928737500,6.886737548828125,0.0032466596458107233,-0.003058107802644372,-0.0012234562309458852
1782846405938742500,6.896742431640625,0.0015422365395352244,-0.002042910782620311,0.00020160128769930452
1782846405948747500,6.90674755859375,0.002620816696435213,-0.002091913018375635,-0.00015952334797475487
1782846405958752500,6.91675244140625,0.0009395632077939808,-0.0022178804501891136,0.000313986703986302
1782846405968757500,6.926757568359375,0.0012916331179440022,-0.0005289037944748998,-0.00130920996889472
1782846405978762800,6.9367626953125,-0.0006181196658872068,-0.005868541542440653,0.0010223875287920237
1782846405988767700,6.946767822265625,0.0022804648615419865,-0.004978779703378677,-0.0008247809601016343
1782846405998771700,6.956771728515625,0.0034589136485010386,-0.0018836538074538112,-0.000707868195604533
1782846406008776700,6.966776611328125,0.0011076086666435003,-0.003941211849451065,0.0001411475386703387
1782846406018781700,6.97678173828125,0.001802693703211844,-0.005106877535581589,-0.0008809737046249211
1782846406028786700,6.98678662109375,0.003150785807520151,-0.004489024169743061,-0.0006056028068996966
1782846406038791700,6.996791748046875,0.004288488067686558,-0.002752909669652581,-0.001213336130604148
1782846406048796700,7.006796630859375,0.002204830991104245,-0.0051625375635921955,-0.001386175281368196
1782846406058801700,7.0168017578125,0.004560663364827633,-0.00242134602740407,-0.0022330605424940586
1782846406068806700,7.026806640625,-0.0005073322099633515,-0.004056260455399752,0.0008700547041371465
1782846406078811600,7.036811767578125,0.0019598202779889107,-0.002145442645996809,-0.002493784064427018
1782846406088815600,7.046815673828125,0.002344380598515272,-0.0027324033435434103,-0.0017504957504570484
1782846406098820600,7.056820556640625,0.0012269183062016964,-0.004120975267142057,-0.0008127967594191432
1782846406108825600,7.06682568359375,0.004254932515323162,-0.003459446132183075,-0.003497795667499304
1782846406118830600,7.07683056640625,0.0020897823851555586,-0.004625111818313599,-0.002853044541552663
1782846406128835600,7.086835693359375,0.002098304685205221,-0.003611512714996934,-0.003692206460982561
1782846406138840600,7.096840576171875,0.0021574266720563173,-0.00384400668554008,-0.0021499700378626585
1782846406148845600,7.106845458984375,0.0028703550342470407,-0.004752943757921457,-0.0022301310673356056
1782846406158850600,7.1168505859375,0.001999501371756196,-0.003169428091496229,0.00046845004544593394
1782846406168854800,7.126854736328125,0.003299390198662877,-0.001871403306722641,-0.002770220162346959
1782846406178859800,7.13685986328125,0.0011885687708854675,-0.0036312201991677284,-0.0029289445374161005
1782846406188864800,7.14686474609375,0.0006831008358858526,-0.004197407979518175,-0.004794222768396139
1782846406198869800,7.156869873046875,0.002168345730751753,-0.004059722647070885,-0.0015880429418757558
1782846406208874800,7.166874755859375,-0.00022157499915920198,-0.0019257317762821913,-0.0007672567153349519
1782846406218879700,7.176879638671875,0.0014972290955483913,-0.0037140443455427885,-0.0020652813836932182
1782846406228884700,7.186884765625,0.0025180187076330185,-0.0021821942646056414,0.0015600797487422824
1782846406238889700,7.1968896484375,0.0015909724170342088,-0.0033806166611611843,0.00020213393145240843
1782846406248893700,7.206893798828125,0.0016282566357403994,-0.0038424087688326836,-0.0008839031797833741
1782846406258898700,7.216898681640625,0.004273840691894293,-0.005783853121101856,0.0008325041271746159
1782846406268903700,7.226903564453125,0.0017113472567871213,-0.004094077739864588,-0.0002790992730297148
1782846406278908700,7.23690869140625,0.0018290589796379209,-0.004656536970287561,-0.0015076154377311468
1782846406288913700,7.24691357421875,0.002092445734888315,-0.002073537092655897,0.0005281048361212015
1782846406298918700,7.256918701171875,0.002389654517173767,-0.0013829795643687248,0.00023941817926242948
1782846406308923600,7.266923583984375,0.0037204360123723745,-0.004306064918637276,0.0008649947121739388
1782846406318928600,7.2769287109375,0.0021401161793619394,-0.005095425993204117,0.00009853696246864274
1782846406328932900,7.286932861328125,0.004394748248159885,-0.0017944378778338432,-0.0012295814231038094
1782846406338937900,7.296937744140625,0.0036037894897162914,-0.0025997778866440058,-0.0032919333316385746
1782846406348942800,7.30694287109375,0.0025457157753407955,-0.005616073962301016,-0.0002711098059080541
1782846406358947800,7.31694775390625,0.0006026733317412436,-0.0017752632265910506,0.0010162622202187777
1782846406368952800,7.326952880859375,0.0026170883793383837,-0.004071440547704697,-0.001127316034398973
1782846406378957800,7.336957763671875,0.0016919062472879887,-0.0034698324743658304,-0.0009598032338544726
1782846406388962800,7.346962890625,0.0004037352045997977,-0.003525758860632777,-0.0025827335193753242
1782846406398967800,7.3569677734375,0.0024080302100628614,-0.0009632653673179448,0.0012711267918348312
1782846406408972800,7.366972900390625,0.005251753609627485,-0.0031254857312887907,-0.0023315974976867437
1782846406418976500,7.3769765625,0.003195260651409626,-0.0014181332662701607,-0.0021382521372288465
1782846406428981500,7.3869814453125,0.003163302782922983,-0.0014769891276955605,-0.00387356779538095
1782846406438986800,7.39698681640625,0.002463423879817128,-0.0038429414853453636,-0.0034173682797700167
1782846406448991700,7.40699169921875,0.0035896748304367065,-0.0032354744616895914,0.0005478122038766742
1782846406458996700,7.416996826171875,0.0025648903101682663,-0.002822950715199113,-0.002019741339609027
1782846406469001700,7.427001708984375,0.00133850472047925,-0.0037111148703843355,0.0005030711181461811
1782846406479006700,7.4370068359375,0.003757720347493887,-0.002433063928037882,-0.0021638183388859034
1782846406489011700,7.44701171875,0.003623230615630746,-0.0029614351224154234,-0.0003049319493584335
1782846406499015700,7.457015625,0.00007456851017195731,-0.0017614146927371621,-0.001728924224153161
1782846406509020700,7.467020751953125,0.0030509172938764095,-0.00040613205055706203,-0.0014466290595009923
1782846406519025700,7.477025634765625,0.0031257520895451307,-0.0030804784037172794,-0.0012966931099072099
1782846406529030700,7.48703076171875,0.0011707255616784096,-0.0013496900210157037,-0.0012290488230064511
1782846406539035600,7.49703564453125,0.0030069751664996147,-0.0024913870729506016,-0.0014215953415259719
1782846406549040600,7.50704052734375,0.0019105518003925681,-0.0007470166892744601,-0.0014863101532682776
1782846406559045600,7.517045654296875,0.0027268105186522007,-0.0028839372098445892,-0.0021899172570556402
1782846406569050600,7.527050537109375,0.0025955168530344963,-0.0035127094015479088,-0.003326820908114314
1782846406579054600,7.5370546875,0.0017829863354563713,-0.0056978329084813595,-0.0008783105295151472
1782846406589059600,7.5470595703125,0.0017393104499205947,-0.0039292280562222,-0.0013904364313930273
1782846406599064600,7.557064697265625,0.0010008158860728145,-0.0028961875941604376,-0.0014583469601348042
1782846406609069600,7.567069580078125,0.0024466461036354303,-0.0036224317736923695,0.00024234765442088246
1782846406619074600,7.577074462890625,0.0019651465117931366,-0.002748914761468768,-0.002377670258283615
1782846406629079600,7.58707958984375,0.003198190126568079,-0.003677559085190296,0.00006364954606397077
1782846406639084500,7.59708447265625,0.0024580976460129023,-0.002560629276558757,-0.0032349417451769114
1782846406649089500,7.607089599609375,0.001989913871511817,-0.0056994310580194,-0.001329982653260231
1782846406659093500,7.617093505859375,0.003349191276356578,-0.0009587379754520953,-0.001246625673957169
1782846406669098500,7.627098388671875,0.0038927425630390644,-0.004802478477358818,-0.003347060875967145
1782846406679103200,7.637103271484375,0.003028546692803502,-0.0032107068691402674,-0.0034027209039777517
1782846406689108200,7.647108154296875,0.0007041397620923817,-0.0015970977256074548,-0.002150502521544695
1782846406699113200,7.65711328125,0.0023190807551145554,-0.0011198592837899923,-0.0011771172285079956
1782846406709118200,7.6671181640625,0.003622697899118066,-0.0024343954864889383,-0.0030011162161827087
1782846406719123200,7.677123291015625,0.003297259798273444,-0.003184075467288494,-0.0021491709630936384
1782846406729128200,7.687128173828125,0.0018604843644425273,-0.004895422607660294,-0.00014168016787152737
1782846406739132200,7.697132080078125,0.003061037277802825,-0.003877029987052083,-0.0005320995696820319
1782846406749137200,7.70713720703125,0.003498328384011984,-0.005660282447934151,-0.000743554555810988
1782846406759142100,7.71714208984375,0.0016913736471906304,-0.002822950715199113,-0.0006892260862514377
1782846406769147100,7.727147216796875,0.0019856528379023075,-0.0044469465501606464,-0.003984089009463787
1782846406779152100,7.737152099609375,0.0033449302427470684,-0.002528138691559434,-0.000577107013668865
1782846406789157000,7.7471572265625,-0.0009531453251838684,-0.003326820908114314,0.0016492956783622503
1782846406799162000,7.757162109375,0.0018064221367239952,-0.0027861990965902805,-0.0024687503464519978
1782846406809167000,7.7671669921875,0.0017563547007739544,-0.0037081853952258825,-0.0021587584633380175
1782846406819171000,7.777171142578125,0.004623247776180506,-0.004369981121271849,-0.0006221143994480371
1782846406829176000,7.787176025390625,0.003867708845064044,-0.0034027209039777517,0.002478337613865733
1782846406839181300,7.797181396484375,0.0023545008152723312,-0.0022740731947124004,0.0016117451013997197
1782846406849186300,7.807186279296875,0.001315068919211626,-0.003165433183312416,-0.002659965306520462
1782846406859191300,7.81719140625,-0.0015366439474746585,-0.001592037733644247,0.00031664984999224544
1782846406869196300,7.8271962890625,0.004357730504125357,-0.00381417921744287,0.00003009372085216455
1782846406879201300,7.837201171875,0.0007166566210798919,-0.0024655545130372047,-0.0024671524297446012
1782846406889206300,7.847206298828125,0.001955026527866721,-0.004322843160480261,0.0015763250412419438
1782846406899210000,7.8572099609375,0.0008729841792955995,-0.003918575122952461,0.00023435817274730653
1782846406909215000,7.867215087890625,0.0013680658303201199,-0.002095375210046768,0.0004593952908180654
1782846406919220000,7.877219970703125,0.005781722720712423,-0.004623514134436846,-0.003853061469271779
1782846406929225000,7.887224853515625,0.002546514617279172,-0.0029142971616238356,-0.0005060005933046341
1782846406939230000,7.89722998046875,0.0006133259739726782,-0.0052136704325675964,-0.0016799219883978367
1782846406949235000,7.90723486328125,0.0015539544401690364,-0.005603291094303131,-0.0013483584625646472
1782846406959240000,7.917239990234375,0.0021515677217394114,-0.0027566379867494106,-0.0005105279851704836
1782846406969245200,7.9272451171875,0.002234924817457795,-0.0011664645280689,-0.0019259981345385313
1782846406979249000,7.937248779296875,0.004532966297119856,-0.0024045680183917284,-0.0003073287953156978
1782846406989254000,7.94725390625,0.001859685406088829,-0.004415520932525396,0.00122558674775064
1782846406999259000,7.9572587890625,0.0024533038958907127,-0.0026764769572764635,-0.0010096043115481734
1782846407009263900,7.967263916015625,0.002867691917344928,-0.003290335414931178,-0.0016138756182044744
1782846407019268900,7.977268798828125,0.003882356220856309,-0.0021108214277774096,-0.0010029464028775692
1782846407029274000,7.987274169921875,0.002172074280679226,-0.0036642432678490877,-0.0011427623685449362
1782846407039279000,7.997279052734375,0.0016887104138731956,-0.0044112601317465305,-0.0019025622168555856
1782846407049283000,8.007282958984375,0.004532966297119856,-0.0049510826356709,-0.00011638013529591262
1782846407059288000,8.0172880859375,0.0010362359462305903,-0.004447212442755699,0.0009190568816848099
1782846407069293000,8.02729296875,0.002811232814565301,-0.001591505017131567,-0.0018346516881138086
1782846407079298000,8.037298095703125,0.0046658581122756,-0.004235225263983011,-0.0030751521699130535
1782846407089303000,8.047302978515624,0.0022825952619314194,-0.004486094694584608,-0.00014460964302998036
1782846407099308000,8.05730810546875,0.0026234800461679697,-0.004320180043578148,0.0008455536444671452
1782846407109313000,8.06731298828125,0.0014181332662701607,-0.0068448567762970924,-0.0015081481542438269
1782846407119318000,8.077318115234375,0.00023196132679004222,-0.005520466715097427,0.0014823154779151082
1782846407129323000,8.087322998046876,0.002108957152813673,-0.0036794233601540327,-0.001187237212434411
1782846407139327000,8.097326904296875,0.0016532903537154198,-0.003052781568840146,-0.0010961571242660284
1782846407149332000,8.10733203125,0.0010604707058519125,-0.005305283237248659,0.00024740767548792064
1782846407159337000,8.1173369140625,0.0034610440488904715,-0.00012996226723771542,0.00007004113285802305
1782846407169342000,8.127342041015625,0.004051733296364546,-0.0020367854740470648,0.0013273194199427962
1782846407179347000,8.137346923828124,0.0017981663113459945,-0.00492098880931735,-0.0025803367607295513
1782846407189352000,8.14735205078125,0.0043923514895141125,-0.0054789213463664055,-0.0009515474666841328
1782846407199357000,8.15735693359375,0.0023212111555039883,-0.005567604675889015,-0.004519117996096611
1782846407209362000,8.16736181640625,-0.00020000340009573847,-0.0024700819049030542,-0.0012405004817992449
1782846407219366100,8.1773662109375,0.001597896683961153,-0.0022972426377236843,-0.00242214510217309
1782846407229371100,8.18737109375,0.0011672634864225984,-0.0056799896992743015,-0.001151284552179277
1782846407239376100,8.197376220703125,0.0026847326662391424,-0.0031973912846297026,-0.001422128058038652
1782846407249381000,8.207381103515624,0.0020578245166689157,-0.0012394351651892066,-0.003349457634612918
1782846407259386000,8.21738623046875,0.0023371900897473097,-0.005811550188809633,-0.0012362393317744136
1782846407269391000,8.22739111328125,0.004338821861892939,-0.0023182816803455353,-0.00267727579921484
1782846407279396000,8.23739599609375,0.001055943313986063,-0.0022895196452736855,0.0003736414946615696
1782846407289400000,8.247400146484376,0.0027017768006771803,-0.0031518512405455112,-0.0017478326335549355
1782846407299405000,8.257405029296875,0.0033779535442590714,-0.0007249124464578927,-0.001577123999595642
1782846407309410000,8.26741015625,0.003049852093681693,-0.00358860963024199,-0.001794171635992825
1782846407319415000,8.2774150390625,0.002808836055919528,-0.0032439965289086103,-0.0008018778171390295
1782846407329420000,8.287419921875,0.0009171926649287343,-0.004120975267142057,-0.0009267800487577915
1782846407339425000,8.297425048828124,0.0034261567052453756,-0.00282082031480968,-0.003905259305611253
1782846407349430000,8.307429931640625,0.0017094830982387066,-0.0037926076911389828,-0.005231513641774654
1782846407359435000,8.31743505859375,0.0022540995851159096,-0.0025156219489872456,-0.0011491540353745222
1782846407369439200,8.327439208984375,0.0006870955694466829,-0.0034615767654031515,-0.0034381409641355276
1782846407379444200,8.3374443359375,0.0017574200173839927,-0.0034117756877094507,0.0008069378091022372
1782846407389449200,8.34744921875,0.0030890004709362984,-0.0040823593735694885,-0.002680471632629633
1782846407399454200,8.3574541015625,0.0025337315164506435,-0.0051878378726542,-0.0015811186749488115
1782846407409459200,8.367459228515624,0.0004546015989035368,-0.0005387574783526361,-0.000985103310085833
1782846407419464200,8.377464111328125,0.0008364989189431071,-0.0014391721924766898,-0.0007491472060792148
1782846407429469200,8.38746923828125,0.0024282701779156923,-0.0022684806026518345,-0.000716922979336232
1782846407439474200,8.39747412109375,0.0008729841792955995,-0.005685050040483475,-0.000018109494703821838
1782846407449478100,8.40747802734375,0.003698331769555807,-0.0037987329997122288,-0.0005707154050469398
1782846407459483100,8.417483154296875,0.0011488876771181822,-0.0034290861804038286,-0.0005576659459620714
1782846407469488000,8.427488037109375,0.001612544059753418,-0.0016953683225437999,-0.00236328924074769
1782846407479493000,8.4374931640625,0.004291950259357691,-0.0032029838766902685,0.0015315839555114508
1782846407489498000,8.447498046875,0.0029350698459893465,-0.0024708807468414307,-0.0029443909879773855
1782846407499503000,8.457503173828124,0.002582467393949628,-0.0033430662006139755,-0.0005779059720225632
1782846407509508000,8.467508056640625,0.0012692625168710947,-0.0049438923597335815,-0.004785700235515833
1782846407519512000,8.477511962890626,0.0018370485631749034,-0.0027297399938106537,0.0002008023438975215
1782846407529517000,8.48751708984375,0.0018373148050159216,-0.006544984877109528,-0.0007510114228352904
1782846407539522000,8.49752197265625,0.005391569808125496,-0.0028181569650769234,-0.0007621967233717442
1782846407549527300,8.50752734375,0.0018849853659048676,-0.003052515210583806,0.000483363721286878
1782846407559532300,8.5175322265625,-0.0003278351214248687,-0.0030567762441933155,-0.003087935270741582
1782846407569537300,8.527537353515624,0.002454102970659733,-0.00481472909450531,-0.0024224112275987864
1782846407579542300,8.537542236328125,0.003240001853555441,-0.0028370653744786978,-0.002010420197620988
1782846407589547300,8.54754736328125,0.003085005795583129,-0.001832787413150072,-0.002397377509623766
1782846407599551000,8.557551025390625,0.0033076461404561996,-0.002531600883230567,-0.0017686053179204464
1782846407609556000,8.567555908203126,0.002034655073657632,-0.004006459377706051,-0.00008255799184553325
1782846407619561200,8.577561279296875,0.00264851376414299,-0.005635515321046114,-0.0026434536557644606
1782846407629566200,8.587566162109376,0.0037180392537266016,-0.0026429209392517805,-0.003308444982394576
1782846407639571200,8.5975712890625,0.0028274781070649624,-0.004613660275936127,-0.00031664984999224544
1782846407649576200,8.607576171875,0.004160123877227306,-0.00321922916918993,-0.0016892430139705539
1782846407659581200,8.617581298828124,0.00015206649550236762,-0.00461579067632556,0.0005105279851704836
1782846407669586200,8.627586181640625,0.0018351842882111669,-0.0046701193787157536,0.0012804478174075484
1782846407679589400,8.63758935546875,0.0029001825023442507,-0.004227768164128065,-0.0011981561547145247
1782846407689594400,8.647594482421875,0.0009070726810023189,-0.002552639925852418,-0.0033843449782580137
1782846407699599400,8.657599365234375,0.0032621060963720083,-0.002388855442404747,-0.0015662050573155284
1782846407709604400,8.667604248046874,-0.0000804274677648209,0.03344397619366646,0.021445371210575104
1782846407719609300,8.677609375,-0.004930576309561729,0.11039788275957108,0.022106634452939034
1782846407729614300,8.6876142578125,0.008866994641721249,-0.10909559577703476,-0.026021214202046394
1782846407739619300,8.697619384765625,0.005082643125206232,-0.13378149271011353,-0.0358424186706543
1782846407749623300,8.707623291015626,-0.00041278995922766626,0.06540457159280777,0.012768791988492012
1782846407759628300,8.717628173828125,0.0010138654615730047,0.10264435410499573,0.025833994150161743
