time,seconds_elapsed,z,y,x
1782846236854950000,0.055949951171875,-1.001220703125,-0.0218963623046875,-0.000213623046875
1782846236864955000,0.065954833984375,-0.98980712890625,-0.02178955078125,0.0037689208984375
1782846236874960000,0.0759599609375,-0.9829559326171875,-0.023773193359375,0.006317138671875
1782846236884964900,0.08596484375,-0.9924163818359375,-0.0230560302734375,0.0016632080078125
1782846236894969900,0.095969970703125,-0.9970550537109375,-0.0219268798828125,0.0011749267578125
1782846236904974000,0.10597412109375,-0.9869537353515625,-0.0228118896484375,0.0041961669921875
1782846236914979000,0.11597900390625,-0.9842071533203125,-0.0230560302734375,0.0056610107421875
1782846236924984000,0.125984130859375,-0.9934844970703125,-0.0224609375,0.001983642578125
1782846236934989000,0.135989013671875,-0.9940643310546875,-0.0209808349609375,0.000518798828125
1782846236944994000,0.145994140625,-0.9860687255859375,-0.0206451416015625,0.003204345703125
1782846236954999000,0.1559990234375,-0.9891357421875,-0.0201416015625,0.0025787353515625
1782846236965004000,0.166004150390625,-0.993438720703125,-0.02008056640625,0.0024566650390625
1782846236975009000,0.176009033203125,-0.990966796875,-0.0195159912109375,0.00018310546875
1782846236985014000,0.186013916015625,-0.9865875244140625,-0.0215606689453125,0.00274658203125
1782846236995019000,0.19601904296875,-0.991180419921875,-0.0211639404296875,0.0025634765625
1782846237005024000,0.20602392578125,-0.9935760498046875,-0.0206298828125,0.0012359619140625
1782846237015029000,0.216029052734375,-0.9900360107421875,-0.0206146240234375,0.00323486328125
1782846237025034000,0.226033935546875,-0.98944091796875,-0.02099609375,0.004608154296875
1782846237035039000,0.2360390625,-0.9915771484375,-0.022796630859375,0.0031280517578125
1782846237045044000,0.2460439453125,-0.99102783203125,-0.0219573974609375,0.004608154296875
1782846237055048000,0.2560478515625,-0.9888763427734375,-0.022003173828125,0.004852294921875
1782846237065053000,0.266052978515625,-0.9917449951171875,-0.02337646484375,0.00457763671875
1782846237075058000,0.276057861328125,-0.992034912109375,-0.0224456787109375,0.002349853515625
1782846237085063000,0.28606298828125,-0.99078369140625,-0.02203369140625,0.002838134765625
1782846237095068000,0.29606787109375,-0.99072265625,-0.0225982666015625,0.003692626953125
1782846237105073000,0.306072998046875,-0.9917144775390625,-0.022674560546875,0.00274658203125
1782846237115078000,0.316077880859375,-0.99005126953125,-0.020172119140625,0.00250244140625
1782846237125083000,0.326082763671875,-0.9911651611328125,-0.0194854736328125,0.003997802734375
1782846237135087900,0.336087890625,-0.9909820556640625,-0.0215301513671875,0.00146484375
1782846237145092900,0.3460927734375,-0.9900054931640625,-0.0217437744140625,0.0009307861328125
1782846237155097900,0.356097900390625,-0.9911651611328125,-0.0216217041015625,0.0025787353515625
1782846237165102800,0.366102783203125,-0.99066162109375,-0.0202178955078125,0.0020751953125
1782846237175107800,0.37610791015625,-0.9910125732421875,-0.0209808349609375,0.002166748046875
1782846237185112800,0.38611279296875,-0.9931182861328125,-0.021575927734375,0.0022125244140625
1782846237195117000,0.396116943359375,-0.9906005859375,-0.0209808349609375,0.002899169921875
1782846237205122000,0.4061220703125,-0.9897613525390625,-0.021697998046875,0.000457763671875
1782846237215127000,0.416126953125,-0.9916839599609375,-0.021240234375,0.00042724609375
1782846237225132000,0.426132080078125,-0.99041748046875,-0.020843505859375,0.0034332275390625
1782846237235137000,0.436136962890625,-0.9925384521484375,-0.0215911865234375,0.0032196044921875
1782846237245142000,0.44614208984375,-0.989715576171875,-0.022125244140625,0.0039825439453125
1782846237255147000,0.45614697265625,-0.99090576171875,-0.02099609375,0.0018157958984375
1782846237265152000,0.466152099609375,-0.991180419921875,-0.0216827392578125,0.0018768310546875
1782846237275157000,0.476156982421875,-0.989837646484375,-0.0227508544921875,0.003936767578125
1782846237285162000,0.486161865234375,-0.9901123046875,-0.02105712890625,0.0050811767578125
1782846237295167000,0.4961669921875,-0.99017333984375,-0.0237274169921875,0.0029449462890625
1782846237305172000,0.506171875,-0.990325927734375,-0.0220947265625,0.0026397705078125
1782846237315177000,0.516177001953125,-0.9907379150390625,-0.0206451416015625,0.003662109375
1782846237325182000,0.526181884765625,-0.9898681640625,-0.0207061767578125,0.0021209716796875
1782846237335186000,0.53618603515625,-0.9914093017578125,-0.0209197998046875,0.0016937255859375
1782846237345191000,0.54619091796875,-0.99102783203125,-0.020843505859375,0.0025177001953125
1782846237355196000,0.55619580078125,-0.990478515625,-0.021484375,0.0016326904296875
1782846237365201000,0.566200927734375,-0.9904327392578125,-0.0205230712890625,0.0015411376953125
1782846237375206000,0.576205810546875,-0.9907684326171875,-0.0210418701171875,0.0038299560546875
1782846237385211000,0.5862109375,-0.990631103515625,-0.0201568603515625,0.00250244140625
1782846237395216000,0.5962158203125,-0.990966796875,-0.021392822265625,0.0023651123046875
1782846237405220900,0.606220947265625,-0.990936279296875,-0.0200347900390625,0.0028839111328125
1782846237415225900,0.616225830078125,-0.9912261962890625,-0.02215576171875,0.004669189453125
1782846237425231000,0.626231201171875,-0.990325927734375,-0.0227203369140625,0.0037841796875
1782846237435236000,0.636236083984375,-0.9904937744140625,-0.0220489501953125,0.0037689208984375
1782846237445241000,0.646240966796875,-0.990753173828125,-0.0222625732421875,0.0035247802734375
1782846237455246000,0.65624609375,-0.9897918701171875,-0.022491455078125,0.0047607421875
1782846237465251000,0.6662509765625,-0.99017333984375,-0.021453857421875,0.0040740966796875
1782846237475256000,0.676256103515625,-0.9915771484375,-0.0217132568359375,0.0026092529296875
1782846237485260000,0.686260009765625,-0.990234375,-0.0226593017578125,0.001678466796875
1782846237495265000,0.69626513671875,-0.9918212890625,-0.0220489501953125,0.001983642578125
1782846237505270000,0.70627001953125,-0.9903564453125,-0.0207366943359375,0.0023651123046875
1782846237515274500,0.7162744140625,-0.9911041259765625,-0.0208740234375,0.0028533935546875
1782846237525279500,0.726279541015625,-0.9907073974609375,-0.0216064453125,0.002227783203125
1782846237535284500,0.736284423828125,-0.9890899658203125,-0.0213165283203125,0.0021820068359375
1782846237545289500,0.74628955078125,-0.9900665283203125,-0.0201416015625,0.0024871826171875
1782846237555294500,0.75629443359375,-0.9901580810546875,-0.01947021484375,0.0023040771484375
1782846237565299500,0.766299560546875,-0.99151611328125,-0.0200958251953125,0.0014495849609375
1782846237575304400,0.776304443359375,-0.9904327392578125,-0.0207672119140625,0.0006103515625
1782846237585309400,0.786309326171875,-0.989166259765625,-0.021759033203125,0.0033721923828125
1782846237595314400,0.796314453125,-0.9904327392578125,-0.0214691162109375,0.0023193359375
1782846237605319400,0.8063193359375,-0.9921112060546875,-0.02020263671875,0.0036468505859375
1782846237615324400,0.816324462890625,-0.988861083984375,-0.0218658447265625,0.001983642578125
1782846237625329400,0.826329345703125,-0.9909820556640625,-0.021331787109375,0.0048675537109375
1782846237635333600,0.836333740234375,-0.9906005859375,-0.0217132568359375,0.002227783203125
1782846237645338600,0.846338623046875,-0.9901580810546875,-0.0221710205078125,0.0025787353515625
1782846237655343600,0.856343505859375,-0.9917755126953125,-0.0225067138671875,0.0031890869140625
1782846237665348600,0.8663486328125,-0.9903411865234375,-0.0215606689453125,0.002227783203125
1782846237675353600,0.876353515625,-0.9897613525390625,-0.020843505859375,0.00213623046875
1782846237685358600,0.886358642578125,-0.9900970458984375,-0.020111083984375,0.0016632080078125
1782846237695363600,0.896363525390625,-0.990570068359375,-0.0213623046875,0.002899169921875
1782846237705368600,0.90636865234375,-0.9901275634765625,-0.021942138671875,0.002655029296875
1782846237715373600,0.91637353515625,-0.99017333984375,-0.0207366943359375,0.0038909912109375
1782846237725378600,0.926378662109375,-0.99005126953125,-0.02197265625,0.003204345703125
1782846237735383600,0.936383544921875,-0.990753173828125,-0.0218963623046875,0.00128173828125
1782846237745388500,0.946388427734375,-0.9911651611328125,-0.0204010009765625,0.001708984375
1782846237755393500,0.9563935546875,-0.9918060302734375,-0.02093505859375,0.0026092529296875
1782846237765398500,0.9663984375,-0.9901275634765625,-0.0209503173828125,0.0024871826171875
1782846237775403500,0.976403564453125,-0.9906158447265625,-0.02178955078125,0.00323486328125
1782846237785407500,0.986407470703125,-0.989715576171875,-0.021209716796875,0.003814697265625
1782846237795412500,0.99641259765625,-0.9904937744140625,-0.022430419921875,0.001708984375
1782846237805417500,1.00641748046875,-0.991180419921875,-0.02032470703125,0.00347900390625
1782846237815422500,1.01642236328125,-0.9904022216796875,-0.0213165283203125,0.002593994140625
1782846237825427500,1.026427490234375,-0.9896240234375,-0.0216522216796875,0.0026702880859375
1782846237835432400,1.036432373046875,-0.989959716796875,-0.0217742919921875,0.0029754638671875
1782846237845437400,1.0464375,-0.9910736083984375,-0.02252197265625,0.0021209716796875
1782846237855442400,1.0564423828125,-0.9905242919921875,-0.0224609375,0.00244140625
1782846237865447400,1.066447509765625,-0.9912109375,-0.02197265625,0.0032958984375
1782846237875452400,1.076452392578125,-0.990570068359375,-0.020843505859375,0.001922607421875
1782846237885457400,1.08645751953125,-0.9913330078125,-0.021514892578125,0.0024566650390625
1782846237895462400,1.09646240234375,-0.990447998046875,-0.0211334228515625,0.0025482177734375
1782846237905467400,1.10646728515625,-0.9913787841796875,-0.0223846435546875,0.001800537109375
1782846237915472400,1.116472412109375,-0.991485595703125,-0.0199432373046875,0.00390625
1782846237925477600,1.1264775390625,-0.989959716796875,-0.020599365234375,0.002227783203125
1782846237935481600,1.136481689453125,-0.9911956787109375,-0.021484375,0.0027618408203125
1782846237945486600,1.146486572265625,-0.9894561767578125,-0.02008056640625,0.0019989013671875
1782846237955491600,1.15649169921875,-0.98822021484375,-0.0211944580078125,0.0030059814453125
1782846237965496600,1.16649658203125,-0.990753173828125,-0.0216217041015625,0.00384521484375
1782846237975501600,1.17650146484375,-0.989837646484375,-0.0214385986328125,0.0023956298828125
1782846237985506600,1.186506591796875,-0.9916534423828125,-0.0211181640625,0.0032196044921875
1782846237995511600,1.196511474609375,-0.98974609375,-0.02191162109375,0.0028533935546875
1782846238005516500,1.2065166015625,-0.9892730712890625,-0.0225067138671875,0.0030517578125
1782846238015521500,1.216521484375,-0.989837646484375,-0.0216827392578125,0.003082275390625
1782846238025526500,1.226526611328125,-0.9899444580078125,-0.0223236083984375,0.001007080078125
1782846238035531500,1.236531494140625,-0.9888763427734375,-0.0227203369140625,0.003570556640625
1782846238045536500,1.24653662109375,-0.9903717041015625,-0.0215606689453125,0.0037384033203125
1782846238055541500,1.25654150390625,-0.989471435546875,-0.0207977294921875,0.0021820068359375
1782846238065546500,1.26654638671875,-0.990386962890625,-0.0204010009765625,0.0018463134765625
1782846238075551500,1.276551513671875,-0.990936279296875,-0.0222015380859375,0.0030670166015625
1782846238085555500,1.286555419921875,-0.9910430908203125,-0.0213623046875,0.003509521484375
1782846238095560400,1.296560546875,-0.990142822265625,-0.02117919921875,0.0021820068359375
1782846238105565400,1.3065654296875,-0.9900970458984375,-0.02069091796875,0.001007080078125
1782846238115570400,1.3165703125,-0.991668701171875,-0.0208282470703125,0.003814697265625
1782846238125575400,1.326575439453125,-0.9896697998046875,-0.0204010009765625,0.0025482177734375
1782846238135580400,1.336580322265625,-0.9902801513671875,-0.019500732421875,0.001800537109375
1782846238145585700,1.346585693359375,-0.9903717041015625,-0.0208892822265625,0.003082275390625
1782846238155590700,1.356590576171875,-0.9904937744140625,-0.0206298828125,0.0034942626953125
1782846238165595600,1.366595703125,-0.9902496337890625,-0.0209197998046875,0.0029296875
1782846238175600600,1.3766005859375,-0.9910736083984375,-0.0219268798828125,0.0037689208984375
1782846238185605600,1.386605712890625,-0.9896392822265625,-0.022369384765625,0.0014495849609375
1782846238195610600,1.396610595703125,-0.990875244140625,-0.021697998046875,0.003173828125
1782846238205615600,1.40661572265625,-0.9900360107421875,-0.0212249755859375,0.004913330078125
1782846238215620600,1.41662060546875,-0.98992919921875,-0.02056884765625,0.004852294921875
1782846238225625600,1.42662548828125,-0.9903564453125,-0.021881103515625,0.0037078857421875
1782846238235629600,1.436629638671875,-0.9899444580078125,-0.0217132568359375,0.0021209716796875
1782846238245634600,1.446634521484375,-0.9905853271484375,-0.02239990234375,0.001373291015625
1782846238255639600,1.4566396484375,-0.991912841796875,-0.0213165283203125,0.002105712890625
1782846238265644500,1.46664453125,-0.990570068359375,-0.022003173828125,0.0037078857421875
1782846238275649500,1.4766494140625,-0.9911346435546875,-0.021270751953125,0.00390625
1782846238285654500,1.486654541015625,-0.9916839599609375,-0.0204315185546875,0.002197265625
1782846238295659500,1.496659423828125,-0.9913787841796875,-0.0209503173828125,0.00115966796875
1782846238305664500,1.50666455078125,-0.99237060546875,-0.0227203369140625,0.0014190673828125
1782846238315669500,1.51666943359375,-0.990142822265625,-0.0197906494140625,0.001129150390625
1782846238325674500,1.526674560546875,-0.9915008544921875,-0.0209808349609375,0.0016632080078125
1782846238335679500,1.536679443359375,-0.9914703369140625,-0.02239990234375,0.00299072265625
1782846238345684500,1.5466845703125,-0.989471435546875,-0.0214080810546875,0.002410888671875
1782846238355689500,1.556689453125,-0.9902191162109375,-0.02197265625,0.0025634765625
1782846238365694500,1.566694580078125,-0.9915924072265625,-0.023162841796875,0.00445556640625
1782846238375699500,1.576699462890625,-0.991241455078125,-0.02227783203125,0.0042572021484375
1782846238385703700,1.58670361328125,-0.9906463623046875,-0.021514892578125,0.0023956298828125
1782846238395708700,1.596708740234375,-0.9920806884765625,-0.0221710205078125,0.002471923828125
1782846238405713700,1.606713623046875,-0.9901123046875,-0.01959228515625,0.003204345703125
1782846238415718700,1.61671875,-0.9901275634765625,-0.020263671875,0.0038909912109375
1782846238425723600,1.6267236328125,-0.990875244140625,-0.023223876953125,0.0019378662109375
1782846238435728600,1.636728759765625,-0.9905242919921875,-0.0210723876953125,0.0033721923828125
1782846238445733600,1.646733642578125,-0.99005126953125,-0.0222015380859375,0.00311279296875
1782846238455738600,1.656738525390625,-0.9915771484375,-0.02081298828125,0.0034027099609375
1782846238465743600,1.66674365234375,-0.9910888671875,-0.021209716796875,0.002593994140625
1782846238475748600,1.67674853515625,-0.991180419921875,-0.02154541015625,0.0032958984375
1782846238485753600,1.686753662109375,-0.9907989501953125,-0.020965576171875,0.0039825439453125
1782846238495758600,1.696758544921875,-0.990631103515625,-0.020538330078125,0.0026397705078125
1782846238505763600,1.706763671875,-0.9911346435546875,-0.020660400390625,0.0042724609375
1782846238515768600,1.7167685546875,-0.991912841796875,-0.0211944580078125,0.0040283203125
1782846238525773600,1.726773681640625,-0.9918670654296875,-0.023345947265625,0.00213623046875
1782846238535777500,1.736777587890625,-0.990020751953125,-0.0222930908203125,0.00189208984375
1782846238545782500,1.746782470703125,-0.9916839599609375,-0.021240234375,0.0023040771484375
1782846238555787500,1.75678759765625,-0.9917755126953125,-0.0224151611328125,0.00457763671875
1782846238565792500,1.76679248046875,-0.9906463623046875,-0.0225372314453125,0.00299072265625
1782846238575797500,1.776797607421875,-0.9908447265625,-0.0208740234375,0.00390625
1782846238585802500,1.786802490234375,-0.991485595703125,-0.0207977294921875,0.0025482177734375
1782846238595807500,1.796807373046875,-0.99029541015625,-0.022430419921875,0.0028076171875
1782846238605812500,1.8068125,-0.988616943359375,-0.0226287841796875,0.0021820068359375
1782846238615817500,1.8168173828125,-0.991058349609375,-0.0223236083984375,0.001800537109375
1782846238625822500,1.826822509765625,-0.99139404296875,-0.0221405029296875,0.0029754638671875
1782846238635827500,1.836827392578125,-0.9911041259765625,-0.0215606689453125,0.002349853515625
1782846238645832400,1.84683251953125,-0.99053955078125,-0.022491455078125,0.0039215087890625
1782846238655837400,1.85683740234375,-0.9911651611328125,-0.021240234375,0.0028839111328125
1782846238665842400,1.866842529296875,-0.9912109375,-0.021636962890625,0.002532958984375
1782846238675847400,1.876847412109375,-0.990478515625,-0.0205230712890625,0.0016937255859375
1782846238685852400,1.886852294921875,-0.991546630859375,-0.0206146240234375,0.0022735595703125
1782846238695856600,1.896856689453125,-0.9909515380859375,-0.020263671875,0.0019989013671875
1782846238705861600,1.906861572265625,-0.9914703369140625,-0.020538330078125,0.003265380859375
1782846238715866600,1.91686669921875,-0.991912841796875,-0.0203094482421875,0.0037689208984375
1782846238725871600,1.92687158203125,-0.9898834228515625,-0.0225677490234375,0.0039215087890625
1782846238735876600,1.936876708984375,-0.989959716796875,-0.0225677490234375,0.0026092529296875
1782846238745881600,1.946881591796875,-0.9906463623046875,-0.0231475830078125,0.00201416015625
1782846238755886600,1.956886474609375,-0.9916229248046875,-0.021240234375,0.0022735595703125
1782846238765891600,1.9668916015625,-0.9916839599609375,-0.0216064453125,0.00390625
1782846238775896600,1.976896484375,-0.991058349609375,-0.02130126953125,0.0012359619140625
1782846238785901600,1.986901611328125,-0.990631103515625,-0.02191162109375,0.0029754638671875
1782846238795906600,1.996906494140625,-0.99029541015625,-0.021636962890625,0.0032958984375
1782846238805911600,2.00691162109375,-0.9906463623046875,-0.0218048095703125,0.003173828125
1782846238815916500,2.01691650390625,-0.9909820556640625,-0.02099609375,0.002471923828125
1782846238825921500,2.026921630859375,-0.9918060302734375,-0.0203399658203125,0.002593994140625
1782846238835926500,2.036926513671875,-0.989593505859375,-0.021514892578125,0.0026702880859375
1782846238845930500,2.046930419921875,-0.990814208984375,-0.0221405029296875,0.0037689208984375
1782846238855935500,2.056935546875,-0.9916839599609375,-0.0210113525390625,0.0020751953125
1782846238865940500,2.0669404296875,-0.990081787109375,-0.021453857421875,0.0030670166015625
1782846238875945500,2.076945556640625,-0.990936279296875,-0.0210723876953125,0.002288818359375
1782846238885950500,2.086950439453125,-0.9922027587890625,-0.019989013671875,0.00140380859375
1782846238895955500,2.09695556640625,-0.990509033203125,-0.0216217041015625,0.0014801025390625
1782846238905960400,2.10696044921875,-0.9905242919921875,-0.0215301513671875,0.00238037109375
1782846238915965400,2.11696533203125,-0.9911956787109375,-0.0229339599609375,0.0032196044921875
1782846238925970400,2.126970458984375,-0.990447998046875,-0.02166748046875,0.0032806396484375
1782846238935975400,2.136975341796875,-0.991302490234375,-0.019989013671875,0.002288818359375
1782846238945980700,2.146980712890625,-0.99066162109375,-0.0224456787109375,0.00274658203125
1782846238955985700,2.156985595703125,-0.990081787109375,-0.021209716796875,0.00335693359375
1782846238965990700,2.16699072265625,-0.989776611328125,-0.020538330078125,0.0041961669921875
1782846238975995600,2.17699560546875,-0.990966796875,-0.0224761962890625,0.00341796875
1782846238986000600,2.187000732421875,-0.9903411865234375,-0.021209716796875,0.0019378662109375
1782846238996005600,2.197005615234375,-0.988525390625,-0.0215911865234375,0.0029449462890625
1782846239006009600,2.207009521484375,-0.9909210205078125,-0.02215576171875,0.0018768310546875
1782846239016014600,2.2170146484375,-0.99041748046875,-0.0210418701171875,0.00079345703125
1782846239026019600,2.22701953125,-0.9911651611328125,-0.0205230712890625,0.000946044921875
1782846239036024600,2.237024658203125,-0.9909210205078125,-0.02203369140625,0.003021240234375
1782846239046029600,2.247029541015625,-0.990264892578125,-0.021759033203125,0.002227783203125
1782846239056034600,2.25703466796875,-0.99041748046875,-0.0213470458984375,0.002197265625
1782846239066039600,2.26703955078125,-0.9903564453125,-0.021484375,0.0025177001953125
1782846239076044500,2.27704443359375,-0.9903106689453125,-0.0220947265625,0.0035247802734375
1782846239086049500,2.287049560546875,-0.992034912109375,-0.0213470458984375,0.0025482177734375
1782846239096054500,2.297054443359375,-0.9900665283203125,-0.0224609375,0.0030059814453125
1782846239106059500,2.3070595703125,-0.99188232421875,-0.022857666015625,0.0024871826171875
1782846239116064500,2.317064453125,-0.989471435546875,-0.0207977294921875,0.0010528564453125
1782846239126069500,2.327069580078125,-0.990234375,-0.0198822021484375,0.0031890869140625
1782846239136074500,2.337074462890625,-0.990020751953125,-0.021484375,0.003662109375
1782846239146079500,2.34707958984375,-0.990814208984375,-0.022247314453125,0.003662109375
1782846239156083500,2.35708349609375,-0.991058349609375,-0.02288818359375,0.0017242431640625
1782846239166088700,2.367088623046875,-0.9905548095703125,-0.02069091796875,0.0026092529296875
1782846239176093700,2.37709375,-0.991424560546875,-0.02227783203125,0.002685546875
1782846239186098700,2.3870986328125,-0.990478515625,-0.0222320556640625,0.0040435791015625
1782846239196103700,2.397103759765625,-0.9894866943359375,-0.021453857421875,0.003204345703125
1782846239206108700,2.407108642578125,-0.9908294677734375,-0.0218963623046875,0.0036163330078125
1782846239216113700,2.41711376953125,-0.9906768798828125,-0.0213623046875,0.002838134765625
1782846239226118700,2.42711865234375,-0.9918670654296875,-0.02130126953125,0.00115966796875
1782846239236123600,2.43712353515625,-0.9917144775390625,-0.023101806640625,0.0031890869140625
1782846239246128600,2.447128662109375,-0.9900054931640625,-0.022003173828125,0.0016021728515625
1782846239256133600,2.457133544921875,-0.9897308349609375,-0.02142333984375,0.002838134765625
1782846239266138600,2.467138671875,-0.9915924072265625,-0.020660400390625,0.0035552978515625
1782846239276143600,2.4771435546875,-0.9917449951171875,-0.022064208984375,0.003173828125
1782846239286148600,2.487148681640625,-0.99127197265625,-0.0214080810546875,0.0041351318359375
1782846239296153600,2.497153564453125,-0.9910888671875,-0.0230255126953125,0.0022430419921875
1782846239306158600,2.50715869140625,-0.98919677734375,-0.022796630859375,0.0025177001953125
1782846239316162600,2.51716259765625,-0.9899139404296875,-0.022308349609375,0.0030670166015625
1782846239326167600,2.52716748046875,-0.991455078125,-0.0223541259765625,0.0028228759765625
1782846239336172500,2.537172607421875,-0.9907684326171875,-0.021026611328125,0.0032196044921875
1782846239346177500,2.547177490234375,-0.9908447265625,-0.0211334228515625,0.0042877197265625
1782846239356182500,2.5571826171875,-0.989654541015625,-0.0213470458984375,0.003143310546875
1782846239366187500,2.5671875,-0.99029541015625,-0.021270751953125,0.0021820068359375
1782846239376192500,2.577192626953125,-0.990386962890625,-0.0218505859375,0.001251220703125
1782846239386197500,2.587197509765625,-0.991058349609375,-0.0220794677734375,0.0031890869140625
1782846239396202500,2.597202392578125,-0.9903564453125,-0.0218353271484375,0.00244140625
1782846239406207500,2.60720751953125,-0.9906158447265625,-0.021881103515625,0.000030517578125
1782846239416212500,2.61721240234375,-0.9890899658203125,-0.021820068359375,0.002227783203125
1782846239426217500,2.627217529296875,-0.99102783203125,-0.0212249755859375,0.0035858154296875
1782846239436222500,2.637222412109375,-0.991607666015625,-0.02239990234375,0.0029144287109375
1782846239446227500,2.6472275390625,-0.992767333984375,-0.0216217041015625,0.0020294189453125
1782846239456232400,2.657232421875,-0.9921112060546875,-0.0201416015625,0.003448486328125
1782846239466236700,2.667236572265625,-0.9918212890625,-0.0218963623046875,0.004425048828125
1782846239476241700,2.67724169921875,-0.990692138671875,-0.022705078125,0.0030517578125
1782846239486246700,2.68724658203125,-0.9908294677734375,-0.0210418701171875,0.0017547607421875
1782846239496251600,2.697251708984375,-0.990875244140625,-0.0228729248046875,0.002197265625
1782846239506256600,2.707256591796875,-0.990142822265625,-0.0213165283203125,0.0040130615234375
1782846239516261600,2.71726171875,-0.990447998046875,-0.022308349609375,0.0024871826171875
1782846239526266600,2.7272666015625,-0.9906768798828125,-0.0228271484375,0.0020904541015625
1782846239536271600,2.737271728515625,-0.9898681640625,-0.0209197998046875,0.002532958984375
1782846239546276600,2.747276611328125,-0.989715576171875,-0.0212860107421875,0.002471923828125
1782846239556281600,2.757281494140625,-0.9905242919921875,-0.02099609375,0.0008392333984375
1782846239566286600,2.76728662109375,-0.9915008544921875,-0.0215606689453125,0.0024261474609375
1782846239576291600,2.77729150390625,-0.9912261962890625,-0.0224761962890625,0.0039215087890625
1782846239586296600,2.787296630859375,-0.9900360107421875,-0.021820068359375,0.002685546875
1782846239596301600,2.797301513671875,-0.9894866943359375,-0.02215576171875,0.0022735595703125
1782846239606306600,2.807306640625,-0.990203857421875,-0.0214080810546875,0.002777099609375
1782846239616311600,2.8173115234375,-0.9925537109375,-0.022186279296875,0.0023193359375
1782846239626315500,2.8273154296875,-0.99176025390625,-0.0218353271484375,0.0025787353515625
1782846239636320500,2.837320556640625,-0.9895782470703125,-0.0219268798828125,0.0028533935546875
1782846239646325500,2.847325439453125,-0.9907073974609375,-0.0225067138671875,0.0018157958984375
1782846239656330500,2.85733056640625,-0.9906463623046875,-0.021484375,0.0021820068359375
1782846239666335500,2.86733544921875,-0.990142822265625,-0.0218658447265625,0.00274658203125
1782846239676340500,2.877340576171875,-0.9902496337890625,-0.0225830078125,0.0025634765625
1782846239686345500,2.887345458984375,-0.9912109375,-0.0222930908203125,0.00238037109375
1782846239696350500,2.8973505859375,-0.9905242919921875,-0.02154541015625,0.0028839111328125
1782846239706355500,2.90735546875,-0.991455078125,-0.0216064453125,0.002777099609375
1782846239716360400,2.9173603515625,-0.989837646484375,-0.022308349609375,0.002838134765625
1782846239726365400,2.927365478515625,-0.9898223876953125,-0.023223876953125,0.00274658203125
1782846239736370700,2.93737060546875,-0.9913177490234375,-0.021484375,0.0039520263671875
1782846239746375700,2.947375732421875,-0.9900970458984375,-0.0212860107421875,0.004730224609375
1782846239756380700,2.957380615234375,-0.99188232421875,-0.0211944580078125,0.001434326171875
1782846239766385700,2.9673857421875,-0.9892578125,-0.02154541015625,0.00189208984375
1782846239776389600,2.9773896484375,-0.9901275634765625,-0.023284912109375,0.003204345703125
1782846239786394600,2.98739453125,-0.9894561767578125,-0.02191162109375,0.0033416748046875
1782846239796399600,2.997399658203125,-0.9901123046875,-0.0203857421875,0.00164794921875
1782846239806404600,3.007404541015625,-0.9899444580078125,-0.0211334228515625,0.0025634765625
1782846239816409600,3.01740966796875,-0.9907989501953125,-0.0210723876953125,0.0035552978515625
1782846239826414600,3.02741455078125,-0.9916229248046875,-0.0215606689453125,0.0018768310546875
1782846239836419600,3.037419677734375,-0.9914093017578125,-0.01995849609375,0.00238037109375
1782846239846424600,3.047424560546875,-0.9899749755859375,-0.0216217041015625,0.0021514892578125
1782846239856429600,3.0574296875,-0.9905548095703125,-0.020965576171875,0.0024261474609375
1782846239866434600,3.0674345703125,-0.9916229248046875,-0.02081298828125,0.0028076171875
1782846239876439600,3.077439453125,-0.9905548095703125,-0.02154541015625,0.0025634765625
1782846239886444500,3.087444580078125,-0.9898529052734375,-0.02178955078125,0.002838134765625
1782846239896449500,3.097449462890625,-0.9904632568359375,-0.0206298828125,0.0019683837890625
1782846239906454500,3.10745458984375,-0.9890899658203125,-0.0211029052734375,0.0017547607421875
1782846239916459500,3.11745947265625,-0.9900970458984375,-0.02197265625,0.0037994384765625
1782846239926463500,3.12746337890625,-0.989349365234375,-0.0214080810546875,0.003387451171875
1782846239936468500,3.137468505859375,-0.98907470703125,-0.0205535888671875,0.004730224609375
1782846239946473500,3.147473388671875,-0.99090576171875,-0.020782470703125,0.0048828125
1782846239956478700,3.157478759765625,-0.9915771484375,-0.0211181640625,0.00360107421875
1782846239966483700,3.167483642578125,-0.9907379150390625,-0.0217132568359375,0.0028533935546875
1782846239976488700,3.17748876953125,-0.9919586181640625,-0.0221710205078125,0.00439453125
1782846239986493700,3.18749365234375,-0.99090576171875,-0.0211639404296875,0.0029296875
1782846239996498700,3.197498779296875,-0.9912109375,-0.021026611328125,0.000823974609375
1782846240006503700,3.207503662109375,-0.9916534423828125,-0.02166748046875,0.0022430419921875
1782846240016508700,3.2175087890625,-0.9909515380859375,-0.0215606689453125,0.0020294189453125
1782846240026513700,3.227513671875,-0.9904937744140625,-0.021270751953125,0.00274658203125
1782846240036518700,3.2375185546875,-0.99072265625,-0.021209716796875,0.0040130615234375
1782846240046523600,3.247523681640625,-0.9915313720703125,-0.021453857421875,0.000732421875
1782846240056528600,3.257528564453125,-0.991058349609375,-0.0206146240234375,0.0015106201171875
1782846240066533600,3.26753369140625,-0.9903564453125,-0.0221099853515625,0.0035247802734375
1782846240076538600,3.27753857421875,-0.990020751953125,-0.02294921875,0.0017852783203125
1782846240086542600,3.28754248046875,-0.9906005859375,-0.02264404296875,0.0044097900390625
1782846240096547600,3.297547607421875,-0.9898223876953125,-0.020782470703125,0.0038604736328125
1782846240106552600,3.307552490234375,-0.9895477294921875,-0.0211029052734375,0.001861572265625
1782846240116557600,3.3175576171875,-0.9910430908203125,-0.0219573974609375,0.0024566650390625
1782846240126562600,3.3275625,-0.991058349609375,-0.0212860107421875,0.0030364990234375
1782846240136567600,3.337567626953125,-0.9912567138671875,-0.0212860107421875,0.00146484375
1782846240146572500,3.347572509765625,-0.9905853271484375,-0.0214691162109375,0.0029296875
1782846240156577500,3.35757763671875,-0.9905548095703125,-0.02081298828125,0.0013275146484375
1782846240166582500,3.36758251953125,-0.9912872314453125,-0.0213623046875,0.0036163330078125
1782846240176587500,3.37758740234375,-0.99066162109375,-0.0222625732421875,0.0031890869140625
1782846240186592500,3.387592529296875,-0.9900970458984375,-0.0224609375,0.0030059814453125
1782846240196597500,3.397597412109375,-0.990386962890625,-0.0206756591796875,0.003143310546875
1782846240206602500,3.4076025390625,-0.9902496337890625,-0.021270751953125,0.0020599365234375
1782846240216607500,3.417607421875,-0.9902801513671875,-0.022125244140625,0.0032806396484375
1782846240226612500,3.427612548828125,-0.9891815185546875,-0.0213470458984375,0.0048828125
1782846240236616700,3.43761669921875,-0.990142822265625,-0.020904541015625,0.0029144287109375
1782846240246621700,3.44762158203125,-0.9900054931640625,-0.0220489501953125,0.0015106201171875
1782846240256626700,3.457626708984375,-0.9892578125,-0.020782470703125,0.0034332275390625
1782846240266631700,3.467631591796875,-0.9900054931640625,-0.0218505859375,0.0036773681640625
1782846240276636700,3.47763671875,-0.990447998046875,-0.0208892822265625,0.004486083984375
1782846240286641700,3.4876416015625,-0.989501953125,-0.0218048095703125,0.0034942626953125
1782846240296646700,3.497646728515625,-0.9910888671875,-0.022003173828125,0.00323486328125
1782846240306651600,3.507651611328125,-0.9898834228515625,-0.0211334228515625,0.00152587890625
1782846240316656600,3.51765673828125,-0.9903411865234375,-0.0224151611328125,0.0021514892578125
1782846240326661600,3.52766162109375,-0.9903564453125,-0.0219573974609375,0.00262451171875
1782846240336666600,3.53766650390625,-0.989105224609375,-0.020843505859375,0.0023956298828125
1782846240346671600,3.547671630859375,-0.990203857421875,-0.0212860107421875,0.0018768310546875
1782846240356676600,3.557676513671875,-0.9899444580078125,-0.0216064453125,0.00225830078125
1782846240366681600,3.567681640625,-0.9897918701171875,-0.020965576171875,0.0034942626953125
1782846240376686600,3.5776865234375,-0.991180419921875,-0.0212860107421875,0.0027923583984375
1782846240386690600,3.587690673828125,-0.9911956787109375,-0.0216217041015625,0.0031890869140625
1782846240396695600,3.597695556640625,-0.988433837890625,-0.02215576171875,0.0026702880859375
1782846240406700500,3.607700439453125,-0.9893646240234375,-0.0213470458984375,0.0034027099609375
1782846240416705500,3.61770556640625,-0.9895782470703125,-0.02197265625,0.001800537109375
1782846240426710500,3.62771044921875,-0.9911346435546875,-0.019927978515625,0.0018157958984375
1782846240436715500,3.637715576171875,-0.9904022216796875,-0.0207061767578125,0.002777099609375
1782846240446720500,3.647720458984375,-0.9917144775390625,-0.02178955078125,0.0024566650390625
1782846240456725500,3.6577255859375,-0.993438720703125,-0.02227783203125,0.0035552978515625
1782846240466730500,3.66773046875,-0.99041748046875,-0.0218658447265625,0.002899169921875
1782846240476735500,3.677735595703125,-0.989105224609375,-0.02105712890625,0.0027923583984375
1782846240486740500,3.687740478515625,-0.990509033203125,-0.020111083984375,0.002593994140625
1782846240496745500,3.697745361328125,-0.9905548095703125,-0.0207672119140625,0.0018310546875
1782846240506750500,3.70775048828125,-0.9907989501953125,-0.0216522216796875,0.002899169921875
1782846240516755500,3.71775537109375,-0.989593505859375,-0.0213775634765625,0.0021820068359375
1782846240526760200,3.72776025390625,-0.989959716796875,-0.02154541015625,0.0031280517578125
1782846240536764200,3.73776416015625,-0.99151611328125,-0.0216064453125,0.003173828125
1782846240546769200,3.74776904296875,-0.9907073974609375,-0.020782470703125,0.001495361328125
1782846240556774100,3.757774169921875,-0.991668701171875,-0.0212860107421875,0.0009918212890625
1782846240566779100,3.767779052734375,-0.9899444580078125,-0.0203399658203125,0.00250244140625
1782846240576784100,3.7777841796875,-0.9899139404296875,-0.022918701171875,0.002716064453125
1782846240586789000,3.7877890625,-0.9900970458984375,-0.022216796875,0.00201416015625
1782846240596794000,3.797794189453125,-0.9886932373046875,-0.02142333984375,0.0029144287109375
1782846240606799000,3.807799072265625,-0.9907684326171875,-0.0216217041015625,0.00299072265625
1782846240616804000,3.81780419921875,-0.9911041259765625,-0.020843505859375,0.0010528564453125
1782846240626809000,3.82780908203125,-0.9889984130859375,-0.02239990234375,0.0011749267578125
1782846240636814000,3.83781396484375,-0.99102783203125,-0.02191162109375,0.002899169921875
1782846240646819000,3.847819091796875,-0.9903106689453125,-0.0210418701171875,0.0037078857421875
1782846240656824000,3.857823974609375,-0.9900360107421875,-0.0210418701171875,0.003448486328125
1782846240666829000,3.8678291015625,-0.991058349609375,-0.020660400390625,0.004180908203125
1782846240676833300,3.877833251953125,-0.989166259765625,-0.02215576171875,0.004150390625
1782846240686838300,3.88783837890625,-0.990447998046875,-0.020904541015625,0.0027923583984375
1782846240696843300,3.89784326171875,-0.990692138671875,-0.0222625732421875,0.00311279296875
1782846240706848300,3.90784814453125,-0.9891357421875,-0.0221099853515625,0.0024871826171875
1782846240716853200,3.917853271484375,-0.9904937744140625,-0.021209716796875,0.00225830078125
1782846240726858200,3.927858154296875,-0.9909515380859375,-0.0208587646484375,0.0026092529296875
1782846240736863200,3.93786328125,-0.990814208984375,-0.02056884765625,0.0027008056640625
1782846240746868200,3.9478681640625,-0.99066162109375,-0.020721435546875,0.002716064453125
1782846240756873200,3.957873291015625,-0.9899444580078125,-0.0213775634765625,0.003021240234375
1782846240766878200,3.967878173828125,-0.9908294677734375,-0.0212249755859375,0.002105712890625
1782846240776883200,3.97788330078125,-0.9918212890625,-0.0223236083984375,0.0031890869140625
1782846240786888200,3.98788818359375,-0.98980712890625,-0.0224609375,0.003814697265625
1782846240796893200,3.99789306640625,-0.9902191162109375,-0.0222625732421875,0.003875732421875
1782846240806898200,4.007898193359375,-0.99041748046875,-0.0222625732421875,0.0030975341796875
1782846240816902100,4.017902099609375,-0.98956298828125,-0.0218505859375,0.0024566650390625
1782846240826907100,4.0279072265625,-0.9913177490234375,-0.0205841064453125,0.0029754638671875
1782846240836912000,4.037912109375,-0.99005126953125,-0.02264404296875,0.002197265625
1782846240846917000,4.047917236328125,-0.9898834228515625,-0.021240234375,0.002288818359375
1782846240856922000,4.057922119140625,-0.990936279296875,-0.0214080810546875,0.00225830078125
1782846240866927000,4.067927001953125,-0.989959716796875,-0.0220184326171875,0.001953125
1782846240876932000,4.07793212890625,-0.9900665283203125,-0.0214080810546875,0.0025634765625
1782846240886937000,4.08793701171875,-0.9906463623046875,-0.0215301513671875,0.0037078857421875
1782846240896942000,4.097942138671875,-0.989898681640625,-0.0203399658203125,0.004241943359375
1782846240906947000,4.107947021484375,-0.990020751953125,-0.0223541259765625,0.003387451171875
1782846240916952000,4.1179521484375,-0.989837646484375,-0.0210723876953125,0.00189208984375
1782846240926957000,4.12795703125,-0.99053955078125,-0.0212554931640625,0.0006103515625
1782846240936962000,4.137962158203125,-0.9904937744140625,-0.0224151611328125,0.003814697265625
1782846240946967000,4.147967041015625,-0.9898223876953125,-0.0212860107421875,0.0011749267578125
1782846240956972000,4.157971923828125,-0.9917144775390625,-0.021331787109375,0.0033416748046875
1782846240966977000,4.16797705078125,-0.9912872314453125,-0.0211639404296875,0.0035247802734375
1782846240976981200,4.177981201171875,-0.9913177490234375,-0.02099609375,0.0023193359375
1782846240986986200,4.187986328125,-0.9906158447265625,-0.021514892578125,0.00262451171875
1782846240996991200,4.1979912109375,-0.9905853271484375,-0.0220489501953125,0.0027618408203125
1782846241006996200,4.207996337890625,-0.9913330078125,-0.0233001708984375,0.002532958984375
1782846241017001200,4.218001220703125,-0.9911041259765625,-0.020355224609375,0.002410888671875
1782846241027006200,4.228006103515625,-0.9907379150390625,-0.0229339599609375,0.004730224609375
1782846241037011200,4.23801123046875,-0.9901123046875,-0.0224456787109375,0.00225830078125
1782846241047016200,4.24801611328125,-0.9903717041015625,-0.021148681640625,0.002105712890625
1782846241057021200,4.258021240234375,-0.9908599853515625,-0.02197265625,0.003173828125
1782846241067026200,4.268026123046875,-0.990386962890625,-0.02191162109375,0.004180908203125
1782846241077031200,4.27803125,-0.9910888671875,-0.0205230712890625,0.00360107421875
1782846241087036200,4.2880361328125,-0.9916839599609375,-0.0211639404296875,0.00390625
1782846241097041200,4.298041259765625,-0.989837646484375,-0.020782470703125,0.003082275390625
1782846241107046100,4.308046142578125,-0.9908905029296875,-0.02154541015625,0.001922607421875
1782846241117051100,4.318051025390625,-0.990020751953125,-0.0212860107421875,0.001007080078125
1782846241127055000,4.32805517578125,-0.991455078125,-0.020111083984375,0.0024871826171875
1782846241137060000,4.33806005859375,-0.9889373779296875,-0.0218505859375,0.0034027099609375
1782846241147065000,4.348065185546875,-0.9894256591796875,-0.02178955078125,0.00469970703125
1782846241157070000,4.358070068359375,-0.9905853271484375,-0.0205078125,0.002716064453125
1782846241167075000,4.368074951171875,-0.9893646240234375,-0.0219573974609375,0.00372314453125
1782846241177080000,4.378080078125,-0.9902801513671875,-0.0206756591796875,0.0035858154296875
1782846241187085000,4.3880849609375,-0.9912872314453125,-0.0218353271484375,0.002227783203125
1782846241197090000,4.398090087890625,-0.9906005859375,-0.021575927734375,0.0021209716796875
1782846241207095000,4.408094970703125,-0.9908599853515625,-0.0204925537109375,0.0022125244140625
1782846241217100000,4.41810009765625,-0.990692138671875,-0.0238800048828125,0.0033416748046875
1782846241227105000,4.42810498046875,-0.9915618896484375,-0.0229034423828125,0.003387451171875
1782846241237110000,4.438110107421875,-0.989837646484375,-0.0210418701171875,0.0034027099609375
1782846241247115000,4.448114990234375,-0.9905548095703125,-0.0225982666015625,0.003204345703125
1782846241257120300,4.458120361328125,-0.9901885986328125,-0.0212554931640625,0.0019989013671875
1782846241267125200,4.468125244140625,-0.9885711669921875,-0.022186279296875,0.0036773681640625
1782846241277129200,4.478129150390625,-0.9890899658203125,-0.022979736328125,0.0022430419921875
1782846241287134200,4.48813427734375,-0.990447998046875,-0.021728515625,0.0029449462890625
1782846241297139200,4.49813916015625,-0.9904327392578125,-0.021331787109375,0.0029449462890625
1782846241307144200,4.508144287109375,-0.9889984130859375,-0.020538330078125,0.0029296875
1782846241317149200,4.518149169921875,-0.99151611328125,-0.0220489501953125,0.0044097900390625
1782846241327154200,4.528154296875,-0.9898529052734375,-0.021942138671875,0.0015106201171875
1782846241337159200,4.5381591796875,-0.9904937744140625,-0.0222320556640625,0.0025177001953125
1782846241347164200,4.5481640625,-0.9912261962890625,-0.0216064453125,0.002716064453125
1782846241357169200,4.558169189453125,-0.9902191162109375,-0.022918701171875,0.0045623779296875
1782846241367174100,4.568174072265625,-0.989898681640625,-0.021148681640625,0.002777099609375
1782846241377179100,4.57817919921875,-0.9901123046875,-0.0210723876953125,0.0030059814453125
1782846241387184000,4.58818408203125,-0.99005126953125,-0.0215911865234375,0.0035552978515625
1782846241397189000,4.598189208984375,-0.9915924072265625,-0.020904541015625,0.0029144287109375
1782846241407194000,4.608194091796875,-0.99041748046875,-0.0222015380859375,0.0038299560546875
1782846241417198000,4.618197998046875,-0.990570068359375,-0.023345947265625,0.00396728515625
1782846241427203000,4.628203125,-0.9901580810546875,-0.02166748046875,0.0031890869140625
1782846241437208000,4.6382080078125,-0.990386962890625,-0.020660400390625,0.003814697265625
1782846241447213000,4.648213134765625,-0.990264892578125,-0.021331787109375,0.002410888671875
1782846241457218000,4.658218017578125,-0.9888458251953125,-0.02081298828125,0.0014801025390625
1782846241467223000,4.66822314453125,-0.990142822265625,-0.0225372314453125,0.001220703125
1782846241477228300,4.678228271484375,-0.99066162109375,-0.0223846435546875,0.00323486328125
1782846241487233300,4.6882333984375,-0.9916839599609375,-0.02203369140625,0.003448486328125
1782846241497238300,4.69823828125,-0.991485595703125,-0.020538330078125,0.0023345947265625
1782846241507243300,4.7082431640625,-0.990631103515625,-0.0214996337890625,0.0007476806640625
1782846241517248300,4.718248291015625,-0.98828125,-0.0226287841796875,0.002899169921875
1782846241527253200,4.728253173828125,-0.9892425537109375,-0.0227203369140625,0.002044677734375
1782846241537258200,4.73825830078125,-0.9917449951171875,-0.021636962890625,0.0010528564453125
1782846241547263200,4.74826318359375,-0.9904327392578125,-0.0206146240234375,0.0035858154296875
1782846241557267200,4.75826708984375,-0.98931884765625,-0.021820068359375,0.00396728515625
1782846241567272200,4.768272216796875,-0.9908905029296875,-0.0214080810546875,0.0035247802734375
1782846241577277200,4.778277099609375,-0.9908294677734375,-0.02069091796875,0.001678466796875
1782846241587282200,4.7882822265625,-0.9909515380859375,-0.02154541015625,0.003021240234375
1782846241597287200,4.798287109375,-0.9908599853515625,-0.022064208984375,0.0027618408203125
1782846241607292200,4.808292236328125,-0.9912109375,-0.0195465087890625,0.0023193359375
1782846241617297200,4.818297119140625,-0.9893341064453125,-0.0218048095703125,0.0022125244140625
1782846241627302100,4.82830224609375,-0.99029541015625,-0.022705078125,0.002716064453125
1782846241637307100,4.83830712890625,-0.9901123046875,-0.02197265625,0.0035552978515625
1782846241647312100,4.84831201171875,-0.9893798828125,-0.0213775634765625,0.0039825439453125
1782846241657317000,4.858317138671875,-0.99078369140625,-0.0218353271484375,0.00384521484375
1782846241667322000,4.868322021484375,-0.9913787841796875,-0.020843505859375,0.002410888671875
1782846241677327000,4.8783271484375,-0.9901123046875,-0.0218963623046875,0.001922607421875
1782846241687332000,4.88833203125,-0.990631103515625,-0.021728515625,0.002471923828125
1782846241697336300,4.89833642578125,-0.9907989501953125,-0.0217132568359375,0.0030670166015625
1782846241707341300,4.90834130859375,-0.9909820556640625,-0.021392822265625,0.0027923583984375
1782846241717346300,4.91834619140625,-0.991455078125,-0.0205078125,0.002166748046875
1782846241727351300,4.928351318359375,-0.9909515380859375,-0.022613525390625,0.0039520263671875
1782846241737356300,4.938356201171875,-0.9914398193359375,-0.02239990234375,0.00244140625
1782846241747361300,4.948361328125,-0.9909820556640625,-0.02215576171875,0.0023345947265625
1782846241757366300,4.9583662109375,-0.990478515625,-0.02252197265625,0.0028839111328125
1782846241767371300,4.968371337890625,-0.9917144775390625,-0.01995849609375,0.001983642578125
1782846241777376300,4.978376220703125,-0.9915008544921875,-0.0215911865234375,0.0024871826171875
1782846241787381200,4.98838134765625,-0.990570068359375,-0.0214691162109375,0.0027618408203125
1782846241797386200,4.99838623046875,-0.9907379150390625,-0.021026611328125,0.00244140625
1782846241807391200,5.00839111328125,-0.9897918701171875,-0.02227783203125,0.0032958984375
1782846241817396200,5.018396240234375,-0.99078369140625,-0.0219268798828125,0.0034637451171875
1782846241827401200,5.028401123046875,-0.9894866943359375,-0.0224456787109375,0.0034027099609375
1782846241837406200,5.03840625,-0.9903411865234375,-0.0217437744140625,0.00347900390625
1782846241847410200,5.04841015625,-0.9896240234375,-0.0225067138671875,0.002349853515625
1782846241857415200,5.058415283203125,-0.99102783203125,-0.022003173828125,0.002685546875
1782846241867420200,5.068420166015625,-0.98980712890625,-0.0211029052734375,0.0014190673828125
1782846241877425200,5.078425048828125,-0.989990234375,-0.0224456787109375,0.0037689208984375
1782846241887430100,5.08843017578125,-0.9892578125,-0.0231170654296875,0.00286865234375
1782846241897435100,5.09843505859375,-0.9897003173828125,-0.0213623046875,0.001190185546875
1782846241907440000,5.108440185546875,-0.99114990234375,-0.0213623046875,0.0029296875
1782846241917445000,5.118445068359375,-0.9899444580078125,-0.0225372314453125,0.0030059814453125
1782846241927450000,5.1284501953125,-0.9901580810546875,-0.0223541259765625,0.0026092529296875
1782846241937455000,5.138455078125,-0.989959716796875,-0.0201263427734375,0.0023193359375
1782846241947460000,5.148460205078125,-0.9912109375,-0.02093505859375,0.0009765625
1782846241957465000,5.158465087890625,-0.9898834228515625,-0.0214691162109375,0.0023345947265625
1782846241967470000,5.168469970703125,-0.9902801513671875,-0.0216217041015625,0.0036773681640625
1782846241977474300,5.178474365234375,-0.9886474609375,-0.0204925537109375,0.0027923583984375
1782846241987479300,5.188479248046875,-0.99249267578125,-0.0207061767578125,0.0021820068359375
1782846241997484300,5.198484375,-0.9910125732421875,-0.022003173828125,0.0042724609375
1782846242007489300,5.2084892578125,-0.9911651611328125,-0.0207672119140625,0.003326416015625
1782846242017494300,5.218494384765625,-0.990386962890625,-0.0214080810546875,0.002685546875
1782846242027499300,5.228499267578125,-0.9894561767578125,-0.0216217041015625,0.002716064453125
1782846242037504300,5.238504150390625,-0.990325927734375,-0.0218963623046875,0.0036163330078125
1782846242047509200,5.24850927734375,-0.9895782470703125,-0.02197265625,0.003021240234375
1782846242057514200,5.25851416015625,-0.990234375,-0.022216796875,0.0012664794921875
1782846242067519200,5.268519287109375,-0.9893646240234375,-0.0225677490234375,0.002288818359375
1782846242077524200,5.278524169921875,-0.9907073974609375,-0.0229034423828125,0.002960205078125
1782846242087529200,5.288529296875,-0.99127197265625,-0.021026611328125,0.0028076171875
1782846242097534200,5.2985341796875,-0.99029541015625,-0.0217132568359375,0.00360107421875
1782846242107539200,5.308539306640625,-0.9900054931640625,-0.020263671875,0.002410888671875
1782846242117543200,5.318543212890625,-0.9906158447265625,-0.0211334228515625,0.0030517578125
1782846242127548200,5.328548095703125,-0.990020751953125,-0.020416259765625,0.0022125244140625
1782846242137553200,5.33855322265625,-0.9915618896484375,-0.0224761962890625,0.004180908203125
1782846242147558100,5.34855810546875,-0.9897918701171875,-0.0225372314453125,0.0020904541015625
1782846242157563100,5.358563232421875,-0.99078369140625,-0.0201263427734375,0.0017852783203125
1782846242167568100,5.368568115234375,-0.9910430908203125,-0.022674560546875,0.00262451171875
1782846242177573000,5.378572998046875,-0.9893951416015625,-0.0214385986328125,0.0026397705078125
1782846242187578000,5.388578125,-0.99090576171875,-0.02142333984375,0.0049285888671875
1782846242197583000,5.3985830078125,-0.9896240234375,-0.02239990234375,0.002899169921875
1782846242207588000,5.408588134765625,-0.9892425537109375,-0.0206298828125,0.0016021728515625
1782846242217593000,5.418593017578125,-0.9881744384765625,-0.0204925537109375,0.0023193359375
1782846242227598000,5.42859814453125,-0.99017333984375,-0.023284912109375,0.0006866455078125
1782846242237603000,5.43860302734375,-0.990386962890625,-0.0216522216796875,0.001678466796875
1782846242247608000,5.448608154296875,-0.990203857421875,-0.021270751953125,0.0023651123046875
1782846242257612300,5.4586123046875,-0.989959716796875,-0.02264404296875,0.0021209716796875
1782846242267617300,5.4686171875,-0.9901275634765625,-0.0219573974609375,0.0027313232421875
1782846242277622300,5.478622314453125,-0.9904632568359375,-0.0206451416015625,0.0027313232421875
1782846242287627300,5.488627197265625,-0.989898681640625,-0.0214691162109375,0.00299072265625
1782846242297632300,5.49863232421875,-0.9899444580078125,-0.0224609375,0.0030975341796875
1782846242307637200,5.50863720703125,-0.9898529052734375,-0.021942138671875,0.0016326904296875
1782846242317642200,5.518642333984375,-0.9907379150390625,-0.0214080810546875,0.002532958984375
1782846242327647200,5.528647216796875,-0.990142822265625,-0.022308349609375,0.0034332275390625
1782846242337652200,5.53865234375,-0.9890899658203125,-0.022308349609375,0.00189208984375
1782846242347657200,5.5486572265625,-0.9898529052734375,-0.022216796875,0.004486083984375
1782846242357662200,5.558662109375,-0.99102783203125,-0.0220794677734375,0.000579833984375
1782846242367667200,5.568667236328125,-0.9910888671875,-0.021240234375,0.0028076171875
1782846242377672200,5.578672119140625,-0.992218017578125,-0.0225067138671875,0.0013580322265625
1782846242387677200,5.58867724609375,-0.9913482666015625,-0.0206451416015625,0.0008544921875
1782846242397681200,5.59868115234375,-0.9901275634765625,-0.02093505859375,0.0031585693359375
1782846242407686100,5.60868603515625,-0.9923095703125,-0.020904541015625,0.0042877197265625
1782846242417691100,5.618691162109375,-0.99029541015625,-0.0227203369140625,0.0025177001953125
1782846242427696000,5.628696044921875,-0.9918212890625,-0.021728515625,0.0016326904296875
1782846242437701000,5.638701171875,-0.990936279296875,-0.02105712890625,0.0022125244140625
1782846242447706000,5.6487060546875,-0.9913330078125,-0.0217132568359375,0.00152587890625
1782846242457711000,5.658711181640625,-0.9885711669921875,-0.0209197998046875,0.0026702880859375
1782846242467716000,5.668716064453125,-0.98858642578125,-0.022308349609375,0.0035400390625
1782846242477721000,5.67872119140625,-0.9904632568359375,-0.021881103515625,0.0032958984375
1782846242487726300,5.688726318359375,-0.9904632568359375,-0.0199737548828125,0.0027923583984375
1782846242497731300,5.6987314453125,-0.991058349609375,-0.0200653076171875,0.0006103515625
1782846242507736300,5.708736328125,-0.990997314453125,-0.0220184326171875,0.0026092529296875
1782846242517741300,5.7187412109375,-0.9900970458984375,-0.022308349609375,0.0027008056640625
1782846242527745000,5.7287451171875,-0.9897003173828125,-0.021728515625,0.002349853515625
1782846242537750000,5.73875,-0.991302490234375,-0.022003173828125,0.0031280517578125
1782846242547755000,5.748755126953125,-0.9908294677734375,-0.0206298828125,0.0041046142578125
1782846242557760000,5.758760009765625,-0.9891204833984375,-0.020599365234375,0.004058837890625
1782846242567765000,5.768764892578125,-0.9903564453125,-0.0220947265625,0.001983642578125
1782846242577770000,5.77877001953125,-0.9926300048828125,-0.021759033203125,0.00384521484375
1782846242587775000,5.78877490234375,-0.990509033203125,-0.023193359375,0.00140380859375
1782846242597780000,5.798780029296875,-0.989990234375,-0.0212860107421875,0.0018157958984375
1782846242607785000,5.808784912109375,-0.990997314453125,-0.02178955078125,0.0047607421875
1782846242617790000,5.8187900390625,-0.9900970458984375,-0.022796630859375,0.002655029296875
1782846242627795000,5.828794921875,-0.9890594482421875,-0.0218353271484375,0.002838134765625
1782846242637800000,5.838800048828125,-0.9902801513671875,-0.0201263427734375,0.0018463134765625
1782846242647805000,5.848804931640625,-0.991363525390625,-0.0213623046875,0.002716064453125
1782846242657809000,5.858808837890625,-0.990447998046875,-0.021514892578125,0.00189208984375
1782846242667814100,5.868814208984375,-0.992462158203125,-0.0203704833984375,0.0016632080078125
1782846242677819100,5.878819091796875,-0.9911956787109375,-0.0215606689453125,0.002349853515625
1782846242687824100,5.88882421875,-0.990081787109375,-0.0220184326171875,0.0036773681640625
1782846242697829000,5.8988291015625,-0.990142822265625,-0.021881103515625,0.0015869140625
1782846242707834000,5.908834228515625,-0.990692138671875,-0.022003173828125,0.0043487548828125
1782846242717839000,5.918839111328125,-0.990631103515625,-0.02197265625,0.002655029296875
1782846242727844000,5.928843994140625,-0.990203857421875,-0.0225982666015625,0.0027008056640625
1782846242737849000,5.93884912109375,-0.9912567138671875,-0.02117919921875,0.0033111572265625
1782846242747854000,5.94885400390625,-0.9901123046875,-0.0215911865234375,0.0030059814453125
1782846242757859000,5.958859130859375,-0.990234375,-0.020904541015625,0.002777099609375
1782846242767864000,5.968864013671875,-0.9912872314453125,-0.021331787109375,0.003021240234375
1782846242777869000,5.978869140625,-0.9918060302734375,-0.0205230712890625,0.00146484375
1782846242787874000,5.9888740234375,-0.9904022216796875,-0.019805908203125,0.00177001953125
1782846242797878000,5.9988779296875,-0.9896240234375,-0.020965576171875,0.0030364990234375
1782846242807883000,6.008883056640625,-0.991180419921875,-0.0208740234375,0.00311279296875
1782846242817888000,6.018887939453125,-0.9908447265625,-0.02099609375,0.0030975341796875
1782846242827893000,6.02889306640625,-0.9908905029296875,-0.02154541015625,0.002655029296875
1782846242837898000,6.03889794921875,-0.9898223876953125,-0.0211181640625,0.00286865234375
1782846242847903000,6.048903076171875,-0.989990234375,-0.022003173828125,0.002685546875
1782846242857908000,6.058907958984375,-0.9904937744140625,-0.021759033203125,0.0028533935546875
1782846242867913000,6.068912841796875,-0.9896087646484375,-0.0206146240234375,0.002166748046875
1782846242877918000,6.07891796875,-0.9903106689453125,-0.0222930908203125,0.0014801025390625
1782846242887923000,6.0889228515625,-0.991302490234375,-0.02227783203125,0.002227783203125
1782846242897928000,6.098927978515625,-0.9904632568359375,-0.0223388671875,0.003875732421875
1782846242907933000,6.108932861328125,-0.990447998046875,-0.0218963623046875,0.0027923583984375
1782846242917938000,6.11893798828125,-0.9898223876953125,-0.0208587646484375,0.0034027099609375
1782846242927943000,6.12894287109375,-0.9899139404296875,-0.0209808349609375,0.001678466796875
1782846242937947100,6.138947021484375,-0.9906463623046875,-0.020294189453125,0.0020751953125
1782846242947952000,6.1489521484375,-0.9898834228515625,-0.022491455078125,0.0023651123046875
1782846242957957000,6.15895703125,-0.991058349609375,-0.021484375,0.0020751953125
1782846242967962000,6.168962158203125,-0.9913787841796875,-0.02191162109375,0.0030059814453125
1782846242977967000,6.178967041015625,-0.990966796875,-0.021148681640625,0.00299072265625
1782846242987972000,6.18897216796875,-0.9901275634765625,-0.0217437744140625,0.0028533935546875
1782846242997977000,6.19897705078125,-0.9896697998046875,-0.0214385986328125,0.002593994140625
1782846243007982000,6.208982177734375,-0.9911651611328125,-0.022216796875,0.0024871826171875
1782846243017987000,6.218987060546875,-0.9902801513671875,-0.0222930908203125,0.0019073486328125
1782846243027992000,6.228991943359375,-0.9903564453125,-0.02093505859375,0.0019683837890625
1782846243037997000,6.2389970703125,-0.9903106689453125,-0.021575927734375,0.003143310546875
1782846243048002000,6.249001953125,-0.9893646240234375,-0.02056884765625,0.0017547607421875
1782846243058007000,6.259007080078125,-0.9908294677734375,-0.020721435546875,0.00286865234375
1782846243068011000,6.269010986328125,-0.9905548095703125,-0.0222320556640625,0.002777099609375
1782846243078016000,6.27901611328125,-0.989105224609375,-0.02117919921875,0.002777099609375
1782846243088021000,6.28902099609375,-0.989166259765625,-0.0211639404296875,0.0013885498046875
1782846243098026000,6.29902587890625,-0.9899444580078125,-0.02069091796875,0.00341796875
1782846243108031000,6.309031005859375,-0.9897918701171875,-0.0215606689453125,0.0046539306640625
1782846243118036000,6.319035888671875,-0.9911041259765625,-0.0215911865234375,0.00323486328125
1782846243128041000,6.329041015625,-0.98919677734375,-0.021728515625,0.00335693359375
1782846243138046000,6.3390458984375,-0.9898223876953125,-0.0214385986328125,0.0019989013671875
1782846243148051000,6.349051025390625,-0.991943359375,-0.022308349609375,0.0027923583984375
1782846243158056000,6.359055908203125,-0.9905242919921875,-0.021942138671875,0.0023956298828125
1782846243168061000,6.36906103515625,-0.9906463623046875,-0.0217437744140625,0.0030364990234375
1782846243178066000,6.37906591796875,-0.9919586181640625,-0.0209197998046875,0.0037994384765625
1782846243188071000,6.38907080078125,-0.990386962890625,-0.021087646484375,0.003204345703125
1782846243198075100,6.3990751953125,-0.98956298828125,-0.0214080810546875,0.002197265625
1782846243208080100,6.409080078125,-0.991668701171875,-0.0224456787109375,0.0032806396484375
1782846243218085000,6.419085205078125,-0.9902191162109375,-0.0224761962890625,0.0028839111328125
1782846243228090000,6.429090087890625,-0.990936279296875,-0.02178955078125,0.0040435791015625
1782846243238095000,6.43909521484375,-0.991973876953125,-0.0211181640625,0.0031890869140625
1782846243248100000,6.44910009765625,-0.9888916015625,-0.0207672119140625,0.0009002685546875
1782846243258105000,6.45910498046875,-0.99139404296875,-0.0217132568359375,0.0023040771484375
1782846243268110000,6.469110107421875,-0.991668701171875,-0.02001953125,0.00396728515625
1782846243278115000,6.479114990234375,-0.990234375,-0.0218048095703125,0.0023040771484375
1782846243288120000,6.4891201171875,-0.9899139404296875,-0.022308349609375,0.0022430419921875
1782846243298125000,6.499125,-0.9896240234375,-0.021270751953125,0.00384521484375
1782846243308130000,6.509130126953125,-0.9909820556640625,-0.020965576171875,0.004180908203125
1782846243318135000,6.519135009765625,-0.9906768798828125,-0.020751953125,0.0016326904296875
1782846243328140000,6.52914013671875,-0.9899444580078125,-0.0216064453125,0.0010223388671875
1782846243338144000,6.53914404296875,-0.9909515380859375,-0.02130126953125,0.003509521484375
1782846243348149000,6.54914892578125,-0.9906005859375,-0.0206146240234375,0.0011138916015625
1782846243358154000,6.559154052734375,-0.9898681640625,-0.0215301513671875,0.0016632080078125
1782846243368159000,6.569158935546875,-0.991180419921875,-0.02178955078125,0.00299072265625
1782846243378164000,6.5791640625,-0.9906463623046875,-0.0217132568359375,0.0027008056640625
1782846243388169000,6.5891689453125,-0.98974609375,-0.02313232421875,0.002532958984375
1782846243398174000,6.599174072265625,-0.9902191162109375,-0.0215301513671875,0.00274658203125
1782846243408179000,6.609178955078125,-0.9896240234375,-0.0209197998046875,0.002166748046875
1782846243418184000,6.619183837890625,-0.990966796875,-0.0208740234375,0.0022430419921875
1782846243428189000,6.62918896484375,-0.990234375,-0.0205230712890625,0.002777099609375
1782846243438194000,6.63919384765625,-0.9896087646484375,-0.022735595703125,-0.0000152587890625
1782846243448199000,6.649198974609375,-0.990264892578125,-0.0238494873046875,0.0019683837890625
1782846243458203100,6.659203125,-0.989990234375,-0.0219879150390625,0.00274658203125
1782846243468208000,6.6692080078125,-0.9894866943359375,-0.0218353271484375,0.0019378662109375
1782846243478213000,6.679213134765625,-0.9916839599609375,-0.022796630859375,0.00262451171875
1782846243488218000,6.689218017578125,-0.992340087890625,-0.0224609375,0.003662109375
1782846243498223000,6.69922314453125,-0.991058349609375,-0.0214385986328125,0.0022125244140625
1782846243508228000,6.70922802734375,-0.9903564453125,-0.020904541015625,0.0016632080078125
1782846243518233000,6.719233154296875,-0.9891815185546875,-0.0216522216796875,0.00262451171875
1782846243528238300,6.72923828125,-0.9900360107421875,-0.02203369140625,0.002899169921875
1782846243538243300,6.739243408203125,-0.9907989501953125,-0.0215606689453125,0.0015869140625
1782846243548248300,6.749248291015625,-0.9915771484375,-0.0206756591796875,0.0015106201171875
1782846243558253300,6.75925341796875,-0.98974609375,-0.0220489501953125,0.0026092529296875
1782846243568258300,6.76925830078125,-0.9902191162109375,-0.022003173828125,0.001708984375
1782846243578263300,6.77926318359375,-0.9907684326171875,-0.0220489501953125,0.002288818359375
1782846243588267300,6.789267333984375,-0.9907684326171875,-0.0211181640625,0.002899169921875
1782846243598272300,6.799272216796875,-0.9902496337890625,-0.021575927734375,0.0034027099609375
1782846243608277200,6.80927734375,-0.9897308349609375,-0.020843505859375,0.001983642578125
1782846243618282200,6.8192822265625,-0.9894256591796875,-0.02154541015625,0.003143310546875
1782846243628287200,6.829287353515625,-0.9892120361328125,-0.022186279296875,0.003448486328125
1782846243638292200,6.839292236328125,-0.9891815185546875,-0.0228118896484375,0.0033111572265625
1782846243648297200,6.849297119140625,-0.9910125732421875,-0.0200958251953125,0.003021240234375
1782846243658302200,6.85930224609375,-0.990692138671875,-0.021148681640625,0.0015869140625
1782846243668307200,6.86930712890625,-0.990234375,-0.0198822021484375,0.0012664794921875
1782846243678312200,6.879312255859375,-0.989501953125,-0.021392822265625,0.00311279296875
1782846243688317200,6.889317138671875,-0.9906005859375,-0.02197265625,0.0046539306640625
1782846243698322200,6.899322265625,-0.9897613525390625,-0.0225830078125,0.0030059814453125
1782846243708327200,6.9093271484375,-0.99237060546875,-0.0220794677734375,0.00201416015625
1782846243718332400,6.91933251953125,-0.9908599853515625,-0.0230255126953125,0.002716064453125
1782846243728336400,6.92933642578125,-0.98968505859375,-0.020263671875,0.0025177001953125
1782846243738341400,6.93934130859375,-0.990753173828125,-0.0210113525390625,0.00274658203125
1782846243748346400,6.949346435546875,-0.9906463623046875,-0.0213775634765625,0.0010223388671875
1782846243758351400,6.959351318359375,-0.99224853515625,-0.0217437744140625,0.002532958984375
1782846243768356400,6.9693564453125,-0.9915618896484375,-0.0211944580078125,0.0026092529296875
1782846243778361300,6.979361328125,-0.9909210205078125,-0.02203369140625,0.00201416015625
1782846243788366300,6.989366455078125,-0.9908599853515625,-0.0224761962890625,0.00225830078125
1782846243798371300,6.999371337890625,-0.989288330078125,-0.02178955078125,0.002838134765625
1782846243808376300,7.009376220703125,-0.9897308349609375,-0.020538330078125,0.003204345703125
1782846243818381300,7.01938134765625,-0.9917449951171875,-0.02093505859375,0.0025634765625
1782846243828386300,7.02938623046875,-0.9918975830078125,-0.022064208984375,0.0036163330078125
1782846243838391300,7.039391357421875,-0.990966796875,-0.0213165283203125,0.0021514892578125
1782846243848395300,7.049395263671875,-0.991363525390625,-0.022796630859375,0.0017547607421875
1782846243858400300,7.059400146484375,-0.990692138671875,-0.0218963623046875,0.0028533935546875
1782846243868405200,7.0694052734375,-0.9924468994140625,-0.021484375,0.0027618408203125
1782846243878410200,7.07941015625,-0.9901123046875,-0.020904541015625,0.0038604736328125
1782846243888415200,7.089415283203125,-0.989501953125,-0.0218963623046875,0.001220703125
1782846243898420200,7.099420166015625,-0.9891510009765625,-0.0207061767578125,0.0011444091796875
1782846243908425200,7.10942529296875,-0.9909820556640625,-0.02105712890625,0.002593994140625
1782846243918430200,7.11943017578125,-0.9907989501953125,-0.022186279296875,0.0019073486328125
1782846243928435200,7.129435302734375,-0.989959716796875,-0.021026611328125,0.003448486328125
1782846243938440400,7.1394404296875,-0.9894561767578125,-0.0208892822265625,0.0033416748046875
1782846243948445400,7.149445556640625,-0.9901885986328125,-0.0207977294921875,0.0017242431640625
1782846243958450400,7.159450439453125,-0.9897003173828125,-0.0216064453125,0.0011749267578125
1782846243968455400,7.169455322265625,-0.990570068359375,-0.0207672119140625,0.002899169921875
1782846243978459400,7.17945947265625,-0.991119384765625,-0.0222015380859375,0.0014190673828125
1782846243988464400,7.18946435546875,-0.9917755126953125,-0.02081298828125,0.002655029296875
1782846243998469400,7.199469482421875,-0.99053955078125,-0.021881103515625,0.00213623046875
1782846244008474400,7.209474365234375,-0.990203857421875,-0.021026611328125,0.003204345703125
1782846244018479400,7.219479248046875,-0.99090576171875,-0.0215911865234375,0.0047149658203125
1782846244028484400,7.229484375,-0.9918212890625,-0.0221405029296875,0.0042877197265625
1782846244038489300,7.2394892578125,-0.9897918701171875,-0.0215911865234375,0.00286865234375
1782846244048494300,7.249494384765625,-0.9904022216796875,-0.0215911865234375,0.0017852783203125
1782846244058499300,7.259499267578125,-0.9903411865234375,-0.022003173828125,0.002166748046875
1782846244068504300,7.26950439453125,-0.990325927734375,-0.022918701171875,0.002471923828125
1782846244078509300,7.27950927734375,-0.9906768798828125,-0.021881103515625,0.00262451171875
1782846244088514300,7.289514404296875,-0.9910736083984375,-0.021026611328125,0.00164794921875
1782846244098519300,7.299519287109375,-0.99029541015625,-0.0215606689453125,0.0034942626953125
1782846244108523300,7.309523193359375,-0.99114990234375,-0.022918701171875,0.0035858154296875
1782846244118528300,7.3195283203125,-0.9894561767578125,-0.022216796875,0.0033416748046875
1782846244128533200,7.329533203125,-0.9904022216796875,-0.0220489501953125,0.00244140625
1782846244138538200,7.339538330078125,-0.9908599853515625,-0.02105712890625,0.00238037109375
1782846244148543200,7.349543212890625,-0.99029541015625,-0.0201873779296875,0.0037994384765625
1782846244158548500,7.359548583984375,-0.9880828857421875,-0.0209808349609375,0.0024871826171875
1782846244168553500,7.369553466796875,-0.98992919921875,-0.021636962890625,0.002288818359375
1782846244178558500,7.379558349609375,-0.990203857421875,-0.0214996337890625,0.00335693359375
1782846244188563500,7.3895634765625,-0.9889068603515625,-0.020965576171875,0.0026397705078125
1782846244198568400,7.399568359375,-0.990753173828125,-0.02117919921875,0.001190185546875
1782846244208573400,7.409573486328125,-0.989990234375,-0.0211944580078125,0.0028533935546875
1782846244218578400,7.419578369140625,-0.9908447265625,-0.0217437744140625,0.0030975341796875
1782846244228582400,7.42958251953125,-0.9901885986328125,-0.0211181640625,0.002685546875
1782846244238587400,7.43958740234375,-0.98992919921875,-0.022186279296875,0.0029449462890625
1782846244248592400,7.44959228515625,-0.990997314453125,-0.021514892578125,0.0033111572265625
1782846244258597400,7.459597412109375,-0.9903411865234375,-0.0218048095703125,0.0042877197265625
1782846244268602400,7.469602294921875,-0.991455078125,-0.0212860107421875,0.002777099609375
1782846244278607400,7.479607421875,-0.98992919921875,-0.0211181640625,0.002471923828125
1782846244288612400,7.4896123046875,-0.9900360107421875,-0.0218963623046875,0.0033721923828125
1782846244298617300,7.499617431640625,-0.9891204833984375,-0.0211029052734375,0.0017242431640625
1782846244308622300,7.509622314453125,-0.989959716796875,-0.0220184326171875,0.0027008056640625
1782846244318627300,7.51962744140625,-0.9897308349609375,-0.0229949951171875,0.002471923828125
1782846244328632300,7.52963232421875,-0.991455078125,-0.022430419921875,0.0013885498046875
1782846244338637300,7.53963720703125,-0.9910430908203125,-0.0213775634765625,0.00213623046875
1782846244348642300,7.549642333984375,-0.990386962890625,-0.022491455078125,0.0032196044921875
1782846244358646300,7.559646240234375,-0.9910430908203125,-0.02130126953125,0.0018463134765625
1782846244368651300,7.5696513671875,-0.991546630859375,-0.0218505859375,0.0017242431640625
1782846244378656300,7.57965625,-0.9900665283203125,-0.0211944580078125,0.00152587890625
1782846244388661200,7.5896611328125,-0.9893341064453125,-0.021331787109375,0.00189208984375
1782846244398666500,7.59966650390625,-0.98992919921875,-0.0221405029296875,0.0029449462890625
1782846244408671500,7.60967138671875,-0.990447998046875,-0.0218353271484375,0.0024566650390625
1782846244418676500,7.619676513671875,-0.99078369140625,-0.0218963623046875,0.00286865234375
1782846244428681500,7.629681396484375,-0.991668701171875,-0.021209716796875,0.003082275390625
1782846244438686500,7.6396865234375,-0.9898681640625,-0.0215301513671875,0.00054931640625
1782846244448691500,7.64969140625,-0.9898529052734375,-0.0201263427734375,0.0023193359375
1782846244458696400,7.659696533203125,-0.990142822265625,-0.02105712890625,0.002288818359375
1782846244468701400,7.669701416015625,-0.9919891357421875,-0.0232696533203125,0.0036773681640625
1782846244478705200,7.679705078125,-0.989959716796875,-0.021026611328125,0.0033416748046875
1782846244488710100,7.689710205078125,-0.9915008544921875,-0.02130126953125,0.002532958984375
1782846244498715100,7.699715087890625,-0.991668701171875,-0.02276611328125,0.00360107421875
1782846244508720000,7.70972021484375,-0.99053955078125,-0.0198516845703125,0.0026702880859375
1782846244518725000,7.71972509765625,-0.989593505859375,-0.02117919921875,0.0024566650390625
1782846244528730600,7.729730712890625,-0.990814208984375,-0.0219573974609375,0.0025482177734375
1782846244538735600,7.739735595703125,-0.9916229248046875,-0.021209716796875,0.002349853515625
1782846244548740600,7.74974072265625,-0.991241455078125,-0.021392822265625,0.000946044921875
1782846244558745600,7.75974560546875,-0.9890594482421875,-0.02215576171875,0.001861572265625
1782846244568750600,7.76975048828125,-0.9891204833984375,-0.0207672119140625,0.0028228759765625
1782846244578755600,7.779755615234375,-0.9890289306640625,-0.0205230712890625,0.0012359619140625
1782846244588760600,7.789760498046875,-0.9906005859375,-0.021270751953125,0.0021514892578125
1782846244598765600,7.799765625,-0.9903106689453125,-0.0225067138671875,0.0019378662109375
1782846244608769500,7.80976953125,-0.9907073974609375,-0.0212860107421875,0.0031890869140625
1782846244618774500,7.8197744140625,-0.9913787841796875,-0.0213470458984375,0.0025634765625
1782846244628779800,7.82977978515625,-0.9917755126953125,-0.0206756591796875,0.0034332275390625
1782846244638784800,7.83978466796875,-0.9900360107421875,-0.020416259765625,0.0028839111328125
1782846244648789800,7.849789794921875,-0.990081787109375,-0.021820068359375,0.0029449462890625
1782846244658794800,7.859794677734375,-0.9912567138671875,-0.020538330078125,0.00225830078125
1782846244668799700,7.8697998046875,-0.9896087646484375,-0.01983642578125,0.0027618408203125
1782846244678804700,7.8798046875,-0.9910125732421875,-0.021148681640625,0.001434326171875
1782846244688809700,7.889809814453125,-0.9907379150390625,-0.0235443115234375,0.0027008056640625
1782846244698814700,7.899814697265625,-0.99163818359375,-0.0219879150390625,0.0025787353515625
1782846244708819700,7.90981982421875,-0.989959716796875,-0.021270751953125,0.0033111572265625
1782846244718824700,7.91982470703125,-0.9893035888671875,-0.0213775634765625,0.003692626953125
1782846244728828700,7.92982861328125,-0.9915313720703125,-0.021575927734375,0.0026397705078125
1782846244738833700,7.939833740234375,-0.9907073974609375,-0.022064208984375,0.001312255859375
1782846244748838700,7.949838623046875,-0.9917755126953125,-0.0204315185546875,0.002899169921875
1782846244758843600,7.95984375,-0.9901885986328125,-0.0220794677734375,0.0020294189453125
1782846244768848600,7.9698486328125,-0.9900970458984375,-0.0219268798828125,0.0029144287109375
1782846244778853600,7.979853515625,-0.9899444580078125,-0.0206298828125,0.0023651123046875
1782846244788858600,7.989858642578125,-0.9909515380859375,-0.022308349609375,0.0004425048828125
1782846244798863600,7.999863525390625,-0.9904022216796875,-0.022369384765625,0.0014190673828125
1782846244808868600,8.00986865234375,-0.98980712890625,-0.021942138671875,0.0033721923828125
1782846244818873600,8.01987353515625,-0.990936279296875,-0.0208892822265625,0.0047454833984375
1782846244828878600,8.029878662109375,-0.9912261962890625,-0.0205230712890625,0.0025787353515625
1782846244838883600,8.039883544921874,-0.9902191162109375,-0.0208740234375,0.0013580322265625
1782846244848888600,8.049888671875,-0.99139404296875,-0.0205230712890625,0.004638671875
1782846244858892800,8.059892822265626,-0.9896697998046875,-0.021697998046875,0.0033416748046875
1782846244868897800,8.069897705078125,-0.9898529052734375,-0.0220794677734375,0.0029449462890625
1782846244878902800,8.07990283203125,-0.9915771484375,-0.0216217041015625,0.00347900390625
1782846244888907800,8.08990771484375,-0.9911041259765625,-0.0218353271484375,0.0020599365234375
1782846244898912800,8.099912841796876,-0.9903411865234375,-0.0220184326171875,0.0014190673828125
1782846244908917800,8.109917724609375,-0.99151611328125,-0.0207061767578125,0.00189208984375
1782846244918922800,8.1199228515625,-0.990203857421875,-0.0208587646484375,0.003997802734375
1782846244928927700,8.129927734375,-0.991729736328125,-0.021514892578125,0.002655029296875
1782846244938932700,8.1399326171875,-0.989532470703125,-0.0197906494140625,0.0019683837890625
1782846244948937700,8.149937744140624,-0.989837646484375,-0.0209808349609375,0.0025787353515625
1782846244958942700,8.159942626953125,-0.989288330078125,-0.0211639404296875,0.003631591796875
1782846244968947700,8.16994775390625,-0.988983154296875,-0.0227813720703125,0.003265380859375
1782846244978951700,8.17995166015625,-0.9916229248046875,-0.0216217041015625,0.0022735595703125
1782846244988956700,8.189956787109375,-0.9911346435546875,-0.021820068359375,0.0018310546875
1782846244998961700,8.199961669921874,-0.989715576171875,-0.0210113525390625,0.0030975341796875
1782846245008966700,8.209966552734375,-0.989959716796875,-0.0210113525390625,0.004730224609375
1782846245018971600,8.2199716796875,-0.989837646484375,-0.0204620361328125,0.00347900390625
1782846245028976600,8.2299765625,-0.9912261962890625,-0.02142333984375,0.0030975341796875
1782846245038981600,8.239981689453124,-0.9905242919921875,-0.021759033203125,0.002960205078125
1782846245048986600,8.249986572265625,-0.9902496337890625,-0.020965576171875,0.0040435791015625
1782846245058991600,8.25999169921875,-0.9903106689453125,-0.022613525390625,0.00213623046875
1782846245068996600,8.26999658203125,-0.9912872314453125,-0.021636962890625,0.002471923828125
1782846245079001600,8.280001708984376,-0.9900054931640625,-0.0212860107421875,0.0029144287109375
1782846245089006600,8.290006591796875,-0.9889068603515625,-0.0216827392578125,0.001373291015625
1782846245099010800,8.3000107421875,-0.9901580810546875,-0.021881103515625,0.00262451171875
1782846245109015800,8.310015869140624,-0.9905242919921875,-0.02069091796875,0.0030975341796875
1782846245119020800,8.320020751953125,-0.989959716796875,-0.0208587646484375,0.00347900390625
1782846245129025800,8.33002587890625,-0.991241455078125,-0.02142333984375,0.0018310546875
1782846245139030800,8.34003076171875,-0.9920196533203125,-0.02099609375,0.0036163330078125
1782846245149035800,8.350035888671876,-0.991973876953125,-0.020660400390625,0.002593994140625
1782846245159040800,8.360040771484375,-0.99102783203125,-0.0214080810546875,0.0029296875
1782846245169045800,8.370045654296876,-0.9906158447265625,-0.0205078125,0.001861572265625
1782846245179050800,8.38005078125,-0.99029541015625,-0.023162841796875,0.0013885498046875
1782846245189055700,8.3900556640625,-0.988739013671875,-0.0212554931640625,0.0019989013671875
1782846245199060700,8.400060791015624,-0.9903106689453125,-0.021209716796875,0.00201416015625
1782846245209065700,8.410065673828125,-0.9910125732421875,-0.0204620361328125,0.0036163330078125
1782846245219070700,8.42007080078125,-0.98968505859375,-0.020538330078125,0.0037994384765625
1782846245229074700,8.43007470703125,-0.990631103515625,-0.0225677490234375,0.001983642578125
1782846245239079700,8.44007958984375,-0.9904937744140625,-0.0209808349609375,0.0042877197265625
1782846245249084700,8.450084716796875,-0.989501953125,-0.020660400390625,0.0028533935546875
1782846245259089700,8.460089599609375,-0.9909820556640625,-0.0206146240234375,0.00262451171875
1782846245269094700,8.4700947265625,-0.990447998046875,-0.021575927734375,0.00372314453125
1782846245279099600,8.480099609375,-0.9908905029296875,-0.0220794677734375,0.0030670166015625
1782846245289104600,8.490104736328124,-0.991546630859375,-0.0218963623046875,0.003570556640625
1782846245299109600,8.500109619140625,-0.9893341064453125,-0.020782470703125,0.003692626953125
1782846245309114600,8.510114501953124,-0.99072265625,-0.0228729248046875,0.003448486328125
1782846245319119600,8.52011962890625,-0.9898223876953125,-0.0220489501953125,0.0031585693359375
1782846245329124600,8.53012451171875,-0.9909210205078125,-0.0230560302734375,0.0025634765625
1782846245339129600,8.540129638671875,-0.9900360107421875,-0.022064208984375,0.0022430419921875
1782846245349133800,8.5501337890625,-0.98980712890625,-0.0207672119140625,0.0017242431640625
1782846245359138800,8.560138916015624,-0.9915313720703125,-0.021514892578125,0.002471923828125
1782846245369143800,8.570143798828125,-0.99090576171875,-0.0220184326171875,0.0039215087890625
1782846245379148800,8.580148681640624,-0.9897308349609375,-0.022613525390625,0.004241943359375
1782846245389153800,8.59015380859375,-0.992828369140625,-0.022216796875,0.0027618408203125
1782846245399158800,8.60015869140625,-0.9932861328125,-0.0219573974609375,0.001953125
1782846245409163800,8.610163818359375,-1.0281219482421875,-0.022369384765625,-0.0116424560546875
1782846245419168800,8.620168701171876,-0.9248504638671875,-0.025177001953125,0.03094482421875
1782846245429173800,8.630173828125,-1.0285797119140625,-0.0201416015625,-0.015350341796875
1782846245439178800,8.6401787109375,-0.9639892578125,-0.0230865478515625,0.01251220703125
1782846245449183700,8.650183837890625,-1.0059814453125,-0.01904296875,-0.0013275146484375
1782846245459187700,8.660187744140625,-0.9815216064453125,-0.01959228515625,0.0024261474609375
1782846245469192700,8.670192626953124,-0.9964599609375,-0.020751953125,-0.0041961669921875
1782846245479197700,8.68019775390625,-0.986602783203125,-0.0201568603515625,0.0063629150390625
