time,seconds_elapsed,z,y,x
1782846236872457000,0.07345703125,0.09754676651656627,0.0027171682705171406,0.015601706653065046
1782846236882462000,0.0834619140625,0.16473755773603915,-0.01680686749201268,0.041346822587260974
1782846236892467000,0.093467041015625,0.07195815175175667,-0.009653963530063628,-0.004945251549570821
1782846236902472000,0.103471923828125,0.02646598212122917,0.0014621084418147802,-0.010282801768800708
1782846236912477000,0.113476806640625,0.1255319210290909,-0.007408175630960613,0.019956862805399576
1782846236922482000,0.12348193359375,0.15246727422773837,-0.009822835557255893,0.03450827495424309
1782846236932487000,0.13348681640625,0.06148176592290401,-0.0037905331230722364,-0.0022190688555361704
1782846236942492000,0.143491943359375,0.055797290545701976,0.01066491240458563,-0.016564745282230432
1782846236952497000,0.153496826171875,0.13421207109093666,0.013779208500217646,0.010332490696001331
1782846236962502000,0.163501953125,0.10413725082278251,0.01862199062258005,0.004231474973738659
1782846236972507000,0.1735068359375,0.06193769299685955,0.01925407798103988,0.002666561461286619
1782846236982511000,0.183510986328125,0.08617956932783126,0.02479244115212932,-0.019429824990301856
1782846236992516000,0.19351611328125,0.12912731517255305,0.004681600211281329,0.005829991644981783
1782846237002521000,0.20352099609375,0.0840823047876358,0.008731131330411881,0.0038260770772001705
1782846237012526000,0.213526123046875,0.0605892009973526,0.013981580938212572,-0.009180621813714969
1782846237022531000,0.223531005859375,0.0953103857666254,0.013890249392949043,0.010613104585534893
1782846237032536000,0.2335361328125,0.10114391422569752,0.010274944972619413,0.024060227020597083
1782846237042541000,0.243541015625,0.08019055804610252,-0.007225421208888292,0.00932077920307638
1782846237052546000,0.253546142578125,0.08557809630334377,0.0009729001527652144,0.023759017867606598
1782846237062551000,0.263551025390625,0.10667524486780167,0.0005911890924908221,0.026203993017063474
1782846237072556000,0.27355615234375,0.07854279083907603,-0.012864523074403405,0.023382882598170545
1782846237082561000,0.28356103515625,0.07569616923630237,-0.00357067982731387,0.0015636325875297188
1782846237092566000,0.29356591796875,0.08796294561326504,0.0006318316301330923,0.00634966585424263
1782846237102571000,0.303571044921875,0.08856032698452472,-0.004844608753267675,0.014739961557462811
1782846237112576000,0.313575927734375,0.07883563630580902,-0.005683215001877397,0.005337123244255781
1782846237122581000,0.3235810546875,0.09514671963751316,0.018819942613784224,0.002992953004594892
1782846237132585000,0.3335849609375,0.08422259004116057,0.025590843254514037,0.01769757153732935
1782846237142590000,0.34358984375,0.08601882580816746,0.005513173930905759,-0.007195950802520383
1782846237152595000,0.353594970703125,0.09559270983934402,0.003537709139473736,-0.01262341007819632
1782846237162600000,0.363599853515625,0.08421791386604309,0.004835603462904691,0.0034754415752016937
1782846237172605000,0.37360498046875,0.08915595479011536,0.01859186947895214,-0.001508625881106127
1782846237182610000,0.38360986328125,0.08571662799119949,0.010996555511746555,-0.0005929814740666188
1782846237192615000,0.393614990234375,0.06506254701912403,0.005349544334411621,-0.00013265450291801245
1782846237202620000,0.403619873046875,0.08974924450814724,0.011356109539140015,0.00681362097102683
1782846237212625200,0.413625244140625,0.09797814367115497,0.0044101628587581215,-0.01699866602035472
1782846237222630100,0.423630126953125,0.07912263655364513,0.008938125144597143,-0.01730641907856334
1782846237232635100,0.43363525390625,0.09154255766570568,0.012851115603558718,0.012331210782146081
1782846237242640100,0.44364013671875,0.07073942361176014,0.005668839416652917,0.010263656393624842
1782846237252645000,0.45364501953125,0.09842062674164771,0.0005298873593099415,0.017852488104405345
1782846237262650000,0.463650146484375,0.08674947817027569,0.011585917973332107,-0.0034307416336610912
1782846237272654000,0.473654052734375,0.08405366321504115,0.004922167501505464,-0.002954232995980419
1782846237282659000,0.4836591796875,0.09722644852101803,-0.005767002561502158,0.017173867323633747
1782846237292664000,0.4936640625,0.09453180260956287,0.010900511258747428,0.02846560867296066
1782846237302669000,0.5036689453125,0.09392974506318569,-0.015098364807385951,0.007608940633758902
1782846237312674000,0.513674072265625,0.09243161545991897,0.0009799692143686114,0.004567741740378551
1782846237322679000,0.523678955078125,0.0883873085051775,0.015378442124091087,0.014569066536542958
1782846237332684000,0.53368408203125,0.09691489835381507,0.014859258821886032,-0.0005324971582158468
1782846237342689000,0.54368896484375,0.08180442298352718,0.012638568831421435,-0.004564752915559802
1782846237352694000,0.553694091796875,0.08554302498996258,0.013508227805420756,0.003694648700277321
1782846237362699000,0.563698974609375,0.09092822515964508,0.007321995184849947,-0.004844914713944308
1782846237372704000,0.5737041015625,0.09137947605848312,0.016619911818858236,-0.005883290451508947
1782846237382709000,0.583708984375,0.08808686425387859,0.011550627464242279,0.016458732191065792
1782846237392714000,0.5937138671875,0.08943126460015774,0.020333306318800894,0.0033342178900493307
1782846237402719000,0.603718994140625,0.08613631470799446,0.008339519930630921,0.0020125453988090155
1782846237412724000,0.613723876953125,0.08643325182795523,0.02178213515393436,0.00720451541817747
1782846237422728000,0.62372802734375,0.08358838379085064,0.001058660473767668,0.024749088350881354
1782846237432733200,0.633733154296875,0.09241349528133869,-0.004322283645905554,0.01608615200202912
1782846237442738200,0.64373828125,0.09076865068376064,0.0022114472380839285,0.015908050922187975
1782846237452743200,0.6537431640625,0.08822305785417556,0.00019446312617510557,0.013485036442789713
1782846237462748200,0.663748046875,0.09765081141293049,-0.0020685681686736642,0.025586710502090864
1782846237472753200,0.673753173828125,0.09391396297216414,0.007920801328215748,0.018886105468461756
1782846237482758100,0.683758056640625,0.08014847247004508,0.005330236845742911,0.004492066705261822
1782846237492763100,0.69376318359375,0.09331599707901478,-0.003927640038821846,-0.004634007343044504
1782846237502768000,0.70376806640625,0.07775427080988884,0.0020320355505682526,-0.0016497308352496473
1782846237512773000,0.713773193359375,0.0921212343364954,0.014832535211741923,0.002170683686144184
1782846237522777600,0.723777587890625,0.08479016079604625,0.013410850111860781,0.006867495166289154
1782846237532782600,0.733782470703125,0.08868015397191047,0.006266841842420399,0.0007285585864330641
1782846237542787600,0.74378759765625,0.1045388173609972,0.009238952988386154,0.0002454329782980494
1782846237552792600,0.75379248046875,0.09496201072037219,0.02074252644050866,0.0031452141069923524
1782846237562797600,0.763797607421875,0.0940641850978136,0.02733516617119312,0.0013550770039204507
1782846237572801500,0.773801513671875,0.08074410027563571,0.021307448580581693,-0.006991918413690291
1782846237582806500,0.783806640625,0.09136544753313064,0.014847440519928931,-0.015248217040277085
1782846237592811500,0.7938115234375,0.10378536864519118,0.005109433701913803,0.011872927354322745
1782846237602816500,0.80381640625,0.09136369396746158,0.00805151503579691,0.001592310692742467
1782846237612821500,0.813821533203125,0.07490005042254924,0.02062335704024881,0.014692832196818198
1782846237622826500,0.823826416015625,0.10677519811093807,0.004237728901300579,-0.0015065869043581186
1782846237632831500,0.83383154296875,0.08597381762266158,0.0095315792594105,0.026774258052534423
1782846237642836500,0.84383642578125,0.08971241962909698,0.0059066484942100934,0.0009184916679630987
1782846237652841500,0.853841552734375,0.09405074109435081,0.001477762668672949,0.004405593998206314
1782846237662846500,0.863846435546875,0.07818447892069816,-0.001598630835674703,0.010435268367175012
1782846237672851500,0.8738515625,0.09225041367411613,0.0076615841364488,0.0009698017300921491
1782846237682856400,0.8838564453125,0.09793664261698723,0.014723247884679585,0.00012779794799862429
1782846237692861400,0.893861328125,0.09464578437805175,0.02183581983624026,-0.004514219171565492
1782846237702866400,0.903866455078125,0.09000409605205059,0.00971385875744745,0.00762587350225076
1782846237712870700,0.91387060546875,0.09434124847352504,0.00411925362078473,0.005225737574941013
1782846237722875600,0.923875732421875,0.09388824400901793,0.016112382421828806,0.017292739896371492
1782846237732880600,0.933880615234375,0.09508125318586826,0.004186583235953003,0.010466035681485663
1782846237742885600,0.9438857421875,0.08819441628158092,0.005068626767490059,-0.008466301815188489
1782846237752890600,0.953890625,0.08415420098006725,0.019737532382737843,-0.004329640401876531
1782846237762895600,0.9638955078125,0.07787059066593646,0.014447517949528992,0.004492922938498668
1782846237772900600,0.973900634765625,0.094330142557621,0.014308292141929267,0.00333065139320679
1782846237782905600,0.983905517578125,0.08954641541242599,0.005874572855513543,0.010716663141420576
1782846237792910600,0.99391064453125,0.09837386499047279,0.01160849513132125,0.01635545219639316
1782846237802915600,1.00391552734375,0.0907441007643938,-0.00043366044322028756,-0.004278917144925799
1782846237812920600,1.013920654296875,0.08401099311709403,0.020193075864203273,0.013091913505934643
1782846237822925600,1.023925537109375,0.0916419263869524,0.010492240985110401,0.004410516768496017
1782846237832930600,1.0339306640625,0.09927461322247981,0.007137468930799514,0.005069140507432166
1782846237842935600,1.043935546875,0.09598258593976497,0.00595070683164522,0.00798194779776968
1782846237852939500,1.053939453125,0.08505611825585364,-0.0012644304452463983,-0.0003059264273033477
1782846237862944500,1.063944580078125,0.09044307199120522,-0.0006626834261231124,0.0028848895202390847
1782846237872949500,1.073949462890625,0.08370937982201576,0.00415658995648846,0.011324568189983255
1782846237882954500,1.08395458984375,0.0899947437018156,0.015199340963829308,-0.0021149828599765896
1782846237892959500,1.09395947265625,0.08251169447004794,0.008662961465027182,0.0031197189061320384
1782846237902964500,1.103964599609375,0.09119476714134216,0.01223700229320675,0.004061965909018181
1782846237912969500,1.113969482421875,0.08206862687766552,-0.00011527867643162607,-0.0032213252502377144
1782846237922974500,1.123974365234375,0.08101824104189873,0.023968393151834605,0.017481291588279418
1782846237932979500,1.1339794921875,0.09598083237409591,0.017568426449038086,0.0010777989990776403
1782846237942984700,1.143984619140625,0.08385960194766522,0.008942490792460739,0.006431450969737488
1782846237952989700,1.15398974609375,0.10091419712305068,0.02289281807588413,-0.0010722665907233022
1782846237962994700,1.16399462890625,0.11303075137436389,0.01213938713762909,0.008829337857745121
1782846237972999700,1.173999755859375,0.08818974010646342,0.00798860586741939,0.016956018755293917
1782846237983004700,1.184004638671875,0.09716507372260093,0.009930077057704328,0.0026579192138160576
1782846237993009700,1.194009765625,0.07935410722196101,0.013238653616420924,0.010723330344224813
1782846238003014700,1.2040146484375,0.09805822317004204,0.005456584905460476,0.0069442730298149395
1782846238013018600,1.2140185546875,0.10270049601793288,-0.0005313851966522634,0.008747609824466053
1782846238023023600,1.224023681640625,0.09716390467882156,0.007533025853335857,0.008899409702559933
1782846238033028600,1.234028564453125,0.09611468788683414,0.0013188457799144088,-0.011367436934041325
1782846238043033600,1.24403369140625,0.1065910737156868,-0.0026267683070152997,0.013865738289488944
1782846238053038600,1.25403857421875,0.09192834211289883,0.0086799491324462,0.015599277233961038
1782846238063043600,1.264043701171875,0.1007563762128353,0.01620307464627549,0.0004955147322500124
1782846238073048600,1.274048583984375,0.09177811998724937,0.020091241191234437,-0.0027927200080477632
1782846238083053600,1.284053466796875,0.08638941268622875,0.0025181568333879113,0.0091701141194324
1782846238093058600,1.29405859375,0.0853413649380207,0.010753613601345567,0.01345751368162455
1782846238103063600,1.3040634765625,0.09416822999417782,0.012624339376669376,0.0003247019097208977
1782846238113068500,1.314068603515625,0.09461363567411898,0.01757215277608484,-0.011121798459766432
1782846238123073500,1.324073486328125,0.07919745535552501,0.016393811445403843,0.01645092334394576
1782846238133078500,1.33407861328125,0.09879881240427493,0.020602716111019253,0.0038717291501001454
1782846238143083500,1.34408349609375,0.092813892775774,0.029415351712424306,-0.003521235211996827
1782846238153088500,1.354088623046875,0.09191548263132572,0.015825382173992694,0.009062829236499965
1782846238163092700,1.3640927734375,0.09071896632313728,0.018350370606966315,0.013266543987055774
1782846238173097700,1.37409765625,0.0931143370270729,0.015461590362899005,0.007673996093450114
1782846238183102700,1.384102783203125,0.08503507546782493,0.005510653180256486,0.015766092018096242
1782846238193107700,1.394107666015625,0.09909867213368415,0.0012726320180110632,-0.007003697899740655
1782846238203112700,1.40411279296875,0.08697685718536377,0.007891392570640891,0.009822093488450628
1782846238213117700,1.41411767578125,0.0952057563483715,0.012583879502117633,0.02676080034933984
1782846238223122700,1.424122802734375,0.09625438861846923,0.01896696813534945,0.02609845941651147
1782846238233127700,1.434127685546875,0.0920645357131958,0.006087302290741354,0.014823196561238728
1782846238243132700,1.444132568359375,0.09610942718982696,0.007511398543417453,-0.0007907827682211064
1782846238253137700,1.4541376953125,0.08982757044136523,0.0006437595299445092,-0.00814356810026802
1782846238263142700,1.464142578125,0.07681085247993469,0.011202928271424025,-0.0009979227128787897
1782846238273147600,1.474147705078125,0.08997837708890438,0.0044850729921832675,0.014607535383407958
1782846238283152600,1.484152587890625,0.08443827861845493,0.011826740991882979,0.016568215880950445
1782846238293157600,1.49415771484375,0.07905132488310336,0.020047475114744154,-0.0002953707839595154
1782846238303162600,1.50416259765625,0.08204232339262962,0.015011672904621808,-0.01053684959510574
1782846238313166600,1.51416650390625,0.07231704819202422,-0.0023997546181082725,-0.008020261381007731
1782846238323171600,1.524171630859375,0.09416121573150157,0.026468448072951286,-0.010909692362335044
1782846238333176600,1.534176513671875,0.0808446380406618,0.014736198697797954,-0.005732250908529386
1782846238343181600,1.544181640625,0.08114508229196071,0.0007787840864621103,0.007389196935854852
1782846238353186600,1.5541865234375,0.10074936195015907,0.01043983494443819,0.0018055264684488064
1782846238363191600,1.564191650390625,0.09342062649726868,0.004732124822121113,0.0033131088866502974
1782846238373196500,1.574196533203125,0.07995324215888977,-0.006900244375132024,0.022049485419807023
1782846238383201500,1.584201416015625,0.08339198443591594,0.001904080055654049,0.02018591547105461
1782846238393206500,1.59420654296875,0.08922960454821587,0.009317790378257631,0.00207097703817999
1782846238403211500,1.60421142578125,0.0751630852729082,0.002908471325226128,0.002808778376993723
1782846238413216500,1.614216552734375,0.09446750520169735,0.028126517478283493,0.009859808850067202
1782846238423221500,1.624221435546875,0.09431845211982727,0.02154120253752917,0.01663233975887997
1782846238433226500,1.6342265625,0.08698562501370906,-0.007476856952998787,-0.0025628704746603033
1782846238443231500,1.6442314453125,0.09042728990018367,0.013629479564912617,0.011569023920746985
1782846238453236500,1.654236572265625,0.09506430205106735,0.002634549754671752,0.008985284187993966
1782846238463240700,1.66424072265625,0.08010112619698047,0.01621354124136269,0.011652580868219957
1782846238473245700,1.67424560546875,0.08489011403918266,0.012274174232129008,0.003563859644171316
1782846238483250700,1.684250732421875,0.083990534850955,0.009073953418713062,0.010507217075244988
1782846238493255700,1.694255615234375,0.08773147494494915,0.014768950189929455,0.017334288899600505
1782846238503260700,1.7042607421875,0.0893798266738653,0.01884955230075866,0.004219713753997348
1782846238513265700,1.714265625,0.08444353931546211,0.01755384993441403,0.020080879627424292
1782846238523270700,1.724270751953125,0.07681377508938313,0.012253259308263658,0.017665338351717217
1782846238533275600,1.734275634765625,0.07726210337877273,-0.008831212437711655,-0.0009525560510577633
1782846238543280600,1.74428076171875,0.095367084389925,0.001560691711772233,-0.0032312849552487023
1782846238553285600,1.75428564453125,0.07905483201444148,0.011954641687870025,0.0008655353547306731
1782846238563290600,1.76429052734375,0.07815817543566227,0.00038415874568745493,0.02306204172952566
1782846238573295600,1.774295654296875,0.08923135811388493,-0.0008313910565339028,0.007385281095851678
1782846238583300600,1.784300537109375,0.08728431569933891,0.015553086304944008,0.01643157018950442
1782846238593305600,1.7943056640625,0.08099836729764938,0.016357498023007063,0.0031605304071330464
1782846238603310600,1.804310546875,0.09267360752224922,0.00021026348350569604,0.005792442963435314
1782846238613315600,1.814315673828125,0.10913432845771312,-0.0017513006467372177,-0.0002908886883757077
1782846238623319600,1.824319580078125,0.08519406542181968,0.0011450053166598081,-0.004152359022654127
1782846238633324500,1.834324462890625,0.08190320718288421,0.002885364444274455,0.007338925770053174
1782846238643329500,1.84432958984375,0.08474223000109195,0.00875853079399094,0.001263128970726393
1782846238653334500,1.85433447265625,0.09028057490587234,-0.0004512691651470959,0.016625661139632573
1782846238663339500,1.864339599609375,0.08414660219550132,0.011766078579518943,0.006434793704294134
1782846238673344500,1.874344482421875,0.08370002747178078,0.0077606057978235185,0.002993624291452579
1782846238683349500,1.884349609375,0.09088146340847014,0.018739150728844106,-0.005227966064645443
1782846238693354500,1.8943544921875,0.08040741566717624,0.01782011792147532,0.0004971039011375979
1782846238703359500,1.904359375,0.08624678934514522,0.021116346455272286,-0.002156787591532338
1782846238713364500,1.914364501953125,0.08116027986109256,0.018378902581706644,0.010382321187097114
1782846238723369500,1.924369384765625,0.07682078935205935,0.020624197290465236,0.015337062084220815
1782846238733374700,1.934374755859375,0.09672142160832882,-0.0014655059752985834,0.01675054332804866
1782846238743379700,1.944379638671875,0.09597148002386093,-0.0013842026337049901,0.003866639699740335
1782846238753384700,1.954384765625,0.08923428072333335,-0.006928758083563298,-0.002008186600811314
1782846238763389700,1.9643896484375,0.07965688956081866,0.011811086765024811,0.0006849180908175185
1782846238773393700,1.9743935546875,0.07906184627711772,0.008063369870372115,0.01668922789513599
1782846238783398700,1.984398681640625,0.08519698803126811,0.01105336373290047,-0.009516651118337176
1782846238793403600,1.994403564453125,0.08938684093654155,0.005067676919419318,0.007382769478356931
1782846238803408600,2.00440869140625,0.09268003726303577,0.007691212089732289,0.010365057241753675
1782846238813413600,2.01441357421875,0.08923778785467147,0.006056742755696177,0.0091842887752573
1782846238823418600,2.024418701171875,0.08594692961573601,0.013931348588317632,0.0023057356421253643
1782846238833423600,2.034423583984375,0.07787000614404678,0.020207871574535966,0.0034922808288596566
1782846238843428600,2.0444287109375,0.09956453607976436,0.008819503733608871,0.004120529979129787
1782846238853433600,2.05443359375,0.0875941123008728,0.0026455643390305337,0.014799208330875262
1782846238863438600,2.0644384765625,0.07906418436467647,0.013755718026775866,-0.0017113339625298976
1782846238873443600,2.074443603515625,0.09477730180323124,0.009362615900672971,0.008004266944143456
1782846238883448600,2.084448486328125,0.08639759599268436,0.013102642679214477,0.00040745742288418114
1782846238893453600,2.09445361328125,0.07397884392440318,0.02369083658577874,-0.008145712108293082
1782846238903458600,2.10445849609375,0.09058978698551655,0.007629271035734564,-0.007433513284905348
1782846238913463600,2.114463623046875,0.09044248746931552,0.008422448973730207,0.0013508506366633809
1782846238923467500,2.124467529296875,0.0838560948163271,-0.005233078347891569,0.00963163753382396
1782846238933472500,2.134472412109375,0.09118892192244529,0.007153616348002105,0.010226144244696478
1782846238943477500,2.1444775390625,0.08280746254622935,0.023680333458073435,0.0005032482308452018
1782846238953482800,2.154482666015625,0.08909341094791888,-0.000450392382312566,0.005065284032933414
1782846238963487700,2.16448779296875,0.09478197797834872,0.01155833584666252,0.01105766316539375
1782846238973492700,2.17449267578125,0.09777823718488216,0.01801819777684286,0.019390657457115594
1782846238983497700,2.184497802734375,0.08610358148217201,-0.0008823905914090573,0.011648630778887309
1782846238993502700,2.194502685546875,0.09223638514876364,0.011637940421514212,-0.002932270042633172
1782846239003507700,2.2045078125,0.1100455980837345,0.007803805618733168,0.007050318087020423
1782846239013512700,2.2145126953125,0.08655483238101006,0.0021718093474395574,-0.0034349383181659504
1782846239023517700,2.224517578125,0.09149521139264107,0.012989957818668334,-0.01402900484309066
1782846239033522700,2.234522705078125,0.08416530689597129,0.017978413755726067,-0.012377424544049427
1782846239043527700,2.244527587890625,0.08655892403423786,0.003186411483772099,0.007933811506838537
1782846239053532700,2.25453271484375,0.09299275647401808,0.005895177252124995,0.000005153382441494614
1782846239063537700,2.26453759765625,0.09149579591453075,0.009961074984166771,-0.0004066080395132303
1782846239073542700,2.274542724609375,0.09209551537334919,0.008535553959384561,0.002632759656384587
1782846239083546400,2.28454638671875,0.09254442818462848,0.002547711721435189,0.012533421106648165
1782846239093551400,2.29455126953125,0.07563713252544403,0.009827529998682439,0.002986242419306654
1782846239103556600,2.304556640625,0.09493921436667442,-0.0010536555050872265,0.007398195376351941
1782846239113561600,2.3145615234375,0.07713175499737263,-0.004924395991209894,0.0023364641405292787
1782846239123566600,2.324566650390625,0.1007739118695259,0.015289759193640201,-0.011840468123136088
1782846239133571600,2.334571533203125,0.09329027811586857,0.02435293549001217,0.009200511540984734
1782846239143576600,2.34457666015625,0.09538754265606403,0.008546477212198079,0.013877111350162886
1782846239153581600,2.35458154296875,0.08760814082622527,0.0009957330390810966,0.013877826019504573
1782846239163586600,2.364586669921875,0.08521335464417934,-0.005263564817700535,-0.005096348174766172
1782846239173591600,2.374591552734375,0.09015198009014129,0.016258348497468978,0.0036061758323805405
1782846239183596500,2.384596435546875,0.08162380571961403,0.0006136383863165974,0.004247483110334724
1782846239193601500,2.3946015625,0.0909007526308298,0.001085420616529882,0.017524096400255804
1782846239203606500,2.4046064453125,0.10063187305033207,0.008515351421572268,0.00920372412808938
1782846239213611500,2.414611572265625,0.08746201035380363,0.004242240679636597,0.013151920614461413
1782846239223616500,2.424616455078125,0.08895721734762191,0.009557846211828291,0.005687653714977204
1782846239233621500,2.43462158203125,0.07728373068869114,0.010218173284083604,-0.010910012022743467
1782846239243625500,2.44462548828125,0.07877776863873004,-0.007353321904875337,0.008905528916092588
1782846239253630500,2.45463037109375,0.09554010286927223,0.0032795513936318453,-0.006860910161875654
1782846239263635500,2.464635498046875,0.0982341642588377,0.00893054462634027,0.005209498826193157
1782846239273640700,2.474640625,0.07997662303447722,0.016493289764504877,0.01223897048800718
1782846239283645700,2.484645751953125,0.07848200056254863,0.0026448336866684258,0.008593024334241636
1782846239293650700,2.494650634765625,0.08312193532288074,0.009037566931080073,0.018032952387980184
1782846239303655700,2.50465576171875,0.08491583300232887,-0.006750332776736468,-0.0006133392755058594
1782846239313660700,2.51466064453125,0.10347206491231918,-0.0045913829108700155,0.0019652881740010344
1782846239323665700,2.524665771484375,0.09643734396994114,0.000278616011980921,0.007356383794930297
1782846239333670700,2.534670654296875,0.08132628407776356,-0.00025233079325407743,0.005130910314782522
1782846239343675600,2.544675537109375,0.0880605607688427,0.012759327400568872,0.00913927602317417
1782846239353680600,2.5546806640625,0.08731178822815418,0.011733473217859863,0.01967464376395801
1782846239363685600,2.564685546875,0.09898118323385714,0.009729129391815514,0.0082770514369593
1782846239373690600,2.574690673828125,0.09269465031027793,0.010556264398340134,-0.0012151022776495666
1782846239383695600,2.584695556640625,0.09179624016582966,0.004892466482985764,-0.010254415924532804
1782846239393699300,2.59469921875,0.0852151082098484,0.0025167685938999053,0.008759517174679786
1782846239403704300,2.604704345703125,0.09210077607035637,0.004826232846360653,0.001390890386106912
1782846239413709300,2.614709228515625,0.08955752132833003,0.0043391251828521485,-0.022280953804834278
1782846239423714300,2.62471435546875,0.10452361979186535,0.004840535366348922,-0.000720569359511137
1782846239433719300,2.63471923828125,0.08551789054870605,0.010728826219961046,0.012500916209688875
1782846239443724500,2.644724609375,0.07983107708394527,-0.0007480418883264064,0.005933225973881781
1782846239453729500,2.6547294921875,0.06845745015442371,0.006936923123709857,-0.0026995115995290687
1782846239463734500,2.664734619140625,0.07489186711609364,0.021446857051271945,0.011185719125007744
1782846239473739500,2.674739501953125,0.07773264349997043,0.004331106273178011,0.020718563326320143
1782846239483744500,2.68474462890625,0.08880582617819309,-0.00360774216838181,0.007151056781446095
1782846239493749500,2.69474951171875,0.0874590877443552,0.012691194067802279,-0.0056454448413336645
1782846239503754500,2.70475439453125,0.0870142665863037,-0.0054379167376086114,-0.0013229442830081097
1782846239513759500,2.714759521484375,0.09419687156677245,0.009805044172238557,0.016403056481073142
1782846239523764700,2.7247646484375,0.0912058730572462,-0.00000716039314866066,0.0014624509351095184
1782846239533769700,2.734769775390625,0.08896013995707035,-0.005035272487159818,-0.0024218294525984673
1782846239543773700,2.744773681640625,0.09689268652200698,0.013583101406227796,0.0018018435238860546
1782846239553778700,2.75477880859375,0.0983861399501562,0.010139335894212126,0.0012496141853160223
1782846239563783700,2.76478369140625,0.0904524243414402,0.01312008700435981,-0.014695670324587263
1782846239573788700,2.77478857421875,0.08087444865703582,0.007636778488755226,0.0010450612066779286
1782846239583793700,2.784793701171875,0.08356500291526317,-0.0011938311607576906,0.015684902840934226
1782846239593798700,2.794798583984375,0.09523615148663521,0.005236548946611583,0.003457008586078882
1782846239603803600,2.8048037109375,0.10062076713442802,0.002054612708557397,-0.0006237921708612702
1782846239613808600,2.81480859375,0.09358779975771904,0.009385010395571589,0.004310693672811612
1782846239623813600,2.824813720703125,0.07054185521304607,0.0018301745692268013,-0.00009214896259363741
1782846239633818600,2.834818603515625,0.07832476417422295,0.005203012003190815,0.0025109690407756715
1782846239643823600,2.84482373046875,0.09971884985864161,0.004492032455932349,0.00511855772328563
1782846239653828600,2.85482861328125,0.08864391361474991,-0.0011052578281611203,-0.004976480088185053
1782846239663833600,2.86483349609375,0.08924246402978897,0.008908551990240812,-0.0013425257663126104
1782846239673838600,2.874838623046875,0.09417816686630248,0.005259217436145991,0.004124002861138433
1782846239683843600,2.884843505859375,0.09312836555242537,-0.0016558591819368302,0.002211495187145192
1782846239693848600,2.8948486328125,0.08369944294989108,0.0012417802220210433,0.00039376454096054655
1782846239703852500,2.9048525390625,0.09043430416285991,0.008511643360834568,0.005261176497791894
1782846239713857500,2.914857421875,0.08130874842107295,0.007796919220220297,0.003941154824232217
1782846239723862500,2.924862548828125,0.09716916537582873,0.0009535743977874516,0.004393974342360161
1782846239733867500,2.934867431640625,0.09731763393580913,-0.007963982882816344,0.003566026485082693
1782846239743872800,2.944872802734375,0.08265081067979335,0.009195004248805344,0.015356049912481103
1782846239753877800,2.954877685546875,0.09462474159002303,0.010993231043498962,0.022863907075230963
1782846239763882800,2.9648828125,0.07711655742824078,0.011905633180681616,-0.009502599760098382
1782846239773887700,2.9748876953125,0.10285364075303077,0.008489614192117006,-0.0050644643323146735
1782846239783892700,2.984892822265625,0.09432312829494476,-0.00851476689968258,0.007747351307317149
1782846239793897700,2.994897705078125,0.10090659833848475,0.004967869806755334,0.00910296260077739
1782846239803902700,3.00490283203125,0.09447218137681483,0.01993968562502414,-0.00739504443804035
1782846239813907700,3.01490771484375,0.09611877954006194,0.012596921646781264,0.0015780743881245144
1782846239823912700,3.02491259765625,0.08774316538274288,0.012986432421021163,0.011209241564490366
1782846239833917700,3.034917724609375,0.07966448834538459,0.008106551424972713,-0.005435229306889232
1782846239843922700,3.044922607421875,0.08176058384180068,0.02375833059772849,-0.0005149866177001968
1782846239853926700,3.0549267578125,0.09582768763899803,0.007426241010613739,-0.002589400005270727
1782846239863931600,3.064931640625,0.09014145869612693,0.013867909696977584,0.00017593652221839875
1782846239873936600,3.0749365234375,0.07966741095483303,0.015327113795652984,0.003917936062137596
1782846239883941600,3.084941650390625,0.09014321226179599,0.008073069280479102,0.0012978258247720077
1782846239893946600,3.094946533203125,0.09702595751285552,0.005705591230466962,0.00394790194213856
1782846239903951600,3.10495166015625,0.09103928431868552,0.01711606130534783,-0.004664653643057681
1782846239913956600,3.11495654296875,0.10450842222273349,0.012402056661807,-0.006672349336813203
1782846239923961600,3.124961669921875,0.09463643202781677,0.003686214232072234,0.01339274819958955
1782846239933966600,3.134966552734375,0.10196867461204528,0.009234989199321716,0.009356181593309157
1782846239943971600,3.1449716796875,0.10466098243594169,0.017648414616379886,0.022388784393749663
1782846239953976600,3.1549765625,0.08670622355043887,0.015337616923358291,0.02387992485051509
1782846239963981600,3.164981689453125,0.08011690828800201,0.012261460881028323,0.011361619114608038
1782846239973986600,3.174986572265625,0.08834697649478912,0.006447787899896502,0.00403972439445788
1782846239983991600,3.184991455078125,0.07637538367211819,0.0019601758907549084,0.019124508201063144
1782846239993996500,3.19499658203125,0.0867050545066595,0.011636460850480944,0.004704220751754474
1782846240004001500,3.20500146484375,0.08371347147524356,0.012907814226858317,-0.016031878231256267
1782846240014005800,3.215005859375,0.079372811922431,0.006681779318861663,-0.0022074674659990703
1782846240024010800,3.2250107421875,0.08625555717349052,0.00771126849707216,-0.004539024819259066
1782846240034015700,3.235015625,0.09074526980817317,0.010521722807921468,0.0022556448561255817
1782846240044020700,3.245020751953125,0.08850362836122512,0.010982472187466919,0.014626135052600875
1782846240054025700,3.255025634765625,0.08057517344951629,0.0084689915291965,-0.017605379192251712
1782846240064030700,3.26503076171875,0.08521569273173808,0.016593608333822337,-0.010190403927746228
1782846240074035700,3.27503564453125,0.09209843798279761,0.0019521569810807705,0.009547409299493301
1782846240084040700,3.285040771484375,0.09538812717795371,-0.006162157625239342,-0.007468463583989069
1782846240094045700,3.295045654296875,0.08970072919130324,-0.0031210728962905703,0.018291050768317652
1782846240104050700,3.30505078125,0.09733224698305129,0.015132303609605878,0.01292390684513375
1782846240114055700,3.3150556640625,0.10002513932883739,0.012029844082240015,-0.006653651486209128
1782846240124060700,3.325060791015625,0.08536240772604942,0.0035717758058570323,-0.0009028191747958771
1782846240134065700,3.335065673828125,0.08521335464417934,0.010113543865829706,0.004781096796691417
1782846240144070700,3.345070556640625,0.08326689675152302,0.010187120558694005,-0.01058591518450994
1782846240154074600,3.35507470703125,0.08985153583884238,0.008357311315648257,0.003702293150615878
1782846240164079600,3.36507958984375,0.09015198009014129,0.014694295784831047,-0.012203558964619879
1782846240174084600,3.375084716796875,0.08296995963156223,0.009297295579500495,0.01019765108586289
1782846240184089600,3.385089599609375,0.0891015942543745,0.0006143325060606002,0.0060612385510117744
1782846240194094600,3.395094482421875,0.09463818559348583,-0.001330444886162877,0.004299320612137671
1782846240204099600,3.405099609375,0.0917944866001606,0.01621929512871429,0.005598532393109053
1782846240214104600,3.4151044921875,0.09314122503399848,0.010367427295353263,-0.00503250057476107
1782846240224109600,3.425109619140625,0.09284487243592739,0.0018495551231317222,0.0068736463458626525
1782846240234114600,3.435114501953125,0.10361994895040988,0.009423278313037008,0.022580726769275496
1782846240244119600,3.44511962890625,0.09419219539165496,0.01378996735624969,0.0032215238963486624
1782846240254124500,3.45512451171875,0.09553834930360317,0.0025882811938412486,-0.010580117914674338
1782846240264129500,3.465129638671875,0.10287292997539042,0.014910641949251293,0.008330685886915308
1782846240274134500,3.475134521484375,0.09553951834738254,0.004476506093237549,0.010642899218888486
1782846240284139500,3.485139404296875,0.09120061236023902,0.013877590840775519,0.018618515457282773
1782846240294144500,3.49514453125,0.10047872831523418,0.004866528324130922,0.008805507174297235
1782846240304149500,3.5051494140625,0.08491349491477013,0.0030528482319787144,0.006257528308092151
1782846240314153700,3.51515380859375,0.09673018943667411,0.011797770625725387,-0.01050247468475718
1782846240324158700,3.52515869140625,0.09224632202088832,-0.001008629053272307,-0.0043183723724796435
1782846240334163700,3.535163818359375,0.09209902250468731,0.0033832674964331087,0.00023499378267442805
1782846240344168700,3.545168701171875,0.10436989053487777,0.014252981758117674,-0.0021103432174772022
1782846240354173700,3.555173583984375,0.09359247593283652,0.010054671551752836,-0.00730588430026546
1782846240364178700,3.5651787109375,0.09613514615297317,0.006983648342266679,-0.003497386262239888
1782846240374183700,3.57518359375,0.09763152219057082,0.013248426091764121,0.008586469012580346
1782846240384188700,3.585188720703125,0.08401917642354964,0.00990192867545411,0.001537936457269825
1782846240394193700,3.595193603515625,0.08387246142923832,0.006444810491520911,0.005266416645201388
1782846240404198700,3.60519873046875,0.11095803675353526,0.0011304470683448015,0.00006407364557962864
1782846240414203600,3.61520361328125,0.10183072744607925,0.009043266019504517,0.007233492634200956
1782846240424208600,3.625208740234375,0.09973872360289096,0.0027858130599372087,-0.008400801114214118
1782846240434213600,3.635213623046875,0.0844786106288433,0.0227113422954455,-0.00822915032475721
1782846240444218600,3.645218505859375,0.09166180013120175,0.015051931849773973,0.0010841625244938768
1782846240454222600,3.65522265625,0.0787929662078619,0.004411423234082758,-0.00212520514318021
1782846240464227600,3.6652275390625,0.06188333246111869,-0.0003371960651129484,0.008749046013015321
1782846240474232600,3.675232666015625,0.0915156696587801,0.0035358642422594127,0.0024379380538943223
1782846240484237600,3.685237548828125,0.10438333453834056,0.01152801377363503,0.001559456452622544
1782846240494242600,3.69524267578125,0.0906178440362215,0.02075237198108807,-0.0004353957425802946
1782846240504247600,3.70524755859375,0.09017010026872158,0.014265421114582568,-0.007914323638367932
1782846240514252500,3.71525244140625,0.08778057478368281,0.005375445960648357,0.002503276641375851
1782846240524257300,3.72525732421875,0.09960428356826305,0.007976312641426921,-0.004461045945913065
1782846240534262300,3.73526220703125,0.09601415012180804,0.006265216140914708,0.004888459311437327
1782846240544267300,3.745267333984375,0.08075053001642227,0.005712605493143201,0.005315333820844534
1782846240554272300,3.755272216796875,0.08868015397191047,0.013820198097731917,-0.011180885402974673
1782846240564277200,3.76527734375,0.07925123136937617,0.008952245001494883,-0.016207986000122035
1782846240574282200,3.7752822265625,0.09615969607234001,0.01825310251126066,-0.0014210229461779818
1782846240584287200,3.785287353515625,0.09646014032363891,-0.0070647324881516396,0.0007464458695729262
1782846240594292200,3.795292236328125,0.09467033429741858,-0.00043429976403713225,-0.00605572669225512
1782846240604297200,3.805297119140625,0.10843874740898608,0.007250811378471553,0.002744364521407988
1782846240614301200,3.81530126953125,0.08808920234143733,0.005241097257565707,0.0034423384566209278
1782846240624306200,3.82530615234375,0.08479892862439155,0.01281440032236278,-0.015427411815372761
1782846240634311200,3.835311279296875,0.10544891794323921,-0.0024568003012798724,-0.014245332741201855
1782846240644316200,3.845316162109375,0.08554945473074912,0.002254957586247474,0.002720364874601364
1782846240654321200,3.855321044921875,0.09258359115123749,0.010736041412036865,0.010691843793995213
1782846240664326100,3.865326171875,0.09527765254080295,0.010707198910042643,0.008305001173098571
1782846240674331100,3.8753310546875,0.08525193308889865,0.014464103758148848,0.015523248289106412
1782846240684336000,3.885336181640625,0.10380582691133022,-0.00015106237586587666,0.015120583489059935
1782846240694341000,3.895341064453125,0.09123685271739959,0.012087510819919406,0.0018256216916954144
1782846240704346000,3.90534619140625,0.08884265105724334,-0.0012252492123283444,0.005040489801682997
1782846240714351000,3.91535107421875,0.10410451759696006,0.0003456716325134039,-0.0010079531998373567
1782846240724356000,3.925356201171875,0.09078560181856155,0.009199516027141362,-0.0034438248775200916
1782846240734361000,3.935361083984375,0.08629822727143764,0.012543858018983155,-0.00014263932410394771
1782846240744366000,3.945365966796875,0.08764496570527552,0.01538439694084227,0.0006787554948008619
1782846240754371000,3.95537109375,0.0891448488742113,0.01369971352322027,0.0007453864236478693
1782846240764375300,3.965375244140625,0.09617898529469966,0.007215210342127829,0.0037889690703595985
1782846240774380300,3.97538037109375,0.08750351140797137,0.008572068311180918,-0.005222929129924159
1782846240784385300,3.98538525390625,0.07777823620736599,-0.0022755437165498734,0.005408793391112703
1782846240794390300,3.995390380859375,0.09753273799121379,-0.0037020145894028243,0.011599227262765634
1782846240804395300,4.005395263671875,0.09349369173347949,-0.0018315445424057543,0.012160776985529809
1782846240814400300,4.015400146484375,0.09155191001594067,-0.0019625687772408125,0.004670971502701286
1782846240824405200,4.0254052734375,0.09993220034837723,0.00204686779351905,-0.0015462225117138587
1782846240834410200,4.03541015625,0.08272212235033512,0.014558394445478915,0.003466486517188605
1782846240844415200,4.045415283203125,0.09513912085294723,-0.005553688604384661,-0.004355916487448848
1782846240854420200,4.055420166015625,0.09678864162564277,0.00806062992401421,-0.003584719769109506
1782846240864425200,4.06542529296875,0.08646598505377769,0.006281966346316039,-0.003953039341559633
1782846240874430200,4.07543017578125,0.09604396073818207,0.00023377222325652837,-0.007022793042566627
1782846240884435200,4.085435302734375,0.09499591298997402,0.006277637231070548,-0.0009040521506569348
1782846240894440200,4.095440185546875,0.08930559239387512,0.005239142762497067,0.010241780205245596
1782846240904444200,4.105444091796875,0.09663549689054489,0.017030154853872954,0.015531358530325815
1782846240914449200,4.11544921875,0.09544190319180489,-0.002901639725640416,0.006948412632104009
1782846240924454100,4.1254541015625,0.09724398417770862,0.009357775328774005,-0.007794544600043445
1782846240934459100,4.135459228515625,0.09036299249231815,0.007476491626817732,-0.020292136341484728
1782846240944464100,4.145464111328125,0.09081073625981807,-0.0038561639714986082,0.011126947275630664
1782846240954469000,4.15546923828125,0.09739712891280651,0.007110252130310982,-0.014845216596801764
1782846240964474000,4.16547412109375,0.07884148152470588,0.00666798825552687,0.0063617261847946785
1782846240974479000,4.17547900390625,0.08302841182053089,0.00848026184188202,0.008217384538438637
1782846240984484000,4.185484130859375,0.08273089017868042,0.010039693178329616,-0.003614395671454258
1782846240994489000,4.195489013671875,0.08961831160485743,0.00476531470566988,-0.0005514279042603447
1782846241004494000,4.205494140625,0.08991992489993572,-0.000582567394617945,0.0007804668701835907
1782846241014499000,4.2154990234375,0.08258709779381751,-0.012837470670696348,-0.0015272597996285183
1782846241024504000,4.225504150390625,0.08483516898155212,0.015871796865295617,-0.0029525456456816752
1782846241034509000,4.235509033203125,0.08842237981855869,-0.00923305297056213,0.019905865553813053
1782846241044514300,4.245514404296875,0.0945563525289297,-0.00438294605826959,-0.0044325276709045285
1782846241054518300,4.255518310546875,0.09200900613367557,0.008474672351311892,-0.005987358180759474
1782846241064523300,4.265523193359375,0.087218849247694,0.0004743943124078214,0.004463747076364234
1782846241074528300,4.2755283203125,0.09186053757369518,0.0009318374900147318,0.014205818148143588
1782846241084533200,4.285533203125,0.08497779232263565,0.014522939539607614,0.008554608003015165
1782846241094538200,4.295538330078125,0.07913841864466667,0.008399122897069901,0.011606634251086507
1782846241104543200,4.305543212890625,0.09724456869959831,0.012133724581822752,0.003533341208321508
1782846241114548200,4.31554833984375,0.08691898951828479,0.004694916350580751,-0.007806579814420547
1782846241124553200,4.32555322265625,0.09544716388881205,0.007297993254754692,-0.016767690825671887
1782846241134558200,4.33555810546875,0.08137713748216628,0.019009747831150888,-0.0022054193560965356
1782846241144563200,4.345563232421875,0.10606500401496886,0.0020657551570795476,0.00701066421335563
1782846241154568200,4.355568115234375,0.10127543165087699,0.002713843802269548,0.019691412235668393
1782846241164573200,4.3655732421875,0.08990823446214198,0.015050927202776074,0.0002565229111816734
1782846241174578200,4.375578125,0.10188333441615104,0.0006567103430628776,0.010188485965295695
1782846241184583200,4.385583251953125,0.09290449366867541,0.013263130470551549,0.008777856548968703
1782846241194588200,4.395588134765625,0.08302315112352371,0.00210283576445654,-0.004579448161192704
1782846241204592000,4.405592041015625,0.0897591813802719,0.004537369435001165,-0.0056736731386859895
1782846241214597000,4.41559716796875,0.08721709568202494,0.01508762421766296,-0.004761373749491759
1782846241224602000,4.42560205078125,0.08886427836716175,-0.018154208714049307,0.006462341581634245
1782846241234607000,4.435607177734375,0.08033785756230354,-0.008700352599658071,0.0069866029177559534
1782846241244612000,4.445612060546875,0.09724632226526736,0.009585410072188823,0.007188523264601826
1782846241254617000,4.4556171875,0.09021393941044807,-0.005704422186687588,0.005383492269786075
1782846241264622300,4.465622314453125,0.09380407285690306,0.007525975058041512,-0.006468326081137638
1782846241274627300,4.47562744140625,0.10966565885543822,-0.001619308297522366,0.009968774233432487
1782846241284632300,4.48563232421875,0.10457681128382683,-0.009333590735588222,-0.00401860625790432
1782846241294637300,4.49563720703125,0.09125964907109736,0.0029227738452143963,0.0028642029252368955
1782846241304642300,4.505642333984375,0.09141162476241588,0.006700155225768685,0.0028549167903722263
1782846241314647300,4.515647216796875,0.10547463690638542,0.01461620731363073,0.0027551781763671896
1782846241324652300,4.52565234375,0.08077917158901692,0.00003196604084223509,0.01721208272546064
1782846241334657300,4.5356572265625,0.09708908587694168,0.001091503297444433,-0.01130703709986992
1782846241344661200,4.5456611328125,0.09080839817225933,-0.0019265293494798242,-0.0015131856085034087
1782846241354666200,4.555666259765625,0.08362871580123901,0.004066226525604725,0.00035417459937743843
1782846241364671200,4.565671142578125,0.09350538217127323,-0.008828289828263223,0.018497816253639755
1782846241374676200,4.57567626953125,0.0966477718502283,0.008529927936196327,0.0009706944959471001
1782846241384681200,4.58568115234375,0.09455342991948128,0.009239446178730577,0.0032534899371908974
1782846241394686200,4.595686279296875,0.0951531493782997,0.004107544916681945,0.00866589092434151
1782846241404691200,4.605691162109375,0.08004267400801181,0.010699527060240506,0.002354193876753561
1782846241414696200,4.6156962890625,0.09156593854129313,-0.002086907542962581,0.011189886126760393
1782846241424701200,4.625701171875,0.09007190059125422,-0.013411599030531941,0.012446384427300653
1782846241434706200,4.6357060546875,0.09411503850221634,0.0029253128621727228,0.004900426027155481
1782846241444711200,4.645711181640625,0.09187222801148891,0.012710994746815413,0.01110425595320994
1782846241454716200,4.655716064453125,0.09307166692912577,0.006022073301114142,-0.002618870411638636
1782846241464721200,4.66572119140625,0.1069873795568943,0.01114281384833157,-0.011883973904722369
1782846241474726100,4.67572607421875,0.09426584514975547,-0.005671597629319876,-0.014500876121560577
1782846241484730400,4.68573046875,0.08917816662192345,-0.0042230245225131505,0.005021020199521445
1782846241494735400,4.6957353515625,0.07915595430135726,-0.0009581227087415755,0.006968021514872089
1782846241504740400,4.705740234375,0.08110065862834454,0.013745123567525297,-0.0038867714556050483
1782846241514745300,4.715745361328125,0.0894809489607811,0.004295505236834287,-0.019526499430963302
1782846241524750300,4.725750244140625,0.11252747802734374,-0.006883548968657851,0.0015668931236956269
1782846241534755300,4.73575537109375,0.10309680185914039,-0.007633527085743844,-0.006829583441850263
1782846241544760300,4.74576025390625,0.07855389675498008,0.0030652510558255015,-0.016769601938256527
1782846241554765300,4.755765380859375,0.09142623780965804,0.012936601929925382,0.008112334995076525
1782846241564770300,4.765770263671875,0.10234744479656219,0.0012341449048370121,0.011910418953653424
1782846241574775300,4.775775390625,0.08693243352174758,0.005357435379922389,0.007420546488766558
1782846241584780300,4.7857802734375,0.0875333220243454,0.012288111425936221,-0.010750547144713345
1782846241594785300,4.795785400390625,0.08633622119426727,0.0038852256692014633,0.0023895346181932835
1782846241604790300,4.805790283203125,0.08723170872926711,-0.0010765249240212143,-0.00019702269273111594
1782846241614795300,4.815795166015625,0.08378945932090281,0.02362069395901635,-0.00451703446644824
1782846241624799200,4.82579931640625,0.10219371553957461,0.001555668476782739,-0.005429724297998473
1782846241634804200,4.83580419921875,0.09276537745893002,-0.007233074792381376,-0.0004969897367060184
1782846241644809200,4.845809326171875,0.09455927513837814,0.00003417626423761248,0.007632166245719417
1782846241654814200,4.855814208984375,0.10174188011884688,0.0058454928915016345,0.011684092534624504
1782846241664819200,4.865819091796875,0.08797171344161032,0.0015136924985796212,0.010301072644430677
1782846241674824200,4.87582421875,0.08213233976364136,0.011404405660275369,-0.0037541192359756676
1782846241684829200,4.8858291015625,0.09455167635381222,0.001097330250032246,-0.008602335585281253
1782846241694834200,4.895834228515625,0.08946399782598018,0.002753700888622552,-0.0031311193662695584
1782846241704839200,4.905839111328125,0.087815646097064,0.003015237901639193,0.002736108149716165
1782846241714844200,4.91584423828125,0.08601941033005714,0.006197064541839063,0.00009179276956710964
1782846241724849200,4.92584912109375,0.08138239817917346,0.014792696391697972,-0.006018570736353286
1782846241734854100,4.935854248046875,0.08631868553757667,-0.005772062329109758,0.0116310220569605
1782846241744859100,4.945859130859375,0.08152969769537448,-0.0036415348401293156,-0.00310885273553431
1782846241754864000,4.955864013671875,0.0860170722424984,-0.0011530972915701568,-0.004137337266746908
1782846241764869000,4.965869140625,0.09095102151334285,-0.004578980087023228,0.001183860039303545
1782846241774873300,4.975873291015625,0.07882920656502246,0.020612799113616347,-0.007602606791094877
1782846241784878300,4.98587841796875,0.08092121040821075,0.004759999209735542,-0.00261418966994388
1782846241794883300,4.99588330078125,0.09005027328133583,0.005904986260086298,0.0001049216791987419
1782846241804888300,5.005888427734375,0.0884042596399784,0.010226831514574587,-0.0030580038977088405
1782846241814893300,5.015893310546875,0.09768296011686324,-0.002096899214014411,0.005153859648818615
1782846241824898300,5.025898193359375,0.08795359326303005,0.0014529022220522165,0.006674616642424371
1782846241834903300,5.0359033203125,0.10067220506072044,-0.0036151765561662614,0.006137112232239451
1782846241844908300,5.045908203125,0.09229249925017356,0.003273176451772451,0.006851797556946985
1782846241854913300,5.055913330078125,0.09932429758310317,-0.004142159572336822,-0.004186471354810055
1782846241864918300,5.065918212890625,0.08555705351531505,0.0008020005652680992,-0.0009086826600017957
1782846241874923300,5.07592333984375,0.0975280618160963,0.009618855684064329,-0.013498985053040086
1782846241884928300,5.08592822265625,0.09573474865853786,-0.003652878218051046,0.009473668209847528
1782846241894933200,5.095933349609375,0.10291560007333755,-0.01015307215861976,0.00066401686668396
1782846241904938200,5.105938232421875,0.09857552504241467,0.007076368127018213,-0.015801325444970277
1782846241914942200,5.115942138671875,0.08436170625090599,0.0070113583330996335,0.0013948473253054543
1782846241924947200,5.125947265625,0.0961819079041481,-0.004448832635022699,0.0022730640650959685
1782846241934952200,5.1359521484375,0.09408639692962169,-0.0026282113454304634,-0.001614744003547821
1782846241944957200,5.145957275390625,0.09603227030038833,0.01920021063564345,-0.004483771517663262
1782846241954962200,5.155962158203125,0.08376607844531536,0.011094188933633268,-0.01760840911626583
1782846241964967200,5.16596728515625,0.0967827964067459,0.005928111407347023,-0.004240841023705434
1782846241974972200,5.17597216796875,0.09289046514332294,0.004521313349343836,0.008927160792588255
1782846241984977200,5.18597705078125,0.10890168874561786,0.01558874214021489,0.00016049920778023077
1782846241994982100,5.195982177734375,0.07119827329516411,0.013231274027563631,-0.005956661648396402
1782846242004987100,5.205987060546875,0.08571428990364074,0.00046129736881703133,0.01460572930210037
1782846242014992100,5.2159921875,0.08422025195360183,0.012476345740724355,0.005280157476186286
1782846242024997000,5.2259970703125,0.0918511852234602,0.006218746650684625,-0.000930172972602304
1782846242035002000,5.236002197265625,0.10097557192146778,0.004289203360211104,-0.0005876454285345972
1782846242045007000,5.246007080078125,0.09245032016038894,0.0014077113734558223,0.008195818877313285
1782846242055011300,5.25601123046875,0.09978665439784526,0.0004737915242090821,0.002381109283142723
1782846242065016300,5.266016357421875,0.09335516004562378,-0.0020581929051317273,-0.014864309456339105
1782846242075021300,5.276021240234375,0.1018850879818201,-0.005509593734331428,-0.004824997587210964
1782846242085026300,5.2860263671875,0.08871756337285042,-0.008836071275919675,0.0018405269998824222
1782846242095031300,5.29603125,0.08318214107751846,0.009537333146762103,0.00035812697199871763
1782846242105036300,5.306036376953125,0.09275544058680533,0.002944181959424168,0.008096274342841934
1782846242115041300,5.316041259765625,0.09559563244879245,0.017288988453149794,-0.003597330372221768
1782846242125046300,5.32604638671875,0.08961012829840183,0.00876784661160782,0.0026968127523665313
1782846242135051300,5.33605126953125,0.09544774841070175,0.015701646196469663,-0.005557335016329307
1782846242145056300,5.34605615234375,0.08033785756230354,-0.004630491078551858,0.013792061131924856
1782846242155061200,5.356061279296875,0.09769874220788478,-0.005365545621141791,-0.006735342986870091
1782846242165066200,5.366066162109375,0.08797229796350002,0.018265158275235442,-0.009819572737801353
1782846242175071200,5.3760712890625,0.0854243670463562,-0.006549458176083862,-0.0015389890533289872
1782846242185076200,5.386076171875,0.1015846437305212,0.005624379220418632,-0.0012731206417782232
1782846242195080200,5.396080078125,0.0867705209583044,0.005784720881283283,0.021310752499231603
1782846242205085200,5.406085205078125,0.09933891063034533,-0.00375754416892305,0.0013180603286251425
1782846242215090200,5.416090087890625,0.10307985072433948,0.013611468984186649,-0.011419479931821115
1782846242225095200,5.42609521484375,0.11355448298752308,0.014928725595213473,-0.004510269082232844
1782846242235100200,5.43610009765625,0.09394961880743503,-0.012329703811649233,-0.0205480952803744
1782846242245105200,5.446105224609375,0.0918511852234602,0.0038323629708029326,-0.010708815478393807
1782846242255110100,5.456110107421875,0.09364917455613612,0.007472144245263188,-0.003955229015357327
1782846242265115100,5.466115234375,0.09604220717251301,-0.0059302485655061896,-0.006332911082264036
1782846242275120400,5.476120361328125,0.09439736257493496,0.0007375570269301533,-0.00041396022890694434
1782846242285125400,5.48612548828125,0.09110708885788917,0.013525252005457877,-0.0004872652104240842
1782846242295130400,5.49613037109375,0.09664484924077987,0.005371153378020971,0.0019510062036104498
1782846242305135400,5.50613525390625,0.09619768999516963,-0.004420739051699638,0.003030332722782623
1782846242315140400,5.516140380859375,0.09709843822717666,0.0005159684318117797,-0.011337135410611517
1782846242325144300,5.526144287109375,0.08842296434044837,0.005597710409201681,-0.00251135491655441
1782846242335149300,5.5361494140625,0.0942559082776308,-0.0031024960599839685,0.006282450403505936
1782846242345154300,5.546154296875,0.10457505771815777,-0.0028475897171534596,-0.008916068576416001
1782846242355159300,5.5561591796875,0.09709025492072104,-0.0017928382335230706,0.016592053414264226
1782846242365164300,5.566164306640625,0.08556640586555003,-0.0003735460201278329,-0.021635584556404498
1782846242375169300,5.576169189453125,0.0849666864067316,0.007926500416640192,0.0002551963204867206
1782846242385174300,5.58617431640625,0.07388999659717083,-0.00434986577257514,-0.014082748890900984
1782846242395179300,5.59617919921875,0.0824175864458084,0.013966310303844511,-0.01912767968897242
1782846242405184300,5.606184326171875,0.09439268639981746,0.010951711723022162,0.0035670379819464867
1782846242415189200,5.616189208984375,0.07299509358406066,0.01123429152406752,0.014677463381038978
1782846242425194200,5.6261943359375,0.09274959536790847,-0.006666052026767283,-0.0026201833026017994
1782846242435199200,5.63619921875,0.07778349690437317,0.003145001761149615,-0.011346147550840395
1782846242445204200,5.646204345703125,0.08646481600999832,0.009651735040359198,-0.005562753260252066
1782846242455209200,5.656209228515625,0.0825742383122444,0.0032032530207186933,-0.01238090884250123
1782846242465213200,5.666213134765625,0.10965104580819607,0.011316526447422802,-0.001203610485966783
1782846242475218200,5.67621826171875,0.10950082368254661,-0.0022800006959587333,0.00728733714671107
1782846242485223200,5.68622314453125,0.0910971519857645,0.0018379560168832539,0.00487959330168087
1782846242495228400,5.696228515625,0.091092475810647,0.020730324546061454,-0.00007484848463209346
1782846242505233400,5.7062333984375,0.08525660926401615,0.019835567663423717,-0.02149029661748791
1782846242515238400,5.71623828125,0.08585749776661396,0.00056126887826249,-0.0020340539777185767
1782846242525243100,5.7262431640625,0.09468845447599887,-0.002373469399381429,-0.001108758109633345
1782846242535248100,5.736248046875,0.09858195478320121,0.003194960116408765,-0.004471167764416896
1782846242545253000,5.746253173828125,0.08286942186653613,0.0005139774041250347,0.0031203513770829885
1782846242555258000,5.756258056640625,0.08750994114875793,0.01390710919620469,0.012731941636721603
1782846242565263000,5.76626318359375,0.10427169085741042,0.014088950302824378,0.012259138776489998
1782846242575268000,5.77626806640625,0.09215338304042815,-0.0006791413705796003,-0.008050645102828276
1782846242585273000,5.786273193359375,0.06985621103644371,0.0026826632127165792,0.0103518096011132
1782846242595277000,5.796277099609375,0.0906570070028305,-0.011412187107931822,-0.013473295772646087
1782846242605282000,5.806281982421875,0.09574293196499348,0.007363496239017695,-0.009408484885992947
1782846242615287000,5.816287109375,0.08586334298551082,0.002586746823880821,0.01944939734045183
1782846242625292000,5.8262919921875,0.09469079256355761,-0.0072431943275965745,-0.0012877725049271248
1782846242635297000,5.836297119140625,0.10486614961922168,0.0021912264339625834,0.0005233571538235992
1782846242645302000,5.846302001953125,0.09289397227466106,0.019011355266347528,-0.009195771433785558
1782846242655307000,5.85630712890625,0.08226677979826927,0.007004965124931186,-0.0006861008343286812
1782846242665312000,5.86631201171875,0.09124445150196552,0.005535367496404797,-0.008882246221916284
1782846242675317000,5.87631689453125,0.07149111876189708,0.016799487903155386,-0.011139500796527136
1782846242685322000,5.886322021484375,0.0839127934396267,0.00502833128971979,-0.004518498054461088
1782846242695327000,5.896326904296875,0.09484276825487613,0.00025653204433619977,0.008469888861628715
1782846242705332000,5.90633203125,0.09424363331794738,0.0016035627391189336,-0.012123611896473449
1782846242715337000,5.9163369140625,0.08885492601692677,0.00047243981733918186,0.01484465034122113
1782846242725342000,5.926342041015625,0.08945581451952457,0.0006664280194789171,-0.0017504033143050037
1782846242735346200,5.93634619140625,0.09364332933723926,-0.005336045532021671,-0.0012450681576505302
1782846242745351200,5.94635107421875,0.08331424302458762,0.008740903805755078,0.004651173106976785
1782846242755356200,5.956356201171875,0.09453764782845973,0.0046843766902573405,0.001651052859367337
1782846242765361200,5.966361083984375,0.09333937795460223,0.01148218360422179,-0.0004308108990080654
1782846242775366100,5.9763662109375,0.08300970712006092,0.007497406550683081,0.0018896976205636745
1782846242785371100,5.98637109375,0.07791793693900108,0.015589052667468786,-0.013449102046305778
1782846242795376000,5.996376220703125,0.09168459648489952,0.02263314422639087,-0.010495129345229361
1782846242805381000,6.006381103515625,0.09931786784231662,0.011176113329734652,0.0018934148144559002
1782846242815386000,6.01638623046875,0.08405483225882053,0.012081208943296224,0.002656814102118369
1782846242825391000,6.02639111328125,0.08734802858531475,0.010813326165638864,0.0024485941619379445
1782846242835396000,6.03639599609375,0.08690203838348388,0.005302380724437535,-0.001916405247687362
1782846242845401000,6.046401123046875,0.09737491708099842,0.009565956453047692,0.00019335344790015368
1782846242855406000,6.056406005859375,0.09572481178641319,0.0010625146649777888,-0.001629012274206616
1782846242865411000,6.0664111328125,0.09078910894989967,0.003363722545746714,0.00016258156701223924
1782846242875415000,6.0764150390625,0.09946516735851764,0.014751725060492753,-0.006408492502546869
1782846242885420000,6.086419921875,0.09258066854178905,-0.0016488449192605913,-0.013111670802463777
1782846242895425000,6.096425048828125,0.08285188620984554,-0.0014177578434348105,-0.005865567565150559
1782846242905430000,6.106429931640625,0.09108078537285327,-0.001967592012230307,0.010253705821768381
1782846242915435000,6.11643505859375,0.09122925393283367,0.002446096244174987,-0.0003254508283920586
1782846242925440000,6.12643994140625,0.09736322664320468,0.01267972282571718,0.005701689090195577
1782846242935445000,6.136445068359375,0.09646364745497703,0.011553002084419131,-0.011148556319240015
1782846242945450000,6.146449951171875,0.08927695082128047,0.018476974395010618,-0.007221802196407225
1782846242955455000,6.156455078125,0.09675590839982032,-0.0029042700741440056,-0.004223284817417152
1782846242965460000,6.1664599609375,0.08523673551976681,0.006842869898397475,-0.007006072519917506
1782846242975465000,6.17646484375,0.0820955148845911,0.002615333597548306,0.0022315470279077997
1782846242985470000,6.186469970703125,0.0861339766204357,0.010178370996657759,0.0020991414034506307
1782846242995475000,6.196474853515625,0.0943605376958847,0.004511851401254535,0.000869079018686898
1782846243005479200,6.206479248046875,0.09884732772111893,0.007601962903700768,-0.0017024451198871247
1782846243015484200,6.216484130859375,0.08418634968400002,-0.00018399653108790514,-0.002828544806677382
1782846243025489200,6.2264892578125,0.09286649974584579,-0.000992098043579608,-0.008479622521065175
1782846243035494100,6.236494140625,0.09211948077082634,0.01226149741364643,-0.007945264482614584
1782846243045499100,6.2464990234375,0.09256839358210563,0.005976918985135853,0.0034805310255615037
1782846243055504100,6.256504150390625,0.10184358692765236,0.015969923477526755,-0.009984170448675285
1782846243065509000,6.266509033203125,0.08747486983537674,0.014641652282141149,0.0010063115153112448
1782846243075514000,6.27651416015625,0.09016834670305252,-0.00019482845235615966,-0.00009227682675700634
1782846243085519000,6.28651904296875,0.10438275001645088,0.01018087348099798,0.000010471161664463578
1782846243095524000,6.296524169921875,0.10378712221086024,0.010229388797841965,-0.01354434714828385
1782846243105529000,6.306529052734375,0.09615677346289157,0.014802797660604118,0.006392920474079437
1782846243115534000,6.3165341796875,0.09765899471938609,0.00602307794811204,0.01847467512335861
1782846243125539000,6.3265390625,0.08478957627415656,0.005716094358172268,0.004357496523181907
1782846243135543000,6.33654296875,0.10349252317845821,0.004435370365250856,0.005479675803391728
1782846243145548000,6.346548095703125,0.09736030403375626,0.007150291879754513,-0.007850457772053778
1782846243155553000,6.356552978515625,0.0765624306768179,-0.0014453947690315544,-0.000011937032965943217
1782846243165558000,6.36655810546875,0.09048106591403483,0.002037040519248694,-0.0038370939448475836
1782846243175563000,6.37656298828125,0.08928396508395671,0.003966876070667058,0.0024039010702632366
1782846243185568000,6.386568115234375,0.07641162402927876,0.012227923937607556,0.00993840421134373
1782846243195573000,6.396572998046875,0.09182195912897587,0.010675433798599988,0.004122221896005794
1782846243205578000,6.406577880859375,0.09989888260066508,0.007708583349641412,-0.005770658106601331
1782846243215583000,6.4165830078125,0.07924597067236899,-0.0023359138679690658,0.004830920437921304
1782846243225588000,6.426587890625,0.0934586204200983,-0.002513133598398417,0.0010384465195122175
1782846243235593000,6.436593017578125,0.08642389947772025,0.004285878891963512,0.0123344576185802
1782846243245598000,6.446597900390625,0.07625088050961494,0.010773414280358702,0.003900936978275422
1782846243255603200,6.456603271484375,0.10648059907853603,0.014076090821251273,-0.018575530265504493
1782846243265607200,6.466607177734375,0.08194120110571385,0.00473473690431565,-0.004880458668072242
1782846243275612200,6.476612060546875,0.07924597067236899,0.021424517355300484,0.011371992094861344
1782846243285617200,6.4866171875,0.09331248994767666,0.0038757819874212143,-0.004927900839259382
1782846243295622100,6.4966220703125,0.09645487962663173,-0.0010455452638678253,-0.005559803251340053
1782846243305627100,6.506627197265625,0.0992974095761776,0.009141392631735652,0.01013787687277654
1782846243315632000,6.516632080078125,0.08598024736344814,0.012107348031550644,0.013491794977139215
1782846243325637000,6.52663720703125,0.08897358396053313,0.014185469479858874,-0.011523449479660485
1782846243335642000,6.53664208984375,0.09615501989722251,0.005862188297975808,-0.01745047175833024
1782846243345647000,6.546647216796875,0.08627776900529861,0.008897847933135927,0.006880977985658682
1782846243355652000,6.556652099609375,0.08971943389177321,0.015613237260654568,-0.0167150770057342
1782846243365657000,6.566656982421875,0.09690203887224197,0.0066453562986105675,-0.011231124602735508
1782846243375662000,6.576662109375,0.08403320494890212,0.004117426989879459,0.0017447202089009804
1782846243385667000,6.5866669921875,0.08926993655860424,0.004882547877170146,-0.0011579241637373343
1782846243395671000,6.596671142578125,0.09809387900531291,-0.008854027057718485,-0.002920901548536494
1782846243405676000,6.606676025390625,0.09345569781064987,0.0068281289869919415,-0.0008963483348139561
1782846243415681000,6.616680908203125,0.09928864174783229,0.012948292367719112,-0.0065405898830387735
1782846243425686000,6.62668603515625,0.0861211171388626,0.013378737940546124,-0.005762869809078984
1782846243435691000,6.63669091796875,0.09330313759744167,0.01684380196891725,-0.0005050839949049987
1782846243445696000,6.646696044921875,0.099436525785923,-0.004763780335709452,-0.02789647843193961
1782846243455701000,6.656700927734375,0.09300152430236339,-0.015679269967880098,-0.008493144156341441
1782846243465706000,6.6667060546875,0.0956932476043701,0.00264121695747599,-0.0009758707112749107
1782846243475711200,6.676711181640625,0.10063128852844237,0.004128752101492136,-0.00895275645814836
1782846243485716200,6.68671630859375,0.07908522715270519,-0.005357672841940075,-0.0021403730295598508
1782846243495721200,6.69672119140625,0.0726537328004837,-0.0021992818762548265,0.008032903950160835
1782846243505726200,6.706726318359375,0.08522153795063495,0.007906425742991267,-0.006141722191986628
1782846243515731200,6.716731201171875,0.0921036986798048,0.013219747986551374,-0.011371592519350816
1782846243525735400,6.7267353515625,0.1036275477349758,0.0057823462611064315,-0.0020683010239037685
1782846243535740400,6.736740478515625,0.09525018001198768,0.0019455628435127437,0.0006000414025154895
1782846243545745400,6.746745361328125,0.08777180695533753,0.0064413764254190025,-0.012249880041088908
1782846243555750400,6.75675048828125,0.08013970464169978,0.01514589374354109,-0.01297011147388257
1782846243565755400,6.76675537109375,0.09808861830830573,0.0020091478653252123,-0.0022897868710337207
1782846243575760400,6.776760498046875,0.09344576093852519,0.002627736421395093,-0.011125097811839077
1782846243585765400,6.786765380859375,0.08805705363750457,0.002254062537103891,-0.00541791741248453
1782846243595770400,6.796770263671875,0.08805763815939426,0.011364548573922365,0.0004949576098239049
1782846243605775400,6.806775390625,0.0931453166872263,0.006857446413021534,0.005368066371791064
1782846243615780400,6.8167802734375,0.098233579736948,0.013998513806704431,-0.008656175531214103
1782846243625785300,6.826785400390625,0.10122574729025363,0.007140702067501842,0.002722335352690425
1782846243635790300,6.836790283203125,0.10332067374289035,0.0008510090724565088,0.005587476709554903
1782846243645795300,6.84679541015625,0.10362053347229958,-0.005303787230234593,0.004261746814416255
1782846243655799000,6.856799072265625,0.08566109841167927,0.021448263557069,0.0014172532366472296
1782846243665804000,6.866803955078125,0.08880582617819309,0.011013451847620308,-0.012616496280219871
1782846243675809300,6.876809326171875,0.0932972923785448,0.023349694997910408,-0.015748426213953642
1782846243685814300,6.886814208984375,0.1004822354465723,0.00842058581020683,0.002285425789747387
1782846243695819300,6.8968193359375,0.08971008154153823,0.0026334903087466954,0.017336709185549987
1782846243705824300,6.90682421875,0.09793839618265628,-0.0032634405090473592,0.0011089110899716616
1782846243715829200,6.916829345703125,0.072349196895957,0.0017259652760811149,-0.008638521143514662
1782846243725834500,6.92683447265625,0.0871621506243944,-0.007484474003873765,-0.0016390747272060251
1782846243735839500,6.936839599609375,0.09868541515767573,0.019549115404859183,-0.0035428077229880724
1782846243745844500,6.946844482421875,0.08821078289449215,0.012165124367084354,-0.0015666716446983628
1782846243755849500,6.956849365234375,0.089262922295928,0.008373184738215059,-0.01855305128892651
1782846243765854500,6.9668544921875,0.0735509739011526,0.004764218727126717,-0.0038209373944904654
1782846243775859500,6.976859375,0.08028525059223175,0.010135700898710638,-0.0029768969189375638
1782846243785863200,6.98686328125,0.0865700299501419,0.0019007921200245618,-0.008782642321940511
1782846243795868200,6.9968681640625,0.08716974940896034,-0.002510905108693987,-0.006492688770836684
1782846243805873200,7.006873046875,0.10258359163999557,0.004198401537910104,-0.0006655763528193347
1782846243815878100,7.016878173828125,0.09824643921852111,0.01636840300951153,0.0028912507623666895
1782846243825883100,7.026883056640625,0.07849427552223205,0.012467450048215686,-0.0034491540731862187
1782846243835888000,7.03688818359375,0.07699848400652408,0.0013829422583803534,0.0069525088519090785
1782846243845893400,7.046893310546875,0.08612520879209042,0.00876393762147054,-0.007282256829505786
1782846243855898400,7.0568984375,0.08223696918189526,-0.0058443603803403675,-0.011144373334466945
1782846243865903400,7.0669033203125,0.08882394635677338,0.0028553528985008595,-0.00046915188170969485
1782846243875908400,7.076908447265625,0.07161503740251064,0.00692188995135948,-0.001271823733835481
1782846243885913300,7.086913330078125,0.0945125133872032,0.012493296875525264,0.00963852621562546
1782846243895918300,7.09691845703125,0.10049626397192478,0.0028607597259804607,-0.016225791084871162
1782846243905923300,7.10692333984375,0.10393617529273033,0.014603694891929626,-0.016934345779602882
1782846243915927300,7.11692724609375,0.08598258545100688,0.011038896816130727,-0.0027464742801035754
1782846243925932300,7.126932373046875,0.08777706765234469,0.000009206219762563705,-0.00948354799975641
1782846243935937300,7.136937255859375,0.0960071358591318,0.011408168519940226,0.005775121935876086
1782846243945942300,7.1469423828125,0.1009440077394247,0.012796462806873023,0.004692301985097583
1782846243955947300,7.156947265625,0.09376140275895595,0.01368073482811451,-0.011231040121056138
1782846243965952300,7.1669521484375,0.09855039060115814,0.005712203634344041,-0.016663390200980937
1782846243975957200,7.176957275390625,0.09001987814307212,0.013984613145515322,0.00017728822908829898
1782846243985962200,7.186962158203125,0.08463409345149993,-0.00013396511059254407,-0.014370842833991627
1782846243995967200,7.19696728515625,0.07820318362116813,0.013336140907835215,-0.0023069914508727376
1782846244005972200,7.20697216796875,0.09032324500381946,0.002893255489785224,-0.007321979201829526
1782846244015977500,7.2169775390625,0.09361761037409305,0.011174304965138434,0.003253825580619741
1782846244025982500,7.226982421875,0.08673311155736446,0.0056901379330083724,0.018124418647272978
1782846244035987500,7.236987548828125,0.07775543985366822,0.0002871646446175873,0.013940589057409669
1782846244045991200,7.2469912109375,0.09765782567560673,0.005658135359548032,0.00004635075922124088
1782846244055996200,7.25699609375,0.09167349056899547,0.0055870063520967956,-0.010689188329316675
1782846244066001200,7.267001220703125,0.0922737945497036,0.0014639350727200507,-0.007003554052556865
1782846244076006100,7.277006103515625,0.09242401667535305,-0.007530961760412901,-0.0039009506780072114
1782846244086011100,7.28701123046875,0.08898059822320938,0.002696582140214741,-0.0024878461768035776
1782846244096016100,7.29701611328125,0.0850888514816761,0.011125406055804341,-0.012064545502862893
1782846244106021000,7.307021240234375,0.09271920022964476,0.0059396191820502275,0.0059835405221674584
1782846244116026000,7.317026123046875,0.08433715633153915,-0.007250391253363341,0.006999099356436636
1782846244126031000,7.327031005859375,0.10094693034887313,-0.00035257629733532667,0.0046557533839717506
1782846244136036000,7.3370361328125,0.09167056795954703,0.0012455065490677953,-0.004096190122317057
1782846244146041000,7.347041015625,0.08717851723730563,0.01108509231172502,-0.004841195236763451
1782846244156046000,7.357046142578125,0.09271218596696854,0.019735358691960574,0.009039982650452293
1782846244166051000,7.367051025390625,0.11441373016536235,0.01176363089410588,-0.0039027613258920606
1782846244176055300,7.37705517578125,0.09630991819798945,0.005228347373846918,-0.005902865084947552
1782846244186060300,7.387060302734375,0.09361527228653431,0.006615710079018026,0.0045670225044596
1782846244196065300,7.397065185546875,0.10633446860611438,0.011833353395760058,-0.002549257507838774
1782846244206070300,7.4070703125,0.08822890307307243,0.009732636523153633,-0.016680478333099744
1782846244216075300,7.4170751953125,0.09570902969539165,0.009656392949167638,-0.0003166921332012862
1782846244226080300,7.427080322265625,0.08733400005996227,0.004059924648981541,0.0020690316762658765
1782846244236085200,7.437085205078125,0.09376666345596313,0.010292900754418223,-0.001973784290999174
1782846244246090200,7.44709033203125,0.09631400985121727,-0.0003349493090994656,0.0006585849230294115
1782846244256095200,7.45709521484375,0.08584171567559241,0.006148622290231287,0.004322466308996081
1782846244266100200,7.467100341796875,0.09227204098403453,0.003502583027165383,0.013949092024273704
1782846244276105200,7.477105224609375,0.08134791138768195,0.00861345976749435,-0.0008626812439411878
1782846244286110200,7.487110107421875,0.09631342532932757,0.010174553338065743,-0.00386543868992012
1782846244296114200,7.4971142578125,0.09526596210300922,0.002543309540953487,0.004884134762769099
1782846244306119200,7.507119140625,0.10424129571914673,0.010419742004480212,-0.011408737058809492
1782846244316124200,7.517124267578125,0.09601064299046992,0.0014796440985053777,-0.0018731026787892915
1782846244326129200,7.527129150390625,0.09825579156875609,-0.008130772550776601,-0.004194287051795981
1782846244336134100,7.537134033203125,0.08134791138768195,-0.0026630634631030258,-0.014823420323524624
1782846244346139100,7.54713916015625,0.08539163382053375,0.0074957991154864425,-0.0075201138561242255
1782846244356144000,7.55714404296875,0.09182663530409335,-0.0034631095333024857,0.0030105822761193847
1782846244366149000,7.567149169921875,0.08539221834242343,0.008226926401630044,-0.010359024793189018
1782846244376154000,7.577154052734375,0.08045359289646148,0.0028811083942651746,-0.011477011955471243
1782846244386159000,7.5871591796875,0.09496785593926906,0.009335216437093913,-0.013514552514930256
1782846244396164000,7.5971640625,0.10215396805107593,0.007805084260366857,-0.009975030444283038
1782846244406169000,7.607169189453125,0.09631927054822444,-0.00018081819331273435,0.0003306407434516586
1782846244416174000,7.617174072265625,0.09122808488905429,0.002975161619577557,-0.004509310101007577
1782846244426178300,7.62717822265625,0.08793488856256007,0.002410897066630423,-0.0006237145390477962
1782846244436183300,7.637183349609375,0.07925590754449367,0.009148918351065367,0.0014881287990603596
1782846244446188300,7.647188232421875,0.09690729956924915,0.006249671511910856,-0.023406564867857377
1782846244456193300,7.657193359375,0.09705401456356048,0.020172745462227613,-0.005927026845247018
1782846244466198300,7.6671982421875,0.09421031557023525,0.011067154796235263,-0.0062087572629214265
1782846244476203300,7.677203369140625,0.07610533455908298,-0.010685261072870343,0.007345814451854675
1782846244486208300,7.687208251953125,0.09600947394669056,0.011218655563518405,0.004163930729439016
1782846244496213200,7.697213134765625,0.08089607596695422,0.008520009330380707,-0.003799618328537326
1782846244506218200,7.70721826171875,0.07924538615047931,-0.0056368003105744715,0.006621726544562261
1782846244516223200,7.71722314453125,0.09031739978492259,0.023000771962385622,-0.002391678626218345
1782846244526228700,7.727228759765625,0.09959610026180743,0.009953311802819371,-0.0043979860804858615
1782846244536233700,7.737233642578125,0.08762275387346743,0.0024180026608519255,-0.0035622476423974145
1782846244546237700,7.74723779296875,0.0796902073085308,0.009816679811105131,-0.005530668488400988
1782846244556242700,7.75724267578125,0.08343231644630432,0.007984221953246742,-0.019273997391061858
1782846244566247700,7.76724755859375,0.10483341639339923,0.00037223084587603803,-0.010249226009473204
1782846244576252700,7.777252685546875,0.10423603502213954,0.013950564745441079,-0.0007165758876944892
1782846244586257700,7.787257568359375,0.10513386064469814,0.01635685870219022,-0.016251946156146002
1782846244596262700,7.7972626953125,0.08972294102311133,0.0089405362973921,-0.007240351633250247
1782846244606267600,7.807267578125,0.09256722453832626,-0.0032506906253285703,-0.009419819130760152
1782846244616272600,7.817272705078125,0.08867255518734454,0.008886888147704303,0.0027349459558026865
1782846244626277600,7.827277587890625,0.08208850062191486,0.008298968724533916,-0.0034734802302671597
1782846244636282600,7.83728271484375,0.07819733840227126,0.01489833045694977,0.005129001485486515
1782846244646287600,7.84728759765625,0.09525544070899486,0.01747110355440527,-0.0002544953508768231
1782846244656292600,7.857292724609375,0.09480302076637745,0.003853460557758808,0.00013385779602685942
1782846244666297600,7.867297607421875,0.0832803407549858,0.016432919613085687,-0.006566452693368773
1782846244676301800,7.8773017578125,0.09944237100481987,0.023271752657182513,-0.0017314177693333475
1782846244686306800,7.887306884765625,0.08567512693703173,0.010409037947375327,-0.0148270256362739
1782846244696311800,7.897311767578125,0.08837094189226627,-0.013195526860747486,-0.002446888545330148
1782846244706316800,7.90731689453125,0.07954056970477104,0.002131276407651603,-0.0038114708798239003
1782846244716321800,7.91732177734375,0.09600070611834526,0.009148479959648102,0.003242381737998221
1782846244726326800,7.927326904296875,0.10243629212379456,0.008038290228042751,0.006960671608767006
1782846244736331800,7.937331787109375,0.08058920197486877,0.006104436088632792,-0.0032881274257320907
1782846244746336800,7.947336669921875,0.08867313970923424,0.001175674449559301,-0.016193188006500714
1782846244756341800,7.957341796875,0.0782043526649475,0.01691158824181184,-0.000621365035045892
1782846244766346800,7.9673466796875,0.09376607893407345,0.0007918627637438475,-0.009085027368576266
1782846244776351700,7.977351806640625,0.0946656581223011,0.0021990078816190362,-0.000553272801474668
1782846244786356700,7.987356689453125,0.09616495676934718,0.014778594801109284,-0.00599329016462434
1782846244796360700,7.997360595703125,0.08628829039931296,-0.0016464337664656341,-0.024758495500043498
1782846244806365700,8.00736572265625,0.09167582865655421,-0.0022759638416580854,-0.015175912139180582
1782846244816370700,8.01737060546875,0.09751227972507476,0.0018959150155074894,0.003972609408420976
1782846244826375700,8.027375732421875,0.08644143513441085,0.012081263742223382,0.017308190910541452
1782846244836380700,8.037380615234374,0.0836024123162031,0.015481500639766454,-0.004027074975438882
1782846244846385700,8.0473857421875,0.09347790964245796,0.01206559124905616,-0.015996233812428543
1782846244856390700,8.057390625,0.08195639867484569,0.0154841857871972,0.016238611750537528
1782846244866395600,8.067395751953125,0.0988654478996992,0.003975333371758461,0.0035619051491026766
1782846244876400600,8.077400634765626,0.09707038117647171,0.00020971549423411486,-0.0002966265927068889
1782846244886405600,8.087405517578125,0.08016191647350787,0.0046674803543835875,0.004849622855102643
1782846244896410600,8.09741064453125,0.08480243575572967,0.0024968948496505616,-0.009073809571529272
1782846244906415600,8.10741552734375,0.0922825623780489,0.0007714592965319752,-0.015397270122147165
1782846244916420600,8.117420654296875,0.08075812880098819,0.013746840600576252,-0.010791306130075827
1782846244926424800,8.1274248046875,0.09362579368054866,0.012323639397043734,0.010085735693585592
1782846244936429800,8.137429931640625,0.0786620333045721,0.005908383793570101,-0.0030110731831751764
1782846244946434800,8.147434814453124,0.10020575659275055,0.022987437556777148,-0.009856217237049714
1782846244956439800,8.157439697265625,0.09721534260511398,0.011183456385973841,-0.003910949198924936
1782846244966444800,8.16744482421875,0.10260346538424492,0.009341865373589098,0.006369053258013445
1782846244976449800,8.17744970703125,0.10559446389377117,-0.006439951653312891,0.002842194306117017
1782846244986454800,8.187454833984376,0.07970949653089046,0.0048107064836658536,-0.007029190817312337
1782846244996459800,8.197459716796875,0.08450199150443076,0.0026703151877969502,-0.011500201034813654
1782846245006464800,8.20746484375,0.09842354935109615,0.010362860718090087,0.0009735531733138486
1782846245016469800,8.2174697265625,0.09603227030038833,0.01023698758240789,0.017067623620317315
1782846245026474800,8.227474853515625,0.09723404730558395,0.01543347851326689,0.004869268270488828
1782846245036479700,8.237479736328124,0.08361585631966591,0.006058642451837659,0.0011368242934928275
1782846245046483700,8.247483642578125,0.09049801704883575,0.002797576562967151,-0.00033970996589632706
1782846245056488700,8.25748876953125,0.09319090939462184,0.010605419036000966,0.010338390713825356
1782846245066493700,8.26749365234375,0.09259528158903121,-0.005662153947539627,-0.008275236222497187
1782846245076498700,8.277498779296875,0.08301964399218559,0.003856200504116714,-0.00489520642934367
1782846245086503700,8.287503662109375,0.09559212531745433,0.007148556580394506,-0.0006771845922223292
1782846245096508700,8.2975087890625,0.10636953991949558,0.003120360510237515,-0.01575771234881831
1782846245106513700,8.307513671875,0.09409984093308449,0.0011560381673276423,-0.0034126831038738597
1782846245116518700,8.3175185546875,0.09051146105229854,0.01268613430019468,0.0011540311566204764
1782846245126523600,8.327523681640624,0.09604922143518924,0.010996646843291819,0.004923635656095575
1782846245136528600,8.337528564453125,0.08347907819747924,0.005473572572879493,-0.011303653266117908
1782846245146533600,8.34753369140625,0.07584697588384151,0.009686623690649867,0.006144197276863269
1782846245156538600,8.35753857421875,0.07629998034834862,0.012779018481727689,-0.0038489145300933158
1782846245166542600,8.36754248046875,0.0855810189127922,0.00531666497811675,-0.0004947155812289565
1782846245176547600,8.377547607421874,0.08961948064863681,0.014201963956933468,-0.010957764721184503
1782846245186552600,8.387552490234375,0.09276479293704032,-0.011949380990862846,-0.015460421319119632
1782846245196557600,8.3975576171875,0.10803133565187453,0.006602375673409551,-0.009419752915389835
1782846245206562800,8.407562744140625,0.09262041603028774,0.00698001334676519,-0.009323258854530286
1782846245216567800,8.41756787109375,0.08573650173544883,0.01436137403603643,0.006515647238027304
1782846245226572800,8.42757275390625,0.09875555778443813,0.013568360494822263,0.008310207071178593
1782846245236577800,8.437577880859376,0.08948270252645016,-0.006541220070701092,-0.009450734858831855
1782846245246582800,8.447582763671875,0.09083177904784678,0.008947112168651074,0.01327595570279518
1782846245256587800,8.457587890625,0.10055705424845218,0.012149141346663237,-0.0007276110216509551
1782846245266592800,8.4675927734375,0.08604396024942397,0.012526358894910663,-0.0028323441989603453
1782846245276597800,8.47759765625,0.09128244542479515,0.003054528732411563,0.00801590486629866
1782846245286601500,8.4876015625,0.08694237039387226,-0.0018332615754567086,0.0016187945575802587
1782846245296606500,8.4976064453125,0.08051262960731982,-0.00026153701301664115,0.006526362711575347
1782846245306611500,8.507611572265626,0.10221300476193428,0.0105411764270626,0.007837490975914988
1782846245316616400,8.517616455078125,0.08859832090735435,-0.010067914625816047,0.005402665044425521
1782846245326621400,8.527621337890626,0.09742693952918052,-0.002020984433591366,0.002394692567212041
1782846245336626400,8.53762646484375,0.08665069397091865,-0.011775175201427191,-0.003332263394980691
1782846245346631400,8.54763134765625,0.09533259759843349,-0.002177143109682947,-0.006430628985830117
1782846245356636400,8.557636474609374,0.09757774617671966,0.010519695247616619,-0.011598453227919525
1782846245366641400,8.567641357421875,0.08066986599564552,0.003131155898887664,-0.004212366131180897
1782846245376646700,8.577646728515624,0.08680383870601653,-0.0017438297263346612,0.009980300274444744
1782846245386651600,8.587651611328125,0.09832651871740818,-0.0076346778632141645,0.013058977067423984
1782846245396656600,8.59765673828125,0.06793605662882328,-0.003212970697134733,-0.002243799154704902
1782846245406660600,8.60766064453125,0.06335632762312889,0.002120170491747558,-0.018694439370860346
1782846245416665600,8.61766552734375,-0.27825580036640163,-0.0019743688128888606,-0.14955215396601707
1782846245426670600,8.627670654296875,0.7344868257045746,-0.02947343857521191,0.2669058100407943
1782846245436675600,8.637675537109375,-0.2827326535195112,0.0194638300078921,-0.18512558991676195
1782846245446680600,8.6476806640625,0.35068741484880445,-0.009633468731306492,0.08804543626494706
1782846245456685600,8.657685546875,-0.06110182669460773,0.029643936303909865,-0.04627553856056183
1782846245466690600,8.667690673828124,0.17876725213229655,0.02424622371252626,-0.009505173026386182
1782846245476695600,8.677695556640625,0.032280805879831315,0.012581103023141622,-0.07378651795638724
