time,seconds_elapsed,z,y,x
1782846236872457000,0.07345703125,-0.00014621554873883724,-0.011716383509337902,-0.0042564901523292065
1782846236882462000,0.0834619140625,0.0005568589549511671,-0.0000027355272322893143,0.0013321534497663379
1782846236892467000,0.093467041015625,0.00019383616745471954,0.009406015276908875,0.0020405747927725315
1782846236902472000,0.103471923828125,-0.0007340091979131103,0.00006817374378442764,-0.0033568539656698704
1782846236912477000,0.113476806640625,-0.001992663135752082,-0.00748035404831171,-0.000021184852812439203
1782846236922482000,0.12348193359375,-0.001688796328380704,0.005358213093131781,0.0028611542657017708
1782846236932487000,0.13348681640625,-0.0016761323204264045,0.006756649352610111,0.0001330942614004016
1782846236942492000,0.143491943359375,0.00023814779706299305,-0.006351429037749767,0.00017570483032613993
1782846236952497000,0.153496826171875,-0.0014625716721639037,-0.005199921317398548,-0.0013411890249699354
1782846236962502000,0.163501953125,0.0011316135060042143,0.004132061265408993,0.0020175897516310215
1782846236972507000,0.1735068359375,0.00016682501882314682,0.0011382850352674723,-0.001324739190749824
1782846236982511000,0.183510986328125,0.00011755665764212608,-0.004043960012495518,-0.0002650674432516098
1782846236992516000,0.19351611328125,-0.001159690786153078,0.002123122103512287,0.0007847506203688681
1782846237002521000,0.20352099609375,0.0024150703102350235,0.0008778278715908527,0.003511294722557068
1782846237012526000,0.213526123046875,0.002524374518543482,-0.00041982904076576233,-0.002550696488469839
1782846237022531000,0.223531005859375,0.00036188773810863495,-0.0036110947839915752,-0.002582920715212822
1782846237032536000,0.2335361328125,0.0018629813566803932,0.002323482185602188,0.004434346221387386
1782846237042541000,0.243541015625,-0.001355981221422553,0.0015082885511219501,0.0021211248822510242
1782846237052546000,0.253546142578125,-0.0025608486030250788,-0.0011005171108990908,-0.0007046935497783124
1782846237062551000,0.263551025390625,0.0011958065442740917,-0.001057640416547656,-0.0010794003028422594
1782846237072556000,0.27355615234375,0.00034066708758473396,0.002152267610654235,-0.0010200117249041796
1782846237082561000,0.28356103515625,-0.0013959803618490696,-0.0014611093793064356,-0.0006434408132918179
1782846237092566000,0.29356591796875,0.0018960838206112385,0.004162278026342392,-0.000893368327524513
1782846237102571000,0.303571044921875,0.0022303108125925064,-0.0004886665847152472,-0.0007245238521136343
1782846237112576000,0.313575927734375,-0.0016366513445973396,-0.0002718588802963495,-0.00033750548027455807
1782846237122581000,0.3235810546875,-0.0010142705868929625,-0.0005059505347162485,0.0017520107794553041
1782846237132585000,0.3335849609375,0.0013938858173787594,-0.0005983943119645119,0.0009007205371744931
1782846237142590000,0.34358984375,-0.00003756326623260975,0.0005310522392392159,0.0021020725835114717
1782846237152595000,0.353594970703125,-0.0015361218247562647,0.0012269362341612577,-0.0005107548204250634
1782846237162600000,0.363599853515625,-0.0004719225689768791,-0.0016788388602435589,0.0006732865585945547
1782846237172605000,0.37360498046875,0.0000997509341686964,0.001255485345609486,-0.0041863261722028255
1782846237182610000,0.38360986328125,0.0024135049898177385,-0.0002494670916348696,0.0003421130822971463
1782846237192615000,0.393614990234375,0.0019079677294939756,-0.0003229647409170866,0.002108402317389846
1782846237202620000,0.403619873046875,-0.0007256320677697659,-0.0013884955551475286,-0.0010112246964126825
1782846237212625200,0.413625244140625,-0.00024699699133634567,-0.0013022145722061396,0.004397574812173843
1782846237222630100,0.423630126953125,0.000267525902017951,0.0008136669639497995,0.00015222973888739944
1782846237232635100,0.43363525390625,-0.0010208835592493415,-0.0010724528692662716,0.0017953792121261358
1782846237242640100,0.44364013671875,-0.0008088959148153663,0.0007957546040415764,0.0030089817009866238
1782846237252645000,0.45364501953125,0.0015278991777449846,0.0005287833046168089,-0.0003398201079107821
1782846237262650000,0.463650146484375,0.0014259000308811665,0.0021855358500033617,-0.000503338233102113
1782846237272654000,0.473654052734375,0.0016259558033198118,0.0003497924190014601,0.0015144776552915573
1782846237282659000,0.4836591796875,-0.002232964616268873,0.0003468629438430071,-0.001354812178760767
1782846237292664000,0.4936640625,-0.0019327549962326884,0.0006143932696431875,0.0029663711320608854
1782846237302669000,0.5036689453125,-0.0005327311810106039,-0.00010545924305915833,0.0005615366389974952
1782846237312674000,0.513674072265625,0.001804164843633771,0.001858957577496767,0.0009429222554899752
1782846237322679000,0.523678955078125,-0.001207337947562337,-0.0009235132019966841,0.002360789105296135
1782846237332684000,0.53368408203125,-0.0024629307445138693,-0.0014125655870884657,0.0018357981462031603
1782846237342689000,0.54368896484375,0.0009373931679874659,0.00010064267553389072,-0.0023016887716948986
1782846237352694000,0.553694091796875,0.0008943858556449413,-0.0028903852216899395,0.0006460191216319799
1782846237362699000,0.563698974609375,0.001090128207579255,0.0016937139444053173,0.000131496402900666
1782846237372704000,0.5737041015625,-0.00004617427475750446,0.002408633939921856,-0.0002796446206048131
1782846237382709000,0.583708984375,0.001398324267938733,0.0024882624857127666,0.002028516959398985
1782846237392714000,0.5937138671875,0.0022792986128479242,-0.00034214509651064873,-0.00014188094064593315
1782846237402719000,0.603718994140625,-0.00042167934589087963,-0.0005080599803477526,0.0012536154827103019
1782846237412724000,0.613723876953125,-0.000589367002248764,-0.0024181536864489317,-0.00031914771534502506
1782846237422728000,0.62372802734375,0.0011933529749512672,0.0012167950626462698,0.0017509274184703827
1782846237432733200,0.633733154296875,-0.00161600555293262,-0.0010511858854442835,0.0009548938251100481
1782846237442738200,0.64373828125,-0.00039068504702299833,-0.0004647576715797186,-0.0009836211102083325
1782846237452743200,0.6537431640625,-0.0014940466498956084,-0.0006660970393568277,0.0023884973488748074
1782846237462748200,0.663748046875,0.0009406153112649918,0.00010062707588076591,-0.0019926689565181732
1782846237472753200,0.673753173828125,0.0010321077425032854,0.0011251455871388316,-0.002061043633148074
1782846237482758100,0.683758056640625,0.0023636880796402693,-0.000257301377132535,-0.00024077302077785134
1782846237492763100,0.69376318359375,-0.0003178322222083807,-0.0015176688320934772,0.00003719603409990668
1782846237502768000,0.70376806640625,-0.0003913354594260454,-0.0006241784431040287,0.0011719688773155212
1782846237512773000,0.713773193359375,-0.0025717567186802626,-0.0011277277953922749,-0.0003502045292407274
1782846237522777600,0.723777587890625,-0.00033842981792986393,0.0014922900591045618,-0.0019963043741881847
1782846237532782600,0.733782470703125,0.00116740632802248,0.0002662565093487501,0.0033906609751284122
1782846237542787600,0.74378759765625,-0.0008925488218665123,0.0008803815580904484,0.002339777536690235
1782846237552792600,0.75379248046875,0.0010541551746428013,-0.0010272897779941559,-0.0017122584395110607
1782846237562797600,0.763797607421875,0.0016797319985926151,0.00016687181778252125,-0.002593498444184661
1782846237572801500,0.773801513671875,-0.0005004673730581999,-0.0002095580566674471,0.00347735732793808
1782846237582806500,0.783806640625,-0.0012986166402697563,-0.0005658890586346388,0.000005926704034209251
1782846237592811500,0.7938115234375,-0.0015406438615173101,0.0021042858716100454,-0.002255021594464779
1782846237602816500,0.80381640625,-0.003348663914948702,-0.001873411238193512,0.0033424105495214462
1782846237612821500,0.813821533203125,0.001003175973892212,-0.0019929432310163975,0.0011328018736094236
1782846237622826500,0.823826416015625,0.0009062369354069233,0.00007553421892225742,0.0011245461646467447
1782846237632831500,0.83383154296875,-0.001587739447131753,0.0009416162502020597,-0.0026772948913276196
1782846237642836500,0.84383642578125,-0.0004953107563778758,-0.0001625304576009512,0.0017725809011608362
1782846237652841500,0.853841552734375,0.0014264679048210382,-0.002080183941870928,0.002837470732629299
1782846237662846500,0.863846435546875,0.0033695101737976074,0.0007137381471693516,0.0004297066479921341
1782846237672851500,0.8738515625,0.0009394257795065641,0.0008176879491657019,-0.0008505828445777297
1782846237682856400,0.8838564453125,0.0004922810476273298,-0.00038579455576837063,0.0029806406237185
1782846237692861400,0.893861328125,0.0015232563018798828,-0.00007587927393615246,-0.0003497243160381913
1782846237702866400,0.903866455078125,0.0009014082606881857,-0.002179510425776243,-0.0011353568406775594
1782846237712870700,0.91387060546875,0.0014296432491391897,-0.0006691450253129005,0.0029856201726943254
1782846237722875600,0.923875732421875,-0.002107567386701703,0.0008406010456383228,0.002383745741099119
1782846237732880600,0.933880615234375,0.00044631841592490673,0.00033344095572829247,0.0014277624431997538
1782846237742885600,0.9438857421875,0.0012103791814297438,0.0014466423308476806,0.0006751530454494059
1782846237752890600,0.953890625,-0.0004099139478057623,0.0002068956382572651,-0.003589048981666565
1782846237762895600,0.9638955078125,0.0005160672590136528,-0.00008924794383347034,-0.0014284264761954546
1782846237772900600,0.973900634765625,-0.0003839631099253893,-0.0006980497855693102,-0.0016601558309048414
1782846237782905600,0.983905517578125,-0.0012931663077324629,-0.0024727804120630026,-0.0009530867100693285
1782846237792910600,0.99391064453125,-0.002011343138292432,-0.00034938612952828407,0.0009635976748540998
1782846237802915600,1.00391552734375,-0.0014603349845856428,-0.0008561857976019382,-0.0008020781679078937
1782846237812920600,1.013920654296875,0.002265278482809663,-0.0004203359130769968,0.0006617502076551318
1782846237822925600,1.023925537109375,0.003949994221329689,-0.00035322410985827446,-0.0007081798976287246
1782846237832930600,1.0339306640625,0.00009692669846117496,0.0012382152490317822,-0.0005813413881696761
1782846237842935600,1.043935546875,0.00021410570479929447,-0.0006518301088362932,0.0013209545286372304
1782846237852939500,1.053939453125,-0.0011727361707016826,-0.00018244306556880474,0.0007467601681128144
1782846237862944500,1.063944580078125,0.0002469948958605528,-0.000748098362237215,0.0010133425239473581
1782846237872949500,1.073949462890625,0.003140779212117195,-0.00023608095943927765,0.0006946371286176145
1782846237882954500,1.08395458984375,-0.0011101586278527975,-0.00048082531429827213,-0.001232160022482276
1782846237892959500,1.09395947265625,0.0001376122236251831,-0.00042379298247396946,0.0007672753417864442
1782846237902964500,1.103964599609375,0.0019743945449590683,0.00013999827206134796,-0.0017230464145541191
1782846237912969500,1.113969482421875,0.0004969921428710222,-0.0013344676699489355,0.0017067212611436844
1782846237922974500,1.123974365234375,-0.0000494886189699173,0.00012441212311387062,0.00342472642660141
1782846237932979500,1.1339794921875,0.00030425703153014183,-0.0017282532062381506,-0.0014124573208391666
1782846237942984700,1.143984619140625,-0.00040654069744050503,-0.00009493669494986534,0.0022323448210954666
1782846237952989700,1.15398974609375,0.000961461802944541,0.00013468880206346512,0.001221661688759923
1782846237962994700,1.16399462890625,0.0006264359690248966,-0.001175053883343935,0.0033748275600373745
1782846237972999700,1.173999755859375,0.0009221166837960482,0.0010356318671256304,0.0008507563034072518
1782846237983004700,1.184004638671875,-0.00100041925907135,-0.0002999433781951666,0.0009759248932823539
1782846237993009700,1.194009765625,0.0012522905599325895,-0.0000916400458663702,0.001540380995720625
1782846238003014700,1.2040146484375,0.0013265926390886307,0.0010559160728007555,-0.002380324760451913
1782846238013018600,1.2140185546875,-0.003302456811070442,0.00123590265866369,0.0019987463019788265
1782846238023023600,1.224023681640625,0.0009588671382516623,-0.001618739916011691,0.0017627902561798692
1782846238033028600,1.234028564453125,-0.0006885483162477612,-0.0005289639811962843,0.0009144635987468064
1782846238043033600,1.24403369140625,-0.0008296958403661847,-0.0013444239739328623,-0.0023529687896370888
1782846238053038600,1.25403857421875,0.0010805183555930853,0.00039350218139588833,0.00244451267644763
1782846238063043600,1.264043701171875,-0.0010180524550378323,-0.0003481882158666849,0.0008711171103641391
1782846238073048600,1.274048583984375,0.002279807347804308,-0.000049820635467767715,-0.00017900869715958834
1782846238083053600,1.284053466796875,-0.0013836368452757597,-0.002130548469722271,0.0014838690403848886
1782846238093058600,1.29405859375,0.0004007229581475258,0.001991118537262082,0.0008060408290475607
1782846238103063600,1.3040634765625,0.0021464251913130283,-0.00041850958950817585,0.0011141685536131263
1782846238113068500,1.314068603515625,-0.001162086147814989,0.00020887423306703568,0.0032338479068130255
1782846238123073500,1.324073486328125,0.0006067852955311537,0.0018416582606732845,0.00004524504765868187
1782846238133078500,1.33407861328125,0.0017809141427278519,0.004216399975121021,-0.001511174370534718
1782846238143083500,1.34408349609375,0.0017055468633770943,-0.0007589173037558794,0.0004901911015622318
1782846238153088500,1.354088623046875,-0.00003382610157132149,-0.00036056339740753174,-0.0007629964384250343
1782846238163092700,1.3640927734375,-0.0016413102857768536,-0.001552328234538436,-0.002529204823076725
1782846238173097700,1.37409765625,-0.0005714192520827055,0.0013878806494176388,0.0006968245725147426
1782846238183102700,1.384102783203125,0.000766020268201828,0.0003231489099562168,0.0001575344940647483
1782846238193107700,1.394107666015625,0.000621122308075428,0.0011274439748376608,0.00007737724808976054
1782846238203112700,1.40411279296875,0.0035974711645394564,0.0009327668230980635,0.00014555419329553843
1782846238213117700,1.41411767578125,-0.000798708526417613,0.0011533659417182207,-0.001524998340755701
1782846238223122700,1.424122802734375,0.00004205130971968174,-0.00006343238055706024,0.003586672944948077
1782846238233127700,1.434127685546875,-0.001006445731036365,-0.000358314486220479,-0.0009792682249099016
1782846238243132700,1.444132568359375,0.0011552420910447836,0.00012318510562181473,-0.004143902566283941
1782846238253137700,1.4541376953125,0.000004938105121254921,0.0003315142821520567,-0.0015553620178252459
1782846238263142700,1.464142578125,-0.0008547303732484579,0.00005401298403739929,0.00028062128694728017
1782846238273147600,1.474147705078125,-0.0008585882605984807,0.00034226058050990105,0.0005260581383481622
1782846238283152600,1.484152587890625,0.00012198765762150288,0.001948412973433733,0.002818773500621319
1782846238293157600,1.49415771484375,-0.0003200930077582598,0.001950893783941865,-0.0011732499115169048
1782846238303162600,1.50416259765625,-0.0009829537011682987,0.001147151691839099,-0.000989225460216403
1782846238313166600,1.51416650390625,-0.0000712245237082243,0.00037218816578388214,-0.0011061012046411633
1782846238323171600,1.524171630859375,0.0006808522157371044,0.0017415856709703803,0.00033387006260454655
1782846238333176600,1.534176513671875,-0.0024698367342352867,-0.0004218067042529583,-0.0004777538124471903
1782846238343181600,1.544181640625,-0.0038408320397138596,-0.0024370208848267794,0.0005243936320766807
1782846238353186600,1.5541865234375,0.0001564263366162777,0.00006295763887465,-0.0015031846705824137
1782846238363191600,1.564191650390625,0.00006614532321691513,0.000013955403119325638,-0.00031754543306306005
1782846238373196500,1.574196533203125,0.00034883315674960613,-0.0004405011422932148,0.0009547193767502904
1782846238383201500,1.584201416015625,-0.000007497845217585564,-0.0008996299002319574,0.0021723166573792696
1782846238393206500,1.59420654296875,0.0012902026064693928,-0.0013576720375567675,0.000269438314717263
1782846238403211500,1.60421142578125,-0.00022353813983500004,0.0013036247109994292,0.0019573497120290995
1782846238413216500,1.614216552734375,0.0021815563086420298,0.0015868133632466197,-0.0007385620847344398
1782846238423221500,1.624221435546875,0.002374102594330907,-0.0007903242949396372,-0.0006046050693839788
1782846238433226500,1.6342265625,0.0003336032386869192,-0.0005241185426712036,0.00033794576302170753
1782846238443231500,1.6442314453125,-0.002796409884467721,-0.00017364672385156155,0.0004671090573538095
1782846238453236500,1.654236572265625,0.0029257042333483696,0.0007948558777570724,0.00011593132512643933
1782846238463240700,1.66424072265625,0.00017226208001375198,0.001418301835656166,0.00037266002618707716
1782846238473245700,1.67424560546875,0.0006678213831037283,0.0003954323474317789,-0.00019893341232091188
1782846238483250700,1.684250732421875,-0.00031595025211572647,0.000042297178879380226,0.003261311911046505
1782846238493255700,1.694255615234375,0.0008963143918663263,-0.002512035658583045,-0.001534793758764863
1782846238503260700,1.7042607421875,-0.0011886744759976864,-0.0018643548246473074,-0.00017418479546904564
1782846238513265700,1.714265625,0.0014328244142234325,0.002050446579232812,-0.0009578153840266168
1782846238523270700,1.724270751953125,-0.00008677528239786625,-0.0005131121724843979,-0.0017077615484595299
1782846238533275600,1.734275634765625,0.0009433417581021786,0.00009722146205604076,0.0015039214631542563
1782846238543280600,1.74428076171875,-0.001592786516994238,-0.0012066622730344534,-0.0010370005620643497
1782846238553285600,1.75428564453125,0.001032923348248005,0.0017116283997893333,-0.00008416053606197238
1782846238563290600,1.76429052734375,-0.00015830853953957558,0.0015896556433290243,0.0006657856283709407
1782846238573295600,1.774295654296875,0.0010461322963237762,0.0025263025891035795,1.1641532182693481e-9
1782846238583300600,1.784300537109375,0.0001073682215064764,-0.0011320817284286022,-0.001392565667629242
1782846238593305600,1.7943056640625,-0.000533101730979979,0.00004083337262272835,0.0023059984669089317
1782846238603310600,1.804310546875,-0.0004327006172388792,-0.0020276436116546392,0.000015680037904530764
1782846238613315600,1.814315673828125,-0.0014758903998881578,-0.00087016262114048,-0.0010543649550527334
1782846238623319600,1.824319580078125,0.0012714266777038574,0.0007407832890748978,-0.0026432068552821875
1782846238633324500,1.834324462890625,0.0007469358388334513,-0.000553895253688097,0.0010245096636936069
1782846238643329500,1.84432958984375,-0.0041929613798856735,-0.001363762654364109,0.0007278335397131741
1782846238653334500,1.85433447265625,-0.001985470298677683,-0.00011084438301622868,0.0014246536884456873
1782846238663339500,1.864339599609375,-0.0006871792720630765,-0.0012639928609132767,-0.000703211931977421
1782846238673344500,1.874344482421875,0.0009248929563909769,0.00004515773616731167,0.0000192878651432693
1782846238683349500,1.884349609375,0.0005283481441438198,0.0000922956969588995,0.0007061170763336122
1782846238693354500,1.8943544921875,-0.00026089418679475784,0.0005245374049991369,-0.0012075153645128012
1782846238703359500,1.904359375,-0.0015192378778010607,-0.001616377616301179,0.00040769181214272976
1782846238713364500,1.914364501953125,-0.0003417509142309427,-0.0008859785739332438,-0.0020323190838098526
1782846238723369500,1.924369384765625,0.001106476178392768,0.0012653227895498276,-0.00041444861562922597
1782846238733374700,1.934374755859375,0.0016708942130208015,0.0021524049807339907,-0.0014318738831207156
1782846238743379700,1.944379638671875,-0.00012114690616726875,0.00028073531575500965,0.0010528553975746036
1782846238753384700,1.954384765625,0.0003470324445515871,-0.0014634279068559408,0.002593426965177059
1782846238763389700,1.9643896484375,-0.0001025092788040638,-0.0021428002510219812,-0.00159918749704957
1782846238773393700,1.9743935546875,0.00003011804074048996,-0.0006310162134468555,-0.0005884880083613098
1782846238783398700,1.984398681640625,-0.00024685077369213104,0.0006294578779488802,0.0027396643999964
1782846238793403600,1.994403564453125,-0.00025716470554471016,0.003471348201856017,-0.0005929968901909888
1782846238803408600,2.00440869140625,0.00003072316758334637,0.0011693118140101433,-0.00010963319800794125
1782846238813413600,2.01441357421875,0.0013359617441892624,-0.0021026020403951406,0.001845011254772544
1782846238823418600,2.024418701171875,0.00007468857802450657,-0.0010493218433111906,-0.0033782466780394316
1782846238833423600,2.034423583984375,0.00010599545203149319,0.002102873520925641,0.0010696499375626445
1782846238843428600,2.0444287109375,0.0007603340782225132,0.0002471830230206251,-0.0017303976928815246
1782846238853433600,2.05443359375,0.0009789115283638239,-0.00001172209158539772,0.0018937931163236499
1782846238863438600,2.0644384765625,-0.0010717224795371294,-0.00003728852607309818,0.000561147287953645
1782846238873443600,2.074443603515625,-0.0036734314635396004,-0.001823675585910678,-0.0027383840642869473
1782846238883448600,2.084448486328125,-0.0024917868431657553,-0.00005480390973389149,0.0005801809020340443
1782846238893453600,2.09445361328125,-0.0004558372311294079,-0.000535694882273674,-0.0009958782466128469
1782846238903458600,2.10445849609375,0.002470443956553936,0.00009041419252753258,0.00040228135185316205
1782846238913463600,2.114463623046875,0.0006217372138053179,0.00006841542199254036,-0.002016377169638872
1782846238923467500,2.124467529296875,0.0022635760251432657,0.001373630715534091,-0.00036415213253349066
1782846238933472500,2.134472412109375,0.00012299278751015663,0.0014211952220648527,-0.000822167843580246
1782846238943477500,2.1444775390625,0.0007954409811645746,0.00014500855468213558,-0.000055976444855332375
1782846238953482800,2.154482666015625,0.0007357471622526646,0.0002432805486023426,-0.0004393817507661879
1782846238963487700,2.16448779296875,-0.0025692356284707785,-0.0009878987912088633,-0.0007885221275500953
1782846238973492700,2.17449267578125,-0.001691686687991023,0.0005797827616333961,-0.0010133307659998536
1782846238983497700,2.184497802734375,0.0005477655213326216,-0.00048761232756078243,0.00023116444936022162
1782846238993502700,2.194502685546875,0.0008148984052240849,-0.0001690106000751257,-0.0005255572032183409
1782846239003507700,2.2045078125,-0.0022666454315185547,-0.0007599657401442528,-0.0006158383330330253
1782846239013512700,2.2145126953125,0.0006060770247131586,0.0007767563220113516,0.00006406370084732771
1782846239023517700,2.224517578125,-0.000371569418348372,-0.0010240732226520777,-0.0011958777904510498
1782846239033522700,2.234522705078125,0.00039004674181342125,-0.000017345184460282326,-0.002289711032062769
1782846239043527700,2.244527587890625,-0.0020097277592867613,0.0005272713024169207,-0.001385035109706223
1782846239053532700,2.25453271484375,-0.002716340124607086,0.0009872009977698326,0.0012521209428086877
1782846239063537700,2.26453759765625,-0.0004848774988204241,0.002267915289849043,0.0006981834303587675
1782846239073542700,2.274542724609375,0.0007101693190634251,-0.000906563363969326,0.0013156147906556726
1782846239083546400,2.28454638671875,0.0014515933580696583,-0.0010724784806370735,-0.002182713709771633
1782846239093551400,2.29455126953125,0.002179144648835063,0.0005713766440749168,0.000729514635168016
1782846239103556600,2.304556640625,0.0003703255206346512,-0.0004582013934850693,-0.0012878298293799162
1782846239113561600,2.3145615234375,0.0006746826693415642,0.00035721552558243275,0.0010806198697537184
1782846239123566600,2.324566650390625,0.0005343342199921608,0.0000706592109054327,-0.000419805059209466
1782846239133571600,2.334571533203125,0.0010196827352046967,-0.000917753903195262,0.002251939382404089
1782846239143576600,2.34457666015625,0.0014087706804275513,0.0011544518638402224,-0.000469544786028564
1782846239153581600,2.35458154296875,-0.00028714677318930626,-0.0013904450461268425,0.00021360680693760514
1782846239163586600,2.364586669921875,-0.0017114052316173911,0.00036697485484182835,-0.0007110426668077707
1782846239173591600,2.374591552734375,-0.0011023756815120578,0.00047656544484198093,-0.0006690795999020338
1782846239183596500,2.384596435546875,-0.0012014452368021011,-0.0016667465679347515,0.0003242794773541391
1782846239193601500,2.3946015625,0.0011060705874115229,0.0017771248240023851,0.0009009697241708636
1782846239203606500,2.4046064453125,-0.0005767808761447668,0.0015752571634948254,-0.0037225442938506603
1782846239213611500,2.414611572265625,-0.0008863175753504038,-0.0022898048628121614,0.0021962844766676426
1782846239223616500,2.424616455078125,-0.0006152078276500106,0.0013331591617316008,0.0016207753214985132
1782846239233621500,2.43462158203125,0.001392135862261057,1.1059455573558807e-7,-0.0019214155618101358
1782846239243625500,2.44462548828125,-0.00029337871819734573,0.0010512603912502527,0.00047729353536851704
1782846239253630500,2.45463037109375,-0.0011000041849911213,0.0021891966462135315,-0.0018657718319445848
1782846239263635500,2.464635498046875,0.0005996252875775099,0.0007172673940658569,0.00043519926839508116
1782846239273640700,2.474640625,0.0008425426203757524,0.0004001217894256115,0.0005558172124437988
1782846239283645700,2.484645751953125,0.0003139050677418709,-0.00017112609930336475,-0.0006553884013555944
1782846239293650700,2.494650634765625,0.001670989440754056,-0.0008216672576963902,0.0011063955025747418
1782846239303655700,2.50465576171875,-0.0013141476083546877,-0.00020780833438038826,-0.0009053563117049634
1782846239313660700,2.51466064453125,-0.0003127927193418145,0.0013760474976152182,-0.0007628173916600645
1782846239323665700,2.524665771484375,-0.0006222520023584366,-0.002063425024971366,0.0006838116678409278
1782846239333670700,2.534670654296875,0.0014312881976366043,-0.0034636224154382944,-0.002632368355989456
1782846239343675600,2.544675537109375,0.00009491411037743092,0.0003255230840295553,-0.0012192953145131469
1782846239353680600,2.5546806640625,-0.0003298441879451275,-0.0007390009704977274,0.0010710253845900297
1782846239363685600,2.564685546875,0.001557271694764495,-0.00011768541298806667,0.00002147356281057
1782846239373690600,2.574690673828125,0.0010921403300017118,0.000013946322724223137,0.002393077127635479
1782846239383695600,2.584695556640625,0.0004282142035663128,-0.0012614415027201176,0.0014191591180860996
1782846239393699300,2.59469921875,0.001982362475246191,-0.00003846338950097561,-0.002090894617140293
1782846239403704300,2.604704345703125,-0.00043285812716931105,-0.001344743650406599,0.001212490489706397
1782846239413709300,2.614709228515625,-0.000964218401350081,0.0006647270638495684,-0.0002978519187308848
1782846239423714300,2.62471435546875,-0.0015112317632883787,-0.00010146456770598888,-0.004027609247714281
1782846239433719300,2.63471923828125,-0.0007204808061942458,-0.0003538932651281357,0.00006980524631217122
1782846239443724500,2.644724609375,-0.0014635027619078755,-0.000809826422482729,0.0007292039226740599
1782846239453729500,2.6547294921875,0.0006160237826406956,0.0002723920624703169,-0.0011931248009204865
1782846239463734500,2.664734619140625,0.0021590592805296183,-0.0013662511482834816,0.0004918572958558798
1782846239473739500,2.674739501953125,-0.0009831455536186695,0.0012811359483748674,0.0013235100777819753
1782846239483744500,2.68474462890625,0.002394807757809758,0.00043025589548051357,-0.0006027543568052351
1782846239493749500,2.69474951171875,0.0009614028967916965,0.0016916976310312748,-0.0024199443869292736
1782846239503754500,2.70475439453125,0.0011576779652386904,0.00026850425638258457,-0.0014108727918937802
1782846239513759500,2.714759521484375,0.0003907047212123871,0.0005653966218233109,0.00033732783049345016
1782846239523764700,2.7247646484375,0.003503673942759633,-0.0008777705952525139,-0.0013844057684764266
1782846239533769700,2.734769775390625,-0.0012739280937239528,-0.000492884311825037,0.0007215407094918191
1782846239543773700,2.744773681640625,0.0006376889068633318,0.000006192130967974663,-0.0022079364862293005
1782846239553778700,2.75477880859375,-0.0005332012660801411,-0.0007317925337702036,0.00002532301004976034
1782846239563783700,2.76478369140625,-0.001503124600276351,-0.0024165085051208735,0.003401146037504077
1782846239573788700,2.77478857421875,0.001438912469893694,-0.000013325130566954613,-0.0005591203225776553
1782846239583793700,2.784793701171875,0.0007044128142297268,0.00011131074279546738,0.002382873557507992
1782846239593798700,2.794798583984375,-0.0003276839852333069,0.0025302795693278313,-0.0003902171738445759
1782846239603803600,2.8048037109375,-0.0008683056803420186,-0.0011651227250695229,0.0027280780486762524
1782846239613808600,2.81480859375,0.00025855470448732376,0.0017389862332493067,-0.0009195359889417887
1782846239623813600,2.824813720703125,0.0016777531709522009,-0.0009888897184282541,0.001429638359695673
1782846239633818600,2.834818603515625,-0.0004874513251706958,0.00024049938656389713,-0.0006054583936929703
1782846239643823600,2.84482373046875,0.0014523952268064022,0.0007036230526864529,0.002227079588919878
1782846239653828600,2.85482861328125,0.0011665837373584509,0.00007357611320912838,-0.00027551339007914066
1782846239663833600,2.86483349609375,-0.00023929891176521778,-0.00023588328622281551,-0.0008331793360412121
1782846239673838600,2.874838623046875,0.0007949781138449907,0.0005208456423133612,-0.0006764056161046028
1782846239683843600,2.884843505859375,-0.0008892050245776772,-0.0008019465021789074,0.002887436654418707
1782846239693848600,2.8948486328125,0.00083906389772892,0.0014555363450199366,-0.0009297280921600759
1782846239703852500,2.9048525390625,0.0016542572993785143,0.0014366279356181622,0.0007416718290187418
1782846239713857500,2.914857421875,0.0008985376916825771,0.003345722332596779,-0.000984474434517324
1782846239723862500,2.924862548828125,0.0017195900436490774,0.0007105246186256409,-0.0006257465574890375
1782846239733867500,2.934867431640625,0.0009686457924544811,-0.0013610564637929201,0.002528227400034666
1782846239743872800,2.944872802734375,0.0012882251758128405,8.84057953953743e-7,0.0004887786344625056
1782846239753877800,2.954877685546875,0.00015147472731769085,0.0002076693344861269,-0.003774099750444293
1782846239763882800,2.9648828125,-0.0010754435788840055,0.0011871799360960722,0.001265932573005557
1782846239773887700,2.9748876953125,-0.0014001780655235052,0.002600783482193947,-0.0016809914959594607
1782846239783892700,2.984892822265625,-0.004724868573248386,-0.0008328298572450876,-0.0003227794077247381
1782846239793897700,2.994897705078125,0.0019151628948748112,0.00027240836061537266,-0.0014817563351243734
1782846239803902700,3.00490283203125,0.00035561597906053066,-0.000229597557336092,0.0004242681316100061
1782846239813907700,3.01490771484375,-0.00030506413895636797,0.0003175754100084305,-0.00006767839659005404
1782846239823912700,3.02491259765625,0.0010028141550719738,0.0016797824064269662,-0.0006652917945757508
1782846239833917700,3.034917724609375,-0.0004278904525563121,0.001050746999680996,0.00020716979634016752
1782846239843922700,3.044922607421875,0.0014115548692643642,-0.0010512860026210546,-0.0013459855690598488
1782846239853926700,3.0549267578125,0.0001311139203608036,0.0002919367980211973,0.00023550231708213687
1782846239863931600,3.064931640625,-0.000047051580622792244,0.00045838416554033756,-0.0009157821768894792
1782846239873936600,3.0749365234375,0.0012572542764246464,0.0017090759938582778,-0.0010449776891618967
1782846239883941600,3.084941650390625,-0.0012437202967703342,0.000662453705444932,0.0006743591511622071
1782846239893946600,3.094946533203125,0.0024488880299031734,0.0017572519136592746,0.0004849215329159051
1782846239903951600,3.10495166015625,-0.0015581042971462011,-0.00022440636530518532,0.001473486889153719
1782846239913956600,3.11495654296875,-0.00018188240937888622,0.0005431922618299723,-0.002424086444079876
1782846239923961600,3.124961669921875,0.0021928581409156322,0.0015264312969520688,-0.0006261863745748997
1782846239933966600,3.134966552734375,-0.0024736099876463413,-0.0008394669275730848,-0.0012610675767064095
1782846239943971600,3.1449716796875,0.00002070656046271324,0.0006814643274992704,-0.000197134620975703
1782846239953976600,3.1549765625,0.00015468476340174675,-0.0018585477955639362,-0.00009595492156222463
1782846239963981600,3.164981689453125,-0.0016991415759548545,-0.001105139497667551,0.004170695319771767
1782846239973986600,3.174986572265625,0.00012840447016060352,0.0006205239333212376,-0.00010543386451900005
1782846239983991600,3.184991455078125,-0.0016375374980270863,0.000008795876055955887,-0.0013938711490482092
1782846239993996500,3.19499658203125,-0.000660977209918201,0.0009136148728430271,-0.002292988356202841
1782846240004001500,3.20500146484375,-0.001577637274749577,0.00014768983237445354,0.0008237091242335737
1782846240014005800,3.215005859375,0.0028496813029050827,0.0009429247584193945,0.0034614866599440575
1782846240024010800,3.2250107421875,0.001751127652823925,0.0032521516550332308,-0.0011862620012834668
1782846240034015700,3.235015625,0.002404166152700782,0.0026220667641609907,-0.0003166081733070314
1782846240044020700,3.245020751953125,-0.00020786235108971596,-0.0018195533193647861,-0.0005448409938253462
1782846240054025700,3.255025634765625,-0.0013146298006176949,0.000743987737223506,0.0009347728919237852
1782846240064030700,3.26503076171875,-0.0017202292801812291,0.0017900774255394936,0.0002862932160496712
1782846240074035700,3.27503564453125,-0.0003760687541216612,-0.0005932378116995096,0.001960970927029848
1782846240084040700,3.285040771484375,-0.00047806778457015753,-0.000486977631226182,0.0005388428689911962
1782846240094045700,3.295045654296875,-0.00036327727138996124,-0.0004134061746299267,0.0011799851199612021
1782846240104050700,3.30505078125,-0.00025754980742931366,-0.0011236709542572498,-0.00009380484698340297
1782846240114055700,3.3150556640625,0.0006541719194501638,-0.001322705764323473,0.0005370334256440401
1782846240124060700,3.325060791015625,-0.0008025771239772439,0.001181730767711997,-0.0006278332439251244
1782846240134065700,3.335065673828125,-0.0018781604012474418,-0.0023090504109859467,0.002131114713847637
1782846240144070700,3.345070556640625,0.0006811374332755804,0.0010390754323452711,0.0011926167644560337
1782846240154074600,3.35507470703125,-0.0009778758976608515,0.0016840645112097263,0.0006315929349511862
1782846240164079600,3.36507958984375,-0.0024732407182455063,0.0013034988660365343,-0.0011671059764921665
1782846240174084600,3.375084716796875,0.003112391335889697,0.0020054937340319157,0.0010258897673338652
1782846240184089600,3.385089599609375,0.002425562357529998,-0.00043236371129751205,0.003994249273091555
1782846240194094600,3.395094482421875,-0.001171460491605103,0.0012575683649629354,-0.0002930508926510811
1782846240204099600,3.405099609375,-0.0002135215327143669,0.0018168322276324034,0.0006728775915689766
1782846240214104600,3.4151044921875,0.0008715521544218063,-0.001956805819645524,-0.0012120879255235195
1782846240224109600,3.425109619140625,-0.0007127623539417982,-0.0002366702537983656,-0.00014922040281817317
1782846240234114600,3.435114501953125,-0.0016443370841443539,0.0003273582551628351,-0.0011147980112582445
1782846240244119600,3.44511962890625,0.0014009876176714897,-0.0006361736450344324,0.0007539419457316399
1782846240254124500,3.45512451171875,0.00018392130732536316,0.0001345076598227024,-0.0008284438517875969
1782846240264129500,3.465129638671875,0.001391398487612605,-0.0005017213989049196,-0.0023243415635079145
1782846240274134500,3.475134521484375,0.0007406419608741999,0.00010457867756485939,0.0006562865455634892
1782846240284139500,3.485139404296875,0.0003084109630435705,-0.000030177179723978043,-0.0035722805187106133
1782846240294144500,3.49514453125,0.000934018986299634,-0.0011664868798106909,0.0030574710108339787
1782846240304149500,3.5051494140625,0.001229097368195653,0.0006511206738650799,0.0022396142594516277
1782846240314153700,3.51515380859375,-0.0012789664324373007,0.00033957534469664097,0.0012482114834710956
1782846240324158700,3.52515869140625,-0.0003790842602029443,0.0000066801439970731735,-0.0027238931506872177
1782846240334163700,3.535163818359375,-0.00023227836936712265,0.0024563607294112444,-0.0035854140296578407
1782846240344168700,3.545168701171875,0.001335258362814784,0.0011729833204299212,0.0007667239406146109
1782846240354173700,3.555173583984375,-0.0010844485368579626,-0.000595917459577322,0.0008068779716268182
1782846240364178700,3.5651787109375,0.0005624503828585148,-0.0010521169751882553,0.0024194219149649143
1782846240374183700,3.57518359375,-0.0012944659683853388,0.00010065152309834957,-0.0038773538544774055
1782846240384188700,3.585188720703125,-0.00144067348446697,0.0023222602903842926,-0.0036469902843236923
1782846240394193700,3.595193603515625,0.0015597827732563019,0.002266406314447522,-0.0009463337482884526
1782846240404198700,3.60519873046875,0.00020689703524112701,0.00030578719452023506,-0.0007146387360990047
1782846240414203600,3.61520361328125,0.0012630969285964966,-0.0006534934509545565,-0.0003723858390003443
1782846240424208600,3.625208740234375,0.0018058493733406067,-0.00022072996944189072,-0.0016115546459332108
1782846240434213600,3.635213623046875,-0.0018978634616360068,0.0018730502342805266,0.0016483634244650602
1782846240444218600,3.645218505859375,-0.0024592578411102295,0.0010328227654099464,0.0002664491767063737
1782846240454222600,3.65522265625,-0.0006267789285629988,-0.0034047330264002085,-0.0001980522065423429
1782846240464227600,3.6652275390625,-0.0007543442770838737,0.0016001457115635276,-0.001602070638909936
1782846240474232600,3.675232666015625,0.002064443426206708,-0.0018204464577138424,-0.0012993102427572012
1782846240484237600,3.685237548828125,0.001992537872865796,-0.00017168326303362846,0.0008903408306650817
1782846240494242600,3.69524267578125,-0.0011747304815798998,0.0023486693389713764,-0.001542567042633891
1782846240504247600,3.70524755859375,-0.00018563237972557545,-0.00008146511390805244,-0.0017369778361171484
1782846240514252500,3.71525244140625,-0.0016155957709997892,0.00013708765618503094,-0.0037074005231261253
1782846240524257300,3.72525732421875,0.0011250632815063,-0.0005606606137007475,0.0011283674975857139
1782846240534262300,3.73526220703125,-0.0010924364905804396,-0.0014449609443545341,-0.001242073136381805
1782846240544267300,3.745267333984375,-0.0016668804455548525,-0.0003887512721121311,0.0021888772025704384
1782846240554272300,3.755272216796875,0.000025250250473618507,-0.0007005201186984777,0.0008585421601310372
1782846240564277200,3.76527734375,0.0003869074862450361,0.0015495847910642624,0.0016513653099536896
1782846240574282200,3.7752822265625,-0.0009542764164507389,-0.0011874372139573097,0.0008381837978959084
1782846240584287200,3.785287353515625,0.0002750388812273741,-0.0007770443335175514,-0.001694748643785715
1782846240594292200,3.795292236328125,-0.0004747824277728796,0.00005295570008456707,-0.001984619302675128
1782846240604297200,3.805297119140625,-0.0012353812344372272,0.0005075572989881039,-0.00250846310518682
1782846240614301200,3.81530126953125,-0.0005453854100778699,0.001481381943449378,-0.0018008684273809195
1782846240624306200,3.82530615234375,-0.0006489823572337627,-0.0008968207985162735,-0.0013302878942340612
1782846240634311200,3.835311279296875,0.00041125109419226646,0.0006634821183979511,-0.0004529306897893548
1782846240644316200,3.845316162109375,0.001993435202166438,-0.003587455255910754,0.0005380315124057233
1782846240654321200,3.855321044921875,0.0017473415937274694,-0.0003128570970147848,-0.000018479651771485806
1782846240664326100,3.865326171875,0.001122297951951623,-0.0016215343493968248,-0.0013141075614839792
1782846240674331100,3.8753310546875,0.0004999842494726181,-0.00047581689432263374,-0.0008125185850076377
1782846240684336000,3.885336181640625,0.001616115216165781,0.00011327443644404411,-0.0013281067367643118
1782846240694341000,3.895341064453125,0.00040213693864643574,-0.0015403018333017826,0.0024875071831047535
1782846240704346000,3.90534619140625,-0.0016434371937066317,-0.00025053322315216064,-0.0015964503400027752
1782846240714351000,3.91535107421875,0.001844532322138548,0.0004545238334685564,0.0016245841979980469
1782846240724356000,3.925356201171875,0.002267175819724798,0.0006840880960226059,0.00011616980191320181
1782846240734361000,3.935361083984375,0.0015822600107640028,-0.00002087140455842018,0.0013076340546831489
1782846240744366000,3.945365966796875,0.0009572161361575127,-0.0005417857319116592,-0.00012008653720840812
1782846240754371000,3.95537109375,0.0006813218351453543,0.00013436097651720047,-0.0005047667073085904
1782846240764375300,3.965375244140625,0.0005361796356737614,0.00020866305567324162,-0.0013548476854339242
1782846240774380300,3.97538037109375,-0.0011873205658048391,0.0010799248702824116,-0.0034948415122926235
1782846240784385300,3.98538525390625,-0.0008288590470328927,-0.001427441369742155,0.0017997887916862965
1782846240794390300,3.995390380859375,0.0012163820210844278,-0.00012410106137394905,0.00007728679338470101
1782846240804395300,4.005395263671875,-0.0008422414539381862,-0.002376336371526122,-0.001982402056455612
1782846240814400300,4.015400146484375,-0.0023635183461010456,-0.0006614148151129484,-0.0014454351039603353
1782846240824405200,4.0254052734375,0.0011899375822395086,-0.0026452033780515194,0.0016579465009272099
1782846240834410200,4.03541015625,0.0023347840178757906,0.003859189571812749,0.0023587988689541817
1782846240844415200,4.045415283203125,-0.0013947068946436048,0.0024090984370559454,0.0018570591928437352
1782846240854420200,4.055420166015625,0.0003394882660359144,0.00043426500633358955,-0.002743943128734827
1782846240864425200,4.06542529296875,-0.0009308395674452186,-0.0009934555273503065,-0.001959376037120819
1782846240874430200,4.07543017578125,0.0009696180932223797,-0.0011828073766082525,-0.00018029409693554044
1782846240884435200,4.085435302734375,0.0008822663221508265,-0.00023498828522861004,0.0011542158899828792
1782846240894440200,4.095440185546875,-0.0011354906018823385,0.0003453947138041258,0.0003793035866692662
1782846240904444200,4.105444091796875,-0.0005543888546526432,-0.0004578146617859602,-0.0016958315391093493
1782846240914449200,4.11544921875,0.00012114271521568298,0.002697064308449626,-0.003777456469833851
1782846240924454100,4.1254541015625,0.0010745543986558914,-0.0010979401413351297,-0.0017595796380192041
1782846240934459100,4.135459228515625,0.0018693292513489723,0.0004146457649767399,0.00034256966318935156
1782846240944464100,4.145464111328125,0.0011015399359166622,0.00009533273987472057,-0.0009195023449137807
1782846240954469000,4.15546923828125,-0.0014527413295581937,0.001239196164533496,0.000013798708096146584
1782846240964474000,4.16547412109375,0.0010607501026242971,0.001441596308723092,0.002337672980502248
1782846240974479000,4.17547900390625,0.000688908388838172,-0.0013791350647807121,0.00022030645050108433
1782846240984484000,4.185484130859375,0.0004952964372932911,-0.000038499943912029266,-0.0018526981584727764
1782846240994489000,4.195489013671875,0.0009838093537837267,0.0015514057595282793,-0.0027515352703630924
1782846241004494000,4.205494140625,0.000045045046135783195,-0.0014534387737512589,0.0007380045717582107
1782846241014499000,4.2154990234375,-0.000899634207598865,0.003588481107726693,-0.0005564517341554165
1782846241024504000,4.225504150390625,-0.0002780524082481861,-0.001543962862342596,-0.00003127637319266796
1782846241034509000,4.235509033203125,-0.0008398476056754589,-0.00003279210068285465,-0.00007871369598433375
1782846241044514300,4.245514404296875,-0.0005117461550980806,0.0004774695262312889,0.002535711508244276
1782846241054518300,4.255518310546875,-0.001558711752295494,0.00016453536227345467,0.0008463520789518952
1782846241064523300,4.265523193359375,-0.0000830541830509901,0.0009664131794124842,0.0004484757664613426
1782846241074528300,4.2755283203125,0.0011487919837236404,0.0014738119207322598,-0.001687121344730258
1782846241084533200,4.285533203125,-0.0012246172409504652,-0.001920919632539153,-0.00026525964494794607
1782846241094538200,4.295538330078125,0.0011553321965038776,-0.0009633558802306652,-0.00025559181813150644
1782846241104543200,4.305543212890625,0.000523097813129425,0.0013517298502847552,-0.0005365553079172969
1782846241114548200,4.31554833984375,0.0013319319114089012,0.0008650436066091061,-0.0006551315891556442
1782846241124553200,4.32555322265625,-0.00020710891112685204,-0.00041646952740848064,0.0021433180663734674
1782846241134558200,4.33555810546875,-0.0012687483103945851,-0.003478994593024254,0.0019081950886175036
1782846241144563200,4.345563232421875,-0.0006711349124088883,-0.0015133153647184372,0.00024398573441430926
1782846241154568200,4.355568115234375,-0.0024231267161667347,-0.0010755762923508883,-0.00024305778788402677
1782846241164573200,4.3655732421875,-0.0013631886104121804,0.00027065188623964787,0.0004991651512682438
1782846241174578200,4.375578125,-0.00031401263549923897,-0.0002541588619351387,-0.0020851213485002518
1782846241184583200,4.385583251953125,0.0012050545774400234,-0.000040573300793766975,0.0020355877932161093
1782846241194588200,4.395588134765625,-0.002765859477221966,0.0020088409073650837,-0.0012364801950752735
1782846241204592000,4.405592041015625,0.0010363354813307524,0.00039443280547857285,0.0007723423186689615
1782846241214597000,4.41559716796875,-0.001134765800088644,-0.0011205533519387245,-0.000618297781329602
1782846241224602000,4.42560205078125,0.00013449671678245068,-0.0003066910430788994,-0.002736043417826295
1782846241234607000,4.435607177734375,0.0010559526272118092,-0.0011594519019126892,-0.0018878504633903503
1782846241244612000,4.445612060546875,-0.00035632168874144554,-0.0012768972665071487,-0.0013056835159659386
1782846241254617000,4.4556171875,0.00024722772650420666,-0.0005933928769081831,0.0010924066882580519
1782846241264622300,4.465622314453125,-0.0016739766579121351,0.0015331411268562078,-0.000644773303065449
1782846241274627300,4.47562744140625,0.0009478358551859856,0.0007228681351989508,0.0003377009415999055
1782846241284632300,4.48563232421875,-0.0002742887008935213,0.001095710787922144,-0.0006806917954236269
1782846241294637300,4.49563720703125,0.00007275748066604137,-0.0009107084479182959,-0.0018130793469026685
1782846241304642300,4.505642333984375,-0.0013443105854094028,-0.0017346905078738928,0.0018676756881177425
1782846241314647300,4.515647216796875,0.00038073607720434666,0.0012624706141650677,0.0010870774276554585
1782846241324652300,4.52565234375,-0.0028265088330954313,0.0002464745193719864,0.00021542474860325456
1782846241334657300,4.5356572265625,-0.0006016683764755726,0.0020264494232833385,0.0012048676144331694
1782846241344661200,4.5456611328125,-0.0005012672627344728,0.0012304303236305714,-0.0027461980935186148
1782846241354666200,4.555666259765625,-0.0007835762808099389,-0.00027126423083245754,-0.0011462728725746274
1782846241364671200,4.565671142578125,0.0002843514084815979,-0.0005972350481897593,-0.0008405420230701566
1782846241374676200,4.57567626953125,-0.0013268501497805119,0.0015561656327918172,0.0022342796437442303
1782846241384681200,4.58568115234375,-0.0015377725940197706,-0.0005152411758899689,-0.0004304794711060822
1782846241394686200,4.595686279296875,-0.0014600662980228662,-0.002657730598002672,-0.0008968457696028054
1782846241404691200,4.605691162109375,0.0010824534110724926,0.0013207655865699053,-0.000838788750115782
1782846241414696200,4.6156962890625,-0.0024529413785785437,0.0001321702729910612,-0.0009583228966221213
1782846241424701200,4.625701171875,0.0014818792697042227,0.0006613403093069792,-0.00163849419914186
1782846241434706200,4.6357060546875,-0.0030888481996953487,-0.0016516703180968761,0.001066863420419395
1782846241444711200,4.645711181640625,-0.0013708428014069796,-0.0008444660343229771,-0.00017337064491584897
1782846241454716200,4.655716064453125,-0.00019091041758656502,0.0012671765871345997,-0.0006359564140439034
1782846241464721200,4.66572119140625,-0.0005776012549176812,-0.00041034864261746407,0.001801634905859828
1782846241474726100,4.67572607421875,-0.00073255505412817,0.00033592828549444675,0.001059590489603579
1782846241484730400,4.68573046875,-0.00020391750149428844,0.0016589867882430553,-0.00030474690720438957
1782846241494735400,4.6957353515625,-0.003352097701281309,-0.001228096429258585,-0.0026009660214185715
1782846241504740400,4.705740234375,0.003204338252544403,0.0006560899782925844,0.0003295763744972646
1782846241514745300,4.715745361328125,0.00042504980228841305,0.00017479434609413147,-0.0005389540456235409
1782846241524750300,4.725750244140625,-0.0027696783654391766,0.00007492583245038986,-0.0022439099848270416
1782846241534755300,4.73575537109375,0.0005676820874214172,0.0020198174752295017,0.0033308882266283035
1782846241544760300,4.74576025390625,-0.0000405837781727314,0.00009808060713112354,-0.0022343196906149387
1782846241554765300,4.755765380859375,-0.0005672638071700931,0.00038731913082301617,0.0014818724012002349
1782846241564770300,4.765770263671875,0.0002700339537113905,0.0016760226571932435,0.0013612312031909823
1782846241574775300,4.775775390625,-0.0011135436361655593,0.0015399024123325944,-0.00007042649667710066
1782846241584780300,4.7857802734375,-0.0020014415495097637,0.0014488223241642118,0.0005309152766130865
1782846241594785300,4.795785400390625,0.00010031252168118954,-0.0004242572467774153,0.0039019323885440826
1782846241604790300,4.805790283203125,-0.0015276779886335135,-0.00040881079621613026,-0.0011277134763076901
1782846241614795300,4.815795166015625,0.001035167369991541,0.001575333415530622,-0.0002273634308949113
1782846241624799200,4.82579931640625,-0.0004367617657408118,-0.0017312474083155394,0.0006221849471330643
1782846241634804200,4.83580419921875,0.001626764889806509,0.0012066164053976536,0.001365491421893239
1782846241644809200,4.845809326171875,0.00028186850249767303,0.0021666858810931444,-0.00011868821457028389
1782846241654814200,4.855814208984375,-0.0011758251348510385,-0.00037534628063440323,0.0016679679974913597
1782846241664819200,4.865819091796875,0.0003387145698070526,0.00015568803064525127,0.0014261530013754964
1782846241674824200,4.87582421875,0.0006536671426147223,0.0002941344864666462,0.002524149604141712
1782846241684829200,4.8858291015625,-0.0004664583830162883,-0.00006912066601216793,-0.0012138632591813803
1782846241694834200,4.895834228515625,-0.00004399474710226059,-0.0009655128233134747,-0.00035421119537204504
1782846241704839200,4.905839111328125,-0.0021281845401972532,0.0006515586283057928,0.0025560911744832993
1782846241714844200,4.91584423828125,0.00019704108126461506,-0.002103402279317379,0.00011857092613354325
1782846241724849200,4.92584912109375,0.0016681712586432695,0.0008918549865484238,-0.0017512345220893621
1782846241734854100,4.935854248046875,-0.0005621759919449687,-0.0019248449243605137,0.0004238199908286333
1782846241744859100,4.945859130859375,-0.0015395560767501593,-0.0006878064014017582,0.0013055925955995917
1782846241754864000,4.955864013671875,-0.0013773716054856777,0.0009846340399235487,0.002090279245749116
1782846241764869000,4.965869140625,-0.0024871109053492546,0.00028608692809939384,0.0023004026152193546
1782846241774873300,4.975873291015625,-0.0013842451153323054,-0.00232228497043252,0.00026151840575039387
1782846241784878300,4.98587841796875,-0.0025962498039007187,0.00018747802823781967,0.0002553931553848088
1782846241794883300,4.99588330078125,-0.00042062439024448395,0.0006483057513833046,-0.0003229348221793771
1782846241804888300,5.005888427734375,-0.0001569713931530714,-0.0021962164901196957,-0.001078739995136857
1782846241814893300,5.015893310546875,-0.0009162533096969128,0.0026193647645413876,0.0006436886033043265
1782846241824898300,5.025898193359375,-0.001631312072277069,0.00007338263094425201,0.0009259836515411735
1782846241834903300,5.0359033203125,-0.00005017849616706371,0.00039223022758960724,0.00006278406362980604
1782846241844908300,5.045908203125,0.0013636937364935875,-0.002173192799091339,0.0003738412633538246
1782846241854913300,5.055913330078125,0.0002301218919456005,-0.0012400434352457523,0.00027778948424384
1782846241864918300,5.065918212890625,-0.0011139754205942154,0.001736838254146278,0.0023534572683274746
1782846241874923300,5.07592333984375,0.002582618733868003,0.0010866615921258926,-0.001866670441813767
1782846241884928300,5.08592822265625,-0.0023833774030208588,-0.0005597046110779047,0.0005679914029315114
1782846241894933200,5.095933349609375,0.0035261453595012426,0.0011713637504726648,0.00011187861673533916
1782846241904938200,5.105938232421875,0.000863250344991684,-0.00041161919943988323,-0.00041303038597106934
1782846241914942200,5.115942138671875,-0.0005616770358756185,-0.0013018560130149126,-0.0009908288484439254
1782846241924947200,5.125947265625,0.000027414178475737572,-0.00007014395669102669,0.0007530091097578406
1782846241934952200,5.1359521484375,0.0019631003960967064,0.002127243671566248,0.0018971653189510107
1782846241944957200,5.145957275390625,-0.00001030205748975277,0.00010084453970193863,-0.003019829047843814
1782846241954962200,5.155962158203125,0.0020602319855242968,-0.0005054669454693794,0.002357861492782831
1782846241964967200,5.16596728515625,0.0008713968563824892,0.0002269023098051548,0.0008118963451124728
1782846241974972200,5.17597216796875,0.0012065682094544172,-0.00031223567202687263,0.000523783266544342
1782846241984977200,5.18597705078125,0.0015101684257388115,0.0026270952075719833,-0.0023012978490442038
1782846241994982100,5.195982177734375,0.0022066293749958277,0.00028403522446751595,-0.0016671770717948675
1782846242004987100,5.205987060546875,-0.0015862444415688515,0.001495240954682231,-0.00045171030797064304
1782846242014992100,5.2159921875,-0.0012538174632936716,0.0008051579352468252,-0.0009042698657140136
1782846242024997000,5.2259970703125,0.0010444906074553728,-0.0011602549348026514,0.002563964808359742
1782846242035002000,5.236002197265625,0.0011438573710620403,-0.0009190761484205723,-0.0007410553516820073
1782846242045007000,5.246007080078125,0.00018192362040281296,-0.00014569424092769623,-0.0031861034221947193
1782846242055011300,5.25601123046875,-0.0004024272784590721,0.00011935271322727203,-0.0037260749377310276
1782846242065016300,5.266016357421875,0.0007041161879897118,-0.00042206794023513794,-0.0002253493294119835
1782846242075021300,5.276021240234375,0.0008291329722851515,0.0010977957863360643,-0.0010840127943083644
1782846242085026300,5.2860263671875,0.0001660059206187725,-0.0007869233377277851,0.0006457102135755122
1782846242095031300,5.29603125,-0.00229150359518826,-0.00028389599174261093,-0.000019271159544587135
1782846242105036300,5.306036376953125,0.00005234451964497566,0.001352616585791111,0.0014971327036619186
1782846242115041300,5.316041259765625,-0.00033093371894210577,0.00017575081437826157,0.0019427421502768993
1782846242125046300,5.32604638671875,-0.001494735130108893,0.0005294184666126966,0.0009504482732154429
1782846242135051300,5.33605126953125,-0.002035734709352255,-0.00098444614559412,0.00026971515035256743
1782846242145056300,5.34605615234375,0.002160874428227544,-0.001001490280032158,-0.0029804068617522717
1782846242155061200,5.356061279296875,-0.0007309148786589503,0.00010478566400706768,-0.00003564474172890186
1782846242165066200,5.366066162109375,0.000865117646753788,-0.00016419356688857079,-0.0031829685904085636
1782846242175071200,5.3760712890625,-0.0014654819387942553,-0.0013321421574801207,0.0036276120226830244
1782846242185076200,5.386076171875,0.0005950056947767735,-0.003336969530209899,-0.0005666003562510014
1782846242195080200,5.396080078125,-0.0010747259948402643,-0.0003635105676949024,0.0008319112821482122
1782846242205085200,5.406085205078125,-0.002326145302504301,-0.0025611508172005415,0.0025549763813614845
1782846242215090200,5.416090087890625,0.0009952867403626442,0.0006988022942095995,-0.0009062344906851649
1782846242225095200,5.42609521484375,0.0025769383646547794,0.0011763069778680801,-0.0015464584575966
1782846242235100200,5.43610009765625,0.001308051636442542,-0.0007880614139139652,0.0016541038639843464
1782846242245105200,5.446105224609375,0.0014766298700124025,-0.0014453297480940819,0.00005061458796262741
1782846242255110100,5.456110107421875,-0.002471344079822302,-0.0006248904392123222,-0.0015606197994202375
1782846242265115100,5.466115234375,-0.0002675781724974513,-0.00012315111234784126,0.0016825778875499964
1782846242275120400,5.476120361328125,0.0031573972664773464,0.0004495810717344284,-0.002261543646454811
1782846242285125400,5.48612548828125,0.0002449643798172474,0.00033053779043257236,0.00004688446642830968
1782846242295130400,5.49613037109375,0.00024531735107302666,-0.00008885771967470646,0.00039236462907865644
1782846242305135400,5.50613525390625,-0.0006242046365514398,0.0013497817562893033,-0.0022071469575166702
1782846242315140400,5.516140380859375,-0.00041205366142094135,-0.0004390929825603962,-0.001988797914236784
1782846242325144300,5.526144287109375,0.0005264442879706621,0.0018789224559441209,-0.0003725255373865366
1782846242335149300,5.5361494140625,-0.0010344387264922261,-0.0004982503596693277,0.0009407353354617953
1782846242345154300,5.546154296875,-0.0007233815267682076,0.00016114837490022182,0.002516794018447399
1782846242355159300,5.5561591796875,-0.0030290179420262575,-0.0002556422259658575,-0.00007215351797640324
1782846242365164300,5.566164306640625,0.0014874369371682405,-0.0012774970382452011,0.0012594270519912243
1782846242375169300,5.576169189453125,0.0026505140122026205,-0.001197610516101122,0.0018521045567467809
1782846242385174300,5.58617431640625,-0.0008161227451637387,0.0018264089012518525,-0.00003288080915808678
1782846242395179300,5.59617919921875,-0.00011617154814302921,0.000011460855603218079,-0.0018255319446325302
1782846242405184300,5.606184326171875,0.002573088277131319,0.00040161400102078915,-0.0008191234664991498
1782846242415189200,5.616189208984375,0.0013016413431614637,-0.0017818855121731758,-0.002447433304041624
1782846242425194200,5.6261943359375,0.0012822002172470093,-0.0004305974580347538,0.0016895208973437548
1782846242435199200,5.63619921875,-0.00015588919632136822,-0.0013686874881386757,-0.0015112472465261817
1782846242445204200,5.646204345703125,-0.001982551533728838,-0.000628861365839839,-0.00044917850755155087
1782846242455209200,5.656209228515625,-0.0011123319854959846,0.0016967232804745436,0.0006918974686414003
1782846242465213200,5.666213134765625,-0.0003003341844305396,0.0009630222339183092,0.00420141126960516
1782846242475218200,5.67621826171875,-0.0003014547983184457,0.0005357298068702221,-0.002074960619211197
1782846242485223200,5.68622314453125,0.0002996206749230623,-0.0003084922209382057,0.0015027301851660013
1782846242495228400,5.696228515625,0.00045357714407145977,0.0026711076498031616,-0.00028471765108406544
1782846242505233400,5.7062333984375,0.0019452136475592852,0.0011938523966819048,0.001852735411375761
1782846242515238400,5.71623828125,0.0017621326260268688,0.0017502878326922655,-0.0016599545488134027
1782846242525243100,5.7262431640625,0.0001876717433333397,-0.0023986506275832653,0.0013606026768684387
1782846242535248100,5.736248046875,0.001288221450522542,-0.0007887333631515503,-0.0012820768170058727
1782846242545253000,5.746253173828125,0.00013374118134379387,0.002095470204949379,-0.0007182855624705553
1782846242555258000,5.756258056640625,0.0004147763829678297,-0.0015278887003660202,-0.00003341247793287039
1782846242565263000,5.76626318359375,-0.00019029388204216957,0.0017778929322957993,-0.002174593973904848
1782846242575268000,5.77626806640625,0.0010207656305283308,-0.000928027555346489,0.0015093814581632614
1782846242585273000,5.786273193359375,-0.000039172591641545296,-0.0011626523919403553,-0.000568150426261127
1782846242595277000,5.796277099609375,-0.0006618956103920937,-0.001935760024935007,0.0036436831578612328
1782846242605282000,5.806281982421875,-0.002575643127784133,0.001542594633065164,0.0020937235094606876
1782846242615287000,5.816287109375,0.0014769521076232195,0.0002617565914988518,0.0013397105503827333
1782846242625292000,5.8262919921875,-0.000536397797986865,0.0013525874819606543,-0.0015365033177658916
1782846242635297000,5.836297119140625,0.0001042454969137907,-0.00038887537084519863,0.0009890471119433641
1782846242645302000,5.846302001953125,0.0031461077742278576,-0.00019952445290982723,0.0010375166311860085
1782846242655307000,5.85630712890625,-0.000203676987439394,0.0021988132502883673,0.0011545991292223334
1782846242665312000,5.86631201171875,0.0006522631738334894,0.0009495243430137634,0.0015703185927122831
1782846242675317000,5.87631689453125,0.0011303804349154234,0.0007279606070369482,-0.0016881454503163695
1782846242685322000,5.886322021484375,0.0009349044412374496,0.0013426182558760047,-0.002548879012465477
1782846242695327000,5.896326904296875,0.0007675869856029749,0.0016491353744640946,-0.0028362018056213856
1782846242705332000,5.90633203125,-0.002183728152886033,0.0009969272650778294,0.0024986425414681435
1782846242715337000,5.9163369140625,-0.001324421027675271,0.00016443617641925812,-0.0003235563635826111
1782846242725342000,5.926342041015625,0.0006881298031657934,0.00034952606074512005,-0.00005431077443063259
1782846242735346200,5.93634619140625,-0.0003804044099524617,-0.000097671989351511,0.0017672397661954165
1782846242745351200,5.94635107421875,0.0004536975175142288,0.0022810634691268206,0.00026761385379359126
1782846242755356200,5.956356201171875,0.001092048129066825,-0.001371936872601509,-0.0010835648281499743
1782846242765361200,5.966361083984375,-0.0005372737068682909,-0.0001306375488638878,0.0019042354542762041
1782846242775366100,5.9763662109375,0.002507843542844057,0.0018699208740144968,0.002536746673285961
1782846242785371100,5.98637109375,0.0017083627171814442,0.0023048152215778828,0.0003122081980109215
1782846242795376000,5.996376220703125,0.0017048167064785957,-0.0014798636548221111,-0.0014366116374731064
1782846242805381000,6.006381103515625,0.0012273117899894714,0.0011987434700131416,0.0001823240891098976
1782846242815386000,6.01638623046875,0.0005285856314003468,0.0002962856087833643,-0.000629026151727885
1782846242825391000,6.02639111328125,0.0025200974196195602,0.0007074777968227863,-0.002679127501323819
1782846242835396000,6.03639599609375,0.0008624638430774212,-0.002598352497443557,0.0015047702472656965
1782846242845401000,6.046401123046875,-0.00046831765212118626,-0.00004384806379675865,0.0016709514893591404
1782846242855406000,6.056406005859375,0.0014769546687602997,-0.0011677062138915062,-0.001087904442101717
1782846242865411000,6.0664111328125,-0.0002349254209548235,-0.0021890285424888134,0.0011957561364397407
1782846242875415000,6.0764150390625,-0.000189594691619277,-0.00126196863129735,0.0002057101228274405
1782846242885420000,6.086419921875,-0.0006180972559377551,-0.0014313454739749432,0.0013897515600547194
1782846242895425000,6.096425048828125,-0.00025706866290420294,0.0012552830157801509,0.000473634572699666
1782846242905430000,6.106429931640625,0.0006686460692435503,-0.00006218277849256992,0.002171932253986597
1782846242915435000,6.11643505859375,-0.001078399596735835,0.0017149947816506028,0.0037991274148225784
1782846242925440000,6.12643994140625,-0.00021180696785449982,-0.0011044940911233425,-0.00043423334136605263
1782846242935445000,6.136445068359375,-0.0006676127668470144,-0.0008430909365415573,0.0010127974674105644
1782846242945450000,6.146449951171875,-0.0012484481558203697,-0.0025906572118401527,0.0013648673193529248
1782846242955455000,6.156455078125,6.032641977071762e-7,-0.0009186172392219305,0.001373140956275165
1782846242965460000,6.1664599609375,-0.000898479949682951,-0.001574287423864007,-0.0016900269547477365
1782846242975465000,6.17646484375,-0.0002910684561356902,0.00009252713061869144,-0.0000727139413356781
1782846242985470000,6.186469970703125,0.0024631726555526257,0.0012414148077368736,0.0002961339196190238
1782846242995475000,6.196474853515625,-0.00025520508643239737,-0.0011995555832982063,-0.0010184734128415585
1782846243005479200,6.206479248046875,0.0011837007477879524,0.001499025383964181,-0.00035055255284532905
1782846243015484200,6.216484130859375,0.00013075792230665684,0.0013879063772037625,0.00020387489348649979
1782846243025489200,6.2264892578125,-0.0003850964130833745,0.002202034695073962,-0.0013295733369886875
1782846243035494100,6.236494140625,-0.00009824428707361221,0.002116320887580514,-0.0012646944960579276
1782846243045499100,6.2464990234375,0.001442926935851574,-0.001415829872712493,0.001108448370359838
1782846243055504100,6.256504150390625,-0.0011216088896617293,-0.0011334214359521866,0.003523795632645488
1782846243065509000,6.266509033203125,0.0002587074413895607,-0.0006015882827341557,-0.0005258069722913206
1782846243075514000,6.27651416015625,-0.0005162206944078207,0.0015634766314178705,-0.0010384598281234503
1782846243085519000,6.28651904296875,0.0005916543304920197,-0.0010184580460190773,0.0006353368517011404
1782846243095524000,6.296524169921875,-0.001065798569470644,-0.0012203787919133902,0.00003629119601100683
1782846243105529000,6.306529052734375,0.0010205218568444252,0.00005421019159257412,-0.001566931838169694
1782846243115534000,6.3165341796875,0.0003631860017776489,0.004243756644427776,-0.0015061276499181986
1782846243125539000,6.3265390625,-0.00004374491982161999,-0.0004007965326309204,0.003151208395138383
1782846243135543000,6.33654296875,-0.00034345348831266165,0.0012911736266687512,-0.0023058804217725992
1782846243145548000,6.346548095703125,0.00028265570290386677,-0.00032776198349893093,-0.0003388697514310479
1782846243155553000,6.356552978515625,0.0004448599647730589,0.0011582521256059408,-0.0035828561522066593
1782846243165558000,6.36655810546875,-0.0005546242464333773,-0.0022876118309795856,-0.000761769711971283
1782846243175563000,6.37656298828125,-0.000042659929022192955,0.000261946115642786,0.0009883578168228269
1782846243185568000,6.386568115234375,-0.0006160385673865676,0.0004347851499915123,0.0005670457612723112
1782846243195573000,6.396572998046875,-0.001849703025072813,0.000477747293189168,0.0034872067626565695
1782846243205578000,6.406577880859375,0.00003954349085688591,-0.0012999125756323338,-0.0004982138052582741
1782846243215583000,6.4165830078125,0.0003708251751959324,-0.0007674475200474262,0.0023863737005740404
1782846243225588000,6.426587890625,-0.000618272926658392,0.0010083483066409826,0.0017994128866121173
1782846243235593000,6.436593017578125,-0.0007738820277154446,0.0007791942916810513,0.0005192921962589025
1782846243245598000,6.446597900390625,-0.0001312613021582365,-0.0000628971029073,-0.0009409189806319773
1782846243255603200,6.456603271484375,-0.0007883907528594136,0.0002893495839089155,0.0009376101079396904
1782846243265607200,6.466607177734375,0.0013029896654188633,-0.00006751390174031258,-0.0009308636654168367
1782846243275612200,6.476612060546875,0.0013229507021605968,0.0010009163524955511,0.0006614051526412368
1782846243285617200,6.4866171875,-0.0004328713985159993,0.0005846642889082432,-0.0006264994735829532
1782846243295622100,6.4966220703125,0.0019147121347486973,0.0010118992067873478,0.002310865791514516
1782846243305627100,6.506627197265625,0.0006475802510976791,-0.0001830609980970621,-0.0017387368716299534
1782846243315632000,6.516632080078125,0.001288871979340911,0.000025782734155654907,0.0002986568142659962
1782846243325637000,6.52663720703125,0.0014121762942522764,-0.0004477272741496563,0.00021876196842640638
1782846243335642000,6.53664208984375,-0.0002736542373895645,0.0013441767077893019,0.0009194850572384894
1782846243345647000,6.546647216796875,0.002441971329972148,0.0003590735141187906,-0.0015476674307137728
1782846243355652000,6.556652099609375,0.0009574750438332558,-0.000706429360434413,0.0016074979212135077
1782846243365657000,6.566656982421875,-0.0004137866199016571,-0.0010864625219255686,-0.000028215639758855104
1782846243375662000,6.576662109375,0.0009886964689940214,0.0008825571276247501,-0.0009201675420626998
1782846243385667000,6.5866669921875,-0.0006102655315771699,0.0011882882099598646,-0.0008152390364557505
1782846243395671000,6.596671142578125,0.00035110977478325367,0.0011739474721252918,0.002124106278643012
1782846243405676000,6.606676025390625,-0.002021500375121832,-0.00042927544564008713,0.0011267524678260088
1782846243415681000,6.616680908203125,0.0007661068812012672,-0.0012370210606604815,0.0007218143437057734
1782846243425686000,6.62668603515625,0.0014257719740271568,-0.001025565667077899,-0.0025860979221761227
1782846243435691000,6.63669091796875,0.0006783143617212772,-0.0009879369754344225,0.0003131150151602924
1782846243445696000,6.646696044921875,-0.0008048000745475292,-0.0003586320672184229,0.0015757196815684438
1782846243455701000,6.656700927734375,-0.0002847800496965647,0.0020548938773572445,0.0019187845755368471
1782846243465706000,6.6667060546875,0.001012712251394987,0.0010338376741856337,-0.00013238214887678623
1782846243475711200,6.676711181640625,0.0008870030287653208,0.00019715051166713238,-0.0006575359730049968
1782846243485716200,6.68671630859375,-0.00017613079398870468,0.00029222527518868446,-0.0026067036669701338
1782846243495721200,6.69672119140625,-0.002769751474261284,-0.0001774490810930729,-0.0009313028422184289
1782846243505726200,6.706726318359375,-0.001651756465435028,0.00010591116733849049,0.002421350684016943
1782846243515731200,6.716731201171875,-0.00007581105455756187,-0.0005912857595831156,-0.0011315732263028622
1782846243525735400,6.7267353515625,-0.0013951410073786974,0.0023331313859671354,-0.000705201062373817
1782846243535740400,6.736740478515625,0.0007910653948783875,-0.0006374455988407135,-0.0014690100215375423
1782846243545745400,6.746745361328125,-0.000819880748167634,-0.0015125605277717113,0.0005462040426209569
1782846243555750400,6.75675048828125,0.0013632501941174269,0.0026226367335766554,0.0005469628376886249
1782846243565755400,6.76675537109375,-0.0004069529240950942,-0.0009353465866297483,0.004178183153271675
1782846243575760400,6.776760498046875,-0.0008403125684708357,-0.002251840429380536,0.0013599481899291277
1782846243585765400,6.786765380859375,-0.00008290959522128105,0.001607079990208149,0.0013418387388810515
1782846243595770400,6.796770263671875,-0.00010715145617723465,-0.00036033429205417633,-0.00039230374386534095
1782846243605775400,6.806775390625,-0.0011276747100055218,-0.0008735253941267729,0.00007481477223336697
1782846243615780400,6.8167802734375,-0.0005378216737881303,-0.001031700987368822,-0.00035469490103423595
1782846243625785300,6.826785400390625,0.0011687318328768015,0.0012580848997458816,0.0030818479135632515
1782846243635790300,6.836790283203125,0.0013273307122290134,-0.0006818375550210476,-0.002215930260717869
1782846243645795300,6.84679541015625,0.0010141429957002401,-0.0011955611407756805,0.001939666224643588
1782846243655799000,6.856799072265625,0.0003830031491816044,0.0007020584307610989,-0.0012846430763602257
1782846243665804000,6.866803955078125,-0.0008902540430426598,-0.0013190142344683409,0.0005886244471184909
1782846243675809300,6.876809326171875,-0.0015917413402348757,-0.0011202327441424131,-0.0021278061904013157
1782846243685814300,6.886814208984375,-0.0002902545966207981,0.0006020336877554655,-0.000382370431907475
1782846243695819300,6.8968193359375,0.0007097846828401089,0.0012463170569390059,-0.0016569753643125296
1782846243705824300,6.90682421875,0.0022442983463406563,0.0009147536475211382,-0.0007176782819442451
1782846243715829200,6.916829345703125,-0.0007233596406877041,-0.000069774454459548,0.00034426682395860553
1782846243725834500,6.92683447265625,0.00024816161021590233,-0.0019249324686825275,0.0014028733130544424
1782846243735839500,6.936839599609375,0.001199695048853755,0.001072361133992672,0.0011634568218141794
1782846243745844500,6.946844482421875,-0.0019699991680681705,0.0024721184745430946,-0.0015881212893873453
1782846243755849500,6.956849365234375,0.001068691723048687,0.00013186456635594368,-0.0015951009700074792
1782846243765854500,6.9668544921875,-0.00024824123829603195,0.0005268112290650606,0.0009436904801987112
1782846243775859500,6.976859375,-0.001041028997860849,-0.002418676158413291,-0.0006558157037943602
1782846243785863200,6.98686328125,0.001332646468654275,0.0012903084279969335,-0.00011040025856345892
1782846243795868200,6.9968681640625,-0.0002757629845291376,-0.0012543010525405407,0.001277228002436459
1782846243805873200,7.006873046875,0.0013349168002605438,-0.0011019683443009853,0.00033686583628878
1782846243815878100,7.016878173828125,0.0009427638724446297,-0.0010185928549617529,-0.00017230177763849497
1782846243825883100,7.026883056640625,-0.0037891408428549767,0.0011960919946432114,0.0003616620087996125
1782846243835888000,7.03688818359375,0.00047957594506442547,-0.0021143448539078236,0.00043357835966162384
1782846243845893400,7.046893310546875,-0.0003454713150858879,-0.0016118064522743225,-0.0017499474342912436
1782846243855898400,7.0568984375,0.0031641314271837473,0.0009765303693711758,-0.00028653419576585293
1782846243865903400,7.0669033203125,0.003478650702163577,0.0017999798292294145,-0.0012010636273771524
1782846243875908400,7.076908447265625,0.000241514528170228,-0.0017169786151498556,-0.0005448435549624264
1782846243885913300,7.086913330078125,0.0016274233348667622,-0.0007664964068681002,0.00018166680820286274
1782846243895918300,7.09691845703125,0.00004835706204175949,0.0004139083903282881,0.002028836403042078
1782846243905923300,7.10692333984375,0.00235279044136405,-0.0005485580768436193,-0.00031847378704696894
1782846243915927300,7.11692724609375,0.0006774216890335083,0.00043875304982066154,0.0008595226099714637
1782846243925932300,7.126932373046875,0.000872631324455142,0.00020492728799581528,0.0019950943533331156
1782846243935937300,7.136937255859375,0.0003427665214985609,-0.0008108038455247879,0.0007047581602819264
1782846243945942300,7.1469423828125,-0.0013648523017764091,-0.00037511042319238186,0.0008597541600465775
1782846243955947300,7.156947265625,-0.0004805151838809252,-0.0013766470365226269,-0.002106606727465987
1782846243965952300,7.1669521484375,0.0012143205385655165,0.0005781131330877542,-0.0008266914519481361
1782846243975957200,7.176957275390625,0.000859580235555768,0.0006788906175643206,0.0001509009161964059
1782846243985962200,7.186962158203125,0.0027339132502675056,0.0009859530255198479,-0.002189751248806715
1782846243995967200,7.19696728515625,-0.0006442592712119222,0.0016030243132263422,0.0001331487437710166
1782846244005972200,7.20697216796875,-0.0002628946676850319,-0.0015381742268800735,-0.0012868486810475588
1782846244015977500,7.2169775390625,0.0013713082298636436,-0.003806205466389656,0.0007918349001556635
1782846244025982500,7.226982421875,-0.0007528290152549744,-0.0018993820995092392,-0.000013238692190498114
1782846244035987500,7.236987548828125,0.0017452233005315065,0.00043612183071672916,-0.00009818910621106625
1782846244045991200,7.2469912109375,0.0004908742848783731,0.0021349522285163403,0.00017931230831891298
1782846244055996200,7.25699609375,0.001217699609696865,-0.0005960618145763874,0.0014034990454092622
1782846244066001200,7.267001220703125,0.00022833514958620071,0.00003164517693221569,0.0001286438200622797
1782846244076006100,7.277006103515625,-0.0006214502500370145,-0.000010242918506264687,-0.0024835974909365177
1782846244086011100,7.28701123046875,0.001346625853329897,0.0007729926146566868,0.0023239406291395426
1782846244096016100,7.29701611328125,0.001895487541332841,-0.0008771482389420271,0.0006486356141977012
1782846244106021000,7.307021240234375,0.000021687708795070648,0.00014683720655739307,0.00007152860052883625
1782846244116026000,7.317026123046875,0.0007617673836648464,-0.0011662058532238007,0.00011363782687112689
1782846244126031000,7.327031005859375,-0.00079271977301687,0.0014705898938700557,0.0005554562667384744
1782846244136036000,7.3370361328125,-0.0009929175721481442,-0.0004505380056798458,0.0027139477897435427
1782846244146041000,7.347041015625,0.002079305239021778,0.0015550886746495962,0.001837501535192132
1782846244156046000,7.357046142578125,-0.0010519027709960938,-0.00003910111263394356,-0.0025242078118026257
1782846244166051000,7.367051025390625,-0.0005605495534837246,0.0021422940772026777,-0.0023716087453067303
1782846244176055300,7.37705517578125,-0.001808331930078566,0.0013131664600223303,0.0004088451969437301
1782846244186060300,7.387060302734375,-0.0009939372539520264,-0.0002216133289039135,-0.002125418744981289
1782846244196065300,7.397065185546875,0.0008006247226148844,0.00015849503688514233,0.0002806244301609695
1782846244206070300,7.4070703125,0.001154026249423623,-0.0006886564660817385,0.0016436302103102207
1782846244216075300,7.4170751953125,-0.0024399806279689074,-0.0012675258331000805,-0.0005944412550888956
1782846244226080300,7.427080322265625,0.0006223882082849741,-0.0013548778370022774,-0.0001014901208691299
1782846244236085200,7.437085205078125,0.0005457873921841383,0.0009176332969218493,-0.00038841733476147056
1782846244246090200,7.44709033203125,-0.0001652766950428486,-0.0010493772570043802,-0.003081405768170953
1782846244256095200,7.45709521484375,0.00010983017273247242,0.0024171245750039816,0.0005751022836193442
1782846244266100200,7.467100341796875,0.0008264868520200253,-0.0010830678511410952,0.004367177374660969
1782846244276105200,7.477105224609375,0.0008145696483552456,0.0019194047199562192,-0.00166355911642313
1782846244286110200,7.487110107421875,-0.0006850564386695623,-0.0012039507273584604,-0.0011136163957417011
1782846244296114200,7.4971142578125,-0.0013677803799510002,0.0025325778406113386,0.0010509806452319026
1782846244306119200,7.507119140625,-0.0017486123833805323,-0.0002874433994293213,0.001019555376842618
1782846244316124200,7.517124267578125,0.0026726992800831795,0.0010128156282007694,0.00113856908865273
1782846244326129200,7.527129150390625,-0.0007723660673946142,-0.0009595213923603296,0.0007111317245289683
1782846244336134100,7.537134033203125,-0.0008257550653070211,-0.0017087776213884354,-0.0015565312933176756
1782846244346139100,7.54713916015625,-0.0022010114043951035,0.002344020875170827,0.0005415069172158837
1782846244356144000,7.55714404296875,0.0009608201216906309,-0.0005263702478259802,0.0018492941744625568
1782846244366149000,7.567149169921875,-0.0019841035827994347,-0.001876060152426362,0.0018764582928270102
1782846244376154000,7.577154052734375,0.0004541378002613783,0.0005418313667178154,-0.0006800442934036255
1782846244386159000,7.5871591796875,0.001584117067977786,-0.000016100937500596046,-0.000806011725217104
1782846244396164000,7.5971640625,0.0009298599325120449,0.002006121911108494,-0.001538128824904561
1782846244406169000,7.607169189453125,-0.0009788277093321085,0.0010654933284968138,0.0007777562132105231
1782846244416174000,7.617174072265625,-0.001814389368519187,0.0016317854169756174,0.0003060172311961651
1782846244426178300,7.62717822265625,0.002654394833371043,0.0023966452572494745,-0.0023643341846764088
1782846244436183300,7.637183349609375,-0.0004908223636448383,-0.0012058985885232687,0.0028200289234519005
1782846244446188300,7.647188232421875,-0.0012383717112243176,0.0012487369822338223,-0.0016295805107802153
1782846244456193300,7.657193359375,0.0013381682801991701,-0.0018245736137032509,0.0011227214708924294
1782846244466198300,7.6671982421875,-0.0015617476310580969,-0.0002021759282797575,0.0005147217307239771
1782846244476203300,7.677203369140625,0.0010632355697453022,-0.0002125913742929697,-0.0018718363717198372
1782846244486208300,7.687208251953125,0.0023399549536406994,0.0008526730816811323,0.0019910787232220173
1782846244496213200,7.697213134765625,0.002451579086482525,0.0004920423962175846,-0.0004981077509000897
1782846244506218200,7.70721826171875,-0.002870748285204172,-0.0007396694272756577,0.002056929050013423
1782846244516223200,7.71722314453125,-0.0007947325939312577,-0.0012904172763228416,-0.0007243180298246443
1782846244526228700,7.727228759765625,-0.00039046467281877995,-0.0018805735744535923,0.00026717683067545295
1782846244536233700,7.737233642578125,0.0014818524941802025,0.0040720500983297825,0.002141543198376894
1782846244546237700,7.74723779296875,-0.001251083449460566,0.0006288490258157253,-0.0008017825311981142
1782846244556242700,7.75724267578125,0.0011844804976135492,0.000027495436370372772,-0.002977732801809907
1782846244566247700,7.76724755859375,0.0003431879449635744,-0.0004004745278507471,-0.0021292497403919697
1782846244576252700,7.777252685546875,-0.000282894354313612,-0.0010939016938209534,-0.0007589076412841678
1782846244586257700,7.787257568359375,0.00240743113681674,0.0014938918175175786,-0.0017075255746021867
1782846244596262700,7.7972626953125,-0.0004317647544667125,-0.0010887400712817907,-0.0009379967814311385
1782846244606267600,7.807267578125,-0.00042963423766195774,-0.00006076018325984478,0.0009323412668891251
1782846244616272600,7.817272705078125,0.001961739268153906,0.00044092838652431965,0.00032544491114094853
1782846244626277600,7.827277587890625,-0.0010859821923077106,0.0007408002857118845,0.0015283947577700019
1782846244636282600,7.83728271484375,0.00034180632792413235,0.00019896472804248333,-0.001588428858667612
1782846244646287600,7.84728759765625,0.0005777624901384115,0.00018857838585972786,0.0005442305700853467
1782846244656292600,7.857292724609375,-0.001081386348232627,0.0011307240929454565,-0.0005649130907841027
1782846244666297600,7.867297607421875,-0.00216662441380322,-0.0016251150518655777,0.00014561827993020415
1782846244676301800,7.8773017578125,-0.0014461674727499485,0.0009737825021147728,-0.0006905158516019583
1782846244686306800,7.887306884765625,0.0002231018152087927,0.00038655567914247513,-0.001478012534789741
1782846244696311800,7.897311767578125,-0.0014555974630638957,0.0008687700610607862,0.0004979672958143055
1782846244706316800,7.90731689453125,-0.0009389442857354879,0.0018088659271597862,-0.0005521170678548515
1782846244716321800,7.91732177734375,-0.0006735988426953554,0.002349840011447668,-0.0007215151563286781
1782846244726326800,7.927326904296875,-0.0002999573480337858,-0.0012973588891327381,0.0010513511952012777
1782846244736331800,7.937331787109375,-0.0014371599536389112,0.0002159366849809885,0.0006689945003017783
1782846244746336800,7.947336669921875,-0.00011596572585403919,-0.0015273687895387411,-0.002646907465532422
1782846244756341800,7.957341796875,-0.002004212001338601,0.0016380158485844731,-0.00026173697551712394
1782846244766346800,7.9673466796875,0.0010648146271705627,0.0005618324503302574,-0.0010665440931916237
1782846244776351700,7.977351806640625,-0.0021476559340953827,0.0012676717014983296,-0.003771054558455944
1782846244786356700,7.987356689453125,-0.00024243048392236233,-0.0011097320821136236,-0.0014085641596466303
1782846244796360700,7.997360595703125,-0.001292775385081768,0.00020373030565679073,0.0015413351356983185
1782846244806365700,8.00736572265625,0.00019886111840605736,-0.0013371745590120554,0.0007037710747681558
1782846244816370700,8.01737060546875,-0.0012749050511047244,-0.00006618979386985302,0.0009639370837248862
1782846244826375700,8.027375732421875,0.00010993867181241512,0.001408935058861971,-0.002366345841437578
1782846244836380700,8.037380615234374,0.001179779414087534,0.00131670490372926,-0.00139003642834723
1782846244846385700,8.0473857421875,-0.0006306373979896307,0.0005806072149425745,0.0002238391898572445
1782846244856390700,8.057390625,-0.0002246634103357792,-0.0020774512086063623,-0.0008365396643057466
1782846244866395600,8.067395751953125,0.0007503200322389603,-0.0004625101573765278,-0.0003102991031482816
1782846244876400600,8.077400634765626,-0.0006406769389286637,0.00047135003842413425,0.0006384644657373428
1782846244886405600,8.087405517578125,0.0017905225977301598,-0.00044024991802871227,0.0006816076929681003
1782846244896410600,8.09741064453125,-0.0017417914932593703,0.0008590968791395426,0.0014920388348400593
1782846244906415600,8.10741552734375,-0.0006677386118099093,0.0023051933385431767,-0.0016401049215346575
1782846244916420600,8.117420654296875,-0.0016800907906144857,-0.002637914614751935,-0.000904685992281884
1782846244926424800,8.1274248046875,-0.0010638353414833546,-0.002113804453983903,0.0035390646662563086
1782846244936429800,8.137429931640625,0.0005855404306203127,0.0013653761707246304,0.0012930275406688452
1782846244946434800,8.147434814453124,-0.0013223481364548206,0.0033177395816892385,-0.0004838334280066192
1782846244956439800,8.157439697265625,-0.0030845452565699816,-0.0004884894005954266,-0.0015414794906973839
1782846244966444800,8.16744482421875,0.0002734346780925989,-0.002068542642518878,-0.0005782141233794391
1782846244976449800,8.17744970703125,-0.000013209180906414986,-0.0008547788020223379,-0.0008321274071931839
1782846244986454800,8.187454833984376,0.0013884126674383879,0.004244908224791288,-0.0010028359247371554
1782846244996459800,8.197459716796875,-0.001224722363986075,-0.0003596001770347357,-0.00220077158883214
1782846245006464800,8.20746484375,-0.00150781637057662,-0.0012182032223790884,-0.00009660801151767373
1782846245016469800,8.2174697265625,-0.0002005875576287508,0.0005695896688848734,-0.0036262418143451214
1782846245026474800,8.227474853515625,-0.0014088635798543692,-0.0007462783250957727,-0.0016248761676251888
1782846245036479700,8.237479736328124,0.000341272447258234,0.001219930243678391,-0.0002753237495198846
1782846245046483700,8.247483642578125,0.0015290423762053251,0.001026584766805172,0.0019843685440719128
1782846245056488700,8.25748876953125,-0.0002257253509014845,-0.0014921552501618862,-0.000681696052197367
1782846245066493700,8.26749365234375,0.0002642963081598282,0.0008421051315963268,0.0013241968117654324
1782846245076498700,8.277498779296875,0.0016065759118646383,-0.0024578047450631857,-0.0007301047444343567
1782846245086503700,8.287503662109375,0.0014212196692824364,0.0023462711833417416,-0.0028537092730402946
1782846245096508700,8.2975087890625,-0.00020982162095606327,-0.0011963753495365381,0.0009294960182160139
1782846245106513700,8.307513671875,-0.0005483092973008752,-0.0005068827886134386,-0.0011424431577324867
1782846245116518700,8.3175185546875,-0.0006033447571098804,0.0013785121263936162,0.0011120525887236
1782846245126523600,8.327523681640624,0.0025975084863603115,-0.000018582213670015335,-0.00018437427934259176
1782846245136528600,8.337528564453125,-0.0005972710205242038,0.001464224187657237,-0.0007446593954227865
1782846245146533600,8.34753369140625,0.00011379295028746128,-0.00020850729197263718,-0.0008583763265050948
1782846245156538600,8.35753857421875,0.0009185557719320059,-0.0011156967375427485,-0.002878744387999177
1782846245166542600,8.36754248046875,-0.0012367403833195567,-0.0004935821052640676,0.0002829604782164097
1782846245176547600,8.377547607421874,-0.0005398099310696125,-0.001623095478862524,-0.0001950746518559754
1782846245186552600,8.387552490234375,0.0013995040208101273,-0.0025882250629365444,-0.0013977582566440105
1782846245196557600,8.3975576171875,0.0004849112592637539,-0.000046039698645472527,-0.00024791539181023836
1782846245206562800,8.407562744140625,-0.0007089839782565832,-0.0006223476957529783,-0.00212730816565454
1782846245216567800,8.41756787109375,-0.0005246921209618449,-0.0036914271768182516,-0.00017193995881825686
1782846245226572800,8.42757275390625,0.000742173520848155,0.0013243701541796327,-0.0015602458734065294
1782846245236577800,8.437577880859376,0.000755837420001626,-0.0017806710675358772,-0.002616753801703453
1782846245246582800,8.447582763671875,0.0014562485739588737,-0.0003947620280086994,-0.00037144270027056336
1782846245256587800,8.457587890625,0.0010881752241402864,-0.00040613417513668537,0.001318640192039311
1782846245266592800,8.4675927734375,-0.00041438033804297447,-0.0015097481664270163,-0.0008092255447991192
1782846245276597800,8.47759765625,-0.0006977637531235814,0.0006830920465290546,0.0006696736090816557
1782846245286601500,8.4876015625,0.0005499273538589478,0.0014620665460824966,-0.003824410494416952
1782846245296606500,8.4976064453125,-0.000020257197320461273,-0.0024453529622405767,-0.0029713038820773363
1782846245306611500,8.507611572265626,0.00019359472207725048,-0.00027247960679233074,-0.00019123009406030178
1782846245316616400,8.517616455078125,-0.0005504823056980968,0.002590087242424488,-0.0006378230173140764
1782846245326621400,8.527621337890626,-0.0013350495137274265,-0.0012448648922145367,0.0009070767555385828
1782846245336626400,8.53762646484375,-0.0010416557779535651,-0.00032249721698462963,0.0019925679080188274
1782846245346631400,8.54763134765625,-0.0002656106371432543,-0.00042849103920161724,-0.0014644814655184746
1782846245356636400,8.557636474609374,0.0005384667310863733,0.00043511134572327137,-0.001237788936123252
1782846245366641400,8.567641357421875,0.0023539436515420675,-0.0004735593684017658,-0.000663344981148839
1782846245376646700,8.577646728515624,-0.0007804022170603275,-0.0011747078970074654,0.0009568383684381843
1782846245386651600,8.587651611328125,-0.0002477699890732765,0.0011752652935683727,-0.0011718261521309614
1782846245396656600,8.59765673828125,-0.0005959341069683433,0.031230179592967033,0.022606534883379936
1782846245406660600,8.60766064453125,-0.011164689436554909,0.008036710321903229,0.014297738671302795
1782846245416665600,8.61766552734375,-0.003782994346693158,-0.0115022799000144,0.003334362991154194
1782846245426670600,8.627670654296875,0.004076792858541012,-0.021389532834291458,-0.002856421284377575
1782846245436675600,8.637675537109375,-0.0017544488655403256,-0.00012747570872306824,-0.003785606473684311
1782846245446680600,8.6476806640625,0.000016553327441215515,-0.016946669667959213,-0.003195982426404953
1782846245456685600,8.657685546875,0.0006700903177261353,0.005562478210777044,-0.001124319271184504
1782846245466690600,8.667690673828124,0.0011350782588124275,-0.013597634620964527,-0.003583482000976801
1782846245476695600,8.677695556640625,0.00016727251932024956,-0.006271831691265106,-0.006497495342046022
