time,seconds_elapsed,z,y,x
1782845410001671700,0.078671630859375,1.0069956068515777,1.2690221569508313,-0.08532050481308251
1782845410011676700,0.0886767578125,1.1061059694230555,1.2455690929099916,-0.18215064749289303
1782845410021680600,0.0986806640625,1.0714929212033748,1.1781630515046417,-0.2844742364898324
1782845410031685600,0.108685546875,0.8675982420772314,1.1141048592224716,-0.3492128122515976
1782845410041689600,0.118689697265625,0.618256986027956,1.0536758172228933,-0.345525428975746
1782845410051693600,0.128693603515625,0.37679040887653825,0.9174255183026194,-0.2982642038460821
1782845410061698600,0.138698486328125,0.17914076161980627,0.7964592977538705,-0.2682343186981976
1782845410071702800,0.148702880859375,-0.04822013328969478,0.6736645466037094,-0.24185711083896458
1782845410081707800,0.158707763671875,-0.30218437296450135,0.571477114674449,-0.20953027386032044
1782845410091712800,0.168712646484375,-0.5423714316993952,0.4755582416206598,-0.17573489869907497
1782845410101716700,0.178716796875,-0.765107589417696,0.35486470053344965,-0.14672726927101612
1782845410111720400,0.188720458984375,-0.9693564888089895,0.2305947622641921,-0.21121946905627845
1782845410121725400,0.198725341796875,-0.9959078111261129,0.1283633450627327,-0.3029253275249153
1782845410131729700,0.208729736328125,-0.814157159268856,0.029235592965036628,-0.44643056600950654
1782845410141734700,0.218734619140625,-0.5504425099521875,-0.05345408842042088,-0.5745843599747866
1782845410151738600,0.228738525390625,-0.26349837621748445,-0.11653802884295582,-0.7024101640947162
1782845410161743600,0.23874365234375,-0.027083237236738205,-0.18357567532733082,-0.7255819269761443
1782845410171747600,0.24874755859375,0.16385200707316397,-0.203855370029062,-0.7339169168621301
1782845410181752600,0.258752685546875,0.3078033818900585,-0.18601956134811043,-0.7361378077819943
1782845410191756800,0.2687568359375,0.36620179484486576,-0.13701763003095985,-0.7433261849161237
1782845410201761800,0.27876171875,0.3797305539816618,-0.1796871434561908,-0.6935570686187594
1782845410211765800,0.288765869140625,0.4200573036730289,-0.21955328989848494,-0.6772871210150421
1782845410221770800,0.298770751953125,0.4756768995642662,-0.24762962982580064,-0.5786839773133396
1782845410231774500,0.3087744140625,0.5437216772645712,-0.22943609374836085,-0.5148073521431535
1782845410241779500,0.318779541015625,0.5972282265245914,-0.2496701957426965,-0.4571482863135636
1782845410251783700,0.32878369140625,0.5506675508797169,-0.30896848014667627,-0.4024810957763344
1782845410261788700,0.33878857421875,0.4460381326258182,-0.31403000131994485,-0.34229937960132956
1782845410271792600,0.348792724609375,0.32012334975898266,-0.359305459459871,-0.3112180126391351
1782845410281797600,0.358797607421875,0.17907821777760982,-0.32579628082886336,-0.3038468262840062
1782845410291801600,0.368801513671875,0.060336103019118306,-0.3522740995183587,-0.32641258609630164
1782845410301806600,0.378806640625,0.005881459254026412,-0.4147637273095548,-0.37974911255165933
1782845410311810800,0.388810791015625,-0.10132043983638286,-0.4848049395240843,-0.40751558281220496
1782845410321815800,0.39881591796875,-0.20964052930176258,-0.5218779481165111,-0.3736175509940833
1782845410331819800,0.40881982421875,-0.2708738734215498,-0.5504756815694272,-0.4055233130164444
1782845410341824800,0.41882470703125,-0.2751291927784681,-0.6374322266191244,-0.501636393468082
1782845410351828500,0.428828369140625,-0.19660510663986205,-0.729429834575951,-0.5507557406198234
1782845410361833500,0.43883349609375,-0.0946785176038742,-0.7104461710341274,-0.5473870679043233
1782845410371837700,0.448837646484375,-0.03478022148013115,-0.6623071401566266,-0.5717127500612288
1782845410381842700,0.4588427734375,0.02404781506359577,-0.6727098762273788,-0.5720782954379916
1782845410391846700,0.4688466796875,0.04767360532283783,-0.6980198201812803,-0.5795400826860219
1782845410401851600,0.4788515625,0.07246493223011494,-0.718851449677348,-0.6245201380759478
1782845410411855600,0.488855712890625,0.11292729099988937,-0.7909232909366488,-0.6526034922659397
1782845410421860600,0.498860595703125,0.20219898112416265,-0.8634687410570681,-0.6450339337944984
1782845410431864800,0.50886474609375,0.2146890448629856,-0.9460124381005763,-0.5866881278097629
1782845410441869800,0.518869873046875,0.28019524399638174,-1.0676584576070307,-0.5101289120033383
1782845410451873800,0.528873779296875,0.39435704522728915,-1.1922821777500212,-0.430647525139898
1782845410461878800,0.538878662109375,0.39501638591885563,-1.245776452050358,-0.40528227080218493
1782845410471882500,0.548882568359375,0.2931196074992418,-1.2590998978734016,-0.3867531460948288
1782845410481887500,0.558887451171875,0.14524083010554312,-1.2098434072732924,-0.4171582942958921
1782845410491891700,0.5688916015625,-0.0018184475988149641,-1.1148131536222994,-0.439682626119256
1782845410501896700,0.578896728515625,-0.15641162793934343,-1.0870303898140787,-0.4813039456658065
1782845410511900700,0.588900634765625,-0.2773117975145578,-1.0919548406042159,-0.5600495656006038
1782845410521905700,0.59890576171875,-0.32467735980153084,-1.1872231407947837,-0.5789968426547945
1782845410531909600,0.60890966796875,-0.4283715430319309,-1.3322612879350781,-0.5108055691558867
1782845410541914600,0.61891455078125,-0.534833437409997,-1.3342016083478927,-0.3788092744182795
1782845410551918800,0.6289189453125,-0.6260661984741688,-1.2670768681019544,-0.2754509720787406
1782845410561923800,0.638923828125,-0.7042460012197495,-1.1610149328269064,-0.295506867961958
1782845410571927600,0.648927490234375,-0.9291028043538332,-0.9647443188384175,-0.39395124090537426
1782845410581932500,0.6589326171875,-1.1373241145074366,-0.846771288756281,-0.46725364687293763
1782845410591936500,0.6689365234375,-1.1753723978728055,-0.761007314492017,-0.6441707410939037
1782845410601941500,0.67894140625,-1.126250931829214,-0.6161743345350027,-0.7346095022361725
1782845410611945700,0.68894580078125,-0.8259767764002084,-0.4843250470526516,-0.8591544580545276
1782845410621950700,0.69895068359375,-0.4229799131214618,-0.32663726169764995,-1.0007735905315727
1782845410631954700,0.70895458984375,0.014098667979240417,-0.13160481120198964,-1.0800430882100016
1782845410641959700,0.718959716796875,0.41797815931141374,0.05478431411087513,-1.0838190996173769
1782845410651963600,0.728963623046875,0.7613467755794525,0.27349574635773893,-1.1851107517506927
1782845410661968600,0.73896875,0.8646785552382469,0.44307139177471394,-1.3398393219739198
1782845410671972900,0.748972900390625,0.8110609468191862,0.5573921829596161,-1.333399352054298
1782845410681977900,0.758977783203125,0.520484009540081,0.7116263207294047,-1.0512470557060092
1782845410691981600,0.768981689453125,-0.06048340253531932,0.8232637180492282,-0.7678711358468979
1782845410701986600,0.778986572265625,-0.5784060371547937,0.8828358509585261,-0.5678043444458395
1782845410711990500,0.788990478515625,-0.7687661119252442,0.8519587743967771,-0.5191480116959661
1782845410721995500,0.79899560546875,-0.8687006503611803,0.6661342972293496,-0.4340589410185814
1782845410731999700,0.808999755859375,-0.8339099074870348,0.4146713728509843,-0.34837511931844056
1782845410742005200,0.819005126953125,-0.611350859901309,0.21413769459053872,-0.34409561536833644
1782845410752009500,0.829009521484375,-0.4455389509320259,0.12708864895179867,-0.3768961342733353
1782845410762014500,0.839014404296875,-0.3930757732450962,0.09139496588855982,-0.43580520016402
1782845410772018200,0.84901806640625,-0.39164018748402596,0.017367898908257483,-0.43212607325986024
1782845410782023200,0.859023193359375,-0.34102351444661616,0.04389423291459679,-0.3146823277488351
1782845410792027100,0.869027099609375,-0.16666881805956363,0.15431977022662757,-0.21558643209412692
1782845410802032000,0.8790322265625,0.031412206351757045,0.44599517026692626,-0.12154095169678329
1782845410812036400,0.889036376953125,0.22411446033418178,0.7129108075819909,-0.13654796669259667
1782845410822041300,0.899041259765625,0.4325163877516985,0.7841974898129701,-0.1783639320284128
1782845410832045300,0.90904541015625,0.67854515825212,0.7703337996333837,-0.21561536592766642
1782845410842050300,0.91905029296875,0.8965770838022231,0.7669988099917769,-0.1312581897214055
1782845410852054300,0.92905419921875,0.9726233816504478,0.7372185887560248,0.016443404474481938
1782845410862059300,0.939059326171875,0.8679372647732496,0.6973343221351503,0.16645641741789877
1782845410872063500,0.9490634765625,0.6777583917886019,0.6569225245088338,0.305474938942492
1782845410882068500,0.959068359375,0.5513257225275039,0.6371887732520699,0.4843746583480388
1782845410892072200,0.969072265625,0.3781067521721124,0.6165484285444021,0.7098043659992516
1782845410902077200,0.9790771484375,0.25560031644403935,0.5802841059863567,0.8240664857994765
1782845410912081200,0.9890810546875,0.2746235813438892,0.4664075514376163,0.9042017334617674
1782845410922086100,0.999086181640625,0.25180910746753216,0.33542847091853617,0.9379543654598295
1782845410932090400,1.00909033203125,0.1355126322954893,0.21990356464087962,0.9478303742427379
1782845410942095400,1.019095458984375,-0.010609656819701194,0.07189648469239474,0.9378408220827579
1782845410952099300,1.029099365234375,-0.13687982899546622,-0.06952507938593626,0.909051876906678
1782845410962104300,1.039104248046875,-0.20525193895399568,-0.06511193911880254,0.847435963210091
1782845410972108300,1.0491083984375,-0.3073720047354698,0.06916676746755838,0.8703758170317858
1782845410982113300,1.05911328125,-0.35384967827200886,0.04866071666404605,0.8316883589800447
1782845410992117500,1.069117431640625,-0.3524760518312454,-0.11010594996884465,0.7476418561581522
1782845411002122500,1.07912255859375,-0.3352466846108436,-0.15120719116404652,0.6194609549902379
1782845411012126200,1.089126220703125,-0.39554888536036015,-0.03299684519469738,0.5549890673406421
1782845411022131200,1.099131103515625,-0.48477498277723785,-0.007943652480840682,0.48542972035892307
1782845411032135200,1.10913525390625,-0.5708908392190933,-0.031035481993854044,0.3462494324013591
1782845411042140200,1.11914013671875,-0.5139186596751213,0.026145956386625764,0.16817863810062408
1782845411052144400,1.129144287109375,-0.38057401906847954,0.03845014216452837,-0.001499737038463354
1782845411062149400,1.1391494140625,-0.09325637584626674,0.1132690901748836,-0.03433203932121396
1782845411072153300,1.1491533203125,0.15382570309937,0.14639759892523288,0.032263927810266615
1782845411082158300,1.159158447265625,0.4800526304304599,0.14723025035709142,-0.015711656133830545
1782845411092162300,1.169162353515625,0.8026941004902124,0.1932683634325862,-0.06537921175286174
1782845411102167300,1.179167236328125,1.0256383480012417,0.24358722256720064,-0.09934519424065948
1782845411112171300,1.189171142578125,1.124230824178457,0.23415333152860401,-0.05283288778215647
1782845411122176300,1.19917626953125,1.0826631345152855,0.08931699057072401,0.059187371375411746
1782845411132180200,1.20918017578125,1.1005313841611146,-0.14441753102391958,0.11213745579645037
1782845411142185200,1.219185302734375,1.0971148537158966,-0.21490882509350775,0.17204020889960228
1782845411152189200,1.229189208984375,0.9304431130468844,-0.2454088850364089,0.17598945798203347
1782845411162194200,1.239194091796875,0.8579910402983426,-0.34595220302045343,0.01746960571706295
1782845411172198400,1.249198486328125,0.8256815928459167,-0.3689341424182057,-0.04326543349176645
1782845411182203400,1.259203369140625,0.8100076383739709,-0.37066988016963004,-0.07665558885298669
1782845411192207400,1.269207275390625,0.9223334563493728,-0.40563364152312276,-0.13442659062445164
1782845411202212400,1.27921240234375,1.0588187330693006,-0.4358703743547201,-0.13279906248785556
1782845411212216300,1.28921630859375,1.0616226845741272,-0.4960910343006253,-0.1141662582103163
1782845411222221300,1.29922119140625,0.8633832547307014,-0.5223325600162149,-0.049880102391168475
1782845411232225300,1.309225341796875,0.6223135679423809,-0.49072892274558544,0.010530161842703818
1782845411242229200,1.319229248046875,0.26685353186428545,-0.46662294775396584,0.06681508977487682
1782845411252234200,1.329234130859375,-0.0637263299793005,-0.44957785105928777,0.07900894704610109
1782845411262238200,1.33923828125,-0.2273760924786329,-0.4666571422845125,0.07194405016116798
1782845411272243200,1.3492431640625,-0.2416232290178537,-0.5661565041735768,0.035823154661804434
1782845411282247400,1.359247314453125,-0.2369932311296463,-0.6419948583595454,-0.018517799595743418
1782845411292252400,1.36925244140625,-0.18165537478923796,-0.6299902400501072,-0.1198133972518146
1782845411302256400,1.37925634765625,0.015717793613672256,-0.5536509506046772,-0.2834131831295788
1782845411312261400,1.389261474609375,0.17939210603237152,-0.5905253678850829,-0.43141931322999294
1782845411322265300,1.399265380859375,0.32464988727271554,-0.6876270209826528,-0.5573512664273381
1782845411332270300,1.409270263671875,0.45388650803864,-0.791094555850327,-0.6112816671226173
1782845411342274300,1.4192744140625,0.6103495739042759,-0.822759421788901,-0.6304014511995018
1782845411352279300,1.429279296875,0.7793687544822693,-0.7940295863889157,-0.6255819220885634
1782845411362283300,1.439283203125,0.9050666797280311,-0.5656117297723889,-0.5610554547075182
1782845411372288300,1.449288330078125,0.9732996734768151,-0.5163634224787355,-0.5247670936867594
1782845411382292200,1.459292236328125,0.9187538442969322,-0.599303717624396,-0.45352162024900317
1782845411392297200,1.469297119140625,0.93048870575428,-0.6695743546806275,-0.36041583185456694
1782845411402301200,1.47930126953125,0.8048287744313478,-0.7818152708515524,-0.2869727753072977
1782845411412306400,1.489306396484375,0.6510901650935411,-0.7918640789180994,-0.1954658734768629
1782845411422310400,1.499310302734375,0.43979719240963455,-0.800037156240642,-0.12588767566420137
1782845411432315400,1.5093154296875,0.35136546024084087,-0.9028742842502891,-0.18413747392855584
1782845411442319400,1.5193193359375,0.47527124137282367,-1.01723964522928,-0.12767054049298165
1782845411452324400,1.529324462890625,0.4776882393866777,-1.100046669384092,0.01637165441252291
1782845411462328300,1.539328369140625,0.45124797622859475,-1.2930372387886047,0.16508717489130795
1782845411472333300,1.549333251953125,0.33773382525146006,-1.3750668488301336,0.3882772869221866
1782845411482337300,1.559337158203125,0.226801507461071,-1.3691012184239923,0.5056760973129422
1782845411492342300,1.56934228515625,0.25846155109405516,-1.3879713385887442,0.52074222208485
1782845411502346200,1.57934619140625,0.11088321795165539,-1.3761753945939241,0.5028196849685163
1782845411512351200,1.589351318359375,-0.07547229735255241,-1.3062588316723704,0.39935646094977856
1782845411522355200,1.599355224609375,-0.22843758423030375,-1.2314645797118544,0.32041089799609035
1782845411532360200,1.609360107421875,-0.5162509020149707,-1.256301791587472,0.1920358259629458
1782845411542364400,1.619364501953125,-0.8848346235603094,-1.2344326357372104,0.13187168197724966
1782845411552369400,1.629369384765625,-0.8320832765817642,-1.430001677327603,0.12093326812721789
1782845411562373400,1.639373291015625,-0.5227940400481224,-1.7186621134608984,0.10798950580414383
1782845411572378400,1.64937841796875,-0.520925908088684,-1.7350538608133792,0.2767013739986345
1782845411582382000,1.659382080078125,-0.6459650771647691,-1.4402987610667943,0.4677859636513516
1782845411592387000,1.669386962890625,-0.6375678356975316,-1.058675379075855,0.5728868353419005
1782845411602391300,1.679391357421875,-0.40349370688498015,-0.7253593702666461,0.5303821205569431
1782845411612396300,1.689396240234375,-0.1378477972447872,-0.49458647495657204,0.3452139884063974
1782845411622400300,1.699400146484375,0.14697686011791228,-0.11392580051794647,0.2325114095404744
1782845411632405200,1.7094052734375,0.39856735639870167,0.3733367612913251,0.4151131618017331
1782845411642409200,1.7194091796875,0.4272077599495649,0.6520027498938142,0.6037894482037052
1782845411652414200,1.729414306640625,0.04466039498150348,0.8836940752230584,0.7756742838785052
1782845411662418400,1.73941845703125,-0.4104237984091043,1.040997537435591,0.8474379359714687
1782845411672423400,1.74942333984375,-0.6440121895313262,1.0456909559488297,0.7360412155397236
1782845411682427400,1.759427490234375,-0.8518944769889116,0.9144253135733306,0.9098620973110199
1782845411692432400,1.769432373046875,-1.1398831513404846,0.7144169743612409,1.501701762665063
1782845411702436000,1.77943603515625,-1.2944441829770803,0.3856389012426138,2.4036744219005106
1782845411712441000,1.789441162109375,-1.3037865963399409,-0.07860518855080008,2.8879268421083686
1782845411722445300,1.7994453125,-1.2534861496448517,-0.3637704760447144,2.897567946156859
1782845411732450300,1.8094501953125,-1.202998071423173,-0.41021000952795145,2.519532213394344
1782845411742453500,1.81945361328125,-1.143881281065941,-0.18237345993071793,2.0127336148574946
1782845411752458500,1.82945849609375,-0.8763952965170144,0.09634279755428433,1.5051527799017725
1782845411762462700,1.839462646484375,-0.6668278324514627,0.3255434751115739,1.013466556431353
1782845411772467700,1.8494677734375,-0.20965397330522537,0.6258760827295482,0.7491286606498062
1782845411782471700,1.8594716796875,0.12326689870655536,0.9316276466563344,0.5943898978261277
1782845411792476700,1.8694765625,0.21422434996068476,1.0839062664441763,0.28628661967404184
1782845411802480400,1.87948046875,0.2577367439508438,0.9584658230908214,-0.03628083530142903
1782845411812485400,1.8894853515625,0.3865314661681652,1.0584960769861935,-0.1768556463573128
1782845411822489600,1.899489501953125,0.5732663361787795,1.366796448612958,-0.14762721378542482
1782845411832494600,1.90949462890625,0.625603257137537,1.2337868851795792,-0.1928897393785417
1782845411842498600,1.91949853515625,0.6498252597242593,0.8877192390859127,-0.1760747251126915
1782845411852503600,1.929503662109375,0.7619955948770046,0.8970110913053154,0.053373716660588974
1782845411862507500,1.939507568359375,0.7848603376358747,1.027727283104509,0.16478892259709535
1782845411872512500,1.949512451171875,0.8000175747573375,1.1693960999421775,0.15057700350172817
1782845411882516700,1.959516845703125,0.8310720537126064,1.2920133025683462,-0.06995083051733672
1782845411892521700,1.969521728515625,0.8401882571041583,1.4354264788553117,-0.279138282289356
1782845411902525400,1.979525390625,0.7865776629477739,1.5312087199173867,-0.3542846356231719
1782845411912530400,1.989530517578125,0.7108867544084787,1.5679628718189895,-0.301455766429007
1782845411922534400,1.999534423828125,0.5575111331641673,1.6854782212615012,-0.16298954502493143
1782845411932539400,2.009539306640625,0.4422065916389227,1.6349505416817962,-0.1238119653686881
1782845411942543600,2.019543701171875,0.4084147966742515,1.5594116088338195,-0.12874343042150138
1782845411952548600,2.029548583984375,0.35768998708724975,1.5522119065880775,-0.11212927248999476
1782845411962552600,2.039552490234375,0.25434476342499257,1.4846332850947974,-0.09946326766237616
1782845411972557600,2.0495576171875,0.16565291901528834,1.4224913016974925,-0.1694175322458148
1782845411982561500,2.0595615234375,0.06464286030232906,1.3912540135212241,-0.22519385306872425
1782845411992566500,2.06956640625,-0.03828852186203003,1.3549253935553132,-0.3477824141222983
1782845412002570800,2.07957080078125,-0.21053367874920367,1.3119194877825677,-0.45997824904248114
1782845412012575700,2.08957568359375,-0.4146913927257061,1.2408728979177772,-0.5573810770437121
1782845412022579500,2.099579345703125,-0.5272369909316301,1.1077058058351277,-0.641803062114492
1782845412032584400,2.10958447265625,-0.5805173302203417,1.1063362710475921,-0.6790179633956402
1782845412042588400,2.11958837890625,-0.5866010340481996,1.0421313637711107,-0.6571428161960094
1782845412052593400,2.129593505859375,-0.49569034454524513,0.8962586655028164,-0.6219510182403027
1782845412062597600,2.13959765625,-0.36696927208602426,0.8225950250074267,-0.5734323403954505
1782845412072602600,2.1496025390625,-0.254886615216732,0.6900934110961854,-0.5086815627392381
1782845412082606600,2.159606689453125,-0.1183282732605934,0.6008664368964731,-0.4211901801604777
1782845412092611600,2.169611572265625,0.10926876849234103,0.5924122045449912,-0.40312092804983257
1782845412102615600,2.179615478515625,-0.02636310626864433,0.5614776987075806,-0.2858986432697624
1782845412112620500,2.18962060546875,-0.09856734173595905,0.5566105310626328,-0.3901278832249343
1782845412122624500,2.19962451171875,0.04981938517987728,0.5266119909010827,-0.4642782843239605
1782845412132629800,2.209629638671875,0.12073767248988151,0.5048302210733294,-0.4668103600848466
1782845412142633500,2.219633544921875,0.17181728686392306,0.5067512522637844,-0.4236635114714503
1782845412152638500,2.229638427734375,0.3230576496452093,0.537623360389471,-0.4094852754499763
1782845412162642400,2.239642333984375,0.45933366752862925,0.48750075447931884,-0.39716223884113133
1782845412172647400,2.2496474609375,0.552394228541851,0.40649785713702435,-0.34587811487093567
1782845412182651400,2.2596513671875,0.5752811831325292,0.3084372958794236,-0.3285083893317729
1782845412192656600,2.26965673828125,0.5607376939952373,0.20432079558372496,-0.32556181448586285
1782845412202660600,2.27966064453125,0.5896902322351932,0.05234086648151278,-0.2873590712111443
1782845412212665600,2.28966552734375,0.5470511139482259,-0.039801702903956175,-0.20191263846345245
1782845412222669600,2.299669677734375,0.47363399555981156,-0.10255261197984218,-0.2027022544711828
1782845412232674600,2.309674560546875,0.33768647897839543,-0.1254936348453164,-0.22051892006024718
1782845412242678500,2.319678466796875,0.17349954086244104,-0.13790551878139376,-0.27955380428768695
1782845412252683500,2.32968359375,0.09861585705280303,-0.11729644599482417,-0.33033202456235883
1782845412262687500,2.3396875,-0.025189970836043355,-0.11449278675094246,-0.3798150904599577
1782845412272692500,2.3496923828125,-0.11861994968354701,-0.13247852529659868,-0.4013973921928555
1782845412282696400,2.359696533203125,-0.11133914502561092,-0.14125716729685664,-0.3828245014090091
1782845412292701400,2.369701416015625,-0.039081718066334724,-0.1417329681150615,-0.39646220081299544
1782845412302705400,2.379705322265625,-0.04869125793278217,-0.13429331963360308,-0.3653589142799377
1782845412312710400,2.38971044921875,-0.05883271271884441,-0.15083865011259912,-0.3103615419402718
1782845412322714600,2.399714599609375,-0.059740475213527676,-0.20071955622136592,-0.228358308449015
1782845412332719600,2.4097197265625,0.02926058127582073,-0.24173735691681503,-0.13901925217695532
1782845412342723600,2.4197236328125,0.19785656800568102,-0.2808982776992023,-0.09922821679748595
1782845412352728600,2.429728515625,0.3129085960745811,-0.28969050983339545,-0.06630129503384233
1782845412362732500,2.439732666015625,0.37961481864750385,-0.2644768658608198,-0.02370674654096365
1782845412372737500,2.449737548828125,0.42633331520259377,-0.22535773839354514,0.005099222835153341
1782845412382741500,2.459741455078125,0.4410819715231657,-0.2195962522573769,-0.029285277325659987
1782845412392746500,2.46974658203125,0.4651595972031355,-0.24305735347419977,-0.05047141934782266
1782845412402750500,2.47975048828125,0.3951327057749033,-0.2466261518716812,-0.08098105083666741
1782845412412755500,2.48975537109375,0.23801029921770095,-0.26496128837689753,-0.13474296309724448
1782845412422759400,2.499759521484375,0.1056324578166008,-0.28931860778108237,-0.18435769255049525
1782845412432764400,2.509764404296875,0.026783377507328985,-0.33949367453083396,-0.2695036810468882
1782845412442768600,2.5197685546875,-0.025731238105893135,-0.4271234426669776,-0.405690924668312
1782845412452773600,2.529773681640625,-0.10302198305726051,-0.500575193977356,-0.47522659851349885
1782845412462777600,2.539777587890625,-0.13975041599571705,-0.5359235707342624,-0.5467959701433778
1782845412472782600,2.549782470703125,-0.1469715994209051,-0.5312089633025229,-0.65876910222359
1782845412482786600,2.55978662109375,-0.20368658933341502,-0.4708535710610449,-0.8132197322882712
1782845412492791600,2.56979150390625,-0.24204466930031776,-0.4190582096330821,-0.9097478232815861
1782845412502795500,2.57979541015625,-0.2995756517708301,-0.48626200646460055,-0.9512762769129127
1782845412512800500,2.589800537109375,-0.2949713728457689,-0.5680753434069454,-0.9287327289324253
1782845412522804500,2.599804443359375,-0.28308745830655097,-0.6425622829839587,-0.8063442204955965
1782845412532809500,2.6098095703125,-0.2509755792528391,-0.6659630323156714,-0.7255296122670173
1782845412542813400,2.6198134765625,-0.13112404194772243,-0.6812383428588509,-0.7198485709559171
1782845412552818400,2.629818359375,0.050713119149208064,-0.6047517538972199,-0.7287081692378967
1782845412562822700,2.63982275390625,0.2229232047230005,-0.5909465159066021,-0.816174198179692
1782845412572827600,2.64982763671875,0.3325643136590719,-0.6004974574536085,-0.8172564404584467
1782845412582831600,2.65983154296875,0.39106969411969184,-0.5133814840584993,-0.7550270710386335
1782845412592836600,2.669836669921875,0.370474065336585,-0.4729970128305256,-0.7095450574759393
1782845412602840300,2.67984033203125,0.22704349952340125,-0.48686947083845733,-0.6465270949617028
1782845412612845300,2.68984521484375,0.07475918064713477,-0.46965515505671496,-0.5356919539354741
1782845412622849500,2.699849609375,-0.03346387818455696,-0.44353973993882534,-0.5042939953047781
1782845412632853500,2.709853515625,-0.057099020794034,-0.3177620274551213,-0.5570180889502168
1782845412642858500,2.7198583984375,-0.09640110361278056,-0.0957856020629406,-0.6441639460269362
1782845412652862500,2.729862548828125,-0.1058323643028736,0.01979819479510188,-0.7673631132595241
1782845412662867500,2.739867431640625,-0.01750526155233383,0.02092398395463824,-0.7694638118658215
1782845412672871700,2.74987158203125,-0.031163784548640248,0.03421864207461476,-0.6729371821772306
1782845412682876700,2.759876708984375,-0.32160043657422066,0.06330488969683647,-0.46921420635618266
1782845412692880600,2.769880615234375,-0.8820026150047778,0.13882511784434318,-0.20648630305454133
1782845412702885600,2.7798857421875,-1.5102695383936167,0.06963000106513499,-0.09841690041460097
1782845412712890600,2.789890625,-2.0075451063036915,0.012462298949062823,-0.04481098243333399
1782845412722894300,2.799894287109375,-2.17075472382009,0.05080386617258191,-0.052593306872621176
1782845412732898600,2.809898681640625,-2.2433751388728616,0.04443681535869837,0.045161037980020045
1782845412742904000,2.819904052734375,-2.1295576210349796,-0.05816884198263287,0.09827793033532797
1782845412752908000,2.829907958984375,-1.799080050522089,-0.12834668618887662,0.07412855459339916
1782845412762913000,2.8399130859375,-1.3712632187634706,-0.2080623201996088,0.018814736715704203
1782845412772916700,2.849916748046875,-0.874719472259283,-0.20754969450235367,-0.07479702843949199
1782845412782922000,2.859921875,-0.43999359176456926,-0.1426050747744739,-0.31419498262330886
1782845412792926000,2.869926025390625,-0.04610533309280872,-0.03857435306608677,-0.5281853776976466
1782845412802931000,2.879930908203125,0.18582067777514458,0.1653238331913948,-0.7056929120924323
1782845412812935000,2.889934814453125,0.4299135117769241,0.44550154153108595,-0.8961295592304319
1782845412822940000,2.89993994140625,0.7358131058722734,0.6701734896175563,-0.9194134041842073
1782845412832943900,2.90994384765625,0.9343114789128303,0.8195325686968863,-0.8760049820251762
1782845412842948900,2.919948974609375,0.963579658973217,0.9175896228231489,-0.8670321326270699
1782845412852952800,2.929952880859375,1.0823363867789506,0.8837227167956531,-0.736677321486175
1782845412862958000,2.9399580078125,1.2916256184250117,0.8205826622717082,-0.47064065896272655
1782845412872962000,2.949962158203125,1.4395564182668923,0.7605823670782148,-0.18965353393629192
1782845412882967000,2.959967041015625,1.3792676615208386,0.6482360908366739,-0.039556313308142126
1782845412892970800,2.969970703125,1.2131792736977338,0.5789003965429962,0.12372443321570753
1782845412902975700,2.979975830078125,0.8980512480080127,0.5329461623586714,0.3041986719289794
1782845412912980000,2.98997998046875,0.5780073932260275,0.5024480021119118,0.43466308092419054
1782845412922985000,2.99998486328125,0.37519583316147326,0.3555275483563542,0.6694735977198928
1782845412932989000,3.009989013671875,0.2627560334175825,0.17932415536269544,0.977056103400886
1782845412942994000,3.019993896484375,0.14288696045577526,0.1482144390888512,1.1756925697378813
1782845412952998000,3.029997802734375,0.03535480649769306,0.09058584146276116,1.309803080150485
1782845412963003000,3.0400029296875,-0.07271218498945235,-0.05436053574085235,1.3840285923123359
1782845412973006800,3.0500068359375,-0.19807576371431349,-0.15654723701775072,1.390807584927976
1782845412983011800,3.06001171875,-0.31591362310945986,-0.15656433428302408,1.411647251600027
1782845412993016000,3.07001611328125,-0.48038814599514007,-0.19704320579618215,1.4019288445316254
1782845413003021000,3.08002099609375,-0.6375368560373783,-0.26120705040991304,1.273146251143515
1782845413013024800,3.090024658203125,-0.7841957362473011,-0.3361152841389179,1.168647035140544
1782845413023029800,3.10002978515625,-0.9272732508391142,-0.36199396789148447,1.1286704140610992
1782845413033033700,3.11003369140625,-0.9745575645834207,-0.39292219011858104,1.0435463451355695
1782845413043038700,3.120038818359375,-0.8859288485378026,-0.3554768410824239,0.92578432745561
1782845413053043000,3.13004296875,-0.9084218353748321,-0.203825559412688,0.7969516843806952
1782845413063048000,3.1400478515625,-0.7365314832746982,0.0791251207716763,0.6025371831202879
1782845413073052000,3.150052001953125,-0.5296849686056375,0.2649325006738305,0.40425519277676936
1782845413083057000,3.160056884765625,-0.31027474043965336,0.3058966714859009,0.16759944997318088
1782845413093060900,3.170060791015625,0.023441081342101096,0.3047735126748681,-0.008269888760522008
1782845413103065900,3.18006591796875,0.3391337551772594,0.38083150096088647,-0.0956978507142514
1782845413113070000,3.190070068359375,0.6152186412453651,0.38614042102396484,-0.1842748365726322
1782845413123075000,3.200074951171875,0.847014888253808,0.36856852397620676,-0.24254706586450336
1782845413133078800,3.210078857421875,0.9700105688035487,0.3405605731099844,-0.2489585768746212
1782845413143083800,3.220083740234375,1.0549152958899737,0.2856415267035365,-0.16331304135825483
1782845413153087700,3.230087646484375,1.1272218226879835,0.24776596955657004,-0.02849745141621679
1782845413163092700,3.2400927734375,1.1474848585158586,0.24149200385361907,0.050068391504883764
1782845413173097000,3.250096923828125,1.1154431220889092,0.25618513059467074,0.11996424043197185
1782845413183102000,3.26010205078125,1.0856558865904808,0.26815496985167264,0.14520371296554804
1782845413193106000,3.27010595703125,1.0033218867748974,0.19911182876378297,0.17306195316277442
1782845413203111000,3.28011083984375,1.0365174694120884,0.17935002045631407,0.2089974090926349
1782845413213115000,3.290114990234375,1.0698925002694128,0.19901801300048827,0.2709160320628434
1782845413223120000,3.300119873046875,1.0069961913734673,0.16869681675583123,0.32301490648202597
1782845413233124000,3.3101240234375,1.0172826075881718,0.1253457508072257,0.4308412210810929
1782845413243129000,3.320129150390625,1.0550526585340498,0.11724690776467322,0.5250321743637323
1782845413253132800,3.3301328125,1.0023749613136053,0.0949140799254179,0.5885349247202277
1782845413263137800,3.3401376953125,0.9130231916904449,0.06439210041165351,0.6322718481812626
1782845413273141800,3.350141845703125,0.7978852389037608,-0.04142769667059183,0.6252553935479372
1782845413283146800,3.360146728515625,0.7537836468487977,-0.13873802408277988,0.573066502757743
1782845413293151000,3.37015087890625,0.6893892083495855,-0.15704700323343276,0.5253981581319124
1782845413303156000,3.380156005859375,0.5886848545849322,-0.17655542130172253,0.4151288342949003
1782845413313160000,3.390159912109375,0.5992793138355016,-0.16424334447830916,0.3150944887463003
1782845413323165000,3.4001650390625,0.5817389809697866,-0.17883944058567283,0.1838726855125278
1782845413333169000,3.4101689453125,0.5925678334981203,-0.20811258908212182,0.03784706170484423
1782845413343174000,3.420173828125,0.6462310346245765,-0.21823475464582442,-0.0827611391864717
1782845413353178000,3.43017822265625,0.60014031457901,-0.2985018850594759,-0.18027473408579825
1782845413363183000,3.44018310546875,0.588069937556982,-0.34457565397024154,-0.2361364681698382
1782845413373186800,3.450186767578125,0.4803928221702575,-0.43193566525429483,-0.283795168184489
1782845413383191800,3.46019189453125,0.32508827868998047,-0.5681456321641802,-0.3570090190857649
1782845413393195800,3.47019580078125,0.20576339560747145,-0.7098126954361796,-0.45638270876854653
1782845413403200800,3.48020068359375,0.1173264027416706,-0.746718530768156,-0.4758700840488076
1782845413413205000,3.490205078125,0.04945288995504379,-0.8025165519662201,-0.49397038888484235
1782845413423210000,3.5002099609375,-0.07712181812524795,-0.9303343919754028,-0.5726431627791374
1782845413433214000,3.5102138671875,-0.17003566414415835,-1.028417603456229,-0.5419630700942129
1782845413443219000,3.520218994140625,-0.1857762541115284,-0.9611638300031423,-0.4688929385125637
1782845413453223000,3.530222900390625,-0.0683230101197958,-0.8985654811404645,-0.3835031313229352
1782845413463228000,3.540227783203125,0.10060615408718586,-0.8202141212202608,-0.1352622377309948
1782845413473232100,3.550232177734375,-0.06102642337083816,-0.8375146539807319,-0.46467349418662485
1782845413483237000,3.560237060546875,0.14785890364944934,-1.0350434513367712,-0.9028145168870687
1782845413493240800,3.57024072265625,0.334494404938817,-0.989601988980174,-0.19824249858334658
1782845413503245800,3.580245849609375,0.12627017217576503,-0.7699635050162672,-0.1789119943652302
1782845413513249800,3.590249755859375,0.4088210393875837,-0.7151914658650755,-0.343057139166072
1782845413523254800,3.6002548828125,0.6954226432949304,-0.6832926450401544,-0.1658930113814771
1782845413533259000,3.610259033203125,0.8166220880776643,-0.6026628187939524,-0.08727043330445886
1782845413543264000,3.620263916015625,1.0051362427204846,-0.5103162512689828,-0.05733027226664126
1782845413553268000,3.63026806640625,1.219346564155817,-0.5392661591604352,-0.048471696897968646
1782845413563273000,3.64027294921875,1.346640818682313,-0.6862611394569277,-0.09357778982035815
1782845413573277000,3.65027685546875,1.205662906718254,-0.7556210914090276,-0.0759461254093796
1782845413583282000,3.660281982421875,0.8530658588558435,-0.7040089775934815,0.13058014432936907
1782845413593286000,3.670285888671875,0.4547738122671842,-0.9634484338089823,0.319786592085287
1782845413603291000,3.680290771484375,-0.026436171504855156,-0.9175757404282688,0.5222361139044165
1782845413613294800,3.690294921875,-0.2853168247938156,-0.9201929371893406,0.6890607801128178
1782845413623299800,3.7002998046875,-0.44387832424342627,-0.999808179565519,0.7203009178332984
1782845413633303800,3.7103037109375,-0.472198994320631,-1.1099022929660975,0.6901444106310606
1782845413643308800,3.720308837890625,-0.5268026911675929,-1.2329428355708718,0.626896000361815
1782845413653313000,3.73031298828125,-0.5902917052596807,-1.3970949946343898,0.5330121037343517
1782845413663318000,3.740318115234375,-0.4339221628963947,-1.6021125403106211,0.49556722962222993
1782845413673322000,3.750322021484375,-0.31022914773225785,-1.6616981172233818,0.5484655107907951
1782845413683327000,3.760326904296875,-0.3475871107459068,-1.516680866740644,0.6257191386021673
1782845413693331000,3.7703310546875,-0.39656127727329726,-1.2271399945110082,0.7592833402436227
1782845413703336000,3.7803359375,-0.5330892240911722,-0.9155889505252242,0.9116489807277918
1782845413713340000,3.79033984375,-0.818275115981698,-0.693009298542887,1.005461090760678
1782845413723345000,3.800344970703125,-1.2185106978535651,-0.3967870488531887,1.0758571077622472
1782845413733348900,3.810348876953125,-1.6682815872669219,-0.2062254601612687,1.1653759045153855
1782845413743353900,3.820353759765625,-2.018613612806797,-0.11586173701658845,1.1937922900520264
1782845413753357800,3.83035791015625,-2.0816221499055625,-0.04221270956844091,1.1307382333111018
1782845413763362800,3.84036279296875,-1.89286892580986,-0.03371317677050829,0.975807783840224
1782845413773367000,3.850366943359375,-1.634147846996784,-0.042796793066710234,0.778751426301524
1782845413783372000,3.8603720703125,-1.2001847675681114,-0.018568506869673727,0.6592386194314808
1782845413793376000,3.8703759765625,-0.704567488259077,0.07095964223369955,0.586205057000555
1782845413803381000,3.880381103515625,-0.27738310918509956,0.18943974505513905,0.5126996027415618
1782845413813385000,3.890385009765625,-0.019089315873384475,0.38668446477279067,0.4626278502358123
1782845413823390000,3.900389892578125,0.1887994013249874,0.5032756851077079,0.438545511848107
1782845413833394000,3.910393798828125,0.38765374819636345,0.6051122577726841,0.3382676398672163
1782845413843399000,3.92039892578125,0.5011024327218532,0.6980443701006471,0.2581204277724959
1782845413853403000,3.93040283203125,0.5058984348267317,0.8163117069542407,0.23735693160919472
1782845413863407900,3.940407958984375,0.611039309734106,0.8802049179330468,0.2709899740818888
1782845413873411800,3.950411865234375,0.7926502608597278,0.7237403907626867,0.2820773679485544
1782845413883416800,3.960416748046875,1.045076623442769,0.5974306172288953,0.3320320699458942
1782845413893421000,3.970421142578125,1.1724217313736676,0.5860818324796855,0.41670989294126626
1782845413903426000,3.980426025390625,1.1950450665920973,0.7542289063982666,0.4187495820753276
1782845413913430000,3.990429931640625,1.2508195607841015,0.7800665274880826,0.4089540181174874
1782845413923435000,4.00043505859375,1.3236650167644024,0.7894219464629888,0.5118059053048492
1782845413933439000,4.01043896484375,1.3966951816618443,0.8797967755235732,0.5964109553249552
1782845413943444000,4.02044384765625,1.406248022904992,0.9312206732906401,0.6826638456173241
1782845413953448000,4.030447998046875,1.3845371263563633,0.8929812512673437,0.7618591090157628
1782845413963453000,4.040452880859375,1.2920569955796002,0.918224559725821,0.8308534425258636
1782845413973457000,4.050456787109375,1.1936994972020387,1.0172051584377884,0.8717097690492868
1782845413983462000,4.0604619140625,1.0637421609461306,1.121731262447685,0.8594465728688985
1782845413993465900,4.0704658203125,0.8198083168983459,1.195955751696229,0.7785930939346551
1782845414003470800,4.080470947265625,0.49866848357319826,1.3194728257715702,0.6860220700040459
1782845414013474800,4.090474853515625,0.07583294735848903,1.3687775394275783,0.5309669347075745
1782845414023479000,4.10047900390625,-0.297175604891777,1.374286804368347,0.3377261534016579
1782845414033484000,4.110484130859375,-0.5814689318567514,1.4003249164663254,0.14832078554015607
1782845414043489000,4.120489013671875,-0.7811796032965183,1.3980338829196988,-0.026863566604070365
1782845414053493000,4.130492919921875,-0.8913812687247991,1.3378864343404768,-0.1588921927087009
1782845414063496700,4.14049658203125,-0.8699789997339248,1.2449867629773914,-0.21086280110571531
1782845414073502000,4.150501953125,-0.7714251020014286,1.0813066053397953,-0.2425324162846431
1782845414083506000,4.160505859375,-0.633214316663146,0.8780116456724703,-0.24589878744520247
1782845414093511000,4.170510986328125,-0.5137485638052225,0.6925884427823126,-0.22664723021481184
1782845414103515000,4.180514892578125,-0.4615507590562105,0.5250117160975932,-0.14656199570670722
1782845414113519900,4.190519775390625,-0.4992009830147028,0.3908430457569659,-0.09460592729169875
1782845414123523800,4.20052392578125,-0.532886394995451,0.42502910073623057,-0.08906400219034404
1782845414133528800,4.21052880859375,-0.6592214491009711,0.5081427066221833,-0.13630539010837672
1782845414143533000,4.220532958984375,-0.7827098816037178,0.5302971091546118,-0.2970855154555291
1782845414153538000,4.2305380859375,-0.8394757249206304,0.48570042705908417,-0.44765367806367573
1782845414163541800,4.240541748046875,-0.7633996164560317,0.4784522094964981,-0.5385778481027111
1782845414173547000,4.250547119140625,-0.6059989774793386,0.5016369779899716,-0.5067733910303562
1782845414183550700,4.26055078125,-0.42545360975861546,0.47727001397460694,-0.4742161428293213
1782845414193555700,4.2705556640625,-0.17267770308554173,0.5064271348759531,-0.4611516402034089
1782845414203560000,4.280559814453125,0.07785948475003242,0.5553922413140535,-0.4723576554810628
1782845414213565000,4.29056494140625,0.24350071332752704,0.5386253770388663,-0.452939692175202
1782845414223569000,4.30056884765625,0.3967430635809898,0.48740050897523757,-0.39389370203185825
1782845414233574000,4.310573974609375,0.5642015707135201,0.468861520460993,-0.33046102123688903
1782845414243577900,4.320577880859375,0.6590770721942186,0.48147287249192594,-0.2587269970972091
1782845414253582800,4.330582763671875,0.7313532038539647,0.460268610291183,-0.3032183556547388
1782845414263587000,4.340587158203125,0.7479694076120853,0.4974084005095064,-0.3571667303981259
1782845414273592000,4.350592041015625,0.7415595405697822,0.479475268933922,-0.38299079788662493
1782845414283595800,4.360595703125,0.704683223593235,0.3309210764966905,-0.4071899310544133
1782845414293600800,4.370600830078125,0.638811113756895,0.2127988472022116,-0.35857330926042047
1782845414303604700,4.380604736328125,0.5884335101723671,0.13526055723056196,-0.2962047870982438
1782845414313609700,4.390609619140625,0.5187678532719612,0.09133812113478779,-0.24292459394000468
1782845414323614000,4.400614013671875,0.37231998546421524,0.04405643773898482,-0.23691808353420346
1782845414333619000,4.410618896484375,0.2833160063654184,-0.007670534627884626,-0.2654624062994495
1782845414343623000,4.420622802734375,0.2848971380770206,-0.125462655185163,-0.31196316845063116
1782845414353628000,4.4306279296875,0.20983166795969008,-0.2558230192840099,-0.3716019368553534
1782845414363631900,4.4406318359375,0.05940320608317852,-0.26362127194479107,-0.39854901702441276
1782845414373636900,4.450636962890625,-0.13680793280303477,-0.265832372123003,-0.43826534319985655
1782845414383641000,4.46064111328125,-0.3133054864376783,-0.25061639055162666,-0.5223196640020236
1782845414393646000,4.47064599609375,-0.401737218606472,-0.2844761361859739,-0.5917753679461777
1782845414403649800,4.48064990234375,-0.41500352741479873,-0.3084264822244644,-0.5577725240467116
1782845414413654800,4.49065478515625,-0.45540451138615606,-0.28840222358852624,-0.46786012486610556
1782845414423658800,4.50065869140625,-0.4264806147187948,-0.2998996230281889,-0.432186973134242
1782845414433663700,4.510663818359375,-0.4305681762933731,-0.3013401772253215,-0.3991634956609458
1782845414443668000,4.52066796875,-0.408878322532773,-0.2768354121744633,-0.4155393147919327
1782845414453673000,4.5306728515625,-0.31988018865287304,-0.31240912211984395,-0.32561540783662346
1782845414463677000,4.540677001953125,-0.28904432088434695,-0.3566616669528186,-0.2242058649446815
1782845414473682000,4.550681884765625,-0.18617080638706682,-0.37302404208034273,-0.1958932685760781
1782845414483686000,4.560685791015625,0.004935118314623833,-0.35100875575765966,-0.2247741663519293
1782845414493691000,4.57069091796875,0.1081114151507616,-0.30008184772729873,-0.25328560976088044
1782845414503695000,4.580695068359375,0.14500526778399944,-0.2819657608002424,-0.230590926339291
1782845414513700000,4.5907001953125,0.2149023953527212,-0.30569559595584866,-0.22505448113065213
1782845414523703800,4.600703857421875,0.3079775694131851,-0.3021199294261634,-0.2145980055786669
1782845414533708800,4.610708740234375,0.3581634498178959,-0.3104262777395546,-0.1644598002405837
1782845414543712800,4.620712646484375,0.35023733299374576,-0.2879411819480359,-0.16765753683596848
1782845414553717800,4.6307177734375,0.33834757323563097,-0.26424218032211066,-0.19086188681274652
1782845414563722000,4.640721923828125,0.34746669923663137,-0.28006577239781616,-0.2349207357045263
1782845414573727000,4.65072705078125,0.330699104309082,-0.3229664642304182,-0.30187318812347946
1782845414583731000,4.66073095703125,0.36035716046988964,-0.34771643621399995,-0.37611002539694305
1782845414593736000,4.67073583984375,0.4132926318436861,-0.34857217626050113,-0.495762386868149
1782845414603740000,4.680739990234375,0.45192835970818995,-0.31295199682489033,-0.5701271613702178
1782845414613745000,4.690744873046875,0.4434562994390726,-0.30346696012094615,-0.6515409776009619
1782845414623749000,4.7007490234375,0.4303711924165487,-0.3015371611021459,-0.7229970250494778
1782845414633754000,4.710754150390625,0.24841420433223246,-0.34772783439084887,-0.7268038699865341
1782845414643757800,4.7207578125,0.0006032265901565551,-0.3274900791347027,-0.7239213002875446
1782845414653762800,4.7307626953125,-0.13945347887575626,-0.314991101437062,-0.7758437221612781
1782845414663766800,4.740766845703125,-0.11335749911069869,-0.3017743308588862,-0.818736742144078
1782845414673771800,4.750771728515625,-0.04041384345293045,-0.3237343798629939,-0.8369445259425788
1782845414683776000,4.76077587890625,-0.013341127610206603,-0.36714185217395423,-0.860564105656743
1782845414693781000,4.770781005859375,-0.1011526820540428,-0.44216319088861344,-0.9039136372353881
1782845414703785000,4.780784912109375,-0.21631986093521116,-0.49511108335256576,-0.9360641677990555
1782845414713790000,4.7907900390625,-0.29825404777824877,-0.4817490590848028,-0.9462833639964461
1782845414723794000,4.8007939453125,-0.3382148867666721,-0.47822176174148917,-0.9681910982914268
1782845414733799000,4.810798828125,-0.3760387137264013,-0.5157036433957517,-0.9387748149972408
1782845414743803600,4.8208037109375,-0.4248392772525549,-0.5366016161262989,-0.8411790947724134
1782845414753808600,4.83080859375,-0.37685587532818315,-0.43331893630623813,-0.7409582136757671
1782845414763812900,4.840812744140625,-0.26728432449698447,-0.24778891204074024,-0.7591492655351758
1782845414773817900,4.85081787109375,-0.1402963594406843,-0.09415449372977018,-0.8478092535018921
1782845414783821800,4.86082177734375,0.022934885385632514,-0.0759070355080068,-0.9068177611790597
1782845414793826800,4.870826904296875,0.048181554844975466,-0.07535626975744962,-0.7749322333395481
1782845414803830800,4.880830810546875,-0.1696376047372818,-0.09287585209608078,-0.4866654726989567
1782845414813835800,4.890835693359375,-0.45991935846209525,-0.04788695581257343,-0.1323166857983917
1782845414823840000,4.900840087890625,-0.7628910824120044,-0.011286387037485838,0.14294815259110183
1782845414833845000,4.910844970703125,-1.1383487813800572,0.08856924094334244,0.2752413479160517
1782845414843848700,4.9208486328125,-1.5582786592811344,0.20994009677022693,0.29731968953758475
1782845414853853700,4.930853759765625,-1.9036288047552108,0.2782156144864857,0.2743606926240027
1782845414863857700,4.940857666015625,-2.020060304483771,0.3039756402954459,0.1750316823331639
1782845414873862700,4.950862548828125,-1.8736556912958622,0.2858222900979221,0.04703994706179947
1782845414883867000,4.960866943359375,-1.5598714814305306,0.28370091402977704,-0.09708700351770967
1782845414893871900,4.970871826171875,-1.165457153058052,0.3459275069706142,-0.21053572457581757
1782845414903875800,4.980875732421875,-0.8389502397418022,0.39316929674744605,-0.28499438790641723
1782845414913880800,4.990880859375,-0.3993272348552942,0.4322345020703971,-0.3392625691886991
1782845414923884800,5.000884765625,0.13904840520620346,0.5541755590006708,-0.42658451348468657
1782845414933889800,5.010889892578125,0.6875503024846314,0.6760039493367076,-0.5053215847868472
1782845414943893800,5.020893798828125,1.1179875458747148,0.6820880915559828,-0.5615066690737381
1782845414953899000,5.03089892578125,1.485201148110628,0.7021794240787624,-0.5430981750713662
1782845414963902700,5.04090283203125,1.6577677920371292,0.7505065248742699,-0.400943218684569
1782845414973907700,5.05090771484375,1.6693074231833218,0.8010581698514521,-0.2643362883463502
1782845414983911700,5.06091162109375,1.6321347536087034,0.7468367503203451,-0.12842194338217378
1782845414993916700,5.070916748046875,1.5561919161349533,0.7269242814958096,0.08293938183020799
1782845415003921000,5.0809208984375,1.5127935039132832,0.7279172380559146,0.21961400710977613
1782845415013926000,5.09092578125,1.4604273568600414,0.6411679060161113,0.326410978661105
1782845415023929900,5.100929931640625,1.315810211610794,0.5984659516260028,0.42738008430916813
1782845415033934800,5.110934814453125,1.1096265447646378,0.5272647557213902,0.49272875479329376
1782845415043938800,5.120938720703125,0.9086001145511865,0.3989969799876213,0.5511872639048844
1782845415053943800,5.13094384765625,0.5838888524800538,0.2441444180585444,0.6830573749795555
1782845415063947800,5.14094775390625,0.19531214421987533,0.15535028231814502,0.832117178851366
1782845415073952800,5.150952880859375,-0.2153121451973915,0.03484408049657941,0.9549620527535676
1782845415083956700,5.160956787109375,-0.6011702421486378,-0.15001856590136886,1.0661245260380208
1782845415093961700,5.170961669921875,-0.8831500314742327,-0.33437750056087967,1.1249650567371396
1782845415103965700,5.180965576171875,-1.0509294411242007,-0.433430141595751,1.1546703130405396
1782845415113970700,5.190970703125,-1.1959475683897733,-0.48201428589224815,1.2398805258795618
1782845415123975000,5.200974853515625,-1.27187813090384,-0.5161961030878126,1.280192078001797
1782845415133980000,5.21097998046875,-1.2647282591491937,-0.5088941095113754,1.249420361510664
1782845415143983900,5.22098388671875,-1.16443482427299,-0.45166371742263434,1.126128547558561
1782845415153988900,5.23098876953125,-1.029524249523878,-0.25769524289667606,0.9206366623688489
1782845415163992800,5.240992919921875,-0.7347182963728904,-0.05473974431678653,0.6327774596158414
1782845415173997800,5.250997802734375,-0.39666590669155116,0.07262231474891305,0.3766971776351332
1782845415184001800,5.261001708984375,-0.0863350521504879,0.2747683966420591,0.22356698251925408
1782845415194006800,5.2710068359375,0.15391922660171986,0.4555060720644891,0.18323489906564353
1782845415204010800,5.2810107421875,0.3302127820968628,0.5696956380851567,0.11958821019381284
1782845415214015700,5.291015625,0.4649304646223783,0.523539013196528,0.013573036669939755
1782845415224019700,5.301019775390625,0.616988573527336,0.45752311097532505,-0.07847352499514818
1782845415234024700,5.311024658203125,0.6837181769758462,0.45450843932926654,-0.11317410536780953
1782845415244029000,5.32102880859375,0.6723819594472646,0.5127864407747984,-0.12225889070779085
1782845415254034000,5.331033935546875,0.7098667637109756,0.5122980727359652,-0.19109774139523505
1782845415264038000,5.341037841796875,0.8150345266252755,0.4822781975254416,-0.23426636344902216
1782845415274043000,5.35104296875,0.9086293406456708,0.35232173805236816,-0.19720665272958576
1782845415284046800,5.361046875,1.0742506954789162,0.2169154887408018,-0.1283545772343874
1782845415294051800,5.3710517578125,1.2222756033450364,0.08605623520910739,-0.032282047988846894
1782845415304055800,5.381055908203125,1.252424073371291,0.05297668016701936,0.1126270659442991
1782845415314060800,5.391060791015625,1.1711410439133643,0.030515257512032982,0.2136703693397343
1782845415324064800,5.401064697265625,1.0721177751034499,-0.019400866040587425,0.29091910178028046
1782845415334069800,5.41106982421875,0.9159294345259666,0.042352410300076006,0.36060638599060474
1782845415344073700,5.42107373046875,0.7239139937639236,0.11331716710031031,0.4278980803012848
1782845415354078700,5.43107861328125,0.6158160226166248,0.11180325540602207,0.5064139831334352
1782845415364082700,5.441082763671875,0.510642414483428,0.09278817381262779,0.5709876506570726
1782845415374088000,5.451087890625,0.37637948998808857,0.10516922421902418,0.638579935349524
1782845415384092000,5.461091796875,0.24120880299806594,0.0412634460195899,0.6537643527388572
1782845415394097000,5.471096923828125,0.19153028759360313,-0.05499591103494167,0.7130675325136632
1782845415404100900,5.481100830078125,0.22636194700002668,-0.06528437307626009,0.7553042805448174
1782845415414105900,5.49110595703125,0.326512174013257,-0.02343815873265266,0.7215441228274255
1782845415424109800,5.50110986328125,0.34336452461481093,0.03769055596888065,0.6370430081058294
1782845415434114800,5.51111474609375,0.31845863141715525,0.008989069880545139,0.5190086762905121
1782845415444118800,5.521118896484375,0.3175286570906639,-0.09223185510411858,0.40984263752028344
1782845415454123800,5.531123779296875,0.3921960678011179,-0.17947174713984132,0.266190026454255
1782845415464127700,5.541127685546875,0.4645955335795879,-0.21680399119034408,0.16970694364644587
1782845415474132700,5.5511328125,0.5770622213304043,-0.25632950750142336,0.10151881195269524
1782845415484136700,5.56113671875,0.6403676955491304,-0.3892193900778889,0.018299480669945477
1782845415494141700,5.5711416015625,0.6265326469421386,-0.5761893840186297,-0.13580818117596208
1782845415504146000,5.58114599609375,0.6047527768105269,-0.7113209080420434,-0.28241350456774234
1782845415514151000,5.59115087890625,0.6194014798879623,-0.8283709780603646,-0.34971389364153144
1782845415524155000,5.60115478515625,0.6523597466379404,-0.8784434612184763,-0.39431510578170414
1782845415534160000,5.611159912109375,0.6153998430311679,-0.8325454872660338,-0.46334889451935884
1782845415544163600,5.62116357421875,0.5316483776330948,-0.7725451920725405,-0.5032102186560631
1782845415554168600,5.63116845703125,0.41443887926936146,-0.800290838740766,-0.5582573484215885
1782845415564172800,5.6411728515625,0.26244214516282083,-0.859011469387263,-0.5484000443391501
1782845415574177800,5.651177734375,0.2618605458825827,-0.8340645135268568,-0.4659623649533838
1782845415584181800,5.661181640625,0.3754717274934053,-0.8051118291564285,-0.4245554188098758
1782845415594186800,5.671186767578125,0.4728898991942405,-0.8554980544388294,-0.3413807303864509
1782845415604190700,5.681190673828125,0.606645458689332,-0.912582754446566,-0.2754657312564552
1782845415614195700,5.69119580078125,0.7244529229462147,-0.958037660806626,-0.17709281611405311
1782845415624200000,5.701199951171875,0.7847177142947912,-0.9518135255947708,-0.1361047895023599
1782845415634205000,5.711204833984375,0.8414367958605289,-0.9229828601688146,-0.08594323982130736
1782845415644208600,5.721208740234375,0.8848965828806161,-0.9715874627314507,-0.0457507840340957
1782845415654214000,5.7312138671875,0.8569593591630459,-1.0127892416916786,0.01642046199031174
1782845415664217600,5.741217529296875,0.8154436919480562,-0.9939211673535406,0.10259966599196195
1782845415674222600,5.75122265625,0.6617430765330791,-0.9359192063704133,0.11714059784598647
1782845415684226800,5.761226806640625,0.37767479049563407,-0.926225495351851,0.10495755422972142
1782845415694231800,5.771231689453125,0.2106844853967428,-0.9709477035231888,0.12130042093917727
1782845415704235800,5.78123583984375,0.09735738142430782,-1.0640640863768756,0.13322353497762232
1782845415714240800,5.79124072265625,-0.04967617731690407,-1.0931040106393397,0.19113493160046635
1782845415724244700,5.80124462890625,-0.05427870267629623,-1.0762553132995962,0.28007786469440904
1782845415734249700,5.811249755859375,-0.050907764938473696,-1.0745772970847784,0.3036544455170631
1782845415744252700,5.821252685546875,-0.055443070280551905,-1.0059244704887271,0.389253365412727
1782845415754257700,5.831257568359375,-0.09882979206442832,-1.0582843339316546,0.5269542284674942
1782845415764261600,5.84126171875,-0.17535247525274753,-1.1754472166746854,0.6036765624137594
1782845415774266600,5.8512666015625,-0.3179378224134445,-1.2700474083453417,0.8060494022674858
1782845415784270800,5.861270751953125,-0.5998878011226654,-1.389948483880609,0.8447166943140327
1782845415794275800,5.87127587890625,-0.9953390713274478,-1.4804485467560589,0.69167468893826
1782845415804279800,5.88127978515625,-1.4290823705255984,-1.5064638625003397,0.38271921440362927
1782845415814284800,5.891284912109375,-1.7281114943295717,-1.2460339339427648,0.08772796781361103
1782845415824288800,5.901288818359375,-1.8115806356549262,-0.7574407080516219,0.017303236174210906
1782845415834293800,5.911293701171875,-1.4756681806117296,-0.5094904679693282,0.007113667930103838
1782845415844298000,5.921298095703125,-1.045574636092782,-0.3322914880670607,-0.02649542741142213
1782845415854303000,5.931302978515625,-0.9954191508263349,-0.004224924218654632,0.18790376765951514
1782845415864306700,5.941306640625,-1.052952471384406,0.28556568498834967,0.4481597278896719
1782845415874311700,5.951311767578125,-1.1536597477585078,0.3126677730560303,0.5800874143704772
1782845415884315600,5.961315673828125,-1.3774568127065896,0.21824980608448385,0.7964959765024483
1782845415894320600,5.971320556640625,-1.4498872581452131,0.2341553773552179,1.0320009418357163
1782845415904324900,5.981324951171875,-1.5502864914834498,0.23061244405135511,1.1419670449424535
1782845415914329900,5.991329833984375,-1.9329788178801535,0.1994840230770409,1.166418180109933
1782845415924333800,6.001333740234375,-2.0849305438011885,0.4080202443987131,1.136975593330711
1782845415934338800,6.0113388671875,-1.4303244795411825,0.6521962266393005,0.921649054281786
1782845415944342800,6.0213427734375,-0.5477583854347468,0.8168572120077907,0.6260038738276809
1782845415954347800,6.03134765625,0.20367197628617287,0.9139711400650441,0.4533087446833029
1782845415964352000,6.04135205078125,0.978184522908926,0.9466026590786873,0.2692581087879836
1782845415974357000,6.05135693359375,1.5878893691688776,0.9738030929543078,0.0737534376706928
1782845415984360700,6.061360595703125,2.0071862098634243,0.9450421317636967,0.03631283787488937
1782845415994365700,6.07136572265625,2.31245802744925,0.9556181785747409,0.04599383554235101
1782845416004369700,6.08136962890625,2.7018887221902608,0.9708958272054791,0.22813114862963557
1782845416014374700,6.091374755859375,2.738994756269455,0.8273881045028567,0.3969484499599784
1782845416024379000,6.10137890625,2.5982091520071027,0.7693874586939812,0.5125632264781743
1782845416034384000,6.1113837890625,2.313060669517517,0.8446592650383711,0.6601607757776975
1782845416044387800,6.121387939453125,2.011046976944804,0.97570585783571,0.7187673515904694
1782845416054392800,6.131392822265625,1.7381307840406894,1.1175478392831981,0.7019139050103723
1782845416064397800,6.141397705078125,1.3956570707857607,1.1845942535959184,0.6868576440453529
1782845416074401800,6.15140185546875,1.030544824743271,1.238087066591531,0.6292028890646993
1782845416084406000,6.161406005859375,0.670751143375039,1.3409051976397632,0.5862963520132005
1782845416094411000,6.171410888671875,0.2827811688363552,1.3881810358166693,0.5056178643196821
1782845416104416000,6.181416015625,-0.046005964371562,1.401742235918343,0.48183213425837457
1782845416114419700,6.191419677734375,-0.5202741661816835,1.367909962812811,0.501114853812009
1782845416124424700,6.2014248046875,-0.9904635742455721,1.3607586297534406,0.5303610412362962
1782845416134428700,6.2114287109375,-1.254002282473445,1.3546844244062899,0.5304541994124651
1782845416144433700,6.22143359375,-1.339566350251436,1.335778648406267,0.429729460446909
1782845416154438000,6.23143798828125,-1.2840724265664816,1.2784157159790397,0.3750943455483764
1782845416164443000,6.24144287109375,-1.1861276006430386,1.1800791142590343,0.3529586477164179
1782845416174446800,6.25144677734375,-1.0939911687374115,1.0802379531949757,0.35861221649870273
1782845416184451800,6.261451904296875,-0.9743091427803039,0.9849225989922881,0.3520575341582298
1782845416194455800,6.271455810546875,-0.8229653196245431,0.9124782711587845,0.3011084142960608
1782845416204460800,6.281460693359375,-0.6786702459365129,0.8353231352858245,0.19240743575431404
1782845416214465000,6.291465087890625,-0.5918231526106595,0.7512140886217356,0.1205485796585679
1782845416224470000,6.301469970703125,-0.47986558342576024,0.6918475612871349,0.07658639607429504
1782845416234473700,6.3114736328125,-0.4395873490512371,0.6269188697807491,0.04582074399776757
1782845416244478700,6.321478759765625,-0.5428226825982332,0.6289123816855251,-0.0871749370407313
1782845416254482700,6.331482666015625,-0.5724696328431368,0.6292214476346969,-0.16640377391520886
1782845416264487700,6.34148779296875,-0.4626689494311809,0.6125060212858021,-0.21326376130022107
1782845416274492000,6.351491943359375,-0.2449216860413551,0.6131428578846156,-0.22662512798085807
1782845416284497000,6.361496826171875,-0.06408522641956806,0.5998552140273153,-0.22225867639966307
1782845416294500900,6.3715009765625,0.1273690733283758,0.5560580117464066,-0.17013762668129057
1782845416304505900,6.381505859375,0.34117198300659657,0.5384998509630561,-0.11345862139761448
1782845416314509800,6.391509765625,0.5443845250874757,0.5045467279568314,-0.09400723074618726
1782845416324514800,6.401514892578125,0.5501093324750661,0.49670858167707915,-0.1085616796689108
1782845416334518800,6.411518798828125,0.5089578223973512,0.5003440155699849,-0.060637314455397426
1782845416344524000,6.42152392578125,0.46804070559740063,0.4535504079520702,-0.04314001701381057
1782845416354527700,6.43152783203125,0.35823709957599636,0.4031305726610124,-0.07303699649702756
1782845416364532700,6.44153271484375,0.28454817850887776,0.39202421836555,-0.0908163257503882
1782845416374536700,6.45153662109375,0.2795160295605659,0.3470521270863712,-0.12170359491258859
1782845416384541700,6.461541748046875,0.3131500036150217,0.31484760131314393,-0.1326144631685689
1782845416394546000,6.4715458984375,0.3272100931495428,0.26311756020635363,-0.16904749335702507
1782845416404551000,6.481551025390625,0.29662498527169223,0.23552111275047063,-0.19754202216379343
1782845416414555000,6.491554931640625,0.34942075591385363,0.19755349340587852,-0.24270777285154907
1782845416424559900,6.501559814453125,0.3814116389364004,0.1585102076537907,-0.2654757041724399
1782845416434563800,6.511563720703125,0.23178280300498008,0.13656199521794915,-0.30194552270732816
1782845416444568800,6.52156884765625,0.11439034928977489,0.11411489334926009,-0.3079843644801527
1782845416454572800,6.53157275390625,0.07773439706563949,0.09275222571641206,-0.23926870178095994
1782845416464577800,6.541577880859375,-0.02015782188773155,0.005613017576187849,-0.1856386722717434
1782845416474581800,6.551581787109375,-0.13027414712011814,-0.06448065547794103,-0.1032231316525489
1782845416484586800,6.561586669921875,-0.16153262421488762,-0.09004705841094254,-0.025931363787874577
1782845416494590700,6.5715908203125,-0.14492927993834018,-0.12958996424823999,0.008936280247382819
1782845416504595700,6.581595703125,-0.21225977188944814,-0.14875190696641802,-0.006876278977654874
1782845416514599700,6.591599609375,-0.2808738739103079,-0.1446964940957725,0.014358013035170734
1782845416524604700,6.601604736328125,-0.24000118077397345,-0.17034984465986489,0.01573273545447737
1782845416534609000,6.61160888671875,-0.19248890349268913,-0.1968416918747127,-0.011777896881476044
1782845416544614000,6.62161376953125,-0.17074761180579662,-0.20498174371048808,-0.01573098188880831
1782845416554619000,6.631618896484375,-0.1452642109811306,-0.19917598004117607,-0.002265424181334674
1782845416564622800,6.641622802734375,-0.06044716217815876,-0.2107154650568962,-0.05985573562365025
1782845416574627800,6.6516279296875,0.043344051685929294,-0.2776512586019933,-0.12022296443339436
1782845416584631800,6.6616318359375,0.15037176325321197,-0.3209824508063495,-0.19014588403049856
1782845416594636800,6.67163671875,0.2462427055120468,-0.2911335482485592,-0.313230850298889
1782845416604640800,6.681640869140625,0.30058979724943635,-0.26367007952257987,-0.43381103067211807
1782845416614645800,6.691645751953125,0.2973193972766399,-0.18773864022567868,-0.541708364680782
1782845416624649700,6.701649658203125,0.25311025319397445,-0.11689444106519221,-0.6730754216041416
1782845416634654700,6.71165478515625,0.21949323027431963,-0.10168810410499572,-0.7728584958054124
1782845416644658700,6.72165869140625,0.12059271106123924,-0.15465601644366977,-0.8095704890657216
1782845416654663700,6.73166357421875,0.1258703592032194,-0.21383651968687772,-0.777713096229732
1782845416664668000,6.74166796875,0.1592629257172346,-0.2712698870018124,-0.7332356565997004
1782845416674673000,6.7516728515625,0.15271160437762737,-0.2245500752724707,-0.7173342500474303
1782845416684676900,6.7616767578125,0.1817278555035591,-0.20314108427986502,-0.7003870607692748
1782845416694681900,6.771681884765625,0.19007424356639385,-0.2535897072739899,-0.7085147645801305
1782845416704685600,6.781685546875,0.3341109585791826,-0.2627346983686089,-0.6733633717000485
1782845416714690600,6.791690673828125,0.44189796408116816,-0.32399171562492846,-0.6261102568116038
1782845416724694800,6.80169482421875,0.5467956778824329,-0.3093587946385145,-0.5580043235085904
1782845416734699800,6.81169970703125,0.6079243925839662,-0.25757380847409367,-0.4990016245177015
1782845416744704000,6.8217041015625,0.6611953795224428,-0.26995748922899365,-0.4104888630019501
1782845416754709000,6.831708984375,0.6854167975872755,-0.32091654596328734,-0.30945487542413175
1782845416764713000,6.841712890625,0.614640549096465,-0.3745717099137604,-0.21909349036701023
1782845416774718000,6.851718017578125,0.4843243164002895,-0.41007103944867845,-0.12071052875462919
1782845416784722000,6.861721923828125,0.2861737338840961,-0.4083396856114268,-0.12673461134973912
1782845416794727000,6.871726806640625,0.0012415244936943054,-0.4359527919411659,-0.19908121442981064
1782845416804731000,6.88173095703125,-0.20294073940217494,-0.4439316618658602,-0.2402701339084655
1782845416814736000,6.89173583984375,-0.40607086389660835,-0.4553197557121515,-0.29978845427129414
1782845416824739800,6.90173974609375,-0.5351572625368833,-0.46476168392673134,-0.3898811053896323
1782845416834744800,6.911744873046875,-0.5878583406329154,-0.45316184702590107,-0.4658795820407569
1782845416844749000,6.9217490234375,-0.6290268018454312,-0.44524157542064785,-0.5795029655460268
1782845416854754000,6.931754150390625,-0.6162853936940431,-0.3844210498854518,-0.7051087555289268
1782845416864758000,6.941758056640625,-0.5337935729682445,-0.19270429980903864,-0.8205789359446615
1782845416874763000,6.951762939453125,-0.48196927770674225,0.010180179361253976,-0.9011512598499655
1782845416884767000,6.96176708984375,-0.38208150102198124,0.12777867704257367,-1.0092185435980559
1782845416894772000,6.97177197265625,-0.21898761883974074,0.19696341855823993,-1.0957324594467879
1782845416904776000,6.98177587890625,-0.1679945137053728,0.254466928499937,-1.0401256499718874
1782845416914781000,6.991781005859375,-0.25802666680812836,0.25102087969928977,-0.9457185697205364
1782845416924786000,7.001785888671875,-0.40618718375265594,0.21787176655232904,-0.7603157520312815
1782845416934790000,7.011789794921875,-0.5819459017187356,0.12985489879474044,-0.5989626491017639
1782845416944795000,7.021794921875,-0.7483762348473072,0.06842471692860126,-0.47783363920673727
1782845416954798800,7.031798828125,-0.7574035909116268,0.034059798251092434,-0.3778863874197006
1782845416964803800,7.041803955078125,-0.6948848831564187,-0.01429609024748206,-0.29984058631733057
1782845416974808000,7.05180810546875,-0.5799509285092354,-0.0296877206467092,-0.2802084688041359
1782845416984813000,7.06181298828125,-0.500185317876935,-0.0158672850869596,-0.30466574145145714
1782845416994817000,7.071817138671875,-0.5397890139907598,-0.0071655077151954166,-0.365286579696089
1782845417004822000,7.081822021484375,-0.5679752440333367,-0.02190568846836686,-0.4824725510537624
1782845417014826000,7.091825927734375,-0.5386614712655544,-0.009277093041688203,-0.5476606241486967
1782845417024831000,7.1018310546875,-0.5251484942197799,0.019554741428047417,-0.56586161288023
1782845417034835000,7.1118349609375,-0.448164623260498,0.03539718433469534,-0.6063705142054706
1782845417044840000,7.12183984375,-0.2803530649065971,0.04846446343958378,-0.6118178198259323
1782845417054844000,7.131843994140625,0.010241408029198646,0.09796163092777133,-0.5698741364572197
1782845417064849000,7.141848876953125,0.3661643854439258,0.10574541667178272,-0.5182840883430093
1782845417074852900,7.151852783203125,0.739256524324417,0.1105991403132677,-0.4889589173983782
1782845417084857900,7.16185791015625,0.9970131420195102,0.14988617169335483,-0.502082091408968
1782845417094862000,7.171862060546875,1.1433207245737314,0.19809052289202808,-0.5055988673582673
1782845417104867000,7.1818671875,1.148413079276681,0.20271452943086624,-0.4786670943561941
1782845417114871000,7.19187109375,1.0307190122663974,0.18528116407096384,-0.39721265385411675
1782845417124876000,7.2018759765625,0.8698702786624432,0.16371099116727708,-0.35333858694471415
1782845417134880000,7.2118798828125,0.676208239737153,0.17667393311485646,-0.2813495285980403
1782845417144885000,7.221885009765625,0.4576625194460153,0.22194310764446853,-0.20446933720894156
1782845417154889000,7.231888916015625,0.13938392077088355,0.25228651572093364,-0.09002017040401697
1782845417164894000,7.24189404296875,-0.02069382846057415,0.33459275074675676,-0.017514248576387764
1782845417174898000,7.25189794921875,-0.1278793609380722,0.3975983652360737,0.023219985937327145
1782845417184903000,7.26190283203125,-0.1491027662307024,0.4865351243175566,0.05838095036335289
1782845417194907000,7.271906982421875,-0.12336042220890521,0.5998369477182627,0.0701700992912054
1782845417204911900,7.281911865234375,-0.09835691385567187,0.6726058313310146,0.09597038404531777
1782845417214916000,7.291916015625,-0.11847498825490474,0.7400584883570671,0.16206154345981777
1782845417224921000,7.301921142578125,-0.09277940598428248,0.7874429014749824,0.22860957979634403
1782845417234926000,7.311926025390625,-0.012093757897615432,0.8095197087265551,0.3232016612257808
1782845417244930000,7.321929931640625,-0.02254851641654968,0.80346333129704,0.4546192792925983
1782845417254935000,7.33193505859375,0.01620470034778118,0.7821262364968657,0.6319728652346879
1782845417264939000,7.34193896484375,0.12049451138377189,0.7322904847040772,0.7190241758957505
1782845417274944000,7.351944091796875,0.21033435678482054,0.6672106942892074,0.7731167814154177
1782845417284948000,7.361947998046875,0.2722334713369608,0.6039706865221262,0.7667845096539706
1782845417294953000,7.371952880859375,0.2842056486815214,0.5019923672989011,0.8022416805475949
1782845417304957000,7.38195703125,0.23008125978410243,0.34473493618518114,0.9110206196963787
1782845417314962000,7.3919619140625,0.2153688438206911,0.19459084420800207,0.9885863091316074
1782845417324966000,7.4019658203125,0.2203834571123123,0.01075491050928831,1.0268477237910032
1782845417334971000,7.411970947265625,0.2694780351489782,-0.17838526707738636,1.1075532456219195
1782845417344975000,7.42197509765625,0.29982232000827785,-0.2882940870389342,1.1364150368385015
1782845417354980000,7.43197998046875,0.2743839273691177,-0.3044111091032624,1.1550986945204436
1782845417364984000,7.441984130859375,0.16708499764502047,-0.30194676481634375,1.1496027274526655
1782845417374989000,7.451989013671875,0.06779284876585007,-0.395135043862462,1.0641421931143848
1782845417384992800,7.46199267578125,-0.1549403863430023,-0.4572860873490572,0.9795493815213441
1782845417394998000,7.471998046875,-0.4339133950680494,-0.32606939868181944,0.913102613602206
1782845417405002000,7.482001953125,-0.6554816780507564,-0.0858233032360673,0.8723148222703486
1782845417415007000,7.492007080078125,-0.7101485032618046,0.08928162699639797,0.7681342437624931
1782845417425011000,7.502010986328125,-0.7241191609472036,0.13578385045230387,0.7126349863152951
1782845417435016000,7.512015869140625,-0.6341495516866446,0.1711506396487355,0.6808363379292189
1782845417445020000,7.52202001953125,-0.5238789126753807,0.2612371532872319,0.755780008297786
1782845417455025000,7.53202490234375,-0.3243646405905485,0.35595863324999805,0.7720981058921664
1782845417465029000,7.542029052734375,-0.03952946183383465,0.40376287921518084,0.7253704761825501
1782845417475034000,7.5520341796875,0.3125269032806158,0.4041270363524556,0.660130088378489
1782845417485038000,7.5620380859375,0.6157067170232534,0.33338965856730934,0.5035120511468499
1782845417495043000,7.57204296875,0.8171949195295571,0.24865458895936607,0.41650991338975724
1782845417505046800,7.582046875,1.0096277089208363,0.20653350319713354,0.31558819054737686
1782845417515051800,7.5920517578125,1.1337421643674372,0.11575564629361033,0.22278014299049972
1782845417525056800,7.602056884765625,1.1280606115996836,0.02302957793176174,0.201454665562883
1782845417535061000,7.61206103515625,0.9948013111889362,-0.06409165616035462,0.1763433129210025
1782845417545066000,7.62206591796875,0.756979812541604,-0.13417349264621733,0.18359087289646267
1782845417555070000,7.632070068359375,0.5671341170340776,-0.1851397097736597,0.2509009065814316
1782845417565075000,7.642074951171875,0.443399600815773,-0.23696079016476868,0.2550551036514342
1782845417575079000,7.652078857421875,0.3664455404728651,-0.27171090876758097,0.19143055354617536
1782845417585084000,7.662083984375,0.3937111485391855,-0.2847824256561696,0.1490508899129927
1782845417595088100,7.672088134765625,0.43503509257435796,-0.3155868753731251,0.11629399095401168
1782845417605093000,7.682093017578125,0.4606926809221506,-0.3396696156196296,0.13287548872493207
1782845417615097000,7.69209716796875,0.49760582277774806,-0.31106662146970626,0.14423362582437693
1782845417625102000,7.70210205078125,0.5222808298289775,-0.27929741837382316,0.15493030334040522
1782845417635105800,7.712105712890625,0.4752355855375528,-0.1808481500595808,0.11411891193725168
1782845417645110800,7.72211083984375,0.38482407772839067,-0.06301394392624497,0.11007489724345505
1782845417655115000,7.732114990234375,0.41288405104279513,0.009511340188980102,0.1526463571216911
1782845417665120000,7.7421201171875,0.46972179055213925,-0.08784574897438287,0.17778963927179575
1782845417675124000,7.7521240234375,0.541232198536396,-0.2348579726666212,0.1795836830817163
1782845417685129000,7.76212890625,0.6345587170094251,-0.3598986030474305,0.21077238287590444
1782845417695133000,7.7721328125,0.6968944694131612,-0.34044133064448834,0.19166063597500324
1782845417705138000,7.782137939453125,0.749389211282134,-0.3476834107272327,0.12191796831563115
1782845417715142000,7.792141845703125,0.7862824793934822,-0.4130661296114325,0.04623867714889347
1782845417725147100,7.802147216796875,0.8132511503398417,-0.5297498505353927,-0.014229089425876735
1782845417735151000,7.812151123046875,0.823267517441511,-0.6611711218640208,-0.056114612866565584
1782845417745155300,7.8221552734375,0.7927163118332624,-0.7362519356809556,-0.05819974857755005
1782845417755159300,7.8321591796875,0.7319453245282173,-0.7409861245959997,-0.07962481392212212
1782845417765164300,7.842164306640625,0.5812053124845028,-0.7306774965494871,-0.15644070790335535
1782845417775168500,7.85216845703125,0.3907832783937454,-0.7253872811868787,-0.19098755901902914
1782845417785173500,7.862173583984375,0.33356559965610505,-0.7256717972166836,-0.2149022492222488
1782845417795177200,7.87217724609375,0.3063356474250555,-0.792128721203655,-0.25487689754031595
1782845417805182200,7.88218212890625,0.14726035323441028,-0.8239891097143291,-0.3574952682327479
1782845417815187200,7.892187255859375,0.1137146419852972,-0.8052525528013705,-0.34335846020020544
1782845417825191200,7.902191162109375,0.08749766618907451,-0.8680494929760694,-0.3350470703855157
1782845417835196200,7.912196044921875,0.07662438999712466,-0.9220599001049995,-0.3582344692274928
1782845417845200400,7.922200439453125,0.06095861883163452,-0.8447069035723805,-0.35265447713807224
1782845417855205400,7.932205322265625,0.12819208014905453,-0.8233449665918946,-0.31781689944751557
1782845417865209300,7.942209228515625,0.2972854950070381,-0.8094754311934113,-0.24683292649015784
1782845417875214300,7.95221435546875,0.402755455738306,-0.7548597516477108,-0.17692907691970466
1782845417885218300,7.96221826171875,0.4320873486846685,-0.6930562064245342,-0.11713950186744332
1782845417895223300,7.972223388671875,0.4883639471799135,-0.7686001077085733,-0.09885200389623641
1782845417905227500,7.9822275390625,0.4744400512456894,-0.9191036806479096,-0.04347651895917952
1782845417915232500,7.992232421875,0.45386955690383907,-0.9640050447784364,0.11572020965404808
1782845417925236200,8.002236328125,0.42196401407718653,-1.0153925560578703,0.2328563505206257
1782845417935241200,8.0122412109375,0.24316987393796444,-1.0874417470939457,0.3288610021617263
1782845417945245200,8.0222451171875,-0.09457096557617187,-1.1577363495476543,0.40508214512020346
1782845417955250200,8.032250244140625,-0.4022288015156984,-1.3395374164178966,0.30965346673615274
1782845417965254400,8.04225439453125,-0.6104962888985872,-1.6231158731117843,0.16568535998016595
1782845417975259400,8.05225927734375,-0.759327836972475,-1.676244090578705,0.15242138925939797
1782845417985263400,8.062263427734376,-0.832057557618618,-1.2892081820197403,0.299792217130959
1782845417995268400,8.072268310546875,-0.8012000625401735,-1.0182629969276487,0.3058552434969693
1782845418005272300,8.082272216796875,-0.597980506196618,-0.9305980113476514,0.15944025504551826
1782845418015277300,8.09227734375,-0.5214005398631095,-0.7322562901735306,0.09403612804710865
1782845418025281500,8.102281494140625,-0.5851058270543813,-0.45474137130230663,0.11269508967921137
1782845418035286500,8.11228662109375,-0.7407838800221681,-0.23126330917552113,0.2078598198974505
1782845418045291500,8.12229150390625,-0.9836761060625314,-0.12627455608993768,0.26044750074688344
1782845418055295200,8.132295166015625,-1.0601707322001457,0.06218056184202432,0.3150022073529661
1782845418065300200,8.14230029296875,-1.0319482618004083,0.11994111528471112,0.38533451146855946
1782845418075304200,8.15230419921875,-1.0214496641397475,0.19012158983945845,0.44244788958150894
1782845418085309200,8.16230908203125,-0.8577659993708133,0.21297522668242452,0.4422992748910561
1782845418095313400,8.1723134765625,-0.5337286910384893,0.13548735172376036,0.3762709515796974
1782845418105318400,8.182318359375,-0.18003157297968864,0.03358385130241513,0.30056659903693944
1782845418115322400,8.192322265625,-0.1072007300466299,0.08431304480358957,0.24036099052969365
1782845418125327400,8.202327392578125,-0.1346586458146572,0.12828195038959384,0.10472644888758659
1782845418135331300,8.212331298828126,-0.018324176719784736,0.07571297424063086,0.0031452392231673
1782845418145336300,8.22233642578125,0.10366086548268795,0.06684402360841632,-0.08237093429248779
1782845418155340500,8.232340576171875,0.14290624967813492,0.15587240649610756,-0.06333944955356419
1782845418165345500,8.242345458984374,0.2108902371019125,0.22317381848320364,-0.04527063583433628
1782845418175349200,8.252349365234375,0.4363175336003303,0.26982451049908995,-0.03175718386452645
1782845418185354200,8.262354248046876,0.6756324856758117,0.29505116008371113,0.00719199386332184
1782845418195358200,8.272358154296874,0.946414004638791,0.3937741307727992,0.05607658241111785
1782845418205363200,8.28236328125,1.1183446887493134,0.41146161702424283,0.08329294450823217
1782845418215367400,8.292367431640624,1.2078642161548137,0.44470615336969493,0.22419527048543095
1782845418225372400,8.302372314453125,1.2673182756423949,0.5854261450499296,0.4093780156832188
1782845418235376400,8.31237646484375,1.3301280752986668,0.5855072474621236,0.4476027150614187
1782845418245381400,8.32238134765625,1.4068921660274267,0.5636122265182435,0.48431324701700357
1782845418255385300,8.33238525390625,1.4327771333903074,0.6388853480368852,0.4958776472782716
1782845418265390300,8.342390380859374,1.3624889606773853,0.6761519795052707,0.414142051747255
1782845418275394600,8.35239453125,1.1941431493163108,0.6970582816727459,0.3552011659462005
1782845418285399600,8.362399658203126,0.8938865295439958,0.6772624249652027,0.3351276613410562
1782845418295403300,8.3724033203125,0.44083413424193857,0.7414999193370342,0.3718592360846698
1782845418305408300,8.382408203125,0.026774609678983687,0.8083908508270978,0.4150548192106187
1782845418315413200,8.392413330078124,-0.30628947019577024,0.730727034779638,0.4176558320218697
1782845418325417200,8.402417236328125,-0.6011503684043884,0.7000771911025047,0.5129276393437758
1782845418335422200,8.412422119140626,-0.8539888189196586,0.7637751717701554,0.5510133321100845
1782845418345426400,8.422426513671875,-1.0159791237741709,0.7967259858660399,0.5226307392451912
1782845418355431400,8.432431396484375,-1.1365133826464413,0.8947054447114468,0.505911732699722
1782845418365435400,8.442435302734374,-1.177947216796875,0.9417005662508309,0.4690938313795253
1782845418375440400,8.4524404296875,-1.0341016404420136,0.9791009071014821,0.3439390000345185
1782845418385444400,8.4624443359375,-0.7050345212489366,0.9586192600868642,0.2808274409526959
1782845418395449300,8.472449462890625,-0.2792646851480007,1.0032251484021544,0.25309140236303207
1782845418405453600,8.48245361328125,0.08994505934119224,1.074767705090344,0.26153796286471187
1782845418415458600,8.49245849609375,0.2382388472765684,1.0778547113202512,0.2989522591754794
1782845418425462300,8.502462158203125,0.26135434992611406,1.105635429301858,0.2522833373831585
1782845418435467300,8.51246728515625,0.2071031197786331,1.2122004917934537,0.17991353609059005
1782845418445471200,8.52247119140625,0.3187503078401088,1.1964824059188366,0.07730817101020365
1782845418455476200,8.532476318359375,0.4840852469474077,1.1403890550360083,0.05277019780948758
1782845418465480400,8.54248046875,0.4001362131506204,1.1004662099704146,0.09934661901276558
1782845418475485400,8.5524853515625,0.44363983931243417,0.8122158159427344,0.2095895297668874
1782845418485489400,8.562489501953126,0.4706389053970575,0.5756072002165019,0.5238648476174101
1782845418495494400,8.572494384765625,-0.07479659004807472,0.46753421737998724,0.4261707815846428
1782845418505498400,8.582498291015625,-0.21511749940812586,0.5050808348335325,0.2395903714833781
1782845418515503400,8.59250341796875,-0.1032055229306221,0.6921312005341053,0.0907016133295372
