time,seconds_elapsed,z,y,x
1782845409989167600,0.066167724609375,0.6626988649368286,0.2725178003311157,0.03074246644973755
1782845409999171800,0.076171875,0.6561563014984131,0.28801339864730835,-0.07058016210794449
1782845410009176800,0.0861767578125,0.6387578248977661,0.30593836307525635,-0.16903163492679596
1782845410019180800,0.096180908203125,0.6253975629806519,0.3287280797958374,-0.249146968126297
1782845410029185800,0.106185791015625,0.6099698543548584,0.34383806586265564,-0.3159920573234558
1782845410039189500,0.116189453125,0.6072502732276917,0.3490309715270996,-0.3708840608596802
1782845410049193700,0.12619384765625,0.609464168548584,0.3469925820827484,-0.4207133948802948
1782845410059198700,0.13619873046875,0.6066699624061584,0.3393447697162628,-0.4655730128288269
1782845410069202700,0.14620263671875,0.6146674156188965,0.32361775636672974,-0.4998074173927307
1782845410079207700,0.156207763671875,0.634283721446991,0.3050163686275482,-0.49822232127189636
1782845410089212700,0.166212646484375,0.6512044072151184,0.2722592055797577,-0.4630741775035858
1782845410099216600,0.176216552734375,0.671493411064148,0.22376225888729095,-0.39329031109809875
1782845410109220900,0.186220947265625,0.6817492842674255,0.18110373616218567,-0.3234773874282837
1782845410119225900,0.196225830078125,0.6791276335716248,0.15014342963695526,-0.25319790840148926
1782845410129229600,0.2062294921875,0.6678704619407654,0.12955719232559204,-0.18864181637763977
1782845410139234800,0.21623486328125,0.6499684453010559,0.11052624136209488,-0.1413949429988861
1782845410149238500,0.226238525390625,0.6287220120429993,0.11735326051712036,-0.10842926800251007
1782845410159243500,0.236243408203125,0.6127089262008667,0.13089729845523834,-0.09638752043247223
1782845410169247700,0.246247802734375,0.6057527661323547,0.1520254909992218,-0.09059222042560577
1782845410179252700,0.256252685546875,0.601544976234436,0.1641617715358734,-0.08903107047080994
1782845410189256700,0.266256591796875,0.5970469117164612,0.17237816751003265,-0.08686725050210953
1782845410199261700,0.27626171875,0.595045268535614,0.16707368195056915,-0.10203422605991364
1782845410209265700,0.286265625,0.5984628796577454,0.1568537950515747,-0.1257515400648117
1782845410219270700,0.296270751953125,0.6104612350463867,0.14509594440460205,-0.1680832803249359
1782845410229274600,0.306274658203125,0.630683958530426,0.14652100205421448,-0.2142142951488495
1782845410239279900,0.31627978515625,0.650705873966217,0.1488158404827118,-0.2550741136074066
1782845410249283600,0.32628369140625,0.6785351037979126,0.14737267792224884,-0.27873894572257996
1782845410259288600,0.33628857421875,0.6962488293647766,0.15060068666934967,-0.2994098663330078
1782845410269292500,0.34629248046875,0.7127546072006226,0.1457526683807373,-0.29192665219306946
1782845410279297500,0.356297607421875,0.7223107814788818,0.1464775800704956,-0.278884619474411
1782845410289301800,0.3663017578125,0.7252684831619263,0.15174025297164917,-0.26401033997535706
1782845410299306800,0.376306640625,0.7132067680358887,0.15756219625473022,-0.2627176344394684
1782845410309310700,0.386310791015625,0.6994984149932861,0.14502562582492828,-0.2593900263309479
1782845410319315700,0.396315673828125,0.684863805770874,0.11880680918693542,-0.24581030011177063
1782845410329319700,0.406319580078125,0.6700555682182312,0.09641016274690628,-0.2355685830116272
1782845410339324700,0.41632470703125,0.661104679107666,0.0857740268111229,-0.23244735598564148
1782845410349328600,0.42632861328125,0.6674928069114685,0.08269594609737396,-0.22367116808891296
1782845410359333600,0.436333740234375,0.6845759153366089,0.08018538355827332,-0.22102239727973938
1782845410369337600,0.446337646484375,0.6990105509757996,0.08077660202980042,-0.21228882670402527
1782845410379342600,0.456342529296875,0.7019714117050171,0.07646015286445618,-0.20337389409542084
1782845410389346600,0.4663466796875,0.6933265328407288,0.07785112410783768,-0.1912248134613037
1782845410399351600,0.4763515625,0.6740314364433289,0.08094625174999237,-0.18618425726890564
1782845410409355500,0.48635546875,0.643462061882019,0.08524219691753387,-0.18291735649108887
1782845410419360500,0.496360595703125,0.6138144135475159,0.08025382459163666,-0.18986128270626068
1782845410429364700,0.50636474609375,0.5934273600578308,0.07236447930335999,-0.1979660838842392
1782845410439369700,0.51636962890625,0.5796844363212585,0.05891897529363632,-0.2163352370262146
1782845410449373700,0.526373779296875,0.5706248879432678,0.05354525148868561,-0.23712493479251862
1782845410459378700,0.536378662109375,0.5693218111991882,0.05113375931978226,-0.23711401224136353
1782845410469382700,0.546382568359375,0.5781552195549011,0.05097130313515663,-0.20912392437458038
1782845410479387600,0.5563876953125,0.5939381718635559,0.05475778877735138,-0.15098711848258972
1782845410489391600,0.5663916015625,0.618444561958313,0.07384306192398071,-0.08148447424173355
1782845410499396600,0.576396728515625,0.6453113555908203,0.11690584570169449,-0.014213823713362217
1782845410509400600,0.586400634765625,0.6838986873626709,0.16582359373569489,0.04051333665847778
1782845410519405600,0.596405517578125,0.7278863787651062,0.21250027418136597,0.09288253635168076
1782845410529409500,0.606409423828125,0.785731852054596,0.24384568631649017,0.14928828179836273
1782845410539414500,0.61641455078125,0.8454159498214722,0.2679033577442169,0.22192414104938507
1782845410549418800,0.626418701171875,0.8981150984764099,0.2803669571876526,0.29694032669067383
1782845410559423700,0.636423828125,0.9422149062156677,0.2876775860786438,0.4044486880302429
1782845410569427700,0.646427734375,0.9823676943778992,0.28724029660224915,0.5236605405807495
1782845410579432700,0.6564326171875,1.0190205574035645,0.29311442375183105,0.6392713189125061
1782845410589436700,0.666436767578125,1.0533050298690796,0.2982617914676666,0.7410677075386047
1782845410599441700,0.676441650390625,1.0652433633804321,0.28560778498649597,0.8014857769012451
1782845410609445600,0.686445556640625,1.061894416809082,0.2691297233104706,0.8133330941200256
1782845410619450600,0.69645068359375,1.0336359739303589,0.23795850574970245,0.7789144515991211
1782845410629454600,0.70645458984375,0.9858819842338562,0.20947067439556122,0.6908727288246155
1782845410639459600,0.71645947265625,0.9180999994277954,0.18595735728740692,0.563286542892456
1782845410649463600,0.726463623046875,0.8331102728843689,0.1980734020471573,0.39756786823272705
1782845410659468500,0.736468505859375,0.753751814365387,0.20653772354125977,0.23808340728282928
1782845410669472800,0.74647265625,0.7092652916908264,0.1826515644788742,0.08553806692361832
1782845410679477800,0.756477783203125,0.679630696773529,0.16177397966384888,-0.041426800191402435
1782845410689481700,0.766481689453125,0.6705901026725769,0.1396031677722931,-0.12089099735021591
1782845410699486700,0.77648681640625,0.6440186500549316,0.0982125848531723,-0.1612059324979782
1782845410709490700,0.78649072265625,0.6057908535003662,0.046549659222364426,-0.1672273427248001
1782845410719495700,0.79649560546875,0.5567431449890137,0.004569185432046652,-0.15703809261322021
1782845410729499600,0.806499755859375,0.4944984018802643,-0.017616543918848038,-0.13472744822502136
1782845410739505400,0.81650537109375,0.42891886830329895,-0.012612997554242611,-0.0818818137049675
1782845410749509400,0.82650927734375,0.36322906613349915,0.021088240668177605,-0.01660560816526413
1782845410759514400,0.836514404296875,0.29682156443595886,0.03525785729289055,0.08117421716451645
1782845410769518300,0.846518310546875,0.24833311140537262,0.015794409438967705,0.18191227316856384
1782845410779523300,0.8565234375,0.22035713493824005,-0.03343811631202698,0.26542288064956665
1782845410789527300,0.86652734375,0.2203265130519867,-0.10835976153612137,0.3253365457057953
1782845410799532300,0.8765322265625,0.21598981320858002,-0.17434650659561157,0.36544668674468994
1782845410809536300,0.886536376953125,0.1951170265674591,-0.20946906507015228,0.37828364968299866
1782845410819541200,0.896541259765625,0.16125653684139252,-0.20062470436096191,0.3696909546852112
1782845410829545200,0.906545166015625,0.10883114486932755,-0.17146283388137817,0.33348289132118225
1782845410839550200,0.91655029296875,0.05462542921304703,-0.12397494167089462,0.2729977071285248
1782845410849554200,0.92655419921875,0.002252235310152173,-0.0681508257985115,0.19409304857254028
1782845410859559400,0.936559326171875,-0.05787714943289757,-0.0067990501411259174,0.12530837953090668
1782845410869563400,0.9465634765625,-0.11472418159246445,0.03086364082992077,0.08186690509319305
1782845410879568400,0.956568359375,-0.15035781264305115,0.04542846605181694,0.07422363013029099
1782845410889572400,0.966572265625,-0.16669444739818573,0.06577741354703903,0.060261741280555725
1782845410899577300,0.976577392578125,-0.1656089425086975,0.08892294764518738,-0.005712214391678572
1782845410909581300,0.986581298828125,-0.1479726880788803,0.11369620263576508,-0.08501262962818146
1782845410919586300,0.99658642578125,-0.12818220257759094,0.1221189871430397,-0.16167864203453064
1782845410929590300,1.00659033203125,-0.09748154878616333,0.11273906379938126,-0.20530149340629578
1782845410939595300,1.01659521484375,-0.0680331140756607,0.11201521754264832,-0.2442675232887268
1782845410949599200,1.02659912109375,-0.03341388329863548,0.08928540349006653,-0.2631394863128662
1782845410959604200,1.036604248046875,0.0012293151812627912,0.04237914830446243,-0.2551926076412201
1782845410969608200,1.046608154296875,0.028122447431087494,-0.011303254403173923,-0.23451849818229675
1782845410979613200,1.05661328125,0.04644499719142914,-0.06680645793676376,-0.19907236099243164
1782845410989617400,1.066617431640625,0.03798573091626167,-0.10691340267658234,-0.14712393283843994
1782845410999622400,1.076622314453125,0.038062162697315216,-0.13064269721508026,-0.08889951556921005
1782845411009626400,1.08662646484375,0.0386885404586792,-0.14732927083969116,-0.014340323396027088
1782845411019631400,1.09663134765625,0.0389774926006794,-0.15018896758556366,0.06329455226659775
1782845411029635000,1.106635009765625,0.028812739998102188,-0.13497565686702728,0.14311641454696655
1782845411039640000,1.11664013671875,0.008780442178249359,-0.10611019283533096,0.20441998541355133
1782845411049644300,1.126644287109375,-0.018861038610339165,-0.07521432638168335,0.24104270339012146
1782845411059649300,1.136649169921875,-0.033853571861982346,-0.044437505304813385,0.25433987379074097
1782845411069653200,1.1466533203125,-0.0470130480825901,0.004347610287368298,0.23813746869564056
1782845411079658200,1.156658203125,-0.06562002003192902,0.027758127078413963,0.21523001790046692
1782845411089662200,1.166662109375,-0.08808937668800354,0.03026629239320755,0.18417862057685852
1782845411099667200,1.176667236328125,-0.118007592856884,0.005982791539281607,0.14327166974544525
1782845411109671400,1.18667138671875,-0.1375994086265564,-0.009696036577224731,0.10882341861724854
1782845411119676400,1.196676513671875,-0.15266117453575134,-0.03167004510760307,0.08719722181558609
1782845411129680400,1.206680419921875,-0.1546819806098938,-0.04794755205512047,0.06664720177650452
1782845411139685400,1.216685302734375,-0.15590544044971466,-0.03139520809054375,0.06434942781925201
1782845411149689000,1.226689208984375,-0.1689821034669876,0.0033782199025154114,0.05463394895195961
1782845411159694000,1.236694091796875,-0.18612220883369446,0.025595108047127724,0.036372922360897064
1782845411169698300,1.2466982421875,-0.2047393023967743,0.03437342122197151,0.008037686347961426
1782845411179703300,1.256703369140625,-0.22151534259319305,0.03801023215055466,-0.05270129442214966
1782845411189707300,1.266707275390625,-0.23322314023971558,0.04055408388376236,-0.13788463175296783
1782845411199712300,1.276712158203125,-0.24369893968105316,0.029747242107987404,-0.23458774387836456
1782845411209716200,1.28671630859375,-0.24562174081802368,0.019783558323979378,-0.31993699073791504
1782845411219721200,1.29672119140625,-0.22772477567195892,0.0038655782118439674,-0.3917193114757538
1782845411229725400,1.306725341796875,-0.1954139769077301,-0.030771227553486824,-0.42035919427871704
1782845411239729400,1.3167294921875,-0.16325071454048157,-0.06869997084140778,-0.3985702693462372
1782845411249734400,1.326734375,-0.1341884285211563,-0.11629331856966019,-0.34866398572921753
1782845411259738000,1.336738037109375,-0.11815540492534637,-0.1598075032234192,-0.2864125967025757
1782845411269743000,1.3467431640625,-0.10620126873254776,-0.18670383095741272,-0.22930429875850677
1782845411279747300,1.356747314453125,-0.10521376878023148,-0.1988859325647354,-0.1728849560022354
1782845411289752300,1.36675244140625,-0.12105052173137665,-0.18724313378334045,-0.11434228718280792
1782845411299756300,1.37675634765625,-0.1507226675748825,-0.15434056520462036,-0.06810635328292847
1782845411309761300,1.38676123046875,-0.19285467267036438,-0.11477424949407578,-0.03497689217329025
1782845411319765200,1.39676513671875,-0.2468545287847519,-0.07577918469905853,-0.020232833921909332
1782845411329770200,1.406770263671875,-0.2977696359157562,-0.027547204867005348,-0.0218507032841444
1782845411339774500,1.4167744140625,-0.34460318088531494,-0.000056459015468135476,-0.02520602010190487
1782845411349779500,1.426779541015625,-0.404031902551651,-0.00012863067968282849,-0.026553580537438393
1782845411359783200,1.436783203125,-0.4738394618034363,-0.026679547503590584,-0.027236415073275566
1782845411369788200,1.4467880859375,-0.5361116528511047,-0.060917679220438004,-0.018581140786409378
1782845411379792100,1.456792236328125,-0.5723173022270203,-0.11041172593832016,-0.017052220180630684
1782845411389797000,1.466797119140625,-0.5934953093528748,-0.14349378645420074,-0.033782463520765305
1782845411399801300,1.47680126953125,-0.5994064211845398,-0.1591574251651764,-0.054546065628528595
1782845411409806300,1.486806396484375,-0.5829872488975525,-0.15876327455043793,-0.06642696261405945
1782845411419810300,1.496810302734375,-0.5650729537010193,-0.12150485813617706,-0.07435252517461777
1782845411429815300,1.506815185546875,-0.5478000044822693,-0.1112879067659378,-0.09141033887863159
1782845411439819300,1.5168193359375,-0.5255681872367859,-0.097458116710186,-0.12463939934968948
1782845411449824300,1.52682421875,-0.4978284239768982,-0.1021743044257164,-0.17059490084648132
1782845411459828500,1.536828369140625,-0.4568786025047302,-0.12235414236783981,-0.22080747783184052
1782845411469833500,1.54683349609375,-0.4029732942581177,-0.13622547686100006,-0.24890169501304626
1782845411479837200,1.556837158203125,-0.35611817240715027,-0.1663532853126526,-0.2523970901966095
1782845411489842200,1.56684228515625,-0.3259112536907196,-0.2122398167848587,-0.21540072560310364
1782845411499846100,1.57684619140625,-0.32292264699935913,-0.25355955958366394,-0.14026948809623718
1782845411509851100,1.58685107421875,-0.3369881510734558,-0.32204753160476685,-0.02894776128232479
1782845411519855400,1.59685546875,-0.3596050441265106,-0.3980989158153534,0.10612616688013077
1782845411529860400,1.6068603515625,-0.3741038143634796,-0.4026337265968323,0.25026631355285645
1782845411539864300,1.6168642578125,-0.39577236771583557,-0.32367607951164246,0.3940703272819519
1782845411549869300,1.626869384765625,-0.40256449580192566,-0.24509283900260925,0.5096642971038818
1782845411559873300,1.636873291015625,-0.3896859884262085,-0.18777495622634888,0.6050334572792053
1782845411569878300,1.646878173828125,-0.37037378549575806,-0.1659386307001114,0.6724545359611511
1782845411579882500,1.656882568359375,-0.362822949886322,-0.14742007851600647,0.689786434173584
1782845411589887500,1.666887451171875,-0.3950170874595642,-0.1641330122947693,0.6260654926300049
1782845411599891200,1.67689111328125,-0.46494850516319275,-0.10045763105154037,0.47622379660606384
1782845411609896200,1.686896240234375,-0.5626888871192932,-0.023910658434033394,0.27551254630088806
1782845411619900200,1.696900146484375,-0.6670451760292053,0.059713929891586304,0.037769217044115067
1782845411629905200,1.7069052734375,-0.7635775208473206,0.009165268391370773,-0.20691430568695068
1782845411639909400,1.716909423828125,-0.8482716679573059,-0.08367785066366196,-0.3956858217716217
1782845411649914400,1.726914306640625,-0.8827598690986633,-0.18822823464870453,-0.5011014342308044
1782845411659918300,1.73691845703125,-0.8637896180152893,-0.28011074662208557,-0.5415210723876953
1782845411669923300,1.74692333984375,-0.7937477231025696,-0.2909913659095764,-0.5536757111549377
1782845411679927300,1.75692724609375,-0.6650139689445496,-0.2180127501487732,-0.5399196743965149
1782845411689932300,1.766932373046875,-0.47005778551101685,-0.15897633135318756,-0.46385979652404785
1782845411699936500,1.7769365234375,-0.2412475049495697,-0.075595423579216,-0.33207061886787415
1782845411709941500,1.78694140625,-0.032765667885541916,-0.009895240887999535,-0.1714143604040146
1782845411719945200,1.7969453125,0.11992666870355606,0.050099387764930725,-0.01149633340537548
1782845411729950200,1.8069501953125,0.2113865464925766,0.1340307742357254,0.12960273027420044
1782845411739953400,1.816953369140625,0.24639593064785004,0.17873112857341766,0.23733478784561157
1782845411749958400,1.82695849609375,0.226411834359169,0.21370722353458405,0.3255131244659424
1782845411759962600,1.836962646484375,0.20349080860614777,0.23381328582763672,0.35408085584640503
1782845411769967600,1.846967529296875,0.17395049333572388,0.17622002959251404,0.3096606433391571
1782845411779971600,1.8569716796875,0.14680089056491852,0.1051274836063385,0.23237518966197968
1782845411789976600,1.8669765625,0.14316540956497192,0.07534828037023544,0.2194756269454956
1782845411799980500,1.87698046875,0.14442642033100128,0.07832809537649155,0.2199198454618454
1782845411809985500,1.886985595703125,0.1424383670091629,0.08043545484542847,0.22386053204536438
1782845411819989500,1.896989501953125,0.13360626995563507,0.09714093059301376,0.2195720374584198
1782845411829994500,1.906994384765625,0.14066870510578156,0.13491041958332062,0.21593628823757172
1782845411839998500,1.91699853515625,0.15951909124851227,0.1599033772945404,0.20530575513839722
1782845411850003500,1.92700341796875,0.18159909546375275,0.17659394443035126,0.2012055516242981
1782845411860007400,1.93700732421875,0.20564530789852142,0.1857629418373108,0.19281844794750214
1782845411870012400,1.947012451171875,0.21718823909759521,0.19102348387241364,0.17730633914470673
1782845411880016600,1.9570166015625,0.20747463405132294,0.20069767534732819,0.14717400074005127
1782845411890021600,1.967021728515625,0.19212283194065094,0.2002265751361847,0.10086110234260559
1782845411900025600,1.977025634765625,0.18360018730163574,0.1834917962551117,0.0581330768764019
1782845411910030600,1.987030517578125,0.18416531383991241,0.15842266380786896,0.014711834490299225
1782845411920034600,1.99703466796875,0.18728654086589813,0.14309963583946228,-0.026077939197421074
1782845411930039600,2.00703955078125,0.19639481604099274,0.14094087481498718,-0.06431187689304352
1782845411940043500,2.01704345703125,0.20195655524730682,0.13890968263149261,-0.08832506835460663
1782845411950048500,2.027048583984375,0.2108754813671112,0.13364674150943756,-0.09878463298082352
1782845411960052500,2.037052490234375,0.2172955721616745,0.11770053207874298,-0.10741886496543884
1782845411970057500,2.047057373046875,0.2222202867269516,0.09743653982877731,-0.13115589320659637
1782845411980061400,2.0570615234375,0.22667282819747925,0.08157768100500107,-0.15652543306350708
1782845411990066400,2.06706640625,0.211787611246109,0.06256245076656342,-0.17456728219985962
1782845412000070700,2.077070556640625,0.18855686485767365,0.03671567142009735,-0.16424806416034698
1782845412010075600,2.08707568359375,0.15022012591362,0.0028722193092107773,-0.13631044328212738
1782845412020079600,2.09707958984375,0.10975925624370575,-0.028326179832220078,-0.1078239381313324
1782845412030084600,2.107084716796875,0.07093249261379242,-0.03832901269197464,-0.09622932970523834
1782845412040088600,2.117088623046875,0.023356987163424492,-0.04489237442612648,-0.09246575087308884
1782845412050093600,2.127093505859375,-0.021522069349884987,-0.049375806003808975,-0.09250570088624954
1782845412060097500,2.13709765625,-0.06699634343385696,-0.06006759777665138,-0.09424128383398056
1782845412070102500,2.1471025390625,-0.08961350470781326,-0.062072426080703735,-0.09780725091695786
1782845412080106500,2.1571064453125,-0.09871432930231094,-0.06584559381008148,-0.12318690866231918
1782845412090111500,2.167111572265625,-0.10246512293815613,-0.09423915296792984,-0.12243883311748505
1782845412100115500,2.177115478515625,-0.09931353479623795,-0.08480224013328552,-0.10769104212522507
1782845412110120400,2.187120361328125,-0.09341436624526978,-0.07280975580215454,-0.0864267647266388
1782845412120124700,2.197124755859375,-0.08347518742084503,-0.048053544014692307,-0.07168164104223251
1782845412130129700,2.207129638671875,-0.06885869055986404,-0.026816166937351227,-0.055750612169504166
1782845412140133600,2.217133544921875,-0.056771937757730484,-0.0008916263468563557,-0.05724012106657028
1782845412150138600,2.227138671875,-0.04691664129495621,0.008791094645857811,-0.0636865645647049
1782845412160142300,2.237142333984375,-0.04544498026371002,0.013705159537494183,-0.08427200466394424
1782845412170147300,2.247147216796875,-0.04105182737112045,0.01275893859565258,-0.11733914166688919
1782845412180151600,2.257151611328125,-0.0409916415810585,0.020237892866134644,-0.14479181170463562
1782845412190156500,2.267156494140625,-0.03405037894845009,0.008651545271277428,-0.18084195256233215
1782845412200160500,2.277160400390625,-0.02219291962683201,0.0013486248208209872,-0.21657304465770721
1782845412210165500,2.28716552734375,-0.0093905720859766,-0.0010793792316690087,-0.2587255537509918
1782845412220169500,2.29716943359375,-0.0003304982965346426,-0.005080778617411852,-0.2861923575401306
1782845412230174500,2.307174560546875,0.010387127287685871,-0.017612017691135406,-0.28883206844329834
1782845412240178700,2.3171787109375,0.011973305605351925,-0.036007534712553024,-0.2683662176132202
1782845412250183700,2.32718359375,0.010187922976911068,-0.04681357741355896,-0.23122788965702057
1782845412260187600,2.337187744140625,0.007668306119740009,-0.05047489330172539,-0.18433521687984467
1782845412270192600,2.347192626953125,0.0016338493442162871,-0.05891844257712364,-0.14034593105316162
1782845412280196400,2.3571962890625,-0.007231547497212887,-0.050871435552835464,-0.10069172084331512
1782845412290201300,2.367201416015625,-0.013727263547480106,-0.025837723165750504,-0.06374409049749374
1782845412300205600,2.37720556640625,-0.021853633224964142,0.005222458858042955,-0.0181672852486372
1782845412310210600,2.38721044921875,-0.01564820110797882,0.03308604657649994,0.02618313394486904
1782845412320214500,2.397214599609375,0.003640807466581464,0.0649731382727623,0.05181526020169258
1782845412330219500,2.407219482421875,0.024413198232650757,0.09789007902145386,0.03946831449866295
1782845412340223500,2.417223388671875,0.05070578679442406,0.12463513761758804,0.014736069366335869
1782845412350228500,2.427228515625,0.0751434862613678,0.131989985704422,0.005563876125961542
1782845412360232700,2.437232666015625,0.10438073426485062,0.12453793734312057,-0.009639577940106392
1782845412370237700,2.44723779296875,0.14064393937587738,0.11805606633424759,-0.036203544586896896
1782845412380241700,2.45724169921875,0.17401280999183655,0.10878214240074158,-0.06849809736013412
1782845412390246700,2.46724658203125,0.21034365892410278,0.10210426151752472,-0.09441731870174408
1782845412400250400,2.47725048828125,0.24301265180110931,0.0916079506278038,-0.1055019274353981
1782845412410255400,2.48725537109375,0.2829773724079132,0.08376653492450714,-0.09839314967393875
1782845412420259600,2.497259521484375,0.3108375072479248,0.08129991590976715,-0.09078050404787064
1782845412430264600,2.5072646484375,0.33445894718170166,0.08540890365839005,-0.09110674262046814
1782845412440268500,2.5172685546875,0.3509822487831116,0.10012633353471756,-0.08856368809938431
1782845412450273500,2.5272734375,0.3555855453014374,0.10835869610309601,-0.08022533357143402
1782845412460277500,2.537277587890625,0.3468972444534302,0.11582300812005997,-0.07009866088628769
1782845412470282500,2.547282470703125,0.3268558979034424,0.13348136842250824,-0.04993214085698128
1782845412480286700,2.55728662109375,0.2949610650539398,0.14314277470111847,-0.028061462566256523
1782845412490291700,2.567291748046875,0.2611229419708252,0.143083393573761,0.009109342470765114
1782845412500295700,2.577295654296875,0.23826104402542114,0.1418716460466385,0.03911251574754715
1782845412510300700,2.58730078125,0.22431433200836182,0.141069233417511,0.06780141592025757
1782845412520304400,2.597304443359375,0.22201548516750336,0.13715918362140656,0.10377965867519379
1782845412530309400,2.607309326171875,0.21629928052425385,0.1332762986421585,0.1416732519865036
1782845412540313600,2.617313720703125,0.22162958979606628,0.1196422427892685,0.16722893714904785
1782845412550318600,2.627318603515625,0.23013626039028168,0.11512313038110733,0.18231654167175293
1782845412560322600,2.637322509765625,0.242400661110878,0.12353019416332245,0.17516648769378662
1782845412570327600,2.64732763671875,0.25884515047073364,0.13810621201992035,0.15749642252922058
1782845412580331500,2.65733154296875,0.2804609537124634,0.1488635092973709,0.14211027324199677
1782845412590336500,2.66733642578125,0.30619481205940247,0.15636137127876282,0.1340896338224411
1782845412600340500,2.677340576171875,0.34386467933654785,0.1582263857126236,0.14245674014091492
1782845412610345700,2.687345703125,0.39737826585769653,0.1655506193637848,0.14162397384643555
1782845412620349700,2.697349609375,0.4508768916130066,0.16446803510189056,0.14577770233154297
1782845412630353400,2.707353515625,0.4911111295223236,0.1597297489643097,0.1289300173521042
1782845412640358400,2.7173583984375,0.5095458030700684,0.14725390076637268,0.08285413682460785
1782845412650362400,2.7273623046875,0.5045896768569946,0.13122673332691193,-0.012623383663594723
1782845412660367600,2.73736767578125,0.48515525460243225,0.13154684007167816,-0.15842559933662415
1782845412670371600,2.74737158203125,0.4727132320404053,0.14291080832481384,-0.30151644349098206
1782845412680376600,2.75737646484375,0.4855928122997284,0.1400734782218933,-0.40179961919784546
1782845412690380500,2.767380615234375,0.5065857172012329,0.11881320178508759,-0.4553227722644806
1782845412700385500,2.777385498046875,0.5354189276695251,0.07533124089241028,-0.4718721807003021
1782845412710390500,2.787390625,0.5497177243232727,0.009332248941063881,-0.4712735116481781
1782845412720394500,2.79739453125,0.5632804036140442,-0.055933307856321335,-0.4344539940357208
1782845412730398700,2.807398681640625,0.5795429944992065,-0.12558695673942566,-0.37502580881118774
1782845412740404000,2.817404052734375,0.5928534865379333,-0.17848052084445953,-0.30309170484542847
1782845412750408000,2.827407958984375,0.6004807949066162,-0.2289024293422699,-0.21641725301742554
1782845412760413000,2.837412841796875,0.6122687458992004,-0.25379419326782227,-0.1275683492422104
1782845412770417000,2.8474169921875,0.6134002804756165,-0.2563982307910919,-0.03694816306233406
1782845412780422000,2.857421875,0.6037071943283081,-0.25657930970191956,0.055379901081323624
1782845412790426000,2.867426025390625,0.5735034942626953,-0.2509102523326874,0.1560886651277542
1782845412800431000,2.87743115234375,0.5242919921875,-0.23950180411338806,0.24972248077392578
1782845412810434800,2.887434814453125,0.46727025508880615,-0.21530352532863617,0.31875401735305786
1782845412820439800,2.897439697265625,0.394808292388916,-0.1793772131204605,0.38092657923698425
1782845412830443800,2.90744384765625,0.3130796253681183,-0.14091716706752777,0.4500630497932434
1782845412840448800,2.91744873046875,0.23008912801742554,-0.10965006798505783,0.491903692483902
1782845412850453000,2.927452880859375,0.15268221497535706,-0.08794530481100082,0.5016615390777588
1782845412860458000,2.9374580078125,0.07477277517318726,-0.0705878809094429,0.4772275388240814
1782845412870462000,2.9474619140625,0.0018943065078929067,-0.041607365012168884,0.41743266582489014
1782845412880467000,2.957467041015625,-0.07028694450855255,-0.015033810399472713,0.3440588414669037
1782845412890471000,2.967470947265625,-0.13737037777900696,0.0019587550777941942,0.29946768283843994
1782845412900476000,2.977475830078125,-0.18954356014728546,0.01221565343439579,0.259721577167511
1782845412910480100,2.987480224609375,-0.22479742765426636,0.02996908500790596,0.21228936314582825
1782845412920485000,2.997485107421875,-0.2333560287952423,0.030360568314790726,0.1598075032234192
1782845412930488800,3.00748876953125,-0.20877878367900848,0.017350494861602783,0.11447411775588989
1782845412940493800,3.017493896484375,-0.16242486238479614,0.0014809839194640517,0.060404222458601
1782845412950497800,3.027497802734375,-0.10431229323148727,0.0010034791193902493,0.0075631109066307545
1782845412960502800,3.037502685546875,-0.047446344047784805,-0.011318966746330261,-0.04493977874517441
1782845412970507000,3.047507080078125,0.013395434245467186,-0.02280784398317337,-0.08261871337890625
1782845412980512000,3.057511962890625,0.061770956963300705,-0.04562074691057205,-0.10902262479066849
1782845412990516000,3.067515869140625,0.0968189537525177,-0.07015884667634964,-0.11275744438171387
1782845413000521000,3.07752099609375,0.12155652791261673,-0.09083802998065948,-0.08650000393390656
1782845413010525000,3.08752490234375,0.15117327868938446,-0.11632394790649414,-0.027608191594481468
1782845413020530000,3.097530029296875,0.16668379306793213,-0.1304517537355423,0.05259529873728752
1782845413030534100,3.1075341796875,0.17216910421848297,-0.1476816087961197,0.12476137280464172
1782845413040539100,3.1175390625,0.16457989811897278,-0.15399515628814697,0.19823399186134338
1782845413050542800,3.12754296875,0.15846315026283264,-0.15051387250423431,0.26683807373046875
1782845413060547800,3.1375478515625,0.1415126621723175,-0.13613013923168182,0.3309158682823181
1782845413070551800,3.1475517578125,0.11475721001625061,-0.11567919701337814,0.3786168098449707
1782845413080556800,3.157556884765625,0.07522657513618469,-0.08758684247732162,0.42398375272750854
1782845413090561000,3.16756103515625,0.047867923974990845,-0.04186888784170151,0.4455457925796509
1782845413100566000,3.17756591796875,0.0059926449321210384,0.01378212496638298,0.45933935046195984
1782845413110570000,3.187570068359375,-0.043828971683979034,0.058453455567359924,0.46144673228263855
1782845413120575000,3.197574951171875,-0.10509872436523438,0.09736543148756027,0.4534077048301697
1782845413130579000,3.207578857421875,-0.16086532175540924,0.12305562198162079,0.43195539712905884
1782845413140584000,3.217583984375,-0.21236099302768707,0.14141012728214264,0.4069003760814667
1782845413150588000,3.227587890625,-0.25344398617744446,0.1585635393857956,0.37985119223594666
1782845413160593000,3.237593017578125,-0.2891276776790619,0.17269694805145264,0.3500823676586151
1782845413170596900,3.247596923828125,-0.31733188033103943,0.1779492199420929,0.30562517046928406
1782845413180601900,3.257601806640625,-0.3481558561325073,0.18389660120010376,0.2631373703479767
1782845413190605800,3.267605712890625,-0.3751011788845062,0.1781686693429947,0.2228301465511322
1782845413200610800,3.27761083984375,-0.4012291729450226,0.15313415229320526,0.17582403123378754
1782845413210615000,3.287614990234375,-0.4155718982219696,0.13234072923660278,0.13195084035396576
1782845413220620000,3.2976201171875,-0.4209035634994507,0.10307445377111435,0.08799004554748535
1782845413230624000,3.3076240234375,-0.41332632303237915,0.07692940533161163,0.0290598813444376
1782845413240629000,3.31762890625,-0.39277684688568115,0.04548812285065651,-0.02130848355591297
1782845413250633000,3.327633056640625,-0.35860663652420044,0.030591465532779694,-0.0676589384675026
1782845413260638000,3.337637939453125,-0.32787400484085083,0.028418591246008873,-0.09914549440145493
1782845413270642000,3.347641845703125,-0.2860370874404907,0.0361553393304348,-0.13544490933418274
1782845413280647000,3.35764697265625,-0.24376392364501953,0.047861531376838684,-0.17070995271205902
1782845413290651000,3.36765087890625,-0.19985638558864594,0.054194264113903046,-0.19871176779270172
1782845413300655900,3.37765576171875,-0.15835368633270264,0.052738312631845474,-0.23824292421340942
1782845413310659800,3.387659912109375,-0.12822215259075165,0.04686284810304642,-0.2710394859313965
1782845413320664800,3.397664794921875,-0.10947882384061813,0.03151984140276909,-0.30267518758773804
1782845413330668800,3.407668701171875,-0.0982581302523613,0.0011653993278741837,-0.3327084481716156
1782845413340674000,3.417674072265625,-0.10213595628738403,-0.03214302286505699,-0.3608713746070862
1782845413350678000,3.427677978515625,-0.11083943396806717,-0.06404795497655869,-0.38321396708488464
1782845413360683000,3.43768310546875,-0.12281540036201477,-0.08777832239866257,-0.4017335772514343
1782845413370687000,3.44768701171875,-0.1444016546010971,-0.10582177340984344,-0.39783310890197754
1782845413380692000,3.45769189453125,-0.17509005963802338,-0.12104625999927521,-0.384125292301178
1782845413390696000,3.467696044921875,-0.20339253544807434,-0.1332874894142151,-0.3472546339035034
1782845413400701000,3.477700927734375,-0.23521943390369415,-0.13811153173446655,-0.30269861221313477
1782845413410705000,3.487704833984375,-0.2653624415397644,-0.13311810791492462,-0.24498552083969116
1782845413420710000,3.4977099609375,-0.29444068670272827,-0.1357399821281433,-0.1812097281217575
1782845413430713900,3.5077138671875,-0.3088936507701874,-0.14042741060256958,-0.11446452885866165
1782845413440718800,3.51771875,-0.3156764805316925,-0.15130004286766052,-0.04686843976378441
1782845413450722800,3.527722900390625,-0.2969997227191925,-0.17679394781589508,0.014297179877758026
1782845413460727800,3.537727783203125,-0.32738158106803894,-0.17936629056930542,0.09804081171751022
1782845413470732000,3.54773193359375,-0.3754521906375885,-0.21578049659729004,0.1610456109046936
1782845413480737000,3.557737060546875,-0.36350709199905396,-0.23419758677482605,0.20683653652668
1782845413490741000,3.567740966796875,-0.3560537099838257,-0.1964651197195053,0.26587268710136414
1782845413500746000,3.57774609375,-0.35790514945983887,-0.19863373041152954,0.29667800664901733
1782845413510749700,3.587749755859375,-0.3375154435634613,-0.1965591311454773,0.29441404342651367
1782845413520754700,3.597754638671875,-0.30570507049560547,-0.16563370823860168,0.25894632935523987
1782845413530759000,3.607759033203125,-0.27626514434814453,-0.13977894186973572,0.20397363603115082
1782845413540764000,3.617763916015625,-0.2610031068325043,-0.1257328987121582,0.12740376591682434
1782845413550767900,3.627767822265625,-0.28531375527381897,-0.13277162611484528,0.037045903503894806
1782845413560772900,3.63777294921875,-0.3297211825847626,-0.13779808580875397,-0.05401982367038727
1782845413570776800,3.64777685546875,-0.3648029863834381,-0.1649513989686966,-0.13063204288482666
1782845413580781800,3.65778173828125,-0.378629595041275,-0.18914063274860382,-0.17477074265480042
1782845413590786000,3.6677861328125,-0.36140745878219604,-0.22401338815689087,-0.18583431839942932
1782845413600791000,3.677791015625,-0.332719624042511,-0.27680522203445435,-0.17892660200595856
1782845413610795000,3.687794921875,-0.2915942966938019,-0.31399840116500854,-0.16147971153259277
1782845413620800000,3.697800048828125,-0.23860538005828857,-0.33315160870552063,-0.12425989657640457
1782845413630803700,3.7078037109375,-0.1979045569896698,-0.33635804057121277,-0.07537731528282166
1782845413640808700,3.71780859375,-0.17282237112522125,-0.3061266243457794,-0.025610821321606636
1782845413650813000,3.72781298828125,-0.16981087625026703,-0.26635444164276123,-0.013904630206525326
1782845413660818000,3.73781787109375,-0.17096588015556335,-0.1925334930419922,-0.07870732992887497
1782845413670822000,3.74782177734375,-0.16855892539024353,-0.11230950057506561,-0.20573770999908447
1782845413680827000,3.757826904296875,-0.15604925155639648,-0.06459496915340424,-0.36761850118637085
1782845413690830800,3.767830810546875,-0.13780421018600464,-0.05152071639895439,-0.540957510471344
1782845413700835800,3.7778359375,-0.12826849520206451,-0.06487593799829483,-0.6696153879165649
1782845413710840000,3.787840087890625,-0.10665347427129745,-0.10117615014314651,-0.7116823792457581
1782845413720845000,3.797844970703125,-0.06405860930681229,-0.14686347544193268,-0.6489806771278381
1782845413730849000,3.80784912109375,-0.011990882456302643,-0.1876298189163208,-0.5247558951377869
1782845413740854000,3.81785400390625,0.04321644455194473,-0.22435374557971954,-0.3937126696109772
1782845413750857700,3.827857666015625,0.08416254818439484,-0.2418544441461563,-0.2966788113117218
1782845413760862700,3.83786279296875,0.1062856912612915,-0.22615882754325867,-0.22171668708324432
1782845413770867000,3.847866943359375,0.11375932395458221,-0.2098831981420517,-0.15212588012218475
1782845413780872000,3.857871826171875,0.11874156445264816,-0.19832320511341095,-0.07401963323354721
1782845413790876000,3.8678759765625,0.11781265586614609,-0.19117821753025055,0.016214122995734215
1782845413800881000,3.877880859375,0.12622424960136414,-0.19999167323112488,0.1210249587893486
1782845413810884900,3.887884765625,0.1175127774477005,-0.20717422664165497,0.230295792222023
1782845413820889900,3.897889892578125,0.09253206104040146,-0.20725011825561523,0.32408007979393005
1782845413830894000,3.90789404296875,0.05308931693434715,-0.18363800644874573,0.3855958878993988
1782845413840899000,3.917899169921875,0.018934275954961777,-0.15222255885601044,0.42143139243125916
1782845413850902800,3.92790283203125,-0.0132699990645051,-0.12153388559818268,0.4231906831264496
1782845413860908000,3.937907958984375,-0.04496427997946739,-0.06801340728998184,0.3910883963108063
1782845413870911700,3.947911865234375,-0.0709516704082489,-0.011739213950932026,0.33933866024017334
1782845413880916700,3.957916748046875,-0.09106332808732986,0.0401436910033226,0.3067609965801239
1782845413890921000,3.9679208984375,-0.11582833528518677,0.08121123164892197,0.29356929659843445
1782845413900926000,3.977926025390625,-0.14690129458904266,0.11449222266674042,0.28008705377578735
1782845413910930000,3.987929931640625,-0.16948410868644714,0.13214126229286194,0.26280471682548523
1782845413920935000,3.997934814453125,-0.17529059946537018,0.13344700634479523,0.23070484399795532
1782845413930939000,4.00793896484375,-0.17829623818397522,0.13143739104270935,0.19635646045207977
1782845413940944000,4.01794384765625,-0.1620650738477707,0.12310115993022919,0.1497569978237152
1782845413950948000,4.027947998046875,-0.13280251622200012,0.11232973635196686,0.08904945105314255
1782845413960953000,4.037953125,-0.07855499535799026,0.09547192603349686,-0.009136506356298923
1782845413970956800,4.047956787109375,-0.01684103161096573,0.0761680081486702,-0.12136557698249817
1782845413980961800,4.0579619140625,0.04343162849545479,0.05365870147943497,-0.21442760527133942
1782845413990965800,4.0679658203125,0.09925521165132523,0.04288887605071068,-0.2789706587791443
1782845414000970800,4.077970703125,0.16393700242042542,0.045759230852127075,-0.3115200698375702
1782845414010975000,4.08797509765625,0.21112076938152313,0.06046414375305176,-0.3135240972042084
1782845414020979000,4.09797900390625,0.2392650544643402,0.07367661595344543,-0.2921554148197174
1782845414030984000,4.10798388671875,0.25769147276878357,0.10342439264059067,-0.2755519449710846
1782845414040989000,4.117989013671875,0.2572541832923889,0.12981978058815002,-0.249740332365036
1782845414050993000,4.127992919921875,0.24821139872074127,0.14219655096530914,-0.2252781242132187
1782845414060997000,4.1379970703125,0.23020923137664795,0.14143435657024384,-0.20167692005634308
1782845414071002000,4.148002197265625,0.20773960649967194,0.14115045964717865,-0.1909976452589035
1782845414081005800,4.158005859375,0.18507903814315796,0.13637222349643707,-0.19724249839782715
1782845414091010800,4.1680107421875,0.17257629334926605,0.1203911229968071,-0.22012650966644287
1782845414101014800,4.178014892578125,0.15935929119586945,0.09079834818840027,-0.24426327645778656
1782845414111019800,4.188019775390625,0.1526089757680893,0.058343201875686646,-0.2552376091480255
1782845414121024000,4.19802392578125,0.12469612807035446,0.02027810737490654,-0.2375158816576004
1782845414131029000,4.208029052734375,0.0827377587556839,-0.004276504274457693,-0.20220929384231567
1782845414141033000,4.218032958984375,0.027289677411317825,-0.012209528125822544,-0.16680416464805603
1782845414151038000,4.228037841796875,-0.024207334965467453,-0.004834436345845461,-0.1313582956790924
1782845414161042000,4.2380419921875,-0.06738676130771637,0.002225337317213416,-0.08233082294464111
1782845414171047000,4.248046875,-0.09759046882390976,0.0219095591455698,-0.03782673925161362
1782845414181051100,4.258051025390625,-0.12255041301250458,0.05050764977931976,0.0019744676537811756
1782845414191056100,4.26805615234375,-0.12977664172649384,0.08214680105447769,0.037336718291044235
1782845414201059800,4.278059814453125,-0.1293870210647583,0.11078882962465286,0.06024017184972763
1782845414211064800,4.28806494140625,-0.11703021824359894,0.12442155182361603,0.07386836409568787
1782845414221068800,4.29806884765625,-0.08943400532007217,0.1242590993642807,0.06356193125247955
1782845414231073800,4.30807373046875,-0.05018087849020958,0.11599371582269669,0.027898209169507027
1782845414241078000,4.318078125,-0.018096445128321648,0.097038134932518,-0.01575366221368313
1782845414251083000,4.3280830078125,0.008011587895452976,0.07646813988685608,-0.056829728186130524
1782845414261087000,4.3380869140625,0.021203022450208664,0.058768242597579956,-0.08927635103464127
1782845414271092000,4.348092041015625,0.0364040806889534,0.04769694805145264,-0.1142546683549881
1782845414281096000,4.358095947265625,0.0523604080080986,0.0438726507127285,-0.12987704575061798
1782845414291101000,4.368100830078125,0.08119206130504608,0.050338536500930786,-0.13804282248020172
1782845414301105000,4.37810498046875,0.10766042023897171,0.04944371432065964,-0.15453578531742096
1782845414311110100,4.388110107421875,0.1241307333111763,0.049388587474823,-0.1625199317932129
1782845414321113900,4.39811376953125,0.1358150839805603,0.0446564182639122,-0.17974525690078735
1782845414331118800,4.408118896484375,0.13952700793743134,0.037224866449832916,-0.21367180347442627
1782845414341122800,4.418122802734375,0.12630733847618103,0.02646995708346367,-0.2446342408657074
1782845414351127800,4.4281279296875,0.10816694796085358,0.015023157931864262,-0.2694050967693329
1782845414361132000,4.438132080078125,0.09321010112762451,0.0027241474017500877,-0.2743055820465088
1782845414371137000,4.448136962890625,0.06563280522823334,-0.010189786553382874,-0.2615956664085388
1782845414381141000,4.45814111328125,0.031731296330690384,-0.016328107565641403,-0.24294313788414001
1782845414391146000,4.46814599609375,0.011157579720020294,-0.02582014538347721,-0.2218216061592102
1782845414401150000,4.47814990234375,-0.00023968449386302382,-0.037695180624723434,-0.19831335544586182
1782845414411155000,4.488155029296875,-0.01261139940470457,-0.050693269819021225,-0.16147971153259277
1782845414421159000,4.498158935546875,-0.02732190117239952,-0.052030179649591446,-0.11926993727684021
1782845414431164000,4.508163818359375,-0.042393263429403305,-0.04345959424972534,-0.07281721383333206
1782845414441168000,4.51816796875,-0.040406279265880585,-0.04542846605181694,-0.030245786532759666
1782845414451172900,4.5281728515625,-0.036429379135370255,-0.05120273306965828,0.008779376745223999
1782845414461176800,4.5381767578125,-0.013376525603234768,-0.03321174904704094,0.03280055522918701
1782845414471181800,4.548181884765625,0.010553042404353619,-0.0046394928358495235,0.04398876428604126
1782845414481185800,4.558185791015625,0.03164634481072426,0.020715665072202682,0.057126667350530624
1782845414491190800,4.568190673828125,0.06019090116024017,0.04140389710664749,0.0757962241768837
1782845414501195000,4.578195068359375,0.09957879036664963,0.05660548806190491,0.08834318071603775
1782845414511200000,4.588199951171875,0.14231693744659424,0.06701365113258362,0.0801350474357605
1782845414521204000,4.598203857421875,0.18664871156215668,0.06922540813684464,0.07191599905490875
1782845414531209000,4.608208984375,0.22164930403232574,0.06665386259555817,0.05992618575692177
1782845414541212700,4.618212646484375,0.25201359391212463,0.05618603900074959,0.057740259915590286
1782845414551218000,4.628218017578125,0.27934110164642334,0.039260853081941605,0.058287542313337326
1782845414561222000,4.638221923828125,0.29767775535583496,0.03032568097114563,0.05692693218588829
1782845414571227000,4.648226806640625,0.31044629216194153,0.035348668694496155,0.052570801228284836
1782845414581230800,4.65823095703125,0.3145744502544403,0.04670225828886032,0.05085838586091995
1782845414591235800,4.66823583984375,0.31134670972824097,0.046793073415756226,0.04631530120968819
1782845414601239800,4.67823974609375,0.29867592453956604,0.049912698566913605,0.042208973318338394
1782845414611244800,4.688244873046875,0.28881341218948364,0.05374445393681526,0.035414181649684906
1782845414621249000,4.6982490234375,0.28004205226898193,0.06824563443660736,0.04243960231542587
1782845414631254000,4.70825390625,0.27872005105018616,0.07798401266336441,0.05365949869155884
1782845414641258000,4.718258056640625,0.28603148460388184,0.07896352559328079,0.07422229647636414
1782845414651263000,4.728262939453125,0.28389111161231995,0.06724321842193604,0.08679135143756866
1782845414661266700,4.7382666015625,0.2872363030910492,0.053643252700567245,0.0957731306552887
1782845414671271700,4.748271728515625,0.29261988401412964,0.045574676245450974,0.09501413255929947
1782845414681276000,4.75827587890625,0.28774577379226685,0.04599012807011604,0.10033725947141647
1782845414691281000,4.768281005859375,0.2876245975494385,0.053463757038116455,0.12692253291606903
1782845414701284900,4.778284912109375,0.2912440896034241,0.06595824658870697,0.1544383019208908
1782845414711289900,4.788289794921875,0.29139643907546997,0.0858943983912468,0.1900109499692917
1782845414721293800,4.7982939453125,0.2890152931213379,0.10087468475103378,0.23365643620491028
1782845414731298800,4.808298828125,0.29318660497665405,0.11026259511709213,0.2801480293273926
1782845414741303800,4.8183037109375,0.3053830862045288,0.10581324994564056,0.31443437933921814
1782845414751308800,4.828308837890625,0.314710795879364,0.1045924574136734,0.32013192772865295
1782845414761312800,4.838312744140625,0.29807591438293457,0.11430713534355164,0.2875409722328186
1782845414771317800,4.84831787109375,0.25963717699050903,0.12029285728931427,0.21852701902389526
1782845414781321700,4.85832177734375,0.22838523983955383,0.13182301819324493,0.09817077219486237
1782845414791326700,4.86832666015625,0.20406071841716766,0.14193609356880188,-0.03821289911866188
1782845414801330700,4.87833056640625,0.1971450299024582,0.13455887138843536,-0.1599678248167038
1782845414811335700,4.888335693359375,0.20217041671276093,0.1032390370965004,-0.25869467854499817
1782845414821340000,4.89833984375,0.20982566475868225,0.07299830764532089,-0.3221524655818939
1782845414831345000,4.908344970703125,0.22293508052825928,0.027941087260842323,-0.33797645568847656
1782845414841348900,4.918348876953125,0.23462502658367157,-0.03026815690100193,-0.29593977332115173
1782845414851353900,4.928353759765625,0.2401345670223236,-0.07560980319976807,-0.20788662135601044
1782845414861357600,4.938357666015625,0.2363765835762024,-0.09879662096500397,-0.10198282450437546
1782845414871362600,4.948362548828125,0.22812211513519287,-0.10306406766176224,0.015200524590909481
1782845414881366800,4.95836669921875,0.21936404705047607,-0.09924482554197311,0.13647395372390747
1782845414891371800,4.968371826171875,0.2133258581161499,-0.08627469837665558,0.264498770236969
1782845414901375700,4.978375732421875,0.2018391191959381,-0.07063368707895279,0.3836507201194763
1782845414911380700,4.988380615234375,0.1878894716501236,-0.055801212787628174,0.46445634961128235
1782845414921384700,4.998384765625,0.17175844311714172,-0.02570003643631935,0.5024726986885071
1782845414931389700,5.0083896484375,0.1489436775445938,0.012177837081253529,0.5069683790206909
1782845414941394000,5.018393798828125,0.12334910035133362,0.044970136135816574,0.4804361164569855
1782845414951399000,5.02839892578125,0.10094498842954636,0.06280665844678879,0.42737796902656555
1782845414961403000,5.03840283203125,0.06535690277814865,0.06260932236909866,0.3806602656841278
1782845414971408000,5.048407958984375,0.02171541564166546,0.04809562489390373,0.3381010890007019
1782845414981411600,5.05841162109375,-0.02779514528810978,0.024988707154989243,0.3024245798587799
1782845414991416600,5.06841650390625,-0.08796314150094986,0.006362025626003742,0.25879162549972534
1782845415001420800,5.0784208984375,-0.14398673176765442,-0.010075537487864494,0.19205093383789062
1782845415011425800,5.08842578125,-0.2017861157655716,-0.012944294139742851,0.13115641474723816
1782845415021429800,5.0984296875,-0.25637081265449524,-0.007249124348163605,0.07719492167234421
1782845415031434800,5.108434814453125,-0.310676634311676,0.004514590837061405,0.0049766493029892445
1782845415041438700,5.118438720703125,-0.34724104404449463,0.02143045701086521,-0.05469173938035965
1782845415051443700,5.128443603515625,-0.36337554454803467,0.03273557499051094,-0.09427936375141144
1782845415061448000,5.138447998046875,-0.3483896851539612,0.04709693789482117,-0.09758461266756058
1782845415071453000,5.148452880859375,-0.32505425810813904,0.062312908470630646,-0.07579436153173447
1782845415081457000,5.158456787109375,-0.2910235822200775,0.07616773992776871,-0.047858335077762604
1782845415091462000,5.1684619140625,-0.24349015951156616,0.08605179190635681,-0.023849407210946083
1782845415101465600,5.178465576171875,-0.18898296356201172,0.09442051500082016,-0.001181644620373845
1782845415111470600,5.188470703125,-0.12083613872528076,0.09012909233570099,0.01564127765595913
1782845415121474800,5.198474853515625,-0.06046201288700104,0.072896309196949,0.024540496990084648
1782845415131479800,5.208479736328125,-0.015847671777009964,0.03249988704919815,0.04279300197958946
1782845415141483800,5.21848388671875,0.007513842545449734,-0.004068511072546244,0.07388167828321457
1782845415151488800,5.22848876953125,0.008116516284644604,-0.05170633643865585,0.11615803092718124
1782845415161492700,5.23849267578125,-0.009463809430599213,-0.07633259147405624,0.16084933280944824
1782845415171497700,5.248497802734375,-0.02576235495507717,-0.07914115488529205,0.17810581624507904
1782845415181502000,5.258501953125,-0.04674380272626877,-0.0665297582745552,0.1977975070476532
1782845415191507000,5.2685068359375,-0.06027932092547417,-0.05329491198062897,0.20891273021697998
1782845415201511000,5.278510986328125,-0.0707191750407219,-0.04544977471232414,0.21813365817070007
1782845415211516000,5.288515869140625,-0.08805662393569946,-0.03803287073969841,0.21955925226211548
1782845415221519600,5.29851953125,-0.10607903450727463,-0.030908115208148956,0.21840716898441315
1782845415231524600,5.308524658203125,-0.13013456761837006,-0.01822987012565136,0.228094682097435
1782845415241528800,5.31852880859375,-0.17171476781368256,-0.003605920122936368,0.24702470004558563
1782845415251533800,5.328533935546875,-0.21851663291454315,0.009304019622504711,0.2598361074924469
1782845415261537800,5.338537841796875,-0.27507391571998596,0.022425945848226547,0.26158207654953003
1782845415271542800,5.348542724609375,-0.3298868238925934,0.035944949835538864,0.2426600456237793
1782845415281546800,5.358546630859375,-0.38714346289634705,0.04688548296689987,0.20182685554027557
1782845415291551700,5.3685517578125,-0.44181549549102783,0.041845183819532394,0.15438024699687958
1782845415301556000,5.378555908203125,-0.4826047420501709,0.02767210826277733,0.10613922029733658
1782845415311561000,5.38856103515625,-0.5218591690063477,0.005906092468649149,0.05037715286016464
1782845415321564700,5.398564697265625,-0.5442332029342651,-0.02106906659901142,-0.0009507485083304346
1782845415331569700,5.408569580078125,-0.5553857088088989,-0.04180949926376343,-0.03241359815001488
1782845415341573600,5.41857373046875,-0.556499719619751,-0.05120246857404709,-0.059487294405698776
1782845415351578600,5.42857861328125,-0.5349579453468323,-0.048353150486946106,-0.0888555720448494
1782845415361582800,5.438582763671875,-0.5018274188041687,-0.04240364953875542,-0.11039069294929504
1782845415371587800,5.448587890625,-0.45909595489501953,-0.029227394610643387,-0.12742453813552856
1782845415381591800,5.458591796875,-0.39873406291007996,-0.01847727783024311,-0.1479865312576294
1782845415391596800,5.4685966796875,-0.32339802384376526,-0.008676844649016857,-0.18335731327533722
1782845415401600800,5.478600830078125,-0.25206258893013,-0.005964415613561869,-0.21165631711483002
1782845415411605800,5.488605712890625,-0.19066262245178223,-0.010865431278944016,-0.2243739813566208
1782845415421610000,5.49860986328125,-0.1420663297176361,-0.021853100508451462,-0.2196841537952423
1782845415431615000,5.508614990234375,-0.1007218137383461,-0.03947870060801506,-0.21049624681472778
1782845415441618700,5.51861865234375,-0.07122224569320679,-0.06064923107624054,-0.2075476050376892
1782845415451623700,5.528623779296875,-0.0462854728102684,-0.09657154977321625,-0.21278497576713562
1782845415461627600,5.538627685546875,-0.029618877917528152,-0.13129091262817383,-0.22114436328411102
1782845415471632600,5.548632568359375,-0.030733678489923477,-0.15614646673202515,-0.22289806604385376
1782845415481636900,5.558636962890625,-0.04187341406941414,-0.16671761870384216,-0.21703004837036133
1782845415491641900,5.568641845703125,-0.06550230830907822,-0.17405728995800018,-0.20879901945590973
1782845415501645800,5.578645751953125,-0.08884278684854507,-0.17505383491516113,-0.1960430145263672
1782845415511650800,5.58865087890625,-0.12095624953508377,-0.17128972709178925,-0.17977482080459595
1782845415521654800,5.59865478515625,-0.13898345828056335,-0.1656470149755478,-0.15904530882835388
1782845415531659800,5.60865966796875,-0.16197985410690308,-0.17330387234687805,-0.12285374850034714
1782845415541664000,5.6186640625,-0.1869983822107315,-0.1781335175037384,-0.07481884956359863
1782845415551669000,5.6286689453125,-0.2143346667289734,-0.1840318888425827,-0.02275378257036209
1782845415561672700,5.638672607421875,-0.23586419224739075,-0.19568374752998352,0.027511784806847572
1782845415571677700,5.648677734375,-0.2501049041748047,-0.19430449604988098,0.06274513900279999
1782845415581681700,5.658681640625,-0.2646242082118988,-0.18798348307609558,0.10142116248607635
1782845415591686700,5.668686767578125,-0.2737194299697876,-0.18950282037258148,0.12906476855278015
1782845415601691000,5.67869091796875,-0.28003084659576416,-0.19739696383476257,0.14981985092163086
1782845415611695900,5.68869580078125,-0.2842719256877899,-0.2096906453371048,0.15899470448493958
1782845415621699800,5.698699951171875,-0.2915208041667938,-0.22239525616168976,0.15560956299304962
1782845415631704800,5.708704833984375,-0.30607470870018005,-0.24531228840351105,0.13867612183094025
1782845415641708800,5.718708740234375,-0.3182693123817444,-0.2635842263698578,0.11446532607078552
1782845415651713800,5.7287138671875,-0.3228813707828522,-0.27466538548469543,0.07963331043720245
1782845415661718000,5.738718017578125,-0.3205585777759552,-0.27510079741477966,0.05361156165599823
1782845415671723000,5.748722900390625,-0.3195471167564392,-0.2632095217704773,0.044683583080768585
1782845415681726700,5.758726806640625,-0.30575671792030334,-0.24594877660274506,0.041731733828783035
1782845415691731700,5.768731689453125,-0.2958787977695465,-0.22187620401382446,0.05155693367123604
1782845415701735700,5.778735595703125,-0.27710697054862976,-0.19227170944213867,0.0727200135588646
1782845415711740700,5.78874072265625,-0.24737757444381714,-0.16567844152450562,0.09102151542901993
1782845415721745000,5.798744873046875,-0.21532003581523895,-0.13293807208538055,0.10208668559789658
1782845415731750000,5.80875,-0.17021061480045319,-0.11296303570270538,0.10469844937324524
1782845415741752800,5.8187529296875,-0.11433243751525879,-0.09055653214454651,0.09924216568470001
1782845415751757800,5.8287578125,-0.05085332691669464,-0.07268884778022766,0.09079515188932419
1782845415761761800,5.83876171875,0.02449868433177471,-0.05663558095693588,0.08826301991939545
1782845415771766800,5.848766845703125,0.10287578403949738,-0.016016250476241112,0.08383923768997192
1782845415781770800,5.858770751953125,0.16795705258846283,0.06804270297288895,0.07645589113235474
1782845415791775700,5.868775634765625,0.19156970083713531,0.18549954891204834,0.05017342045903206
1782845415801779700,5.87877978515625,0.18578344583511353,0.3103730380535126,-0.018276209011673927
1782845415811784700,5.88878466796875,0.18476799130439758,0.39542803168296814,-0.1343168020248413
1782845415821788700,5.89878857421875,0.1722593903541565,0.4135470986366272,-0.29106247425079346
1782845415831793700,5.908793701171875,0.12898461520671844,0.41429945826530457,-0.4856226146221161
1782845415841798000,5.9187978515625,0.08196783810853958,0.39239200949668884,-0.640634298324585
1782845415851803000,5.928802978515625,0.043651074171066284,0.30088022351264954,-0.7245409488677979
1782845415861806800,5.938806884765625,-0.007424094248563051,0.17467886209487915,-0.7310792803764343
1782845415871811800,5.948811767578125,-0.058829229325056076,0.08750162273645401,-0.6570447087287903
1782845415881815600,5.958815673828125,-0.08365548402070999,0.03724617138504982,-0.5279229283332825
1782845415891820500,5.968820556640625,-0.08785315603017807,-0.006750580854713917,-0.3471182882785797
1782845415901824800,5.97882470703125,-0.06778544187545776,-0.07006031274795532,-0.08542381972074509
1782845415911829800,5.988829833984375,-0.03821902349591255,-0.1436130851507187,0.21778611838817596
1782845415921833700,5.998833740234375,-0.018761703744530678,-0.19794237613677979,0.48000869154930115
1782845415931838700,6.008838623046875,-0.006382265593856573,-0.17902834713459015,0.673052191734314
1782845415941842700,6.0188427734375,0.010259827598929405,-0.11319340020418167,0.7870581150054932
1782845415951847700,6.02884765625,0.022905848920345306,-0.05949235334992409,0.8345212340354919
1782845415961852000,6.038851806640625,0.03163622319698334,0.005327387247234583,0.8079482316970825
1782845415971857000,6.04885693359375,0.03243676945567131,0.06108439341187477,0.7240490317344666
1782845415981860900,6.05886083984375,0.02605530247092247,0.11825500428676605,0.5758395791053772
1782845415991865900,6.068865966796875,0.01810922846198082,0.14988429844379425,0.3642440140247345
1782845416001869600,6.07886962890625,0.0015992282424122095,0.1837213635444641,0.14499527215957642
1782845416011874600,6.08887451171875,-0.00920548290014267,0.19878792762756348,-0.044793568551540375
1782845416021878800,6.098878662109375,-0.010611631907522678,0.195365771651268,-0.18200016021728516
1782845416031883800,6.1088837890625,-0.004519117996096611,0.16419853270053864,-0.28113871812820435
1782845416041887700,6.1188876953125,-0.003061037277802825,0.1245773509144783,-0.35330745577812195
1782845416051892700,6.128892822265625,-0.002621882129460573,0.07402735203504562,-0.40713047981262207
1782845416061897700,6.138897705078125,-0.005169461946934462,0.023670708760619164,-0.452633798122406
1782845416071901700,6.148901611328125,0.002650644164532423,-0.026022013276815414,-0.4742211103439331
1782845416081906000,6.158906005859375,0.004062918480485678,-0.06297124177217484,-0.48574885725975037
1782845416091911000,6.168910888671875,0.009699765592813492,-0.08933334052562714,-0.48787298798561096
1782845416101916000,6.178916015625,0.019100723788142204,-0.1027708500623703,-0.4594581425189972
1782845416111919900,6.188919921875,0.02787131257355213,-0.10519752651453018,-0.40584176778793335
1782845416121924900,6.1989248046875,0.04180923104286194,-0.09425459802150726,-0.33156701922416687
1782845416131928600,6.208928466796875,0.05982871353626251,-0.07397063076496124,-0.26485535502433777
1782845416141933600,6.21893359375,0.08321446180343628,-0.04247581958770752,-0.2184322029352188
1782845416151937800,6.228937744140625,0.11218646168708801,-0.018572619184851646,-0.18805378675460815
1782845416161942800,6.23894287109375,0.14746934175491333,-0.009968478232622147,-0.1637476533651352
1782845416171946800,6.24894677734375,0.18493735790252686,-0.026810841634869576,-0.1458379030227661
1782845416181951700,6.25895166015625,0.20475447177886963,-0.05658125504851341,-0.13390347361564636
1782845416191955700,6.268955810546875,0.21431230008602142,-0.08247410506010056,-0.14032141864299774
1782845416201960700,6.278960693359375,0.2124001383781433,-0.118735171854496,-0.1429201364517212
1782845416211965000,6.28896484375,0.2037123739719391,-0.135908305644989,-0.14526265859603882
1782845416221970000,6.298969970703125,0.19628934562206268,-0.1453380137681961,-0.13873204588890076
1782845416231974000,6.308973876953125,0.17490656673908234,-0.13695386052131653,-0.11531567573547363
1782845416241979000,6.318978759765625,0.14224982261657715,-0.12525086104869843,-0.07887750118970871
1782845416251982600,6.328982666015625,0.11607068032026291,-0.10847880691289902,-0.034930285066366196
1782845416261987600,6.338987548828125,0.09570948034524918,-0.0761813223361969,-0.007474694401025772
1782845416271991800,6.34899169921875,0.0742848813533783,-0.05481957271695137,0.009843842126429081
1782845416281996800,6.358996826171875,0.06463678181171417,-0.043288350105285645,0.016943030059337616
1782845416292000800,6.369000732421875,0.05861750617623329,-0.04086540639400482,0.010654774494469166
1782845416302005800,6.379005859375,0.06389535963535309,-0.03327939286828041,-0.013361078687012196
1782845416312009700,6.389009765625,0.08027779310941696,-0.0218507032841444,-0.03063860349357128
1782845416322014700,6.3990146484375,0.0970517173409462,-0.010928547941148281,-0.04002358391880989
1782845416332019000,6.40901904296875,0.11781744658946991,-0.012987171299755573,-0.042090728878974915
1782845416342024000,6.41902392578125,0.13574185967445374,-0.003591006388887763,-0.04146275296807289
1782845416352028000,6.42902783203125,0.1648494005203247,-0.0012295814231038094,-0.039447274059057236
1782845416362033000,6.439032958984375,0.18941067159175873,-0.0008207862265408039,-0.03506956994533539
1782845416372036600,6.44903662109375,0.21231065690517426,-0.010059292428195477,-0.03160613030195236
1782845416382041600,6.45904150390625,0.22738654911518097,-0.022817697376012802,-0.03622964397072792
1782845416392045800,6.4690458984375,0.23547963798046112,-0.030278543010354042,-0.04692569747567177
1782845416402050800,6.47905078125,0.23436670005321503,-0.029570408165454865,-0.06716172397136688
1782845416412054800,6.4890546875,0.2219797968864441,-0.03437448665499687,-0.09150088578462601
1782845416422059800,6.499059814453125,0.20149663090705872,-0.03134194388985634,-0.11373055726289749
1782845416432063700,6.509063720703125,0.17766134440898895,-0.026867832988500595,-0.1276295930147171
1782845416442068700,6.51906884765625,0.14839187264442444,-0.02057052217423916,-0.12663331627845764
1782845416452073000,6.529072998046875,0.1296224445104599,-0.013098491355776787,-0.12499520182609558
1782845416462078000,6.539077880859375,0.124339260160923,-0.01613263040781021,-0.11497372388839722
1782845416472082000,6.54908203125,0.1278517097234726,-0.018492991104722023,-0.1112024188041687
1782845416482087000,6.5590869140625,0.13557887077331543,-0.01782373897731304,-0.10390802472829819
1782845416492090600,6.569090576171875,0.15172748267650604,-0.011839881539344788,-0.0815928652882576
1782845416502095600,6.579095703125,0.17038078606128693,-0.015793876722455025,-0.04721731320023537
1782845416512099800,6.589099853515625,0.19609521329402924,-0.016986440867185593,-0.010067547671496868
1782845416522104800,6.599104736328125,0.22491887211799622,0.0026823359075933695,0.02184884063899517
1782845416532108800,6.60910888671875,0.25885844230651855,0.03099333681166172,0.052558548748493195
1782845416542113800,6.61911376953125,0.29571154713630676,0.05492263659834862,0.08265386521816254
1782845416552118800,6.629118896484375,0.333800345659256,0.0784711092710495,0.10830996185541153
1782845416562122800,6.639122802734375,0.3723605275154114,0.09896120429039001,0.1269310563802719
1782845416572127700,6.649127685546875,0.4066367447376251,0.11275797337293625,0.13906574249267578
1782845416582132000,6.659132080078125,0.43719810247421265,0.1153726652264595,0.13351678848266602
1782845416592137000,6.669136962890625,0.45603516697883606,0.11648879200220108,0.13154923915863037
1782845416602141000,6.679140869140625,0.45998385548591614,0.11568505316972733,0.13802018761634827
1782845416612146000,6.68914599609375,0.45103853940963745,0.11243227124214172,0.15627562999725342
1782845416622149600,6.699149658203125,0.4245121479034424,0.10260626673698425,0.175400048494339
1782845416632154600,6.709154541015625,0.3854760527610779,0.10070078074932098,0.19868087768554688
1782845416642158800,6.719158935546875,0.3327063024044037,0.10666891932487488,0.21991239488124847
1782845416652163800,6.729163818359375,0.2738235592842102,0.11845660209655762,0.23471450805664062
1782845416662167800,6.739167724609375,0.21675920486450195,0.13073298335075378,0.24246829748153687
1782845416672172800,6.7491728515625,0.16603530943393707,0.13898397982120514,0.24235191941261292
1782845416682176800,6.7591767578125,0.12167077511548996,0.14521604776382446,0.24223394691944122
1782845416692181800,6.769181640625,0.09211261570453644,0.14503735303878784,0.22447171807289124
1782845416702186000,6.77918603515625,0.06278561800718307,0.15398024022579193,0.20688819885253906
1782845416712191000,6.78919091796875,0.04157727211713791,0.15889057517051697,0.17408710718154907
1782845416722194700,6.799194580078125,0.032212529331445694,0.1601923406124115,0.12646499276161194
1782845416732199700,6.80919970703125,0.026612170040607452,0.15626710653305054,0.08249220997095108
1782845416742204000,6.819203857421875,0.03832501918077469,0.14786988496780396,0.028803152963519096
1782845416752209000,6.829208984375,0.057381801307201385,0.13914377987384796,-0.02322675846517086
1782845416762212900,6.839212890625,0.08854904025793076,0.12107183039188385,-0.05825025588274002
1782845416772218000,6.849218017578125,0.12440211325883865,0.1013425961136818,-0.0768340602517128
1782845416782222000,6.85922216796875,0.15462686121463776,0.09289664775133133,-0.0750311017036438
1782845416792227000,6.86922705078125,0.18635788559913635,0.0830666571855545,-0.055751413106918335
1782845416802231000,6.87923095703125,0.2273103892803192,0.08372712135314941,-0.03062075935304165
1782845416812236000,6.889236083984375,0.25477635860443115,0.09699738770723343,0.004150802735239267
1782845416822240000,6.899239990234375,0.2793099284172058,0.10842501372098923,0.04549424722790718
1782845416832245000,6.909244873046875,0.30487868189811707,0.12669909000396729,0.0854129046201706
1782845416842249000,6.9192490234375,0.33015766739845276,0.14851143956184387,0.11647415161132812
1782845416852254000,6.92925390625,0.3464841842651367,0.15962988138198853,0.1415853649377823
1782845416862258000,6.9392578125,0.36671674251556396,0.16710563004016876,0.15100416541099548
1782845416872263000,6.949262939453125,0.3733613193035126,0.1722671091556549,0.12788286805152893
1782845416882267000,6.959266845703125,0.3643617033958435,0.1840428113937378,0.08122082054615021
1782845416892271900,6.96927197265625,0.35413891077041626,0.1950477808713913,0.015786154195666313
1782845416902276000,6.979276123046875,0.34466657042503357,0.19499506056308746,-0.04688521847128868
1782845416912281000,6.989281005859375,0.33613139390945435,0.18383002281188965,-0.09786824136972427
1782845416922286000,6.9992861328125,0.3336927592754364,0.1604570597410202,-0.13647527992725372
1782845416932289800,7.009289794921875,0.32459884881973267,0.11579291522502899,-0.15722104907035828
1782845416942294800,7.019294677734375,0.3158021569252014,0.0541713610291481,-0.16733600199222565
1782845416952298800,7.029298828125,0.29709240794181824,-0.0049673281610012054,-0.1690974086523056
1782845416962304000,7.039303955078125,0.26815181970596313,-0.04261989891529083,-0.1604892760515213
1782845416972308000,7.049307861328125,0.2329016923904419,-0.06769515573978424,-0.14587518572807312
1782845416982313000,7.05931298828125,0.19498386979103088,-0.0620332770049572,-0.10389843583106995
1782845416992317000,7.06931689453125,0.1712457835674286,-0.042141593992710114,-0.05240568518638611
1782845417002322000,7.079322021484375,0.1489945352077484,-0.012201538309454918,0.008126902393996716
1782845417012326000,7.089325927734375,0.13874590396881104,0.01900831237435341,0.074073426425457
1782845417022331000,7.099330810546875,0.12538082897663116,0.038360171020030975,0.1419299691915512
1782845417032335000,7.109335205078125,0.11808162927627563,0.04646390303969383,0.2025914490222931
1782845417042340000,7.119340087890625,0.12704290449619293,0.043413788080215454,0.24558153748512268
1782845417052343800,7.12934375,0.13672402501106262,0.03817082196474075,0.25912824273109436
1782845417062348800,7.139348876953125,0.14010624587535858,0.023903202265501022,0.2568642795085907
1782845417072352800,7.149352783203125,0.13304486870765686,0.012417787685990334,0.24511174857616425
1782845417082357800,7.159357666015625,0.11497744917869568,-0.0009784454014152288,0.2204066663980484
1782845417092362000,7.169362060546875,0.0872638002038002,-0.007250456139445305,0.1870250105857849
1782845417102367000,7.179366943359375,0.05829393118619919,-0.008243015967309475,0.14230601489543915
1782845417112371000,7.189370849609375,0.030493194237351418,-0.0011720572365447879,0.09982486069202423
1782845417122376000,7.1993759765625,-0.005652825813740492,0.003740143496543169,0.0650775358080864
1782845417132380000,7.2093798828125,-0.03653963655233383,0.007814247161149979,0.03736814484000206
1782845417142385000,7.219385009765625,-0.06626850366592407,0.0046506780199706554,0.0308066476136446
1782845417152389000,7.22938916015625,-0.08982948958873749,-0.00433189794421196,0.025601767003536224
1782845417162394000,7.23939404296875,-0.11464376002550125,-0.008071774616837502,0.02642681449651718
1782845417172397800,7.249397705078125,-0.1355879157781601,-0.014170680195093155,0.031137945130467415
1782845417182402800,7.25940283203125,-0.1633785367012024,-0.022482939064502716,0.0409916415810585
1782845417192406800,7.26940673828125,-0.2020321935415268,-0.025545572862029076,0.06875909119844437
1782845417202411800,7.279411865234375,-0.24035455286502838,-0.03530898690223694,0.10510271787643433
1782845417212416000,7.289416015625,-0.28451427817344666,-0.04490542411804199,0.13813284039497375
1782845417222421000,7.2994208984375,-0.3283078372478485,-0.06325194239616394,0.17258241772651672
1782845417232426000,7.309426025390625,-0.3687886893749237,-0.07113276422023773,0.2030002474784851
1782845417242430000,7.319429931640625,-0.39899665117263794,-0.07621221244335175,0.22748801112174988
1782845417252435000,7.32943505859375,-0.42256322503089905,-0.0821734294295311,0.22792823612689972
1782845417262439000,7.33943896484375,-0.4439878463745117,-0.07778933644294739,0.22743955254554749
1782845417272444000,7.34944384765625,-0.4633817672729492,-0.07603751122951508,0.2097548246383667
1782845417282448100,7.3594482421875,-0.47845953702926636,-0.05716528370976448,0.1929609328508377
1782845417292453000,7.369453125,-0.4844779968261719,-0.03718012571334839,0.18932464718818665
1782845417302456800,7.379456787109375,-0.48007047176361084,-0.03141145035624504,0.18528038263320923
1782845417312461800,7.3894619140625,-0.46259987354278564,-0.02816612459719181,0.16727393865585327
1782845417322465800,7.3994658203125,-0.43547770380973816,-0.026090456172823906,0.12552064657211304
1782845417332470800,7.409470703125,-0.3843681812286377,-0.022356437519192696,0.06544744968414307
1782845417342475000,7.41947509765625,-0.3242742121219635,-0.019812587648630142,-0.009412409737706184
1782845417352480000,7.42947998046875,-0.26291337609291077,-0.010704842396080494,-0.08159472793340683
1782845417362484000,7.43948388671875,-0.21879999339580536,0.002569684060290456,-0.1316288709640503
1782845417372489000,7.449489013671875,-0.19068606197834015,0.02250371128320694,-0.15671850740909576
1782845417382493000,7.459492919921875,-0.16933868825435638,0.0539708249270916,-0.16881299018859863
1782845417392498000,7.469497802734375,-0.14462189376354218,0.0904231071472168,-0.1487351506948471
1782845417402502100,7.479502197265625,-0.12833267450332642,0.1144149899482727,-0.12400476634502411
1782845417412507100,7.489507080078125,-0.13043896853923798,0.12307239323854446,-0.08904065936803818
1782845417422510800,7.4995107421875,-0.12701813876628876,0.12469719350337982,-0.06001513451337814
1782845417432515800,7.509515869140625,-0.1130828782916069,0.10467927157878876,-0.026692597195506096
1782845417442519800,7.519519775390625,-0.09212673455476761,0.07090826332569122,-0.010913101024925709
1782845417452524800,7.52952490234375,-0.07838109135627747,0.026161829009652138,-0.010311493650078773
1782845417462529000,7.539529052734375,-0.0731343999505043,-0.013700632378458977,-0.020353475585579872
1782845417472534000,7.549533935546875,-0.08649521321058273,-0.03490765020251274,-0.026812706142663956
1782845417482538000,7.5595380859375,-0.10730887949466705,-0.042577020823955536,-0.04839496314525604
1782845417492543000,7.56954296875,-0.13169623911380768,-0.0371958389878273,-0.06776147335767746
1782845417502547000,7.579546875,-0.1553616225719452,-0.02612055093050003,-0.09602879732847214
1782845417512552000,7.589552001953125,-0.1709778755903244,-0.021285047754645348,-0.12269262969493866
1782845417522557000,7.599556884765625,-0.1815016120672226,-0.02142300084233284,-0.14275608956813812
1782845417532561200,7.60956103515625,-0.18348807096481323,-0.030064424499869347,-0.14365915954113007
1782845417542566100,7.619566162109375,-0.17120876908302307,-0.05296148359775543,-0.13008369505405426
1782845417552569900,7.62956982421875,-0.1519237458705902,-0.05651494115591049,-0.10361560434103012
1782845417562574800,7.639574951171875,-0.13369441032409668,-0.04418423771858215,-0.07135940343141556
1782845417572578800,7.649578857421875,-0.11682622134685516,-0.025119734928011894,-0.04603220522403717
1782845417582583800,7.659583740234375,-0.10611525177955627,0.005018194206058979,-0.02901300974190235
1782845417592588000,7.669588134765625,-0.09187639504671097,0.023061642423272133,-0.02219744771718979
1782845417602593000,7.679593017578125,-0.07819519937038422,0.04405427724123001,-0.012064119800925255
1782845417612597000,7.689596923828125,-0.0642375722527504,0.056711215525865555,-0.008161789737641811
1782845417622602000,7.69960205078125,-0.05263151973485947,0.06220505014061928,0.01098607201129198
1782845417632606000,7.70960595703125,-0.04839762672781944,0.054851796478033066,0.046616505831480026
1782845417642611000,7.71961083984375,-0.041181258857250214,0.040760211646556854,0.08017180114984512
1782845417652615200,7.729615234375,-0.037160683423280716,0.028873726725578308,0.1080620214343071
1782845417662620200,7.7396201171875,-0.03296726942062378,0.01853000931441784,0.11823822557926178
1782845417672623900,7.749623779296875,-0.022972160950303078,0.00887711439281702,0.10093620419502258
1782845417682628900,7.75962890625,-0.015016766265034676,-0.007479754276573658,0.06570364534854889
1782845417692632800,7.7696328125,-0.010997257195413113,-0.026126675307750702,0.023966852575540543
1782845417702637800,7.779637939453125,-0.011957593262195587,-0.04243747144937515,-0.022289592772722244
1782845417712642000,7.78964208984375,-0.012402074411511421,-0.0653182864189148,-0.06036587059497833
1782845417722647000,7.79964697265625,-0.006686931010335684,-0.08234627544879913,-0.09516273438930511
1782845417732651000,7.809651123046875,0.008508533239364624,-0.09634251147508621,-0.12251206487417221
1782845417742655200,7.8196552734375,0.026505110785365105,-0.1054779589176178,-0.14059892296791077
1782845417752659200,7.8296591796875,0.03371748328208923,-0.11436385661363602,-0.1411653757095337
1782845417762664200,7.839664306640625,0.03350310027599335,-0.11449968069791794,-0.12357786297798157
1782845417772668400,7.84966845703125,0.026939205825328827,-0.1169990599155426,-0.0949251800775528
1782845417782673400,7.85967333984375,0.013863351196050644,-0.1217232421040535,-0.0716792494058609
1782845417792677400,7.869677490234375,-0.011578358709812164,-0.11467811465263367,-0.034090060740709305
1782845417802682400,7.879682373046875,-0.027887290343642235,-0.10876110196113586,-0.008433432318270206
1782845417812687400,7.889687255859375,-0.03977084904909134,-0.10023313015699387,0.007143130525946617
1782845417822691300,7.89969140625,-0.05728752538561821,-0.09901819378137589,0.02166002243757248
1782845417832696300,7.9096962890625,-0.07516904920339584,-0.09242048114538193,0.04241430386900902
1782845417842700300,7.9197001953125,-0.09232273697853088,-0.08002186566591263,0.054836615920066833
1782845417852705300,7.929705322265625,-0.09767409414052963,-0.06946589052677155,0.057965297251939774
1782845417862709200,7.939709228515625,-0.08664887398481369,-0.05615061894059181,0.06265219300985336
1782845417872714200,7.94971435546875,-0.07182145863771439,-0.044491302222013474,0.07261854410171509
1782845417882718200,7.95971826171875,-0.058043330907821655,-0.03363332897424698,0.07341030240058899
1782845417892723200,7.96972314453125,-0.03671087697148323,-0.020297281444072723,0.06868398934602737
1782845417902727400,7.9797275390625,-0.006235259119421244,-0.019098326563835144,0.07075672596693039
1782845417912732400,7.989732421875,0.0258686151355505,-0.041848912835121155,0.06070569157600403
1782845417922736400,7.999736328125,0.06202581897377968,-0.0690845251083374,0.04812997952103615
1782845417932741400,8.009741455078125,0.10478713363409042,-0.10254768282175064,0.03596226125955582
1782845417942745300,8.019745361328125,0.11198965460062027,-0.12890870869159698,0.029275596141815186
1782845417952750300,8.029750244140626,0.09919369220733643,-0.1292826235294342,-0.0014737932942807674
1782845417962754300,8.03975439453125,0.0906505435705185,-0.132455512881279,-0.039628367871046066
1782845417972759300,8.04975927734375,0.12038073688745499,-0.14306101202964783,-0.0994645357131958
1782845417982763300,8.05976318359375,0.13788676261901855,-0.1400734782218933,-0.18419167399406433
1782845417992768300,8.069768310546875,0.12789857387542725,-0.13733042776584625,-0.2971342206001282
1782845418002772200,8.079772216796876,0.10515864193439484,-0.14513322710990906,-0.4198122024536133
1782845418012777200,8.089777099609375,0.08579400181770325,-0.1682119071483612,-0.5100795030593872
1782845418022781400,8.099781494140625,0.06377445161342621,-0.20023934543132782,-0.5694490671157837
1782845418032786400,8.109786376953124,0.038356442004442215,-0.21331466734409332,-0.5750529170036316
1782845418042791400,8.11979150390625,0.010638529434800148,-0.22900229692459106,-0.516291618347168
1782845418052795400,8.12979541015625,-0.006824882701039314,-0.2518245279788971,-0.43051037192344666
1782845418062800400,8.13980029296875,-0.007969776168465614,-0.2736770808696747,-0.3290436565876007
1782845418072804000,8.14980419921875,-0.0073327478021383286,-0.2876394987106323,-0.2248307168483734
1782845418082809300,8.159809326171874,-0.009740511886775494,-0.27733200788497925,-0.14760756492614746
1782845418092813300,8.169813232421875,-0.017675666138529778,-0.25222718715667725,-0.09079568088054657
1782845418102818300,8.179818359375,-0.022247515618801117,-0.2123522013425827,-0.03232278674840927
1782845418112822300,8.189822265625,-0.030731014907360077,-0.17176084220409393,0.05849473550915718
1782845418122827300,8.1998271484375,-0.044078245759010315,-0.12592650949954987,0.14251932501792908
1782845418132831200,8.209831298828124,-0.05826277285814285,-0.08444883674383163,0.21287178993225098
1782845418142836200,8.219836181640625,-0.06889065355062485,-0.056542638689279556,0.28078505396842957
1782845418152840400,8.22984033203125,-0.06836973875761032,-0.030774690210819244,0.336488276720047
1782845418162845400,8.239845458984375,-0.062193334102630615,-0.0029441246297210455,0.36887070536613464
1782845418172849400,8.249849365234375,-0.05580361187458038,0.032883115112781525,0.3694097399711609
1782845418182854400,8.2598544921875,-0.06662057340145111,0.06532307714223862,0.3319332003593445
1782845418192858000,8.269858154296875,-0.09098503738641739,0.09073043614625931,0.27548056840896606
1782845418202863000,8.279863037109376,-0.11835514008998871,0.0919799879193306,0.20045720040798187
1782845418212867300,8.289867431640625,-0.12483487278223038,0.07511232793331146,0.12870657444000244
1782845418222872300,8.299872314453125,-0.12792973220348358,0.051113251596689224,0.053458429872989655
1782845418232876300,8.309876220703124,-0.12417521327733994,0.02262941189110279,-0.01582050882279873
1782845418242881300,8.31988134765625,-0.12439519166946411,-0.013450561091303825,-0.10427127778530121
1782845418252885200,8.32988525390625,-0.133969247341156,-0.03744564205408096,-0.1873595118522644
1782845418262890200,8.33989013671875,-0.15224972367286682,-0.04863065108656883,-0.2601330578327179
1782845418272894500,8.34989453125,-0.16486351191997528,-0.059730708599090576,-0.3151446282863617
1782845418282899500,8.3598994140625,-0.166526660323143,-0.07484734058380127,-0.33090949058532715
1782845418292903400,8.3699033203125,-0.16085386276245117,-0.0802152082324028,-0.3145928382873535
1782845418302908400,8.379908447265626,-0.16004027426242828,-0.07809906452894211,-0.28840330243110657
1782845418312913400,8.389913330078125,-0.1502925604581833,-0.07406038045883179,-0.2534314692020416
1782845418322917000,8.399917236328125,-0.12916730344295502,-0.07514455169439316,-0.2065505087375641
1782845418332922000,8.409922119140624,-0.10675095021724701,-0.07086245715618134,-0.14587944746017456
1782845418342926300,8.41992626953125,-0.08163148164749146,-0.07740717381238937,-0.07631794363260269
1782845418352931300,8.429931396484376,-0.06626211106777191,-0.07395625114440918,0.00014647385978605598
1782845418362935300,8.439935302734375,-0.054010771214962006,-0.046358708292245865,0.07419539988040924
1782845418372940300,8.449940185546875,-0.04092852398753166,-0.0102592958137393,0.12889645993709564
1782845418382944300,8.4599443359375,-0.036005403846502304,0.02267521806061268,0.15712304413318634
1782845418392949200,8.46994921875,-0.026208167895674706,0.038966041058301926,0.1588549017906189
1782845418402953500,8.479953369140626,-0.00869095977395773,0.03127829357981682,0.13853923976421356
1782845418412958500,8.48995849609375,0.01438426598906517,0.03640301525592804,0.11768055707216263
1782845418422962400,8.49996240234375,0.03780463710427284,0.05114494264125824,0.10050796717405319
1782845418432967400,8.509967529296874,0.048278581351041794,0.06155284121632576,0.09899875521659851
1782845418442971100,8.51997119140625,0.05170633643865585,0.0759056806564331,0.08972775191068649
1782845418452976000,8.52997607421875,0.0409327857196331,0.1367674320936203,0.09207826107740402
1782845418462980400,8.53998046875,0.006325806491076946,0.10150638222694397,0.04549771174788475
1782845418472985300,8.5499853515625,0.018692728132009506,-0.016154468059539795,-0.0612708143889904
1782845418482989300,8.5599892578125,0.052684783935546875,-0.10683830082416534,-0.15680532157421112
1782845418492994300,8.569994384765625,0.07052396982908249,-0.13162167370319366,-0.21004697680473328
1782845418502998300,8.579998291015626,0.07857097685337067,-0.11539822816848755,-0.22301577031612396
1782845418513003300,8.590003173828125,0.06802112609148026,-0.07990521937608719,-0.20916414260864258
