time,seconds_elapsed,z,y,x
1782845410001671700,0.078671630859375,0.6494958400726318,0.2933878004550934,-0.09232263267040253
1782845410011676700,0.0886767578125,0.6367677450180054,0.31567367911338806,-0.1885165274143219
1782845410021680600,0.0986806640625,0.6184789538383484,0.3396345376968384,-0.267056941986084
1782845410031685600,0.108685546875,0.6093922257423401,0.35080409049987793,-0.3305150270462036
1782845410041689600,0.118689697265625,0.6062754988670349,0.35103315114974976,-0.3817024528980255
1782845410051693600,0.128693603515625,0.6107962131500244,0.3496464192867279,-0.43560776114463806
1782845410061698600,0.138698486328125,0.6060622334480286,0.3380507528781891,-0.47282513976097107
1782845410071702800,0.148702880859375,0.6171439290046692,0.3239743411540985,-0.49771690368652344
1782845410081707800,0.158707763671875,0.6355981826782227,0.2993814945220947,-0.4894830882549286
1782845410091712800,0.168712646484375,0.6563737392425537,0.26296141743659973,-0.44918495416641235
1782845410101716700,0.178716796875,0.673420250415802,0.21479909121990204,-0.375337690114975
1782845410111720400,0.188720458984375,0.6814742088317871,0.17367561161518097,-0.3066592812538147
1782845410121725400,0.198725341796875,0.6789547204971313,0.14579346776008606,-0.23440693318843842
1782845410131729700,0.208729736328125,0.6662964224815369,0.12618274986743927,-0.174589142203331
1782845410141734700,0.218734619140625,0.6404728293418884,0.11410291492938995,-0.12733080983161926
1782845410151738600,0.228738525390625,0.6251601576805115,0.12364475429058075,-0.1028401181101799
1782845410161743600,0.23874365234375,0.6075530052185059,0.1378878802061081,-0.09443797916173935
1782845410171747600,0.24874755859375,0.6036386489868164,0.1586136668920517,-0.09240065515041351
1782845410181752600,0.258752685546875,0.5942217111587524,0.1707530915737152,-0.08844992518424988
1782845410191756800,0.2687568359375,0.5944739580154419,0.1742176115512848,-0.09055382758378983
1782845410201761800,0.27876171875,0.59345543384552,0.16658756136894226,-0.10361343622207642
1782845410211765800,0.288765869140625,0.5998408794403076,0.1551615297794342,-0.13519319891929626
1782845410221770800,0.298770751953125,0.6144508719444275,0.148047536611557,-0.17724211513996124
1782845410231774500,0.3087744140625,0.6336453557014465,0.1523653119802475,-0.22577795386314392
1782845410241779500,0.318779541015625,0.6569315791130066,0.1523028463125229,-0.2646736204624176
1782845410251783700,0.32878369140625,0.6824531555175781,0.15271537005901337,-0.2874298095703125
1782845410261788700,0.33878857421875,0.7001263499259949,0.15053367614746094,-0.2989617586135864
1782845410271792600,0.348792724609375,0.7114596962928772,0.1487261950969696,-0.28690826892852783
1782845410281797600,0.358797607421875,0.721832811832428,0.15342062711715698,-0.27550676465034485
1782845410291801600,0.368801513671875,0.7196657657623291,0.157791405916214,-0.2619217336177826
1782845410301806600,0.378806640625,0.7113685011863708,0.15876531600952148,-0.26294663548469543
1782845410311810800,0.388810791015625,0.6910003423690796,0.14086595177650452,-0.2536996006965637
1782845410321815800,0.39881591796875,0.6778349876403809,0.11765006184577942,-0.24156683683395386
1782845410331819800,0.40881982421875,0.6652275919914246,0.09157078713178635,-0.23253978788852692
1782845410341824800,0.41882470703125,0.6602074503898621,0.08755829185247421,-0.2292996644973755
1782845410351828500,0.428828369140625,0.6696965098381042,0.08541657775640488,-0.2209770232439041
1782845410361833500,0.43883349609375,0.6875371932983398,0.08682051301002502,-0.21892797946929932
1782845410371837700,0.448837646484375,0.6981850862503052,0.08077487349510193,-0.2095528542995453
1782845410381842700,0.4588427734375,0.6972423195838928,0.07806165516376495,-0.19760456681251526
1782845410391846700,0.4688466796875,0.688266396522522,0.08069578558206558,-0.18958179652690887
1782845410401851600,0.4788515625,0.6619805693626404,0.08645420521497726,-0.18525156378746033
1782845410411855600,0.488855712890625,0.6329353451728821,0.08847501873970032,-0.18573839962482452
1782845410421860600,0.498860595703125,0.6046148538589478,0.08178478479385376,-0.19027602672576904
1782845410431864800,0.50886474609375,0.5889586210250854,0.0698210671544075,-0.20247171819210052
1782845410441869800,0.518869873046875,0.5729160308837891,0.06033436208963394,-0.2245851308107376
1782845410451873800,0.528873779296875,0.5673679113388062,0.05621391907334328,-0.24005728960037231
1782845410461878800,0.538878662109375,0.5685185790061951,0.05319185554981232,-0.23411844670772552
1782845410471882500,0.548882568359375,0.5812817811965942,0.05394180119037628,-0.19588664174079895
1782845410481887500,0.558887451171875,0.595361053943634,0.060690511018037796,-0.13362260162830353
1782845410491891700,0.5688916015625,0.6246930956840515,0.08650320768356323,-0.06381076574325562
1782845410501896700,0.578896728515625,0.652749240398407,0.12998569011688232,-0.00042087072506546974
1782845410511900700,0.588900634765625,0.6885743737220764,0.1809317022562027,0.05272543802857399
1782845410521905700,0.59890576171875,0.7413185238838196,0.22790250182151794,0.10753542929887772
1782845410531909600,0.60890966796875,0.7980217337608337,0.25058305263519287,0.1654067039489746
1782845410541914600,0.61891455078125,0.8610485196113586,0.2759685814380646,0.24148456752300262
1782845410551918800,0.6289189453125,0.905176043510437,0.28495994210243225,0.32305267453193665
1782845410561923800,0.638923828125,0.951869010925293,0.2936846613883972,0.43513986468315125
1782845410571927600,0.648927490234375,0.9876693487167358,0.28867071866989136,0.5571626424789429
1782845410581932500,0.6589326171875,1.0260224342346191,0.3003125488758087,0.6687775254249573
1782845410591936500,0.6689365234375,1.0572723150253296,0.30160844326019287,0.7589074373245239
1782845410601941500,0.67894140625,1.0653566122055054,0.2874625027179718,0.8099602460861206
1782845410611945700,0.68894580078125,1.0539871454238892,0.26348578929901123,0.8094263076782227
1782845410621950700,0.69895068359375,1.0199642181396484,0.23084892332553864,0.7660776376724243
1782845410631954700,0.70895458984375,0.9671183824539185,0.20298293232917786,0.6647561192512512
1782845410641959700,0.718959716796875,0.8945886492729187,0.18981347978115082,0.5241682529449463
1782845410651963600,0.728963623046875,0.8099043965339661,0.20727954804897308,0.3612898588180542
1782845410661968600,0.73896875,0.7402104735374451,0.20760267972946167,0.19605962932109833
1782845410671972900,0.748972900390625,0.6965993046760559,0.1804181933403015,0.049467526376247406
1782845410681977900,0.758977783203125,0.6745225191116333,0.16025885939598083,-0.06278764456510544
1782845410691981600,0.768981689453125,0.6667839288711548,0.13400116562843323,-0.13361521065235138
1782845410701986600,0.778986572265625,0.6311827301979065,0.08886707574129105,-0.16563239693641663
1782845410711990500,0.788990478515625,0.5922155976295471,0.037889912724494934,-0.16593626141548157
1782845410721995500,0.79899560546875,0.5385977625846863,-0.002083471277728677,-0.14983032643795013
1782845410731999700,0.808999755859375,0.4770406484603882,-0.01626027747988701,-0.12401311099529266
1782845410742005200,0.819005126953125,0.4123360514640808,-0.001702778972685337,-0.06788959354162216
1782845410752009500,0.829009521484375,0.34093591570854187,0.03520730137825012,0.005385952070355415
1782845410762014500,0.839014404296875,0.2801685929298401,0.03506362810730934,0.11089859157800674
1782845410772018200,0.84901806640625,0.23813697695732117,0.01278415322303772,0.207009956240654
1782845410782023200,0.859023193359375,0.21718184649944305,-0.0426979698240757,0.28245070576667786
1782845410792027100,0.869027099609375,0.21793551743030548,-0.12647196650505066,0.33863434195518494
1782845410802032000,0.8790322265625,0.21140682697296143,-0.18560591340065002,0.36942604184150696
1782845410812036400,0.889036376953125,0.18776248395442963,-0.20645685493946075,0.3771321475505829
1782845410822041300,0.899041259765625,0.1444520801305771,-0.19022302329540253,0.3645409941673279
1782845410832045300,0.90904541015625,0.09256623685359955,-0.15893299877643585,0.32257330417633057
1782845410842050300,0.91905029296875,0.040376465767621994,-0.10871186852455139,0.2525094747543335
1782845410852054300,0.92905419921875,-0.015917165204882622,-0.04883575439453125,0.17835906147956848
1782845410862059300,0.939059326171875,-0.07418942451477051,0.008913157507777214,0.11099819839000702
1782845410872063500,0.9490634765625,-0.12818020582199097,0.03851446136832237,0.07938887178897858
1782845410882068500,0.959068359375,-0.15889872610569,0.052856698632240295,0.0743880569934845
1782845410892072200,0.969072265625,-0.1707649677991867,0.0753505602478981,0.04419553279876709
1782845410902077200,0.9790771484375,-0.1631661057472229,0.09801774471998215,-0.026532895863056183
1782845410912081200,0.9890810546875,-0.14597247540950775,0.12113878130912781,-0.10555846989154816
1782845410922086100,0.999086181640625,-0.121794193983078,0.12318562716245651,-0.17498502135276794
1782845410932090400,1.00909033203125,-0.09188397228717804,0.11696874350309372,-0.2184286266565323
1782845410942095400,1.019095458984375,-0.06140126660466194,0.11140766739845276,-0.2510332465171814
1782845410952099300,1.029099365234375,-0.02631038799881935,0.08286496996879578,-0.25991034507751465
1782845410962104300,1.039104248046875,0.010354472324252129,0.03432503342628479,-0.2525436580181122
1782845410972108300,1.0491083984375,0.03322676569223404,-0.020201856270432472,-0.2247844785451889
1782845410982113300,1.05911328125,0.04253658652305603,-0.07505222409963608,-0.18520762026309967
1782845410992117500,1.069117431640625,0.03664913401007652,-0.10858568549156189,-0.13453778624534607
1782845411002122500,1.07912255859375,0.0374574139714241,-0.13201196491718292,-0.0717218890786171
1782845411012126200,1.089126220703125,0.038855042308568954,-0.14487609267234802,0.00635374104604125
1782845411022131200,1.099131103515625,0.03670485317707062,-0.14487986266613007,0.08265350759029388
1782845411032135200,1.10913525390625,0.024607710540294647,-0.12674853205680847,0.16001753509044647
1782845411042140200,1.11914013671875,-0.003468770068138838,-0.09750396013259888,0.21380800008773804
1782845411052144400,1.129144287109375,-0.02755839377641678,-0.06621713936328888,0.2471502423286438
1782845411062149400,1.1391494140625,-0.041564662009477615,-0.029519405215978622,0.2505512237548828
1782845411072153300,1.1491533203125,-0.05367138981819153,0.01451889332383871,0.23344574868679047
1782845411082158300,1.159158447265625,-0.07444246113300323,0.03807194158434868,0.20907123386859894
1782845411092162300,1.169162353515625,-0.09822635352611542,0.03020523115992546,0.17588771879673004
1782845411102167300,1.179167236328125,-0.1283036768436432,0.003432555589824915,0.138120636343956
1782845411112171300,1.189171142578125,-0.1446184664964676,-0.013374920934438705,0.10497839003801346
1782845411122176300,1.19917626953125,-0.15360844135284424,-0.03344300016760826,0.08054295182228088
1782845411132180200,1.20918017578125,-0.15491099655628204,-0.04311400279402733,0.06810466200113297
1782845411142185200,1.219185302734375,-0.15727335214614868,-0.021204257383942604,0.06539742648601532
1782845411152189200,1.229189208984375,-0.17378494143486023,0.0143825002014637,0.04855665937066078
1782845411162194200,1.239194091796875,-0.1922145038843155,0.033546242862939835,0.030322661623358727
1782845411172198400,1.249198486328125,-0.211680606007576,0.03753272816538811,-0.0024110509548336267
1782845411182203400,1.259203369140625,-0.2247656285762787,0.04205811023712158,-0.07080495357513428
1782845411192207400,1.269207275390625,-0.23812857270240784,0.04115449637174606,-0.16242355108261108
1782845411202212400,1.27921240234375,-0.2473311722278595,0.030596386641263962,-0.25880497694015503
1782845411212216300,1.28921630859375,-0.24564513564109802,0.02137306146323681,-0.338456928730011
1782845411222221300,1.29922119140625,-0.22160744667053223,-0.004532518330961466,-0.40244221687316895
1782845411232225300,1.309225341796875,-0.19108469784259796,-0.03673572838306427,-0.41557663679122925
1782845411242229200,1.319229248046875,-0.16058124601840973,-0.07951448857784271,-0.38823962211608887
1782845411252234200,1.329234130859375,-0.1298060268163681,-0.12567105889320374,-0.3329334855079651
1782845411262238200,1.33923828125,-0.11497215926647186,-0.1667679399251938,-0.27364134788513184
1782845411272243200,1.3492431640625,-0.10771317780017853,-0.19138406217098236,-0.21420465409755707
1782845411282247400,1.359247314453125,-0.1090448722243309,-0.19546234607696533,-0.1570042371749878
1782845411292252400,1.36925244140625,-0.13007105886936188,-0.1798495650291443,-0.10316123068332672
1782845411302256400,1.37925634765625,-0.16406139731407166,-0.1433766484260559,-0.05999305844306946
1782845411312261400,1.389261474609375,-0.20992262661457062,-0.10406546294689178,-0.029627691954374313
1782845411322265300,1.399265380859375,-0.26145049929618835,-0.058611154556274414,-0.018763992935419083
1782845411332270300,1.409270263671875,-0.3118087351322174,-0.015047967433929443,-0.022069241851568222
1782845411342274300,1.4192744140625,-0.36149317026138306,0.007348908111453056,-0.02521689608693123
1782845411352279300,1.429279296875,-0.4204113483428955,-0.0044169374741613865,-0.02998928166925907
1782845411362283300,1.439283203125,-0.4948924481868744,-0.028723381459712982,-0.026215247809886932
1782845411372288300,1.449288330078125,-0.5483032464981079,-0.06951262056827545,-0.016069138422608376
1782845411382292200,1.459292236328125,-0.5825471878051758,-0.11807700991630554,-0.017997466027736664
1782845411392297200,1.469297119140625,-0.6007884740829468,-0.14231762290000916,-0.04025616869330406
1782845411402301200,1.47930126953125,-0.5987240672111511,-0.16077275574207306,-0.060385603457689285
1782845411412306400,1.489306396484375,-0.580949068069458,-0.14585213363170624,-0.06782593578100204
1782845411422310400,1.499310302734375,-0.5608017444610596,-0.11365500837564468,-0.07453358173370361
1782845411432315400,1.5093154296875,-0.5419577360153198,-0.10735583305358887,-0.09508413076400757
1782845411442319400,1.5193193359375,-0.5202257633209229,-0.09465605765581131,-0.13518646359443665
1782845411452324400,1.529324462890625,-0.4928743243217468,-0.10721392929553986,-0.18241043388843536
1782845411462328300,1.539328369140625,-0.4456905424594879,-0.12112527340650558,-0.2265090048313141
1782845411472333300,1.549333251953125,-0.39566224813461304,-0.13822835683822632,-0.251661479473114
1782845411482337300,1.559337158203125,-0.3456175625324249,-0.17585474252700806,-0.24614621698856354
1782845411492342300,1.56934228515625,-0.3253546357154846,-0.21990981698036194,-0.20032919943332672
1782845411502346200,1.57934619140625,-0.3262430727481842,-0.26440107822418213,-0.11223029345273972
1782845411512351200,1.589351318359375,-0.34492728114128113,-0.342037558555603,-0.0013442549388855696
1782845411522355200,1.599355224609375,-0.3666875958442688,-0.4047659635543823,0.1426568627357483
1782845411532360200,1.609360107421875,-0.38012057542800903,-0.3849746882915497,0.28712189197540283
1782845411542364400,1.619364501953125,-0.39988237619400024,-0.2991977035999298,0.4245776832103729
1782845411552369400,1.629369384765625,-0.40242624282836914,-0.22757519781589508,0.5334948301315308
1782845411562373400,1.639373291015625,-0.38760536909103394,-0.17700056731700897,0.6284905672073364
1782845411572378400,1.64937841796875,-0.37235182523727417,-0.1576058268547058,0.6840411424636841
1782845411582382000,1.659382080078125,-0.36969801783561707,-0.14136183261871338,0.6870610117912292
1782845411592387000,1.669386962890625,-0.409265398979187,-0.1581176519393921,0.5937275886535645
1782845411602391300,1.679391357421875,-0.4896409213542938,-0.06944906711578369,0.4323255717754364
1782845411612396300,1.689396240234375,-0.5900503396987915,-0.0036261137574911118,0.21952593326568604
1782845411622400300,1.699400146484375,-0.6938266158103943,0.05720110982656479,-0.024022003635764122
1782845411632405200,1.7094052734375,-0.7893137335777283,-0.008115844801068306,-0.261393278837204
1782845411642409200,1.7194091796875,-0.865774929523468,-0.10448206961154938,-0.433428019285202
1782845411652414200,1.729414306640625,-0.8884597420692444,-0.21384531259536743,-0.5132770538330078
1782845411662418400,1.73941845703125,-0.8545788526535034,-0.2901120185852051,-0.5466059446334839
1782845411672423400,1.74942333984375,-0.7693425416946411,-0.27555039525032043,-0.5572306513786316
1782845411682427400,1.759427490234375,-0.6248704195022583,-0.1995343267917633,-0.5234472751617432
1782845411692432400,1.769432373046875,-0.41453662514686584,-0.13674791157245636,-0.43347403407096863
1782845411702436000,1.77943603515625,-0.18890714645385742,-0.05515561252832413,-0.29630160331726074
1782845411712441000,1.789441162109375,0.010297299362719059,0.006059008650481701,-0.12910355627536774
1782845411722445300,1.7994453125,0.14654311537742615,0.07843687385320663,0.029606325551867485
1782845411732450300,1.8094501953125,0.22312603890895844,0.15482059121131897,0.16122721135616302
1782845411742453500,1.81945361328125,0.24342286586761475,0.17912594974040985,0.269062876701355
1782845411752458500,1.82945849609375,0.22047492861747742,0.22803491353988647,0.3413008451461792
1782845411762462700,1.839462646484375,0.19126547873020172,0.22762756049633026,0.3536599576473236
1782845411772467700,1.8494677734375,0.16482456028461456,0.1618293672800064,0.2911561131477356
1782845411782471700,1.8594716796875,0.1421019285917282,0.09506179392337799,0.22722773253917694
1782845411792476700,1.8694765625,0.14236745238304138,0.08048578351736069,0.22354191541671753
1782845411802480400,1.87948046875,0.14257892966270447,0.08074165880680084,0.21490561962127686
1782845411812485400,1.8894853515625,0.13779430091381073,0.08224421739578247,0.2209877371788025
1782845411822489600,1.899489501953125,0.12922260165214539,0.11158517003059387,0.22126631438732147
1782845411832494600,1.90949462890625,0.1430116593837738,0.14082081615924835,0.21482519805431366
1782845411842498600,1.91949853515625,0.1631009429693222,0.16691100597381592,0.20462235808372498
1782845411852503600,1.929503662109375,0.18542781472206116,0.1820095181465149,0.19857458770275116
1782845411862507500,1.939507568359375,0.20524859428405762,0.1905333399772644,0.1918216049671173
1782845411872512500,1.949512451171875,0.21470972895622253,0.19645167887210846,0.17480160295963287
1782845411882516700,1.959516845703125,0.19898785650730133,0.20597372949123383,0.13685142993927002
1782845411892521700,1.969521728515625,0.1877804696559906,0.20433294773101807,0.08896593749523163
1782845411902525400,1.979525390625,0.18046775460243225,0.18191595375537872,0.04892650246620178
1782845411912530400,1.989530517578125,0.1807231605052948,0.15733444690704346,0.009374033659696579
1782845411922534400,1.999534423828125,0.1860075742006302,0.14661957323551178,-0.034739233553409576
1782845411932539400,2.009539306640625,0.19715343415737152,0.145126074552536,-0.07117979973554611
1782845411942543600,2.019543701171875,0.20349782705307007,0.14453835785388947,-0.09186556935310364
1782845411952548600,2.029548583984375,0.21228864789009094,0.13410036265850067,-0.09788671135902405
1782845411962552600,2.039552490234375,0.21830831468105316,0.11653700470924377,-0.11242517083883286
1782845411972557600,2.0495576171875,0.22100743651390076,0.097653329372406,-0.13544179499149323
1782845411982561500,2.0595615234375,0.2221609205007553,0.07986810803413391,-0.16319407522678375
1782845411992566500,2.06956640625,0.20308655500411987,0.06230349838733673,-0.17393434047698975
1782845412002570800,2.07957080078125,0.17713969945907593,0.030936211347579956,-0.15755996108055115
1782845412012575700,2.08957568359375,0.13972707092761993,-0.0011793805751949549,-0.12904256582260132
1782845412022579500,2.099579345703125,0.09868966042995453,-0.032197799533605576,-0.10006064921617508
1782845412032584400,2.10958447265625,0.05687696859240532,-0.03782825171947479,-0.09510104358196259
1782845412042588400,2.11958837890625,0.011676046997308731,-0.03969068452715874,-0.0923159047961235
1782845412052593400,2.129593505859375,-0.03606564179062843,-0.04736804589629173,-0.09575697779655457
1782845412062597600,2.13959765625,-0.07566992938518524,-0.058055125176906586,-0.09572900831699371
1782845412072602600,2.1496025390625,-0.0934867411851883,-0.04579579457640648,-0.10493289679288864
1782845412082606600,2.159606689453125,-0.10387885570526123,-0.08111819624900818,-0.12369832396507263
1782845412092611600,2.169611572265625,-0.10465330630540848,-0.08738541603088379,-0.11911236494779587
1782845412102615600,2.179615478515625,-0.10092531889677048,-0.0786338746547699,-0.10125913470983505
1782845412112620500,2.18962060546875,-0.08868835866451263,-0.06282881647348404,-0.08167185634374619
1782845412122624500,2.19962451171875,-0.08212515711784363,-0.04039283096790314,-0.0664452314376831
1782845412132629800,2.209629638671875,-0.0695853903889656,-0.016314923763275146,-0.05352570116519928
1782845412142633500,2.219633544921875,-0.055452778935432434,0.007621838711202145,-0.05782284215092659
1782845412152638500,2.229638427734375,-0.05026068165898323,0.012809144333004951,-0.06709863245487213
1782845412162642400,2.239642333984375,-0.047608353197574615,0.014866290614008904,-0.09151429682970047
1782845412172647400,2.2496474609375,-0.04371214658021927,0.016425838693976402,-0.12112438678741455
1782845412182651400,2.2596513671875,-0.04173198342323303,0.019392570480704308,-0.15138661861419678
1782845412192656600,2.26965673828125,-0.033385638147592545,0.009527955204248428,-0.18731266260147095
1782845412202660600,2.27966064453125,-0.020927798002958298,0.0037639355286955833,-0.22980999946594238
1782845412212665600,2.28966552734375,-0.009352101013064384,-0.00047421897761523724,-0.2647378742694855
1782845412222669600,2.299669677734375,0.0005218533333390951,-0.006011725403368473,-0.28827130794525146
1782845412232674600,2.309674560546875,0.006215425208210945,-0.022060466930270195,-0.28419721126556396
1782845412242678500,2.319678466796875,0.00877808965742588,-0.03734692186117172,-0.25955188274383545
1782845412252683500,2.32968359375,0.006639838218688965,-0.045659713447093964,-0.21697114408016205
1782845412262687500,2.3396875,0.001342839328572154,-0.050425756722688675,-0.17412535846233368
1782845412272692500,2.3496923828125,-0.001617796951904893,-0.053980544209480286,-0.12544463574886322
1782845412282696400,2.359696533203125,-0.011821603402495384,-0.037998735904693604,-0.09226204454898834
1782845412292701400,2.369701416015625,-0.01734153740108013,-0.018442343920469284,-0.05311251059174538
1782845412302705400,2.379705322265625,-0.02224990539252758,0.016170088201761246,-0.0047355955466628075
1782845412312710400,2.38971044921875,-0.016180027276277542,0.043297309428453445,0.03967980667948723
1782845412322714600,2.399714599609375,0.004633412696421146,0.07688377797603607,0.05060702934861183
1782845412332719600,2.4097197265625,0.029256198555231094,0.1123187318444252,0.031675148755311966
1782845412342723600,2.4197236328125,0.05608529597520828,0.132963165640831,0.014047485776245594
1782845412352728600,2.429728515625,0.07957251369953156,0.1359267383813858,0.004486737307161093
1782845412362732500,2.439732666015625,0.112791508436203,0.12838296592235565,-0.013985617086291313
1782845412372737500,2.449737548828125,0.14857640862464905,0.1172964870929718,-0.04170406609773636
1782845412382741500,2.459741455078125,0.18021447956562042,0.10837255418300629,-0.07646436989307404
1782845412392746500,2.46974658203125,0.2161647528409958,0.10408460348844528,-0.09876834601163864
1782845412402750500,2.47975048828125,0.2507116496562958,0.09496425092220306,-0.10103349387645721
1782845412412755500,2.48975537109375,0.2874904274940491,0.08721232414245605,-0.09648721665143967
1782845412422759400,2.499759521484375,0.3162238895893097,0.08529741317033768,-0.0947127491235733
1782845412432764400,2.509764404296875,0.3347485661506653,0.09509970992803574,-0.09144771099090576
1782845412442768600,2.5197685546875,0.34937891364097595,0.1076173186302185,-0.08776982873678207
1782845412452773600,2.529773681640625,0.3491232693195343,0.11244189739227295,-0.0752716138958931
1782845412462777600,2.539777587890625,0.3394935429096222,0.12663021683692932,-0.06816782802343369
1782845412472782600,2.549782470703125,0.3157229721546173,0.14052020013332367,-0.04611791670322418
1782845412482786600,2.55978662109375,0.2868489623069763,0.14587922394275665,-0.019698496907949448
1782845412492791600,2.56979150390625,0.25239112973213196,0.14854717254638672,0.01758549176156521
1782845412502795500,2.57979541015625,0.2280748337507248,0.1451098769903183,0.045803483575582504
1782845412512800500,2.589800537109375,0.22042064368724823,0.14152312278747559,0.07904559373855591
1782845412522804500,2.599804443359375,0.21787983179092407,0.13969287276268005,0.1130310520529747
1782845412532809500,2.6098095703125,0.21573172509670258,0.13334868848323822,0.15198484063148499
1782845412542813400,2.6198134765625,0.22392180562019348,0.12095083296298981,0.172998309135437
1782845412552818400,2.629818359375,0.23029634356498718,0.11891164630651474,0.18063172698020935
1782845412562822700,2.63982275390625,0.24474063515663147,0.13097700476646423,0.17136938869953156
1782845412572827600,2.64982763671875,0.26245996356010437,0.14195802807807922,0.15308119356632233
1782845412582831600,2.65983154296875,0.28557804226875305,0.1554507166147232,0.13979089260101318
1782845412592836600,2.669836669921875,0.314230740070343,0.16082312166690826,0.138030007481575
1782845412602840300,2.67984033203125,0.3541885316371918,0.16477178037166595,0.1414179652929306
1782845412612845300,2.68984521484375,0.40958520770072937,0.17061689496040344,0.1472497582435608
1782845412622849500,2.699849609375,0.4593924283981323,0.16868209838867188,0.1450224071741104
1782845412632853500,2.709853515625,0.49822795391082764,0.16005079448223114,0.12277355790138245
1782845412642858500,2.7198583984375,0.5063503980636597,0.14640018343925476,0.0653739869594574
1782845412652862500,2.729862548828125,0.49811723828315735,0.1309991180896759,-0.04334290698170662
1782845412662867500,2.739867431640625,0.47523292899131775,0.1389811933040619,-0.19489042460918427
1782845412672871700,2.74987158203125,0.4719167649745941,0.1487419456243515,-0.33412447571754456
1782845412682876700,2.759876708984375,0.48631200194358826,0.13887590169906616,-0.4189645051956177
1782845412692880600,2.769880615234375,0.5135295391082764,0.11257532238960266,-0.4592972993850708
1782845412702885600,2.7798857421875,0.535081148147583,0.06305037438869476,-0.4718834161758423
1782845412712890600,2.789890625,0.5512853860855103,-0.0015304817352443933,-0.4626092314720154
1782845412722894300,2.799894287109375,0.5665407776832581,-0.06772329658269882,-0.4234493672847748
1782845412732898600,2.809898681640625,0.5804376602172852,-0.13491110503673553,-0.3562982976436615
1782845412742904000,2.819904052734375,0.5936038494110107,-0.18988493084907532,-0.2802342176437378
1782845412752908000,2.829907958984375,0.6002188920974731,-0.23573949933052063,-0.19488896429538727
1782845412762913000,2.8399130859375,0.6112401485443115,-0.2567842900753021,-0.10403114557266235
1782845412772916700,2.849916748046875,0.609714925289154,-0.24845632910728455,-0.013050909154117107
1782845412782922000,2.859921875,0.5972532033920288,-0.25112247467041016,0.08078444004058838
1782845412792926000,2.869926025390625,0.5614550113677979,-0.24631305038928986,0.17979463934898376
1782845412802931000,2.879930908203125,0.5079880356788635,-0.23334479331970215,0.26994529366493225
1782845412812935000,2.889934814453125,0.4481121897697449,-0.20647935569286346,0.3345104455947876
1782845412822940000,2.89993994140625,0.37275344133377075,-0.16481037437915802,0.3999905288219452
1782845412832943900,2.90994384765625,0.2910631000995636,-0.12960205972194672,0.46322330832481384
1782845412842948900,2.919948974609375,0.2097383588552475,-0.10194189846515656,0.4985025227069855
1782845412852952800,2.929952880859375,0.13119640946388245,-0.08363000303506851,0.4992636442184448
1782845412862958000,2.9399580078125,0.05230167508125305,-0.061004143208265305,0.4636547863483429
1782845412872962000,2.949962158203125,-0.018453720957040787,-0.030649695545434952,0.39648693799972534
1782845412882967000,2.959967041015625,-0.09064768999814987,-0.007217115722596645,0.33030930161476135
1782845412892970800,2.969970703125,-0.15439258515834808,0.005188421346247196,0.29276272654533386
1782845412902975700,2.979975830078125,-0.2040369212627411,0.02390861324965954,0.24868881702423096
1782845412912980000,2.98997998046875,-0.23450535535812378,0.03382835537195206,0.19947358965873718
1782845412922985000,2.99998486328125,-0.2311486303806305,0.03218115121126175,0.1488240659236908
1782845412932989000,3.009989013671875,-0.2004900425672531,0.013555269688367844,0.09851163625717163
1782845412942994000,3.019993896484375,-0.15313085913658142,0.007089206948876381,0.0496642030775547
1782845412952998000,3.029997802734375,-0.09320522099733353,0.0020606257021427155,-0.004835259169340134
1782845412963003000,3.0400029296875,-0.03126361221075058,-0.007979129441082478,-0.05598539113998413
1782845412973006800,3.0500068359375,0.02542976103723049,-0.026057465001940727,-0.09228241443634033
1782845412983011800,3.06001171875,0.07084072381258011,-0.04724513366818428,-0.1117333471775055
1782845412993016000,3.07001611328125,0.10258587449789047,-0.071993887424469,-0.11055409908294678
1782845413003021000,3.08002099609375,0.1302090734243393,-0.09384766221046448,-0.07518099248409271
1782845413013024800,3.090024658203125,0.15505290031433105,-0.12002600729465485,-0.0073556117713451385
1782845413023029800,3.10002978515625,0.16694864630699158,-0.12835383415222168,0.06885494291782379
1782845413033033700,3.11003369140625,0.1694709211587906,-0.15026339888572693,0.1418689638376236
1782845413043038700,3.120038818359375,0.16184797883033752,-0.1473531723022461,0.2174120545387268
1782845413053043000,3.13004296875,0.15456317365169525,-0.14458614587783813,0.2834365963935852
1782845413063048000,3.1400478515625,0.13120704889297485,-0.13045236468315125,0.34517088532447815
1782845413073052000,3.150052001953125,0.10109362006187439,-0.10255682468414307,0.39217567443847656
1782845413083057000,3.160056884765625,0.06566490232944489,-0.07524033635854721,0.4300207793712616
1782845413093060900,3.170060791015625,0.035941362380981445,-0.024165695533156395,0.4518091678619385
1782845413103065900,3.18006591796875,-0.008429364301264286,0.02790127322077751,0.46178850531578064
1782845413113070000,3.190070068359375,-0.06286943703889847,0.07248631864786148,0.4604947566986084
1782845413123075000,3.200074951171875,-0.12237235903739929,0.11045949906110764,0.450985848903656
1782845413133078800,3.210078857421875,-0.18028439581394196,0.1289958953857422,0.4296025335788727
1782845413143083800,3.220083740234375,-0.22482790052890778,0.14955678582191467,0.39966443181037903
1782845413153087700,3.230087646484375,-0.2666533887386322,0.16714243590831757,0.37491273880004883
1782845413163092700,3.2400927734375,-0.29817986488342285,0.1772555112838745,0.33702436089515686
1782845413173097000,3.250096923828125,-0.3257153630256653,0.1820068657398224,0.2914659380912781
1782845413183102000,3.26010205078125,-0.3560490012168884,0.18606127798557281,0.2547602355480194
1782845413193106000,3.27010595703125,-0.3844742476940155,0.17440062761306763,0.2115405797958374
1782845413203111000,3.28011083984375,-0.4075188934803009,0.15000206232070923,0.16718736290931702
1782845413213115000,3.290114990234375,-0.4206298887729645,0.12808717787265778,0.12033464014530182
1782845413223120000,3.300119873046875,-0.4222696125507355,0.09747125208377838,0.07470184564590454
1782845413233124000,3.3101240234375,-0.4122984707355499,0.06861137598752975,0.022839177399873734
1782845413243129000,3.320129150390625,-0.3859761953353882,0.04401828721165657,-0.03489116206765175
1782845413253132800,3.3301328125,-0.35501614212989807,0.032553113996982574,-0.07507586479187012
1782845413263137800,3.3401376953125,-0.3207560181617737,0.03344668447971344,-0.10775472223758698
1782845413273141800,3.350141845703125,-0.2771880328655243,0.04495047777891159,-0.14637188613414764
1782845413283146800,3.360146728515625,-0.23579421639442444,0.05110584944486618,-0.17945952713489532
1782845413293151000,3.37015087890625,-0.1910877227783203,0.059129152446985245,-0.21330749988555908
1782845413303156000,3.380156005859375,-0.14948207139968872,0.05437123402953148,-0.24635814130306244
1782845413313160000,3.390159912109375,-0.12490668892860413,0.04660492390394211,-0.2782215178012848
1782845413323165000,3.4001650390625,-0.11093298345804214,0.027346186339855194,-0.3081907629966736
1782845413333169000,3.4101689453125,-0.10386282950639725,-0.003886566497385502,-0.3416525721549988
1782845413343174000,3.420173828125,-0.10506623238325119,-0.036890678107738495,-0.3648329973220825
1782845413353178000,3.43017822265625,-0.11220324039459229,-0.0650717169046402,-0.3880634605884552
1782845413363183000,3.44018310546875,-0.12718166410923004,-0.08926888555288315,-0.4001016914844513
1782845413373186800,3.450186767578125,-0.15336240828037262,-0.10681991279125214,-0.3968696594238281
1782845413383191800,3.46019189453125,-0.1818690299987793,-0.12094306200742722,-0.3730154037475586
1782845413393195800,3.47019580078125,-0.21456760168075562,-0.13039381802082062,-0.3361942768096924
1782845413403200800,3.48020068359375,-0.2456873506307602,-0.13378843665122986,-0.2866675555706024
1782845413413205000,3.490205078125,-0.27752676606178284,-0.12962111830711365,-0.2287515103816986
1782845413423210000,3.5002099609375,-0.30056464672088623,-0.13465826213359833,-0.16669073700904846
1782845413433214000,3.5102138671875,-0.3148602247238159,-0.139000803232193,-0.09410042315721512
1782845413443219000,3.520218994140625,-0.31610000133514404,-0.15375733375549316,-0.03292755037546158
1782845413453223000,3.530222900390625,-0.2959268093109131,-0.17758357524871826,0.03614738956093788
1782845413463228000,3.540227783203125,-0.34581056237220764,-0.17872832715511322,0.11618131399154663
1782845413473232100,3.550232177734375,-0.37763160467147827,-0.22762875258922577,0.17452718317508698
1782845413483237000,3.560237060546875,-0.3631713390350342,-0.22471784055233002,0.22599540650844574
1782845413493240800,3.57024072265625,-0.36040857434272766,-0.1937101185321808,0.2805135250091553
1782845413503245800,3.580245849609375,-0.3567674160003662,-0.19884927570819855,0.3025360703468323
1782845413513249800,3.590249755859375,-0.3333694040775299,-0.18841953575611115,0.2884615361690521
1782845413523254800,3.6002548828125,-0.2992602288722992,-0.15450578927993774,0.24847975373268127
1782845413533259000,3.610259033203125,-0.27122753858566284,-0.12977434694766998,0.18795782327651978
1782845413543264000,3.620263916015625,-0.2667059302330017,-0.12400677055120468,0.1069360077381134
1782845413553268000,3.63026806640625,-0.29740604758262634,-0.12836076319217682,0.012037193402647972
1782845413563273000,3.64027294921875,-0.3411644697189331,-0.14121979475021362,-0.07479164004325867
1782845413573277000,3.65027685546875,-0.37278473377227783,-0.1707867532968521,-0.14256402850151062
1782845413583282000,3.660281982421875,-0.3795933723449707,-0.19508276879787445,-0.17739272117614746
1782845413593286000,3.670285888671875,-0.3588270843029022,-0.23411644995212555,-0.1862940788269043
1782845413603291000,3.680290771484375,-0.32462120056152344,-0.2857644259929657,-0.1730804592370987
1782845413613294800,3.690294921875,-0.2779668867588043,-0.3186613917350769,-0.15177278220653534
1782845413623299800,3.7002998046875,-0.22902649641036987,-0.3339322507381439,-0.11472747474908829
1782845413633303800,3.7103037109375,-0.19208233058452606,-0.32573315501213074,-0.061682894825935364
1782845413643308800,3.720308837890625,-0.1731150895357132,-0.2964327335357666,-0.017357375472784042
1782845413653313000,3.73031298828125,-0.17248497903347015,-0.247688889503479,-0.02727711759507656
1782845413663318000,3.740318115234375,-0.1708371639251709,-0.16725195944309235,-0.10417462885379791
1782845413673322000,3.750322021484375,-0.16613855957984924,-0.0921630784869194,-0.24058067798614502
1782845413683327000,3.760326904296875,-0.15136747062206268,-0.05522969737648964,-0.41312137246131897
1782845413693331000,3.7703310546875,-0.1385379582643509,-0.04885435849428177,-0.5808511972427368
1782845413703336000,3.7803359375,-0.1288166344165802,-0.06809436529874802,-0.6880976557731628
1782845413713340000,3.79033984375,-0.10105238109827042,-0.10956431180238724,-0.7052209973335266
1782845413723345000,3.800344970703125,-0.054515473544597626,-0.15339353680610657,-0.6162905693054199
1782845413733348900,3.810348876953125,-0.00024690618738532066,-0.1989642232656479,-0.48997658491134644
1782845413743353900,3.820353759765625,0.05377580225467682,-0.23041370511054993,-0.36709508299827576
1782845413753357800,3.83035791015625,0.08917054533958435,-0.23581646382808685,-0.27865469455718994
1782845413763362800,3.84036279296875,0.10656291991472244,-0.21795740723609924,-0.20570139586925507
1782845413773367000,3.850366943359375,0.11658386886119843,-0.20415984094142914,-0.13416622579097748
1782845413783372000,3.8603720703125,0.11661628633737564,-0.19066709280014038,-0.05137386545538902
1782845413793376000,3.8703759765625,0.11883256584405899,-0.18867957592010498,0.04288472607731819
1782845413803381000,3.880381103515625,0.1207861676812172,-0.19915689527988434,0.14859050512313843
1782845413813385000,3.890385009765625,0.11102940887212753,-0.20521904528141022,0.2585841417312622
1782845413823390000,3.900389892578125,0.08139152079820633,-0.1979711800813675,0.34428346157073975
1782845413833394000,3.910393798828125,0.04429183155298233,-0.17131666839122772,0.39998480677604675
1782845413843399000,3.92039892578125,0.00978097040206194,-0.1444578915834427,0.4248436689376831
1782845413853403000,3.93040283203125,-0.023782582953572273,-0.10375280678272247,0.4201306700706482
1782845413863407900,3.940407958984375,-0.05249826982617378,-0.0485098734498024,0.38080963492393494
1782845413873411800,3.950411865234375,-0.07931576669216156,0.006325145717710257,0.33057844638824463
1782845413883416800,3.960416748046875,-0.0947963073849678,0.053232282400131226,0.304000586271286
1782845413893421000,3.970421142578125,-0.126939058303833,0.09431900084018707,0.2914195656776428
1782845413903426000,3.980426025390625,-0.15625286102294922,0.12153157591819763,0.2745234966278076
1782845413913430000,3.990429931640625,-0.17376872897148132,0.1341557651758194,0.25687018036842346
1782845413923435000,4.00043505859375,-0.1835155189037323,0.1378718614578247,0.2283712923526764
1782845413933439000,4.01043896484375,-0.17556998133659363,0.13278068602085114,0.18540892004966736
1782845413943444000,4.02044384765625,-0.1598896086215973,0.1190609261393547,0.13677740097045898
1782845413953448000,4.030447998046875,-0.12617026269435883,0.11206959187984467,0.06674958020448685
1782845413963453000,4.040452880859375,-0.06555507332086563,0.09374434500932693,-0.038246143609285355
1782845413973457000,4.050456787109375,-0.003068525344133377,0.07456719130277634,-0.14507272839546204
1782845413983462000,4.0604619140625,0.05545337125658989,0.05123496428132057,-0.2324284017086029
1782845413993465900,4.0704658203125,0.11564560979604721,0.046151790767908096,-0.2894868850708008
1782845414003470800,4.080470947265625,0.1744241714477539,0.053579919040203094,-0.313029021024704
1782845414013474800,4.090474853515625,0.21926487982273102,0.06465840339660645,-0.3089088499546051
1782845414023479000,4.10047900390625,0.2424238622188568,0.08314406871795654,-0.2891089916229248
1782845414033484000,4.110484130859375,0.256454199552536,0.11505859345197678,-0.2672561705112457
1782845414043489000,4.120489013671875,0.2528159022331238,0.13462874293327332,-0.24010123312473297
1782845414053493000,4.130492919921875,0.2415882796049118,0.14731845259666443,-0.21348640322685242
1782845414063496700,4.14049658203125,0.22371535003185272,0.14520913362503052,-0.1976483166217804
1782845414073502000,4.150501953125,0.2000076323747635,0.1430296003818512,-0.18943193554878235
1782845414083506000,4.160505859375,0.17872218787670135,0.13522827625274658,-0.20077213644981384
1782845414093511000,4.170510986328125,0.16710148751735687,0.11733715236186981,-0.22293949127197266
1782845414103515000,4.180514892578125,0.15678934752941132,0.08886996656656265,-0.24636472761631012
1782845414113519900,4.190519775390625,0.1434306651353836,0.053009435534477234,-0.2494811713695526
1782845414123523800,4.20052392578125,0.11502762883901596,0.014726357534527779,-0.23087410628795624
1782845414133528800,4.21052880859375,0.06710510700941086,-0.004617512691766024,-0.19523489475250244
1782845414143533000,4.220532958984375,0.014772189781069756,-0.0070016710087656975,-0.16005201637744904
1782845414153538000,4.2305380859375,-0.03885455057024956,-0.0010021012276411057,-0.11940072476863861
1782845414163541800,4.240541748046875,-0.07937972247600555,0.010016387328505516,-0.07093092054128647
1782845414173547000,4.250547119140625,-0.10688138753175735,0.031192777678370476,-0.026610061526298523
1782845414183550700,4.26055078125,-0.12512151896953583,0.06373348832130432,0.009488953277468681
1782845414193555700,4.2705556640625,-0.13124944269657135,0.09490072727203369,0.04313186556100845
1782845414203560000,4.280559814453125,-0.12851738929748535,0.11927086859941483,0.06526633352041245
1782845414213565000,4.29056494140625,-0.11157197505235672,0.12741535902023315,0.07188455760478973
1782845414223569000,4.30056884765625,-0.08053894340991974,0.1250304877758026,0.05630279704928398
1782845414233574000,4.310573974609375,-0.04350901395082474,0.11104889959096909,0.01790347695350647
1782845414243577900,4.320577880859375,-0.013726219534873962,0.09614113718271255,-0.028576010838150978
1782845414253582800,4.330582763671875,0.009284823201596737,0.07328615337610245,-0.06064579635858536
1782845414263587000,4.340587158203125,0.023347968235611916,0.0586603507399559,-0.09533359855413437
1782845414273592000,4.350592041015625,0.0359356664121151,0.0522831454873085,-0.1179981678724289
1782845414283595800,4.360595703125,0.05625161901116371,0.05111850053071976,-0.1288595348596573
1782845414293600800,4.370600830078125,0.08153647184371948,0.05084419250488281,-0.14128583669662476
1782845414303604700,4.380604736328125,0.11162316054105759,0.05064128711819649,-0.15680550038814545
1782845414313609700,4.390609619140625,0.12458875775337219,0.05193158984184265,-0.1637081354856491
1782845414323614000,4.400614013671875,0.13430340588092804,0.046914830803871155,-0.18782678246498108
1782845414333619000,4.410618896484375,0.13465574383735657,0.03910564258694649,-0.22300873696804047
1782845414343623000,4.420622802734375,0.12103347480297089,0.027386842295527458,-0.25113677978515625
1782845414353628000,4.4306279296875,0.10486302524805069,0.013755718246102333,-0.26892057061195374
1782845414363631900,4.4406318359375,0.08528231084346771,0.004226482938975096,-0.2698964774608612
1782845414373636900,4.450636962890625,0.054370731115341187,-0.009578012861311436,-0.25621020793914795
1782845414383641000,4.46064111328125,0.02124757133424282,-0.014154035598039627,-0.2346464842557907
1782845414393646000,4.47064599609375,0.005862756632268429,-0.02595396898686886,-0.21525174379348755
1782845414403649800,4.48064990234375,-0.006667711306363344,-0.03888196870684624,-0.18897387385368347
1782845414413654800,4.49065478515625,-0.01600981503725052,-0.05190189927816391,-0.1488003432750702
1782845414423658800,4.50065869140625,-0.03712588548660278,-0.0451497957110405,-0.10497177392244339
1782845414433663700,4.510663818359375,-0.04543042182922363,-0.037628233432769775,-0.06299902498722076
1782845414443668000,4.52066796875,-0.045177705585956573,-0.04832082986831665,-0.0176982581615448
1782845414453673000,4.5306728515625,-0.033520784229040146,-0.044129278510808945,0.018120191991329193
1782845414463677000,4.540677001953125,-0.011806707829236984,-0.021096721291542053,0.035679008811712265
1782845414473682000,4.550681884765625,0.009387793019413948,0.009199665859341621,0.04954049363732338
1782845414483686000,4.560685791015625,0.035750050097703934,0.031719230115413666,0.06153051555156708
1782845414493691000,4.57069091796875,0.06696656346321106,0.0464334599673748,0.08045946061611176
1782845414503695000,4.580695068359375,0.10854445397853851,0.0651005357503891,0.08727143704891205
1782845414513700000,4.5907001953125,0.1533217877149582,0.07133392989635468,0.07914426922798157
1782845414523703800,4.600703857421875,0.19518455862998962,0.07258689403533936,0.06667260825634003
1782845414533708800,4.610708740234375,0.22692358493804932,0.06762542575597763,0.05755021795630455
1782845414543712800,4.620712646484375,0.25860437750816345,0.05652022361755371,0.057609472423791885
1782845414553717800,4.6307177734375,0.28218454122543335,0.03815799206495285,0.05936316400766373
1782845414563722000,4.640721923828125,0.2983555197715759,0.03144554793834686,0.05932648479938507
1782845414573727000,4.65072705078125,0.30970537662506104,0.037526343017816544,0.055615104734897614
1782845414583731000,4.66073095703125,0.3126603364944458,0.04799286648631096,0.04874953627586365
1782845414593736000,4.67073583984375,0.30610787868499756,0.04943949356675148,0.04411190748214722
1782845414603740000,4.680739990234375,0.2958187460899353,0.05181535333395004,0.037205733358860016
1782845414613745000,4.690744873046875,0.2839314341545105,0.06338092684745789,0.03865182772278786
1782845414623749000,4.7007490234375,0.27595311403274536,0.07541068643331528,0.04603424295783043
1782845414633754000,4.710754150390625,0.27843090891838074,0.08003047108650208,0.058653634041547775
1782845414643757800,4.7207578125,0.27976033091545105,0.07805018872022629,0.08022662997245789
1782845414653762800,4.7307626953125,0.2814948558807373,0.06574984639883041,0.090995654463768
1782845414663766800,4.740766845703125,0.2856656014919281,0.05472627282142639,0.09364304691553116
1782845414673771800,4.750771728515625,0.2893841862678528,0.04786490276455879,0.09762473404407501
1782845414683776000,4.76077587890625,0.284586638212204,0.05356628820300102,0.10673101991415024
1782845414693781000,4.770781005859375,0.28586363792419434,0.05896371603012085,0.13223902881145477
1782845414703785000,4.780784912109375,0.287221223115921,0.07184183597564697,0.16105836629867554
1782845414713790000,4.7907900390625,0.2880244255065918,0.09288187325000763,0.2014007270336151
1782845414723794000,4.8007939453125,0.285835862159729,0.10502929985523224,0.2477611005306244
1782845414733799000,4.810798828125,0.29434865713119507,0.11067653447389603,0.2907000482082367
1782845414743803600,4.8208037109375,0.30898648500442505,0.10625457763671875,0.31787917017936707
1782845414753808600,4.83080859375,0.31417328119277954,0.11362913250923157,0.3167276084423065
1782845414763812900,4.840812744140625,0.2879745066165924,0.1188715398311615,0.2769211232662201
1782845414773817900,4.85081787109375,0.24694663286209106,0.12587670981884003,0.19371812045574188
1782845414783821800,4.86082177734375,0.21971747279167175,0.13930219411849976,0.0645519345998764
1782845414793826800,4.870826904296875,0.19758713245391846,0.1441190540790558,-0.06943302601575851
1782845414803830800,4.880830810546875,0.19511012732982635,0.12640897929668427,-0.18485809862613678
1782845414813835800,4.890835693359375,0.20283222198486328,0.10150469839572906,-0.2776261270046234
1782845414823840000,4.900840087890625,0.2130327969789505,0.06570347398519516,-0.33442389965057373
1782845414833845000,4.910844970703125,0.2271491438150406,0.014464255422353745,-0.32917320728302
1782845414843848700,4.9208486328125,0.23368790745735168,-0.04039916768670082,-0.2738252580165863
1782845414853853700,4.930853759765625,0.236801415681839,-0.08386541903018951,-0.17964895069599152
1782845414863857700,4.940857666015625,0.23420825600624084,-0.09861215204000473,-0.07079383730888367
1782845414873862700,4.950862548828125,0.223921000957489,-0.1020665392279625,0.0445958711206913
1782845414883867000,4.960866943359375,0.2138058841228485,-0.09419006109237671,0.16974538564682007
1782845414893871900,4.970871826171875,0.20783375203609467,-0.07748245447874069,0.2981095016002655
1782845414903875800,4.980875732421875,0.19793890416622162,-0.06171752139925957,0.4074917733669281
1782845414913880800,4.990880859375,0.18213170766830444,-0.04763978719711304,0.4798416197299957
1782845414923884800,5.000884765625,0.16416095197200775,-0.015106027945876122,0.50771164894104
1782845414933889800,5.010889892578125,0.13835279643535614,0.02509678527712822,0.5030180811882019
1782845414943893800,5.020893798828125,0.11460340023040771,0.05361591652035713,0.4681278467178345
1782845414953899000,5.03089892578125,0.09125253558158875,0.06582916527986526,0.41656744480133057
1782845414963902700,5.04090283203125,0.05473318696022034,0.06424561142921448,0.3648698329925537
1782845414973907700,5.05090771484375,0.005962453782558441,0.04676009342074394,0.3300838768482208
1782845414983911700,5.06091162109375,-0.045278239995241165,0.022092429921030998,0.2945766746997833
1782845414993916700,5.070916748046875,-0.10357217490673065,0.005321705713868141,0.2430516928434372
1782845415003921000,5.0809208984375,-0.16045068204402924,-0.007262751925736666,0.17828263342380524
1782845415013926000,5.09092578125,-0.2188364863395691,-0.009806070476770401,0.11955539882183075
1782845415023929900,5.100929931640625,-0.2723827064037323,-0.0036595824640244246,0.061791568994522095
1782845415033934800,5.110934814453125,-0.3246443271636963,0.013118598610162735,-0.012082920409739017
1782845415043938800,5.120938720703125,-0.3572694957256317,0.028224237263202667,-0.06652791798114777
1782845415053943800,5.13094384765625,-0.36226025223731995,0.04097704589366913,-0.09637316316366196
1782845415063947800,5.14094775390625,-0.34445738792419434,0.05226808786392212,-0.09231710433959961
1782845415073952800,5.150952880859375,-0.3180880844593048,0.06477376073598862,-0.07135243713855743
1782845415083956700,5.160956787109375,-0.2819260060787201,0.08348051458597183,-0.03879249468445778
1782845415093961700,5.170961669921875,-0.23259973526000977,0.09451479464769363,-0.014720447361469269
1782845415103965700,5.180965576171875,-0.17263703048229218,0.09569047391414642,0.004305167123675346
1782845415113970700,5.190970703125,-0.10747933387756348,0.0922190397977829,0.01889689452946186
1782845415123975000,5.200974853515625,-0.04938315972685814,0.06525738537311554,0.030913079157471657
1782845415133980000,5.21097998046875,-0.009657053276896477,0.02638934925198555,0.04922071471810341
1782845415143983900,5.22098388671875,0.007854115217924118,-0.010550860315561295,0.08752037584781647
1782845415153988900,5.23098876953125,0.003080133581534028,-0.05836978182196617,0.12881241738796234
1782845415163992800,5.240992919921875,-0.020213300362229347,-0.07609915733337402,0.1705285608768463
1782845415173997800,5.250997802734375,-0.035190120339393616,-0.07346928864717484,0.1845458447933197
1782845415184001800,5.261001708984375,-0.049218546599149704,-0.05943958833813667,0.20399224758148193
1782845415194006800,5.2710068359375,-0.06702710688114166,-0.04992544651031494,0.21537140011787415
1782845415204010800,5.2810107421875,-0.07731036841869354,-0.04294317215681076,0.2214716374874115
1782845415214015700,5.291015625,-0.09576047956943512,-0.03517606109380722,0.21681590378284454
1782845415224019700,5.301019775390625,-0.11238003522157669,-0.027159590274095535,0.21999184787273407
1782845415234024700,5.311024658203125,-0.14328308403491974,-0.009429330006241798,0.23306450247764587
1782845415244029000,5.32102880859375,-0.18560568988323212,0.0036667301319539547,0.25053292512893677
1782845415254034000,5.331033935546875,-0.23517563939094543,0.015084234066307545,0.26655957102775574
1782845415264038000,5.341037841796875,-0.2922615110874176,0.026908572763204575,0.2611614763736725
1782845415274043000,5.35104296875,-0.3480786979198456,0.04074396193027496,0.23204965889453888
1782845415284046800,5.361046875,-0.40245118737220764,0.049407586455345154,0.1926001012325287
1782845415294051800,5.3710517578125,-0.45710644125938416,0.041295599192380905,0.14525896310806274
1782845415304055800,5.381055908203125,-0.49497586488723755,0.029353804886341095,0.09027227759361267
1782845415314060800,5.391060791015625,-0.5286696553230286,0.0025197938084602356,0.036570701748132706
1782845415324064800,5.401064697265625,-0.5515440106391907,-0.023755263537168503,-0.010340946726500988
1782845415334069800,5.41106982421875,-0.5595806241035461,-0.04034116491675377,-0.04154254123568535
1782845415344073700,5.42107373046875,-0.5556519031524658,-0.04750196263194084,-0.06568117439746857
1782845415354078700,5.43107861328125,-0.5290157794952393,-0.043322667479515076,-0.09461348503828049
1782845415364082700,5.441082763671875,-0.49239546060562134,-0.03684240207076073,-0.11199153959751129
1782845415374088000,5.451087890625,-0.44574299454689026,-0.02090444602072239,-0.13393627107143402
1782845415384092000,5.461091796875,-0.3829372227191925,-0.011567050591111183,-0.155942901968956
1782845415394097000,5.471096923828125,-0.3079918920993805,-0.003929370082914829,-0.1915147304534912
1782845415404100900,5.481100830078125,-0.2371242493391037,-0.0054176803678274155,-0.21534131467342377
1782845415414105900,5.49110595703125,-0.180748850107193,-0.009728538803756237,-0.22286394238471985
1782845415424109800,5.50110986328125,-0.13572953641414642,-0.023279355838894844,-0.21716736257076263
1782845415434114800,5.51111474609375,-0.09827642887830734,-0.04035314917564392,-0.20793338119983673
1782845415444118800,5.521118896484375,-0.06858135759830475,-0.06778695434331894,-0.20838312804698944
1782845415454123800,5.531123779296875,-0.04542357102036476,-0.1045878455042839,-0.2180357575416565
1782845415464127700,5.541127685546875,-0.0306695643812418,-0.13302728533744812,-0.2236490398645401
1782845415474132700,5.5511328125,-0.03514447435736656,-0.15625564754009247,-0.22350361943244934
1782845415484136700,5.56113671875,-0.052361562848091125,-0.1654568910598755,-0.21303381025791168
1782845415494141700,5.5711416015625,-0.07020287960767746,-0.17123807966709137,-0.2043260633945465
1782845415504146000,5.58114599609375,-0.09817779064178467,-0.17144685983657837,-0.1903199702501297
1782845415514151000,5.59115087890625,-0.12698467075824738,-0.16660630702972412,-0.17725449800491333
1782845415524155000,5.60115478515625,-0.14860254526138306,-0.16582070291042328,-0.15050804615020752
1782845415534160000,5.611159912109375,-0.16948732733726501,-0.17121919989585876,-0.10992652177810669
1782845415544163600,5.62116357421875,-0.19800986349582672,-0.17807680368423462,-0.06128329783678055
1782845415554168600,5.63116845703125,-0.22027921676635742,-0.18396905064582825,-0.011599098332226276
1782845415564172800,5.6411728515625,-0.24160273373126984,-0.19201965630054474,0.03984019160270691
1782845415574177800,5.651177734375,-0.25722724199295044,-0.18973572552204132,0.07391400635242462
1782845415584181800,5.661181640625,-0.2672964334487915,-0.18681764602661133,0.11000882089138031
1782845415594186800,5.671186767578125,-0.2773410975933075,-0.18979187309741974,0.14088471233844757
1782845415604190700,5.681190673828125,-0.2825889587402344,-0.19661955535411835,0.15252892673015594
1782845415614195700,5.69119580078125,-0.2870372533798218,-0.20633316040039062,0.15829360485076904
1782845415624200000,5.701199951171875,-0.2972783148288727,-0.22541405260562897,0.1530326008796692
1782845415634205000,5.711204833984375,-0.3114798963069916,-0.2480035126209259,0.13326261937618256
1782845415644208600,5.721208740234375,-0.3235071301460266,-0.26191195845603943,0.10455173999071121
1782845415654214000,5.7312138671875,-0.3247412443161011,-0.272026926279068,0.07131895422935486
1782845415664217600,5.741217529296875,-0.3205617368221283,-0.2676609456539154,0.05159836634993553
1782845415674222600,5.75122265625,-0.3203257918357849,-0.2562152147293091,0.043439242988824844
1782845415684226800,5.761226806640625,-0.30625495314598083,-0.24123433232307434,0.03920769318938255
1782845415694231800,5.771231689453125,-0.29589608311653137,-0.21060052514076233,0.05619972571730614
1782845415704235800,5.78123583984375,-0.2731268107891083,-0.1817755252122879,0.0777839794754982
1782845415714240800,5.79124072265625,-0.24468745291233063,-0.15676498413085938,0.09641226381063461
1782845415724244700,5.80124462890625,-0.2092597633600235,-0.12765787541866302,0.10504969954490662
1782845415734249700,5.811249755859375,-0.15611319243907928,-0.09929867088794708,0.10536501556634903
1782845415744252700,5.821252685546875,-0.10281296819448471,-0.0811745896935463,0.09587568789720535
1782845415754257700,5.831257568359375,-0.036464300006628036,-0.06989343464374542,0.0904521644115448
1782845415764261600,5.84126171875,0.04258635640144348,-0.04867660626769066,0.08572418987751007
1782845415774266600,5.8512666015625,0.12202765792608261,0.005057195667177439,0.08322081714868546
1782845415784270800,5.861270751953125,0.17579929530620575,0.097775898873806,0.07077112793922424
1782845415794275800,5.87127587890625,0.19005520641803741,0.22222301363945007,0.04032640904188156
1782845415804279800,5.88127978515625,0.1839350163936615,0.3429310619831085,-0.0444868765771389
1782845415814284800,5.891284912109375,0.18357574939727783,0.4082232415676117,-0.16625885665416718
1782845415824288800,5.901288818359375,0.1609458178281784,0.4161056876182556,-0.3400163948535919
1782845415834293800,5.911293701171875,0.1112925186753273,0.41409817337989807,-0.5287972092628479
1782845415844298000,5.921298095703125,0.06906972825527191,0.37811988592147827,-0.6674639582633972
1782845415854303000,5.931302978515625,0.029355071485042572,0.2715092897415161,-0.7343782782554626
1782845415864306700,5.941306640625,-0.021544501185417175,0.15297643840312958,-0.7204639911651611
1782845415874311700,5.951311767578125,-0.06765873730182648,0.07845134288072586,-0.630752444267273
1782845415884315600,5.961315673828125,-0.08836396038532257,0.03026672638952732,-0.48847150802612305
1782845415894320600,5.971320556640625,-0.0857657790184021,-0.016532735899090767,-0.29171982407569885
1782845415904324900,5.981324951171875,-0.0638849288225174,-0.08227349817752838,-0.015192242339253426
1782845415914329900,5.991329833984375,-0.033624764531850815,-0.15918612480163574,0.28885501623153687
1782845415924333800,6.001333740234375,-0.01615230366587639,-0.19156984984874725,0.5340104699134827
1782845415934338800,6.0113388671875,-0.007227517664432526,-0.1614404320716858,0.7144327163696289
1782845415944342800,6.0213427734375,0.012772392481565475,-0.09819289296865463,0.8060332536697388
1782845415954347800,6.03134765625,0.02411106787621975,-0.04000735282897949,0.8358356356620789
1782845415964352000,6.04135205078125,0.030613310635089874,0.02414598874747753,0.7938806414604187
1782845415974357000,6.05135693359375,0.029346443712711334,0.07874424755573273,0.6968212127685547
1782845415984360700,6.061360595703125,0.021120520308613777,0.13313555717468262,0.5268853902816772
1782845415994365700,6.07136572265625,0.011367224156856537,0.15897247195243835,0.3129775822162628
1782845416004369700,6.08136962890625,-0.004428841173648834,0.19459249079227448,0.09645925462245941
1782845416014374700,6.091374755859375,-0.012672390788793564,0.19899682700634003,-0.08239278942346573
1782845416024379000,6.10137890625,-0.010719978250563145,0.1900475025177002,-0.20881018042564392
1782845416034384000,6.1113837890625,-0.006898608990013599,0.16177484393119812,-0.29866814613342285
1782845416044387800,6.121387939453125,-0.0047157867811620235,0.11468182504177094,-0.37057340145111084
1782845416054392800,6.131392822265625,-0.00485906470566988,0.0659310594201088,-0.4193691611289978
1782845416064397800,6.141397705078125,-0.00454779714345932,0.016674397513270378,-0.46005624532699585
1782845416074401800,6.15140185546875,-0.0008129803463816643,-0.032752808183431625,-0.47744137048721313
1782845416084406000,6.161406005859375,0.0021958749275654554,-0.06852076202630997,-0.4861913323402405
1782845416094411000,6.171410888671875,0.008535795845091343,-0.09302318096160889,-0.4819004535675049
1782845416104416000,6.181416015625,0.016890771687030792,-0.10207343101501465,-0.44910964369773865
1782845416114419700,6.191419677734375,0.030165033414959908,-0.10094797611236572,-0.3869858384132385
1782845416124424700,6.2014248046875,0.043719928711652756,-0.08709662407636642,-0.3113343417644501
1782845416134428700,6.2114287109375,0.06106030195951462,-0.06113239750266075,-0.25265344977378845
1782845416144433700,6.22143359375,0.08929315209388733,-0.03154188022017479,-0.20897570252418518
1782845416154438000,6.23143798828125,0.11943107843399048,-0.010655241087079048,-0.18160399794578552
1782845416164443000,6.24144287109375,0.1566137671470642,-0.011580869555473328,-0.15627986192703247
1782845416174446800,6.25144677734375,0.18942470848560333,-0.029364660382270813,-0.13802869617938995
1782845416184451800,6.261451904296875,0.20332126319408417,-0.06076850742101669,-0.132183238863945
1782845416194455800,6.271455810546875,0.21181702613830566,-0.08918949961662292,-0.1386597752571106
1782845416204460800,6.281460693359375,0.2101554572582245,-0.12063797563314438,-0.1430051326751709
1782845416214465000,6.291465087890625,0.20131322741508484,-0.1362489014863968,-0.14643342792987823
1782845416224470000,6.301469970703125,0.1903645098209381,-0.14319343864917755,-0.13358233869075775
1782845416234473700,6.3114736328125,0.16662269830703735,-0.13297410309314728,-0.10767537355422974
1782845416244478700,6.321478759765625,0.1358967274427414,-0.11549358069896698,-0.06888129562139511
1782845416254482700,6.331482666015625,0.10915753990411758,-0.09396246075630188,-0.028333870694041252
1782845416264487700,6.34148779296875,0.08530586212873459,-0.06969799846410751,0.0014609741047024727
1782845416274492000,6.351491943359375,0.06820490211248398,-0.048599641770124435,0.012871554121375084
1782845416284497000,6.361496826171875,0.05938378721475601,-0.04108668863773346,0.01934676058590412
1782845416294500900,6.3715009765625,0.054962407797575,-0.03644639626145363,0.005713772960007191
1782845416304505900,6.381505859375,0.06647225469350815,-0.027251210063695908,-0.015387780033051968
1782845416314509800,6.391509765625,0.07917499542236328,-0.014401456341147423,-0.035787858068943024
1782845416324514800,6.401514892578125,0.0991424173116684,-0.007278174161911011,-0.04177458956837654
1782845416334518800,6.411518798828125,0.12072759866714478,-0.005807843059301376,-0.04533576965332031
1782845416344524000,6.42152392578125,0.1418760120868683,-0.0015461992006748915,-0.04144800826907158
1782845416354527700,6.43152783203125,0.1695428043603897,0.003486642614006996,-0.03937021270394325
1782845416364532700,6.44153271484375,0.1926518827676773,0.00024014688096940517,-0.035743262618780136
1782845416374536700,6.45153662109375,0.21383707225322723,-0.008826850913465023,-0.03193414583802223
1782845416384541700,6.461541748046875,0.2261602133512497,-0.01836349070072174,-0.0345345139503479
1782845416394546000,6.4715458984375,0.23408977687358856,-0.02466479502618313,-0.04771583154797554
1782845416404551000,6.481551025390625,0.22993144392967224,-0.028517549857497215,-0.07088753581047058
1782845416414555000,6.491554931640625,0.21457351744174957,-0.03233626112341881,-0.10028084367513657
1782845416424559900,6.501559814453125,0.19271644949913025,-0.02589593268930912,-0.11689084023237228
1782845416434563800,6.511563720703125,0.16610455513000488,-0.020523004233837128,-0.12808570265769958
1782845416444568800,6.52156884765625,0.14276950061321259,-0.015255145728588104,-0.1279282569885254
1782845416454572800,6.53157275390625,0.12618519365787506,-0.007686708588153124,-0.12158752977848053
1782845416464577800,6.541577880859375,0.12059040367603302,-0.014737699180841446,-0.11146819591522217
1782845416474581800,6.551581787109375,0.12569542229175568,-0.01638566330075264,-0.10762685537338257
1782845416484586800,6.561586669921875,0.1368078589439392,-0.011807446368038654,-0.09805336594581604
1782845416494590700,6.5715908203125,0.1549501121044159,-0.006305621936917305,-0.07298609614372253
1782845416504595700,6.581595703125,0.17464451491832733,-0.014145531691610813,-0.03657842427492142
1782845416514599700,6.591599609375,0.20219145715236664,-0.008058078587055206,-0.0002414566115476191
1782845416524604700,6.601604736328125,0.22965563833713531,0.013576817698776722,0.031004875898361206
1782845416534609000,6.61160888671875,0.2637978792190552,0.039884053170681,0.06266240775585175
1782845416544614000,6.62161376953125,0.30286601185798645,0.0630900040268898,0.09150464832782745
1782845416554619000,6.631618896484375,0.34285232424736023,0.08877140283584595,0.11365415900945663
1782845416564622800,6.641622802734375,0.3766576051712036,0.10854855179786682,0.1330772489309311
1782845416574627800,6.6516279296875,0.41047096252441406,0.11409911513328552,0.13958467543125153
1782845416584631800,6.6616318359375,0.4407252371311188,0.11817996948957443,0.13706612586975098
1782845416594636800,6.67163671875,0.455693781375885,0.11960422992706299,0.1311240792274475
1782845416604640800,6.681640869140625,0.4564996063709259,0.11496930569410324,0.13982602953910828
1782845416614645800,6.691645751953125,0.44192492961883545,0.10886400938034058,0.1618623584508896
1782845416624649700,6.701649658203125,0.4112901985645294,0.10567346215248108,0.1845816671848297
1782845416634654700,6.71165478515625,0.36972305178642273,0.10355997830629349,0.2074670046567917
1782845416644658700,6.72165869140625,0.3162008821964264,0.11376126110553741,0.22537828981876373
1782845416654663700,6.73166357421875,0.2556602954864502,0.12361256033182144,0.23907040059566498
1782845416664668000,6.74166796875,0.19999969005584717,0.13591769337654114,0.24347272515296936
1782845416674673000,6.7516728515625,0.1520119309425354,0.1445532590150833,0.24324768781661987
1782845416684676900,6.7616767578125,0.1131679117679596,0.14644186198711395,0.23712946474552155
1782845416694681900,6.771681884765625,0.08094446361064911,0.14926667511463165,0.22191376984119415
1782845416704685600,6.781685546875,0.054849013686180115,0.1557365357875824,0.20210550725460052
1782845416714690600,6.791690673828125,0.03671475127339363,0.1620096117258072,0.16403961181640625
1782845416724694800,6.80169482421875,0.028414981439709663,0.16415216028690338,0.11739269644021988
1782845416734699800,6.81169970703125,0.027589667588472366,0.15809640288352966,0.06898441910743713
1782845416744704000,6.8217041015625,0.039919257164001465,0.14542007446289062,0.015401947312057018
1782845416754709000,6.831708984375,0.0627358928322792,0.14063569903373718,-0.031411897391080856
1782845416764713000,6.841712890625,0.09651012718677521,0.11894180625677109,-0.06339133530855179
1782845416774718000,6.851718017578125,0.12838204205036163,0.10202807188034058,-0.07734683156013489
1782845416784722000,6.861721923828125,0.1611725389957428,0.09396711736917496,-0.06619127094745636
1782845416794727000,6.871726806640625,0.19701814651489258,0.08197543770074844,-0.047188278287649155
1782845416804731000,6.88173095703125,0.22908590734004974,0.09071744978427887,-0.019848257303237915
1782845416814736000,6.89173583984375,0.2586962580680847,0.10300793498754501,0.015087621286511421
1782845416824739800,6.90173974609375,0.28578364849090576,0.11703972518444061,0.056335654109716415
1782845416834744800,6.911744873046875,0.3088434338569641,0.13704326748847961,0.0937298983335495
1782845416844749000,6.9217490234375,0.3327999413013458,0.15502546727657318,0.12560327351093292
1782845416854754000,6.931754150390625,0.3515448570251465,0.16715456545352936,0.14498282968997955
1782845416864758000,6.941758056640625,0.3661253750324249,0.17391419410705566,0.14630842208862305
1782845416874763000,6.951762939453125,0.3680915832519531,0.17890362441539764,0.11869010329246521
1782845416884767000,6.96176708984375,0.36036235094070435,0.1925347000360489,0.06786095350980759
1782845416894772000,6.97177197265625,0.3496849536895752,0.20083869993686676,0.0007610107422806323
1782845416904776000,6.98177587890625,0.33764177560806274,0.19626986980438232,-0.06390946358442307
1782845416914781000,6.991781005859375,0.3330046832561493,0.1829032003879547,-0.10838745534420013
1782845416924786000,7.001785888671875,0.3274247944355011,0.15402686595916748,-0.1405184119939804
1782845416934790000,7.011789794921875,0.3242313861846924,0.10600688308477402,-0.16000981628894806
1782845416944795000,7.021794921875,0.3111177384853363,0.04613523557782173,-0.16766808927059174
1782845416954798800,7.031798828125,0.2873240113258362,-0.01030859537422657,-0.16352926194667816
1782845416964803800,7.041803955078125,0.25942695140838623,-0.04577479884028435,-0.15806032717227936
1782845416974808000,7.05180810546875,0.22126199305057526,-0.0665101706981659,-0.13080474734306335
1782845416984813000,7.06181298828125,0.18550175428390503,-0.05514738708734512,-0.09152369946241379
1782845416994817000,7.071817138671875,0.16085712611675262,-0.03088412433862686,-0.03674620762467384
1782845417004822000,7.081822021484375,0.14405760169029236,-0.0023653539828956127,0.025039194151759148
1782845417014826000,7.091825927734375,0.13346673548221588,0.02975822612643242,0.09224832057952881
1782845417024831000,7.1018310546875,0.12111785262823105,0.04780091345310211,0.15737666189670563
1782845417034835000,7.1118349609375,0.11638008803129196,0.04805151745676994,0.2150721698999405
1782845417044840000,7.12183984375,0.12540972232818604,0.0481373593211174,0.24783079326152802
1782845417054844000,7.131843994140625,0.13680964708328247,0.03832441195845604,0.2597969174385071
1782845417064849000,7.141848876953125,0.13837899267673492,0.023071732372045517,0.25710079073905945
1782845417074852900,7.151852783203125,0.12569142878055573,0.011268068104982376,0.2410839945077896
1782845417084857900,7.16185791015625,0.10641200095415115,0.0036264483351260424,0.21383221447467804
1782845417094862000,7.171862060546875,0.07707994431257248,-0.005769982933998108,0.1760675311088562
1782845417104867000,7.1818671875,0.04853582754731178,-0.005344643257558346,0.134527325630188
1782845417114871000,7.19187109375,0.01619679480791092,0.0016829062951728702,0.09150209277868271
1782845417124876000,7.2018759765625,-0.017126431688666344,0.008676871657371521,0.053007252514362335
1782845417134880000,7.2118798828125,-0.045428112149238586,0.013383476063609123,0.03310118615627289
1782845417144885000,7.221885009765625,-0.07478590309619904,0.006960057653486729,0.02778158336877823
1782845417154889000,7.231888916015625,-0.09699320048093796,-0.0032121525146067142,0.022236082702875137
1782845417164894000,7.24189404296875,-0.12133821845054626,-0.0073432475328445435,0.027234036475419998
1782845417174898000,7.25189794921875,-0.14292527735233307,-0.012938549742102623,0.03512578085064888
1782845417184903000,7.26190283203125,-0.1752086579799652,-0.020813729614019394,0.04978469759225845
1782845417194907000,7.271906982421875,-0.2129131555557251,-0.026550976559519768,0.07563386857509613
1782845417204911900,7.281911865234375,-0.2538730204105377,-0.036532383412122726,0.11356279253959656
1782845417214916000,7.291916015625,-0.2977299690246582,-0.04871874302625656,0.15072748064994812
1782845417224921000,7.301921142578125,-0.3421657979488373,-0.05936477333307266,0.18127386271953583
1782845417234926000,7.311926025390625,-0.38127192854881287,-0.07139293849468231,0.21258944272994995
1782845417244930000,7.321929931640625,-0.4065645635128021,-0.0762273296713829,0.2283058911561966
1782845417254935000,7.33193505859375,-0.43167951703071594,-0.07797329872846603,0.22971364855766296
1782845417264939000,7.34193896484375,-0.45162251591682434,-0.07341033965349197,0.22250483930110931
1782845417274944000,7.351944091796875,-0.46973469853401184,-0.07002599537372589,0.20571386814117432
1782845417284948000,7.361947998046875,-0.482059121131897,-0.04727361351251602,0.18947581946849823
1782845417294953000,7.371952880859375,-0.4861481189727783,-0.033816661685705185,0.18857833743095398
1782845417304957000,7.38195703125,-0.47798144817352295,-0.026075802743434906,0.18606194853782654
1782845417314962000,7.3919619140625,-0.4575701951980591,-0.026659036055207253,0.16079601645469666
1782845417324966000,7.4019658203125,-0.4242970943450928,-0.021009225398302078,0.11023389548063278
1782845417334971000,7.411970947265625,-0.37102776765823364,-0.01627439260482788,0.04535903036594391
1782845417344975000,7.42197509765625,-0.3077217936515808,-0.013030346482992172,-0.02181926928460598
1782845417354980000,7.43197998046875,-0.25138527154922485,-0.0033769202418625355,-0.09508895874023438
1782845417364984000,7.441984130859375,-0.21461555361747742,0.012091572396457195,-0.13916818797588348
1782845417374989000,7.451989013671875,-0.18876637518405914,0.030340351164340973,-0.16143301129341125
1782845417384992800,7.46199267578125,-0.1640789806842804,0.06494048982858658,-0.1642422378063202
1782845417394998000,7.471998046875,-0.14053183794021606,0.10221382975578308,-0.14772984385490417
1782845417405002000,7.482001953125,-0.12678827345371246,0.1223699226975441,-0.11645295470952988
1782845417415007000,7.492007080078125,-0.1300293505191803,0.1277228742837906,-0.08109709620475769
1782845417425011000,7.502010986328125,-0.12871132791042328,0.1257028728723526,-0.04802369326353073
1782845417435016000,7.512015869140625,-0.10674957185983658,0.1036340594291687,-0.02309730276465416
1782845417445020000,7.52202001953125,-0.09052333235740662,0.061703722923994064,-0.012867716141045094
1782845417455025000,7.53202490234375,-0.07745573669672012,0.017651045694947243,-0.009124643169343472
1782845417465029000,7.542029052734375,-0.07776309549808502,-0.018150579184293747,-0.019904114305973053
1782845417475034000,7.5520341796875,-0.0934688150882721,-0.035157524049282074,-0.031064359471201897
1782845417485038000,7.5620380859375,-0.11359191685914993,-0.03798798844218254,-0.051638420671224594
1782845417495043000,7.57204296875,-0.1409175544977188,-0.034078199416399,-0.07487823069095612
1782845417505046800,7.582046875,-0.16285830736160278,-0.01876678317785263,-0.10231383144855499
1782845417515051800,7.5920517578125,-0.17493946850299835,-0.015026907436549664,-0.12614566087722778
1782845417525056800,7.602056884765625,-0.18528112769126892,-0.019016871228814125,-0.14420577883720398
1782845417535061000,7.61206103515625,-0.18478870391845703,-0.03251270949840546,-0.14139774441719055
1782845417545066000,7.62206591796875,-0.16815100610256195,-0.05187375843524933,-0.1218227744102478
1782845417555070000,7.632070068359375,-0.14859966933727264,-0.05260905623435974,-0.09413229674100876
1782845417565075000,7.642074951171875,-0.13065800070762634,-0.03643244132399559,-0.06591257452964783
1782845417575079000,7.652078857421875,-0.11856938898563385,-0.017390038818120956,-0.04252016544342041
1782845417585084000,7.662083984375,-0.1051286831498146,0.01512135285884142,-0.025757882744073868
1782845417595088100,7.672088134765625,-0.09156067669391632,0.030352238565683365,-0.0171074029058218
1782845417605093000,7.682093017578125,-0.07442197948694229,0.05370260402560234,-0.009290301240980625
1782845417615097000,7.69209716796875,-0.06092321500182152,0.0628494992852211,-0.0010382304899394512
1782845417625102000,7.70210205078125,-0.05420095846056938,0.06642647832632065,0.017170464619994164
1782845417635105800,7.712105712890625,-0.049397680908441544,0.05566783994436264,0.05192631483078003
1782845417645110800,7.72211083984375,-0.04263974726200104,0.045275527983903885,0.087489053606987
1782845417655115000,7.732114990234375,-0.04199685901403427,0.028777778148651123,0.11281970143318176
1782845417665120000,7.7421201171875,-0.03230730816721916,0.020160140469670296,0.11775200814008713
1782845417675124000,7.7521240234375,-0.0247721616178751,0.00923718512058258,0.09539210796356201
1782845417685129000,7.76212890625,-0.017256399616599083,-0.010142202489078045,0.05694443732500076
1782845417695133000,7.7721328125,-0.01626863330602646,-0.027794964611530304,0.010075466707348824
1782845417705138000,7.782137939453125,-0.01389852911233902,-0.0459308996796608,-0.031010692939162254
1782845417715142000,7.792141845703125,-0.016936397179961205,-0.0672292560338974,-0.06776098906993866
1782845417725147100,7.802147216796875,-0.0026582819409668446,-0.08416876196861267,-0.10212936252355576
1782845417735151000,7.812151123046875,0.009227139875292778,-0.09714394807815552,-0.12880359590053558
1782845417745155300,7.8221552734375,0.02588099054992199,-0.10777261108160019,-0.14322805404663086
1782845417755159300,7.8321591796875,0.03354823216795921,-0.11014948785305023,-0.14000482857227325
1782845417765164300,7.842164306640625,0.027597425505518913,-0.11083236336708069,-0.11587360501289368
1782845417775168500,7.85216845703125,0.021911045536398888,-0.11631181836128235,-0.08977489173412323
1782845417785173500,7.862173583984375,0.005330340005457401,-0.11437417566776276,-0.0625082328915596
1782845417795177200,7.87217724609375,-0.01776299439370632,-0.10853919386863708,-0.027044247835874557
1782845417805182200,7.88218212890625,-0.03398142755031586,-0.10309085249900818,-0.005686960648745298
1782845417815187200,7.892187255859375,-0.04663943126797676,-0.09341505914926529,0.011335697956383228
1782845417825191200,7.902191162109375,-0.061630185693502426,-0.09347601234912872,0.026408441364765167
1782845417835196200,7.912196044921875,-0.07880944013595581,-0.08749614655971527,0.04367877542972565
1782845417845200400,7.922200439453125,-0.09543255716562271,-0.07456201314926147,0.0578995980322361
1782845417855205400,7.932205322265625,-0.09688504785299301,-0.06218923255801201,0.06285654008388519
1782845417865209300,7.942209228515625,-0.0881149098277092,-0.05083280801773071,0.06325814127922058
1782845417875214300,7.95221435546875,-0.07265899330377579,-0.03874099254608154,0.074808269739151
1782845417885218300,7.96221826171875,-0.054589152336120605,-0.02350163459777832,0.07308819890022278
1782845417895223300,7.972223388671875,-0.03234962746500969,-0.017809927463531494,0.07007935643196106
1782845417905227500,7.9822275390625,-0.0005275617586448789,-0.02075427584350109,0.07097184658050537
1782845417915232500,7.992232421875,0.03307726979255676,-0.04690944775938988,0.0577324703335762
1782845417925236200,8.002236328125,0.07114923000335693,-0.07193586975336075,0.04376859962940216
1782845417935241200,8.0122412109375,0.10444620251655579,-0.10522165149450302,0.038143206387758255
1782845417945245200,8.0222451171875,0.10794177651405334,-0.12675754725933075,0.022542990744113922
1782845417955250200,8.032250244140625,0.08944053202867508,-0.12851816415786743,-0.007962987758219242
1782845417965254400,8.04225439453125,0.09290371835231781,-0.13606256246566772,-0.051447659730911255
1782845417975259400,8.05225927734375,0.1252664476633072,-0.14031030237674713,-0.11618058383464813
1782845417985263400,8.062263427734376,0.137460857629776,-0.13463200628757477,-0.21166357398033142
1782845417995268400,8.072268310546875,0.12066936492919922,-0.13165485858917236,-0.3322722613811493
1782845418005272300,8.082272216796875,0.0971471294760704,-0.14398378133773804,-0.4456695318222046
1782845418015277300,8.09227734375,0.0765845999121666,-0.17293740808963776,-0.527460515499115
1782845418025281500,8.102281494140625,0.0511668361723423,-0.20112276077270508,-0.576867401599884
1782845418035286500,8.11228662109375,0.030497247353196144,-0.21521726250648499,-0.5632781386375427
1782845418045291500,8.12229150390625,0.003288672771304846,-0.23450800776481628,-0.49721434712409973
1782845418055295200,8.132295166015625,-0.011607719585299492,-0.25868871808052063,-0.4059901535511017
1782845418065300200,8.14230029296875,-0.011772138997912407,-0.2741578221321106,-0.3030494749546051
1782845418075304200,8.15230419921875,-0.010700482875108719,-0.28407996892929077,-0.20208211243152618
1782845418085309200,8.16230908203125,-0.015093318186700344,-0.2686421871185303,-0.12873047590255737
1782845418095313400,8.1723134765625,-0.02323087491095066,-0.24163693189620972,-0.0795741006731987
1782845418105318400,8.182318359375,-0.024637138471007347,-0.19837379455566406,-0.012798810377717018
1782845418115322400,8.192322265625,-0.03693987429141998,-0.15535815060138702,0.07861632108688354
1782845418125327400,8.202327392578125,-0.05140379071235657,-0.1141582578420639,0.16012409329414368
1782845418135331300,8.212331298828126,-0.06060847267508507,-0.07532910257577896,0.23242652416229248
1782845418145336300,8.22233642578125,-0.06906238943338394,-0.047543805092573166,0.29304125905036926
1782845418155340500,8.232340576171875,-0.06882750242948532,-0.022142842411994934,0.3454565405845642
1782845418165345500,8.242345458984374,-0.05929696559906006,0.010840489529073238,0.3706814646720886
1782845418175349200,8.252349365234375,-0.060049306601285934,0.043098293244838715,0.3651474118232727
1782845418185354200,8.262354248046876,-0.07044365257024765,0.07454655319452286,0.32161054015159607
1782845418195358200,8.272358154296874,-0.10106068104505539,0.09612694382667542,0.2580510079860687
1782845418205363200,8.28236328125,-0.12345116585493088,0.09154759347438812,0.18366031348705292
1782845418215367400,8.292367431640624,-0.12973888218402863,0.07231371104717255,0.10774025321006775
1782845418225372400,8.302372314453125,-0.1289079338312149,0.047513511031866074,0.0378444604575634
1782845418235376400,8.31237646484375,-0.1273912638425827,0.015860244631767273,-0.0388905331492424
1782845418245381400,8.32238134765625,-0.12924306094646454,-0.018037986010313034,-0.12319370359182358
1782845418255385300,8.33238525390625,-0.14155033230781555,-0.03532642871141434,-0.20468111336231232
1782845418265390300,8.342390380859374,-0.15899540483951569,-0.04761095717549324,-0.27622556686401367
1782845418275394600,8.35239453125,-0.16886694729328156,-0.06054885685443878,-0.32296645641326904
1782845418285399600,8.362399658203126,-0.1653892695903778,-0.07302989810705185,-0.3269442319869995
1782845418295403300,8.3724033203125,-0.1626155972480774,-0.07551489025354385,-0.307443767786026
1782845418305408300,8.382408203125,-0.1593606173992157,-0.07370777428150177,-0.28318437933921814
1782845418315413200,8.392413330078124,-0.1470903754234314,-0.06700113415718079,-0.24577388167381287
1782845418325417200,8.402417236328125,-0.12638594210147858,-0.06978137046098709,-0.19257336854934692
1782845418335422200,8.412422119140626,-0.09993916004896164,-0.07046287506818771,-0.1264558583498001
1782845418345426400,8.422426513671875,-0.07781750708818436,-0.07257570326328278,-0.06003390625119209
1782845418355431400,8.432431396484375,-0.06181803718209267,-0.06675270199775696,0.019283819943666458
1782845418365435400,8.442435302734374,-0.051983293145895004,-0.03493667393922806,0.08732205629348755
1782845418375440400,8.4524404296875,-0.04402363672852516,0.003498600795865059,0.13786166906356812
1782845418385444400,8.4624443359375,-0.034590944647789,0.032190654426813126,0.16153763234615326
1782845418395449300,8.472449462890625,-0.026363372802734375,0.04299057275056839,0.1554565578699112
1782845418405453600,8.48245361328125,-0.0034222747199237347,0.03789692372083664,0.13272343575954437
1782845418415458600,8.49245849609375,0.018088608980178833,0.04366959258913994,0.11138112097978592
1782845418425462300,8.502462158203125,0.04104595631361008,0.058755457401275635,0.09847842901945114
1782845418435467300,8.51246728515625,0.04820773005485535,0.0675944909453392,0.09935594350099564
1782845418445471200,8.52247119140625,0.045427918434143066,0.08432425558567047,0.08194480836391449
1782845418455476200,8.532476318359375,0.02648352086544037,0.16250933706760406,0.10060478001832962
1782845418465480400,8.54248046875,0.002079522470012307,0.07162963598966599,0.014430548995733261
1782845418475485400,8.5524853515625,0.025017062202095985,-0.03917597234249115,-0.09174887835979462
1782845418485489400,8.562489501953126,0.05511099845170975,-0.1121063306927681,-0.1742953658103943
1782845418495494400,8.572494384765625,0.07031844556331635,-0.12405167520046234,-0.21581511199474335
1782845418505498400,8.582498291015625,0.07659080624580383,-0.10524372011423111,-0.2189033031463623
1782845418515503400,8.59250341796875,0.062084030359983444,-0.07328604906797409,-0.20264551043510437
