time,seconds_elapsed,z,y,x
1782846207190902500,0.063902587890625,-0.983489990234375,-0.0242462158203125,0.00634765625
1782846207200907500,0.073907470703125,-0.9883575439453125,-0.022308349609375,0.0034332275390625
1782846207210912500,0.08391259765625,-0.9981536865234375,-0.0215301513671875,0.0029449462890625
1782846207220917500,0.09391748046875,-0.98895263671875,-0.02154541015625,0.0055999755859375
1782846207230922500,0.103922607421875,-0.98480224609375,-0.0208587646484375,0.0041046142578125
1782846207240927500,0.113927490234375,-0.9932098388671875,-0.0203704833984375,0.00128173828125
1782846207250932500,0.123932373046875,-0.995361328125,-0.020172119140625,0.0005340576171875
1782846207260937500,0.1339375,-0.9900665283203125,-0.02044677734375,0.0030364990234375
1782846207270942500,0.1439423828125,-0.9892120361328125,-0.01947021484375,0.00189208984375
1782846207280947500,0.153947509765625,-0.993988037109375,-0.0209808349609375,0.0004730224609375
1782846207290952400,0.163952392578125,-0.990814208984375,-0.0201568603515625,0.001190185546875
1782846207300957400,0.17395751953125,-0.98822021484375,-0.02069091796875,0.0019378662109375
1782846207310962400,0.18396240234375,-0.9901885986328125,-0.0216217041015625,0.002777099609375
1782846207320967400,0.193967529296875,-0.9906005859375,-0.0227508544921875,0.0015106201171875
1782846207330972400,0.203972412109375,-0.99005126953125,-0.0203399658203125,0.002227783203125
1782846207340977400,0.213977294921875,-0.9896392822265625,-0.0206756591796875,0.001708984375
1782846207350982400,0.223982421875,-0.9898681640625,-0.0218658447265625,0.0035247802734375
1782846207360987400,0.2339873046875,-0.9915008544921875,-0.02154541015625,0.003326416015625
1782846207370992400,0.243992431640625,-0.989959716796875,-0.0206451416015625,0.0046844482421875
1782846207380996400,0.253996337890625,-0.9898834228515625,-0.0222015380859375,0.0034942626953125
1782846207391002400,0.26400244140625,-0.99078369140625,-0.022430419921875,0.0031280517578125
1782846207401006300,0.27400634765625,-0.990570068359375,-0.0235443115234375,0.0038604736328125
1782846207411011600,0.284011474609375,-0.9891357421875,-0.0220489501953125,0.0037841796875
1782846207421016600,0.2940166015625,-0.9922637939453125,-0.0235595703125,0.00311279296875
1782846207431021600,0.304021484375,-0.9902191162109375,-0.022705078125,0.0020904541015625
1782846207441026600,0.314026611328125,-0.9903717041015625,-0.02215576171875,0.002410888671875
1782846207451031600,0.324031494140625,-0.9897918701171875,-0.0223541259765625,0.001861572265625
1782846207461036500,0.33403662109375,-0.9912872314453125,-0.02008056640625,0.001678466796875
1782846207471041500,0.34404150390625,-0.9910125732421875,-0.019500732421875,0.002166748046875
1782846207481046500,0.354046630859375,-0.990142822265625,-0.02154541015625,0.0031585693359375
1782846207491051800,0.3640517578125,-0.9920806884765625,-0.01983642578125,0.00213623046875
1782846207501056800,0.374056884765625,-0.9904327392578125,-0.02081298828125,0.002349853515625
1782846207511061800,0.384061767578125,-0.99041748046875,-0.019866943359375,0.0020294189453125
1782846207521066800,0.394066650390625,-0.991119384765625,-0.0208587646484375,0.00146484375
1782846207531071700,0.40407177734375,-0.9894256591796875,-0.0212860107421875,0.0031585693359375
1782846207541076700,0.41407666015625,-0.9899444580078125,-0.02276611328125,0.0009765625
1782846207551081700,0.424081787109375,-0.9906463623046875,-0.02197265625,0.0034942626953125
1782846207561086700,0.434086669921875,-0.988922119140625,-0.0225372314453125,0.0016632080078125
1782846207571091700,0.444091796875,-0.9900054931640625,-0.02166748046875,0.00201416015625
1782846207581096700,0.4540966796875,-0.989990234375,-0.022308349609375,0.0030670166015625
1782846207591101700,0.464101806640625,-0.9904937744140625,-0.02227783203125,0.0022430419921875
1782846207601106700,0.474106689453125,-0.99053955078125,-0.021728515625,0.002349853515625
1782846207611111700,0.484111572265625,-0.9909210205078125,-0.0221405029296875,0.002593994140625
1782846207621116700,0.49411669921875,-0.989410400390625,-0.022003173828125,0.0026702880859375
1782846207631121700,0.50412158203125,-0.9896087646484375,-0.02130126953125,0.0019073486328125
1782846207641126700,0.514126708984375,-0.9904937744140625,-0.0211944580078125,0.00048828125
1782846207651131600,0.524131591796875,-0.9905242919921875,-0.0201263427734375,0.0018463134765625
1782846207661136600,0.53413671875,-0.9907073974609375,-0.022308349609375,0.002716064453125
1782846207671141600,0.5441416015625,-0.991973876953125,-0.021575927734375,0.0002899169921875
1782846207681146600,0.554146728515625,-0.9915008544921875,-0.0212554931640625,0.0020294189453125
1782846207691151600,0.564151611328125,-0.989898681640625,-0.021514892578125,0.0023193359375
1782846207701156600,0.574156494140625,-0.9900665283203125,-0.02117919921875,0.002105712890625
1782846207711161600,0.58416162109375,-0.98968505859375,-0.02117919921875,0.0029296875
1782846207721166600,0.59416650390625,-0.9911651611328125,-0.021484375,0.00299072265625
1782846207731171600,0.604171630859375,-0.989410400390625,-0.0214080810546875,0.001251220703125
1782846207741176600,0.614176513671875,-0.9908905029296875,-0.021728515625,0.0027008056640625
1782846207751181600,0.624181640625,-0.990142822265625,-0.0203857421875,0.00274658203125
1782846207761186600,0.6341865234375,-0.9911346435546875,-0.0220794677734375,0.003509521484375
1782846207771191600,0.644191650390625,-0.9912261962890625,-0.022796630859375,0.003021240234375
1782846207781196500,0.654196533203125,-0.9911956787109375,-0.021942138671875,0.004730224609375
1782846207791201500,0.664201416015625,-0.9904022216796875,-0.022247314453125,0.0031890869140625
1782846207801206500,0.67420654296875,-0.9897918701171875,-0.0213470458984375,0.0045013427734375
1782846207811211500,0.68421142578125,-0.9914093017578125,-0.0213165283203125,0.0039825439453125
1782846207821216500,0.694216552734375,-0.9910736083984375,-0.021881103515625,0.0026397705078125
1782846207831221500,0.704221435546875,-0.9892730712890625,-0.0213470458984375,0.0025177001953125
1782846207841226500,0.7142265625,-0.990814208984375,-0.0214385986328125,0.0029296875
1782846207851231500,0.7242314453125,-0.99169921875,-0.0200653076171875,0.0020751953125
1782846207861236500,0.734236572265625,-0.9908447265625,-0.0205841064453125,0.00372314453125
1782846207871241500,0.744241455078125,-0.9916839599609375,-0.019622802734375,0.001739501953125
1782846207881246500,0.75424658203125,-0.990478515625,-0.0202178955078125,0.001861572265625
1782846207891251500,0.76425146484375,-0.98968505859375,-0.020751953125,0.0019683837890625
1782846207901256400,0.77425634765625,-0.9920501708984375,-0.0203704833984375,0.0029754638671875
1782846207911261400,0.784261474609375,-0.9900665283203125,-0.0211944580078125,0.002655029296875
1782846207921266400,0.794266357421875,-0.990081787109375,-0.0218505859375,0.003662109375
1782846207931271700,0.804271728515625,-0.9891204833984375,-0.021942138671875,0.0025787353515625
1782846207941276700,0.814276611328125,-0.9904327392578125,-0.0232086181640625,0.0037689208984375
1782846207951281700,0.82428173828125,-0.990509033203125,-0.0236968994140625,0.0037078857421875
1782846207961285600,0.83428564453125,-0.99041748046875,-0.0242919921875,0.0041656494140625
1782846207971291600,0.844291748046875,-0.9903106689453125,-0.0214385986328125,0.0026092529296875
1782846207981295600,0.854295654296875,-0.9902801513671875,-0.02191162109375,0.0030670166015625
1782846207991300600,0.864300537109375,-0.99072265625,-0.021697998046875,0.0042724609375
1782846208001305600,0.8743056640625,-0.9913787841796875,-0.021331787109375,0.0040435791015625
1782846208011310600,0.884310546875,-0.99072265625,-0.019866943359375,0.0032806396484375
1782846208021315600,0.894315673828125,-0.9898223876953125,-0.020294189453125,0.003692626953125
1782846208031320600,0.904320556640625,-0.9894256591796875,-0.020477294921875,0.003570556640625
1782846208041325600,0.91432568359375,-0.99017333984375,-0.020416259765625,0.0009307861328125
1782846208051330600,0.92433056640625,-0.9891510009765625,-0.0205078125,0.00091552734375
1782846208061335600,0.93433544921875,-0.9895477294921875,-0.0209197998046875,0.0021820068359375
1782846208071340500,0.944340576171875,-0.9898681640625,-0.0213775634765625,0.00250244140625
1782846208081345500,0.954345458984375,-0.9896392822265625,-0.0221099853515625,0.0009307861328125
1782846208091350500,0.9643505859375,-0.9915771484375,-0.0227508544921875,0.003021240234375
1782846208101355500,0.97435546875,-0.99090576171875,-0.0217437744140625,0.00177001953125
1782846208111360500,0.984360595703125,-0.99041748046875,-0.02191162109375,0.0038909912109375
1782846208121365500,0.994365478515625,-0.990753173828125,-0.0216827392578125,0.00372314453125
1782846208131370500,1.00437060546875,-0.9927825927734375,-0.0221405029296875,0.004302978515625
1782846208141375500,1.01437548828125,-0.990875244140625,-0.021820068359375,0.0018768310546875
1782846208151380500,1.02438037109375,-0.9909515380859375,-0.0207061767578125,0.004974365234375
1782846208161385500,1.034385498046875,-0.9911651611328125,-0.02197265625,0.0012969970703125
1782846208171390500,1.044390380859375,-0.9900665283203125,-0.0205078125,0.0001373291015625
1782846208181395700,1.054395751953125,-0.9917144775390625,-0.0221099853515625,0.0026702880859375
1782846208191400700,1.064400634765625,-0.990631103515625,-0.0217437744140625,0.0029449462890625
1782846208201405700,1.07440576171875,-0.9894256591796875,-0.021820068359375,0.00347900390625
1782846208211410700,1.08441064453125,-0.990509033203125,-0.0214080810546875,0.0013427734375
1782846208221415700,1.094415771484375,-0.9910736083984375,-0.0223846435546875,0.002410888671875
1782846208231420700,1.104420654296875,-0.99005126953125,-0.0204010009765625,0.0017852783203125
1782846208241425700,1.11442578125,-0.9910430908203125,-0.0205078125,0.0023956298828125
1782846208251430700,1.1244306640625,-0.9908294677734375,-0.02020263671875,0.003082275390625
1782846208261435600,1.134435546875,-0.991241455078125,-0.0211639404296875,0.00244140625
1782846208271440600,1.144440673828125,-0.990264892578125,-0.020904541015625,0.0025482177734375
1782846208281445600,1.154445556640625,-0.9902801513671875,-0.0213775634765625,0.00286865234375
1782846208291450600,1.16445068359375,-0.9903106689453125,-0.0218505859375,0.004119873046875
1782846208301455600,1.17445556640625,-0.988983154296875,-0.0192718505859375,0.0040435791015625
1782846208311460600,1.184460693359375,-0.990203857421875,-0.020660400390625,0.0026397705078125
1782846208321465900,1.1944658203125,-0.9901885986328125,-0.0224456787109375,0.0016632080078125
1782846208331470800,1.204470947265625,-0.988250732421875,-0.0218353271484375,0.0029296875
1782846208341475800,1.214475830078125,-0.988739013671875,-0.0211029052734375,0.004425048828125
1782846208351480800,1.224480712890625,-0.9901885986328125,-0.022125244140625,0.0020294189453125
1782846208361485800,1.23448583984375,-0.99053955078125,-0.0213470458984375,0.0023040771484375
1782846208371490800,1.24449072265625,-0.991546630859375,-0.021148681640625,0.001708984375
1782846208381495800,1.254495849609375,-0.9909210205078125,-0.0223541259765625,0.0025787353515625
1782846208391500800,1.264500732421875,-0.9909820556640625,-0.02056884765625,0.0024871826171875
1782846208401505800,1.274505859375,-0.9908905029296875,-0.02166748046875,0.0023345947265625
1782846208411510800,1.2845107421875,-0.9910736083984375,-0.020782470703125,0.0016021728515625
1782846208421515800,1.294515869140625,-0.99224853515625,-0.021575927734375,0.0027008056640625
1782846208431520800,1.304520751953125,-0.9906005859375,-0.02099609375,0.0025177001953125
1782846208441525800,1.31452587890625,-0.9903106689453125,-0.0192413330078125,0.0026397705078125
1782846208451530800,1.32453076171875,-0.98974609375,-0.0215911865234375,0.003631591796875
1782846208461535700,1.33453564453125,-0.98968505859375,-0.0191802978515625,0.0018463134765625
1782846208471540700,1.344540771484375,-0.99090576171875,-0.0211029052734375,0.003326416015625
1782846208481545700,1.354545654296875,-0.991668701171875,-0.0214080810546875,0.003326416015625
1782846208491550700,1.36455078125,-0.98968505859375,-0.02191162109375,0.00164794921875
1782846208501555700,1.3745556640625,-0.9906463623046875,-0.0242919921875,0.00286865234375
1782846208511560700,1.384560791015625,-0.9911041259765625,-0.02264404296875,0.0045013427734375
1782846208521565700,1.394565673828125,-0.9908599853515625,-0.022064208984375,0.002960205078125
1782846208531570700,1.40457080078125,-0.989837646484375,-0.020416259765625,0.0032806396484375
1782846208541575700,1.41457568359375,-0.990386962890625,-0.0207366943359375,0.0019378662109375
1782846208551580700,1.42458056640625,-0.989471435546875,-0.0222015380859375,0.00299072265625
1782846208561585700,1.434585693359375,-0.9914093017578125,-0.0202789306640625,0.0023651123046875
1782846208571590700,1.444590576171875,-0.9904937744140625,-0.0198822021484375,0.001556396484375
1782846208581595600,1.454595703125,-0.990692138671875,-0.021331787109375,0.0030975341796875
1782846208591600600,1.4646005859375,-0.9901885986328125,-0.02154541015625,0.0013275146484375
1782846208601605600,1.474605712890625,-0.9895172119140625,-0.023284912109375,0.0013275146484375
1782846208611610600,1.484610595703125,-0.9896087646484375,-0.022979736328125,0.0024261474609375
1782846208621615600,1.49461572265625,-0.9897613525390625,-0.0216064453125,0.0017547607421875
1782846208631620600,1.50462060546875,-0.9905548095703125,-0.0207366943359375,0.0010986328125
1782846208641625600,1.51462548828125,-0.991302490234375,-0.0214080810546875,0.003082275390625
1782846208651629600,1.524629638671875,-0.99102783203125,-0.0214080810546875,0.0006866455078125
1782846208661634600,1.534634521484375,-0.98919677734375,-0.0213470458984375,0.000946044921875
1782846208671639800,1.544639892578125,-0.9914398193359375,-0.022491455078125,0.0027923583984375
1782846208681644800,1.554644775390625,-0.990997314453125,-0.020416259765625,0.002471923828125
1782846208691649800,1.56464990234375,-0.990753173828125,-0.0211944580078125,0.003631591796875
1782846208701654800,1.57465478515625,-0.9906463623046875,-0.0219573974609375,0.0049896240234375
1782846208711659800,1.58465966796875,-0.9903564453125,-0.02197265625,0.004791259765625
1782846208721664800,1.594664794921875,-0.9895172119140625,-0.022216796875,0.0037994384765625
1782846208731669800,1.604669677734375,-0.990631103515625,-0.0218963623046875,0.003021240234375
1782846208741674800,1.6146748046875,-0.990020751953125,-0.020965576171875,0.0028076171875
1782846208751679700,1.6246796875,-0.9913482666015625,-0.021087646484375,0.00341796875
1782846208761684700,1.634684814453125,-0.9912261962890625,-0.0220489501953125,0.0038604736328125
1782846208771689700,1.644689697265625,-0.9908599853515625,-0.0208587646484375,0.0037994384765625
1782846208781694700,1.65469482421875,-0.989715576171875,-0.0225372314453125,0.003326416015625
1782846208791699700,1.66469970703125,-0.9915008544921875,-0.0203399658203125,0.003021240234375
1782846208801704700,1.67470458984375,-0.989990234375,-0.019866943359375,0.0023651123046875
1782846208811709700,1.684709716796875,-0.9900665283203125,-0.0202789306640625,0.0012054443359375
1782846208821714700,1.694714599609375,-0.9911651611328125,-0.021148681640625,0.0020904541015625
1782846208831719700,1.7047197265625,-0.9908905029296875,-0.0218963623046875,0.0019989013671875
1782846208841724700,1.714724609375,-0.9908294677734375,-0.0224151611328125,0.0021514892578125
1782846208851729700,1.724729736328125,-0.9917449951171875,-0.0230865478515625,0.0039825439453125
1782846208861734700,1.734734619140625,-0.991851806640625,-0.020233154296875,0.002410888671875
1782846208871739600,1.74473974609375,-0.9892730712890625,-0.0217437744140625,0.003326416015625
1782846208881744600,1.75474462890625,-0.9905853271484375,-0.0219268798828125,0.0036468505859375
1782846208891749600,1.76474951171875,-0.9899444580078125,-0.021820068359375,0.002899169921875
1782846208901754600,1.774754638671875,-0.9885406494140625,-0.021881103515625,0.00360107421875
1782846208911759600,1.784759521484375,-0.9891204833984375,-0.022003173828125,0.0029144287109375
1782846208921764600,1.7947646484375,-0.990142822265625,-0.021636962890625,0.0031585693359375
1782846208931769600,1.80476953125,-0.9910888671875,-0.02099609375,0.0026397705078125
1782846208941774600,1.814774658203125,-0.991241455078125,-0.0218658447265625,0.0026702880859375
1782846208951779600,1.824779541015625,-0.9906768798828125,-0.0208892822265625,0.0033721923828125
1782846208961784600,1.83478466796875,-0.9892578125,-0.02008056640625,0.002532958984375
1782846208971789600,1.84478955078125,-0.9899444580078125,-0.0211944580078125,0.0016021728515625
1782846208981794600,1.854794677734375,-0.99005126953125,-0.0215301513671875,0.0009307861328125
1782846208991799600,1.864799560546875,-0.989776611328125,-0.0207977294921875,0.0027008056640625
1782846209001804500,1.874804443359375,-0.990570068359375,-0.0206756591796875,0.00323486328125
1782846209011809500,1.8848095703125,-0.9906158447265625,-0.02154541015625,0.00177001953125
1782846209021814500,1.894814453125,-0.9882659912109375,-0.022216796875,0.0034942626953125
1782846209031819500,1.904819580078125,-0.990142822265625,-0.02215576171875,0.00164794921875
1782846209041824500,1.914824462890625,-0.9892578125,-0.0229644775390625,0.001983642578125
1782846209051829500,1.92482958984375,-0.990203857421875,-0.02166748046875,0.002410888671875
1782846209061834500,1.93483447265625,-0.9892120361328125,-0.02215576171875,0.0025177001953125
1782846209071839500,1.944839599609375,-0.9903564453125,-0.020965576171875,0.002349853515625
1782846209081844500,1.954844482421875,-0.9919281005859375,-0.0225067138671875,0.0013427734375
1782846209091849500,1.964849365234375,-0.99017333984375,-0.0227813720703125,0.0022125244140625
1782846209101854500,1.9748544921875,-0.989532470703125,-0.0228424072265625,0.003448486328125
1782846209111859500,1.984859375,-0.9904327392578125,-0.0211639404296875,0.00213623046875
1782846209121864400,1.994864501953125,-0.9905853271484375,-0.0221405029296875,0.0013885498046875
1782846209131869400,2.004869384765625,-0.9887542724609375,-0.0214385986328125,0.002471923828125
1782846209141874400,2.01487451171875,-0.989166259765625,-0.021759033203125,0.0033721923828125
1782846209151879400,2.02487939453125,-0.98895263671875,-0.0234375,0.00177001953125
1782846209161884700,2.034884765625,-0.9914703369140625,-0.0219573974609375,0.001861572265625
1782846209171889700,2.0448896484375,-0.98992919921875,-0.0201416015625,0.0023345947265625
1782846209181894700,2.054894775390625,-0.9908599853515625,-0.0198822021484375,0.00421142578125
1782846209191899600,2.064899658203125,-0.989898681640625,-0.0201873779296875,0.002105712890625
1782846209201904600,2.074904541015625,-0.990020751953125,-0.02001953125,0.0026397705078125
1782846209211909600,2.08490966796875,-0.99090576171875,-0.01953125,0.0037994384765625
1782846209221914600,2.09491455078125,-0.990631103515625,-0.0204620361328125,0.0029754638671875
1782846209231919600,2.104919677734375,-0.9893341064453125,-0.02099609375,0.0018463134765625
1782846209241924600,2.114924560546875,-0.989349365234375,-0.0225067138671875,0.002685546875
1782846209251929600,2.1249296875,-0.989501953125,-0.0219879150390625,0.001708984375
1782846209261934600,2.1349345703125,-0.9901275634765625,-0.02252197265625,0.0031890869140625
1782846209271939600,2.144939697265625,-0.9894561767578125,-0.0196075439453125,0.0036773681640625
1782846209281944600,2.154944580078125,-0.9910736083984375,-0.0218353271484375,0.004852294921875
1782846209291949600,2.164949462890625,-0.98980712890625,-0.0222320556640625,0.0036773681640625
1782846209301954600,2.17495458984375,-0.991455078125,-0.0228118896484375,0.0023193359375
1782846209311959600,2.18495947265625,-0.989959716796875,-0.0227813720703125,0.001495361328125
1782846209321964500,2.194964599609375,-0.98919677734375,-0.02069091796875,0.0015869140625
1782846209331969500,2.204969482421875,-0.9904632568359375,-0.02191162109375,0.0026397705078125
1782846209341974500,2.214974609375,-0.9904327392578125,-0.02264404296875,0.0032958984375
1782846209351979500,2.2249794921875,-0.9916839599609375,-0.02154541015625,0.0012664794921875
1782846209361984500,2.234984619140625,-0.9913482666015625,-0.0210113525390625,0.0018157958984375
1782846209371989800,2.24498974609375,-0.9922637939453125,-0.021148681640625,0.0029296875
1782846209381994800,2.254994873046875,-0.991546630859375,-0.0223846435546875,0.0015869140625
1782846209391999700,2.264999755859375,-0.99029541015625,-0.0206756591796875,0.0026397705078125
1782846209402004700,2.275004638671875,-0.9899749755859375,-0.021240234375,0.002044677734375
1782846209412008400,2.285008544921875,-0.98956298828125,-0.02093505859375,0.0024566650390625
1782846209422013400,2.295013427734375,-0.990875244140625,-0.0214385986328125,0.003082275390625
1782846209432018400,2.305018310546875,-0.99072265625,-0.0211334228515625,0.001739501953125
1782846209442023400,2.3150234375,-0.9912261962890625,-0.0213165283203125,0.0026397705078125
1782846209452028400,2.3250283203125,-0.9910736083984375,-0.0209808349609375,0.004150390625
1782846209462033400,2.335033447265625,-0.9907989501953125,-0.0216827392578125,0.004302978515625
1782846209472038400,2.345038330078125,-0.9911956787109375,-0.0208587646484375,0.0032806396484375
1782846209482043400,2.35504345703125,-0.9897003173828125,-0.02117919921875,0.002960205078125
1782846209492048600,2.365048583984375,-0.9904022216796875,-0.021484375,0.002288818359375
1782846209502053600,2.3750537109375,-0.9902191162109375,-0.021759033203125,0.001739501953125
1782846209512058600,2.38505859375,-0.98931884765625,-0.0208282470703125,0.00238037109375
1782846209522063600,2.395063720703125,-0.990234375,-0.021697998046875,0.0012664794921875
1782846209532068600,2.405068603515625,-0.991607666015625,-0.022552490234375,0.0034027099609375
1782846209542073600,2.415073486328125,-0.991546630859375,-0.0223846435546875,0.0026397705078125
1782846209552078800,2.425078857421875,-0.9904327392578125,-0.0205078125,0.0023651123046875
1782846209562083800,2.435083740234375,-0.9900360107421875,-0.0216827392578125,0.0034027099609375
1782846209572088800,2.4450888671875,-0.9897918701171875,-0.0213775634765625,0.000579833984375
1782846209582093800,2.45509375,-0.9901885986328125,-0.020904541015625,0.003326416015625
1782846209592098800,2.465098876953125,-0.991455078125,-0.0216217041015625,0.003662109375
1782846209602103800,2.475103759765625,-0.9909820556640625,-0.0212249755859375,0.0032501220703125
1782846209612108800,2.48510888671875,-0.9905853271484375,-0.0194244384765625,0.0042266845703125
1782846209622113800,2.49511376953125,-0.988677978515625,-0.0217437744140625,0.0021820068359375
1782846209632118800,2.505118896484375,-0.9894561767578125,-0.0225982666015625,0.0009765625
1782846209642123800,2.515123779296875,-0.991241455078125,-0.0214080810546875,0.002532958984375
1782846209652128800,2.525128662109375,-0.9902496337890625,-0.022125244140625,0.003692626953125
1782846209662133800,2.5351337890625,-0.9892425537109375,-0.023590087890625,0.003631591796875
1782846209672138800,2.545138671875,-0.9903411865234375,-0.0213623046875,0.0041656494140625
1782846209682143700,2.555143798828125,-0.990234375,-0.0233612060546875,0.0029449462890625
1782846209692148700,2.565148681640625,-0.9908905029296875,-0.0214691162109375,0.00299072265625
1782846209702153700,2.57515380859375,-0.9907073974609375,-0.0208282470703125,0.002288818359375
1782846209712158700,2.58515869140625,-0.9900665283203125,-0.020751953125,0.0019683837890625
1782846209722163700,2.595163818359375,-0.9908905029296875,-0.02001953125,0.00311279296875
1782846209732168700,2.605168701171875,-0.99090576171875,-0.0220794677734375,0.0021820068359375
1782846209742173700,2.615173583984375,-0.991302490234375,-0.0198211669921875,0.0016632080078125
1782846209752178700,2.6251787109375,-0.9897308349609375,-0.02105712890625,0.0016021728515625
1782846209762183700,2.63518359375,-0.98931884765625,-0.0221405029296875,0.0016326904296875
1782846209772188700,2.645188720703125,-0.9904937744140625,-0.0218658447265625,0.0037078857421875
1782846209782193700,2.655193603515625,-0.9908447265625,-0.021484375,0.002288818359375
1782846209792198700,2.66519873046875,-0.990570068359375,-0.02117919921875,0.002227783203125
1782846209802203600,2.67520361328125,-0.9910430908203125,-0.0222930908203125,0.003662109375
1782846209812208600,2.685208740234375,-0.9900970458984375,-0.0223236083984375,0.0019683837890625
1782846209822213600,2.695213623046875,-0.9903106689453125,-0.022705078125,0.00213623046875
1782846209832218600,2.705218505859375,-0.990386962890625,-0.0210723876953125,0.0030059814453125
1782846209842223600,2.7152236328125,-0.99053955078125,-0.0199432373046875,0.0029296875
1782846209852228600,2.725228515625,-0.9923095703125,-0.0201416015625,0.0031280517578125
1782846209862233600,2.735233642578125,-0.9913330078125,-0.0210723876953125,0.00177001953125
1782846209872238600,2.745238525390625,-0.989837646484375,-0.022247314453125,0.002899169921875
1782846209882243600,2.75524365234375,-0.991607666015625,-0.0202789306640625,0.00341796875
1782846209892248600,2.76524853515625,-0.989471435546875,-0.023193359375,0.00250244140625
1782846209902253600,2.775253662109375,-0.990386962890625,-0.0221099853515625,0.0017852783203125
1782846209912258600,2.785258544921875,-0.9914093017578125,-0.0225067138671875,0.0012664794921875
1782846209922263600,2.795263671875,-0.9918365478515625,-0.020172119140625,0.0031585693359375
1782846209932268500,2.8052685546875,-0.99090576171875,-0.020416259765625,0.0032501220703125
1782846209942273500,2.8152734375,-0.9900360107421875,-0.0211944580078125,0.0009002685546875
1782846209952278800,2.82527880859375,-0.9904937744140625,-0.0207061767578125,0.001678466796875
1782846209962283800,2.83528369140625,-0.991607666015625,-0.0225982666015625,0.00360107421875
1782846209972288800,2.845288818359375,-0.990020751953125,-0.0211639404296875,0.003570556640625
1782846209982293800,2.855293701171875,-0.99139404296875,-0.0225677490234375,0.0017242431640625
1782846209992298800,2.865298828125,-0.9904327392578125,-0.0216217041015625,0.002593994140625
1782846210002303700,2.8753037109375,-0.9918670654296875,-0.021270751953125,0.000640869140625
1782846210012308700,2.885308837890625,-0.9906158447265625,-0.0213470458984375,0.0022430419921875
1782846210022313700,2.895313720703125,-0.990753173828125,-0.02117919921875,0.0033416748046875
1782846210032318700,2.905318603515625,-0.990966796875,-0.02154541015625,0.002655029296875
1782846210042323700,2.91532373046875,-0.989654541015625,-0.020904541015625,0.0016326904296875
1782846210052328700,2.92532861328125,-0.9911041259765625,-0.02252197265625,0.004791259765625
1782846210062333700,2.935333740234375,-0.989593505859375,-0.023529052734375,0.0049591064453125
1782846210072339000,2.9453388671875,-0.99090576171875,-0.021026611328125,0.0032806396484375
1782846210082344000,2.955343994140625,-0.9923095703125,-0.0204010009765625,0.002532958984375
1782846210092349000,2.965348876953125,-0.9921875,-0.0218658447265625,0.0029754638671875
1782846210102354000,2.97535400390625,-0.9894256591796875,-0.02130126953125,0.00341796875
1782846210112359000,2.98535888671875,-0.98944091796875,-0.0216522216796875,0.002777099609375
1782846210122364000,2.995364013671875,-0.990936279296875,-0.02069091796875,0.00103759765625
1782846210132369000,3.005368896484375,-0.989837646484375,-0.0209503173828125,0.0010833740234375
1782846210142374000,3.015373779296875,-0.9904327392578125,-0.020294189453125,0.001251220703125
1782846210152379000,3.02537890625,-0.99090576171875,-0.020294189453125,0.0043792724609375
1782846210162384000,3.0353837890625,-0.9895477294921875,-0.0214996337890625,0.0035400390625
1782846210172388900,3.045388916015625,-0.992034912109375,-0.0221405029296875,0.002685546875
1782846210182393900,3.055393798828125,-0.98944091796875,-0.0215911865234375,0.003387451171875
1782846210192397800,3.065397705078125,-0.9889984130859375,-0.02288818359375,0.0036163330078125
1782846210202402800,3.07540283203125,-0.9912872314453125,-0.0229034423828125,0.00189208984375
1782846210212407800,3.08540771484375,-0.9901885986328125,-0.021759033203125,0.0024566650390625
1782846210222412800,3.095412841796875,-0.990386962890625,-0.0209808349609375,0.004669189453125
1782846210232417800,3.105417724609375,-0.9904022216796875,-0.022064208984375,0.0025177001953125
1782846210242422800,3.1154228515625,-0.9913330078125,-0.0204925537109375,0.002655029296875
1782846210252427800,3.125427734375,-0.9907073974609375,-0.02191162109375,0.004241943359375
1782846210262432800,3.135432861328125,-0.99114990234375,-0.0209197998046875,0.002716064453125
1782846210272437800,3.145437744140625,-0.9910125732421875,-0.020477294921875,0.0032501220703125
1782846210282442800,3.15544287109375,-0.9894256591796875,-0.02044677734375,0.003265380859375
1782846210292447700,3.16544775390625,-0.990203857421875,-0.0223846435546875,0.00054931640625
1782846210302452700,3.17545263671875,-0.9913482666015625,-0.022064208984375,0.0019683837890625
1782846210312457700,3.185457763671875,-0.990570068359375,-0.020355224609375,0.0029754638671875
1782846210322462700,3.195462646484375,-0.9909820556640625,-0.0216827392578125,0.002044677734375
1782846210332467700,3.2054677734375,-0.9911651611328125,-0.021209716796875,0.0025787353515625
1782846210342472700,3.21547265625,-0.9907073974609375,-0.0211334228515625,0.0032806396484375
1782846210352477700,3.225477783203125,-0.9901885986328125,-0.02105712890625,0.00262451171875
1782846210362482700,3.235482666015625,-0.990814208984375,-0.021514892578125,0.0020294189453125
1782846210372487700,3.24548779296875,-0.989990234375,-0.0225830078125,0.001373291015625
1782846210382492700,3.25549267578125,-0.99200439453125,-0.0207672119140625,0.0036468505859375
1782846210392497700,3.26549755859375,-0.990814208984375,-0.021453857421875,0.0039215087890625
1782846210402502700,3.275502685546875,-0.9891204833984375,-0.0229034423828125,0.0036468505859375
1782846210412507600,3.285507568359375,-0.989715576171875,-0.0208892822265625,0.0021209716796875
1782846210422513000,3.295512939453125,-0.990966796875,-0.0217437744140625,0.002899169921875
1782846210432518000,3.305517822265625,-0.990875244140625,-0.0213623046875,0.002044677734375
1782846210442523000,3.31552294921875,-0.9893951416015625,-0.02215576171875,0.0030975341796875
1782846210452527900,3.32552783203125,-0.991363525390625,-0.021759033203125,0.0025482177734375
1782846210462532900,3.335532958984375,-0.991241455078125,-0.021636962890625,0.002899169921875
1782846210472537900,3.345537841796875,-0.99139404296875,-0.022125244140625,0.0035247802734375
1782846210482542800,3.35554296875,-0.990234375,-0.0211944580078125,0.003204345703125
1782846210492547800,3.3655478515625,-0.9902191162109375,-0.0210723876953125,0.0029296875
1782846210502552800,3.375552734375,-0.9900054931640625,-0.020538330078125,0.003173828125
1782846210512557800,3.385557861328125,-0.9909820556640625,-0.020355224609375,0.002685546875
1782846210522562800,3.395562744140625,-0.9907073974609375,-0.0202789306640625,0.002288818359375
1782846210532567800,3.40556787109375,-0.9915313720703125,-0.0215301513671875,0.0021209716796875
1782846210542572800,3.41557275390625,-0.9906463623046875,-0.0217742919921875,0.0011444091796875
1782846210552577800,3.425577880859375,-0.988861083984375,-0.0230255126953125,0.00372314453125
1782846210562582800,3.435582763671875,-0.989593505859375,-0.0227813720703125,0.003814697265625
1782846210572587800,3.445587890625,-0.9909515380859375,-0.0230560302734375,0.00250244140625
1782846210582592800,3.4555927734375,-0.9906768798828125,-0.02142333984375,0.0035400390625
1782846210592597800,3.46559765625,-0.99017333984375,-0.021209716796875,0.0032501220703125
1782846210602602800,3.475602783203125,-0.9915008544921875,-0.022857666015625,0.003082275390625
1782846210612607700,3.485607666015625,-0.990020751953125,-0.0215911865234375,0.0029754638671875
1782846210622612700,3.49561279296875,-0.9904022216796875,-0.022186279296875,0.0020294189453125
1782846210632617700,3.50561767578125,-0.98974609375,-0.0213470458984375,0.0024871826171875
1782846210642622700,3.515622802734375,-0.9925689697265625,-0.021484375,0.0025177001953125
1782846210652627700,3.525627685546875,-0.990386962890625,-0.02130126953125,0.003753662109375
1782846210662632700,3.5356328125,-0.99066162109375,-0.0211334228515625,0.0031890869140625
1782846210672637700,3.5456376953125,-0.9910888671875,-0.0205535888671875,0.00201416015625
1782846210682642700,3.555642578125,-0.990203857421875,-0.0201873779296875,0.0031280517578125
1782846210692647700,3.565647705078125,-0.989349365234375,-0.021636962890625,0.0022735595703125
1782846210702652700,3.575652587890625,-0.9902801513671875,-0.0219573974609375,0.0021209716796875
1782846210712657700,3.58565771484375,-0.9913330078125,-0.020660400390625,0.003143310546875
1782846210722662700,3.59566259765625,-0.9896240234375,-0.0223541259765625,0.00238037109375
1782846210732667600,3.605667724609375,-0.9907989501953125,-0.021575927734375,0.004974365234375
1782846210742672600,3.615672607421875,-0.9897918701171875,-0.0208892822265625,0.002838134765625
1782846210752677600,3.625677734375,-0.991302490234375,-0.0220184326171875,0.004180908203125
1782846210762682600,3.6356826171875,-0.9904632568359375,-0.02117919921875,0.001708984375
1782846210772687600,3.6456875,-0.9905548095703125,-0.021697998046875,0.0026702880859375
1782846210782692600,3.655692626953125,-0.9910430908203125,-0.022247314453125,0.0046234130859375
1782846210792697600,3.665697509765625,-0.990264892578125,-0.0217132568359375,0.003692626953125
1782846210802702600,3.67570263671875,-0.9899749755859375,-0.02203369140625,0.003326416015625
1782846210812707600,3.68570751953125,-0.9908599853515625,-0.021087646484375,0.0018768310546875
1782846210822712600,3.695712646484375,-0.9915008544921875,-0.0216217041015625,0.0008544921875
1782846210832717600,3.705717529296875,-0.9912109375,-0.0222625732421875,0.0028533935546875
1782846210842722600,3.71572265625,-0.990142822265625,-0.0218963623046875,0.0028533935546875
1782846210852727600,3.7257275390625,-0.989410400390625,-0.0219573974609375,0.003265380859375
1782846210862732500,3.735732666015625,-0.9900054931640625,-0.0227508544921875,0.0031280517578125
1782846210872737500,3.745737548828125,-0.9901275634765625,-0.0208740234375,0.001861572265625
1782846210882742500,3.755742431640625,-0.9900970458984375,-0.0195465087890625,0.003814697265625
1782846210892747500,3.76574755859375,-0.9907989501953125,-0.020599365234375,0.0036163330078125
1782846210902752500,3.77575244140625,-0.989776611328125,-0.0218048095703125,0.00274658203125
1782846210912756700,3.7857568359375,-0.991363525390625,-0.0199737548828125,0.00262451171875
1782846210922762800,3.7957626953125,-0.9897918701171875,-0.021697998046875,0.0023956298828125
1782846210932766700,3.8057666015625,-0.9919281005859375,-0.0213470458984375,0.00225830078125
1782846210942771700,3.815771728515625,-0.98846435546875,-0.0202178955078125,0.003204345703125
1782846210952776700,3.825776611328125,-0.989471435546875,-0.021209716796875,0.00244140625
1782846210962781700,3.83578173828125,-0.9906463623046875,-0.0222015380859375,0.0028839111328125
1782846210972786700,3.84578662109375,-0.9902496337890625,-0.0217132568359375,0.00152587890625
1782846210982791700,3.855791748046875,-0.990325927734375,-0.0222625732421875,0.0023345947265625
1782846210992796700,3.865796630859375,-0.99053955078125,-0.0223846435546875,0.002227783203125
1782846211002801700,3.8758017578125,-0.99114990234375,-0.021881103515625,0.003204345703125
1782846211012806700,3.885806640625,-0.9901580810546875,-0.021697998046875,0.0027313232421875
1782846211022811600,3.895811767578125,-0.9907989501953125,-0.0223541259765625,0.00238037109375
1782846211032816600,3.905816650390625,-0.9892730712890625,-0.0224761962890625,0.00335693359375
1782846211042821600,3.915821533203125,-0.9907989501953125,-0.0220489501953125,0.004669189453125
1782846211052826600,3.92582666015625,-0.990875244140625,-0.0224761962890625,0.00408935546875
1782846211062831600,3.93583154296875,-0.9900970458984375,-0.0225677490234375,0.002349853515625
1782846211072836600,3.945836669921875,-0.9893798828125,-0.02069091796875,0.0020751953125
1782846211082841600,3.955841552734375,-0.9903106689453125,-0.02178955078125,0.00146484375
1782846211092846600,3.9658466796875,-0.9909820556640625,-0.0211181640625,0.004058837890625
1782846211102851600,3.9758515625,-0.9900970458984375,-0.021087646484375,0.001983642578125
1782846211112856600,3.985856689453125,-0.99017333984375,-0.0196380615234375,0.0031890869140625
1782846211122861600,3.995861572265625,-0.9916534423828125,-0.02093505859375,0.002227783203125
1782846211132866600,4.005866455078125,-0.991363525390625,-0.0225830078125,0.00244140625
1782846211142871600,4.01587158203125,-0.9901123046875,-0.0217132568359375,0.0044403076171875
1782846211152876500,4.02587646484375,-0.990570068359375,-0.02117919921875,0.0035858154296875
1782846211162881500,4.035881591796875,-0.9897003173828125,-0.022308349609375,0.002838134765625
1782846211172886500,4.045886474609375,-0.990753173828125,-0.0227508544921875,0.0023345947265625
1782846211182891500,4.0558916015625,-0.99176025390625,-0.0215301513671875,0.0036468505859375
1782846211192896500,4.065896484375,-0.989501953125,-0.0218963623046875,0.0048675537109375
1782846211202901500,4.075901611328125,-0.9908447265625,-0.020263671875,0.0032806396484375
1782846211212906500,4.085906494140625,-0.9903564453125,-0.0200958251953125,0.002777099609375
1782846211222911500,4.095911376953125,-0.990997314453125,-0.020263671875,0.0032196044921875
1782846211232916500,4.10591650390625,-0.9911651611328125,-0.0213470458984375,0.0014495849609375
1782846211242921500,4.11592138671875,-0.990203857421875,-0.0209808349609375,0.002227783203125
1782846211252926500,4.125926513671875,-0.9892578125,-0.0215606689453125,0.00201416015625
1782846211262931700,4.135931640625,-0.990234375,-0.0205078125,0.002105712890625
1782846211272936700,4.145936767578125,-0.9894866943359375,-0.020660400390625,0.0037384033203125
1782846211282941700,4.155941650390625,-0.9900665283203125,-0.0216217041015625,0.002197265625
1782846211292946700,4.16594677734375,-0.9910430908203125,-0.02178955078125,0.0026092529296875
1782846211302951700,4.17595166015625,-0.9903411865234375,-0.0205535888671875,0.0035858154296875
1782846211312956700,4.185956787109375,-0.99090576171875,-0.0214385986328125,0.0053253173828125
1782846211322961700,4.195961669921875,-0.9908447265625,-0.02197265625,0.0046844482421875
1782846211332966700,4.205966552734375,-0.9907989501953125,-0.021240234375,0.0013427734375
1782846211342971600,4.2159716796875,-0.9920196533203125,-0.0209808349609375,0.0020294189453125
1782846211352976600,4.2259765625,-0.9910125732421875,-0.022430419921875,0.0027313232421875
1782846211362981600,4.235981689453125,-0.9920196533203125,-0.0224151611328125,0.0036468505859375
1782846211372986600,4.245986572265625,-0.9915313720703125,-0.0226898193359375,0.004180908203125
1782846211382991600,4.25599169921875,-0.9911041259765625,-0.0202484130859375,0.003143310546875
1782846211392996600,4.26599658203125,-0.9909820556640625,-0.0207977294921875,0.0018463134765625
1782846211403001600,4.276001708984375,-0.990814208984375,-0.0211029052734375,0.0037689208984375
1782846211413006600,4.286006591796875,-0.9897003173828125,-0.0202178955078125,0.00299072265625
1782846211423011600,4.296011474609375,-0.990875244140625,-0.02081298828125,0.001434326171875
1782846211433016600,4.3060166015625,-0.9904327392578125,-0.020233154296875,0.00250244140625
1782846211443021600,4.316021484375,-0.989410400390625,-0.0215301513671875,0.002685546875
1782846211453026600,4.326026611328125,-0.989501953125,-0.021820068359375,0.00274658203125
1782846211463031800,4.33603173828125,-0.9907073974609375,-0.0208892822265625,0.0031280517578125
1782846211473036800,4.346036865234375,-0.99029541015625,-0.0214996337890625,0.0022430419921875
1782846211483041800,4.356041748046875,-0.9899749755859375,-0.0218505859375,0.002349853515625
1782846211493046500,4.366046630859375,-0.9903411865234375,-0.0212554931640625,0.0026092529296875
1782846211503051500,4.376051513671875,-0.9900970458984375,-0.021453857421875,0.00311279296875
1782846211513056500,4.386056396484375,-0.990142822265625,-0.0214385986328125,0.0042877197265625
1782846211523061500,4.3960615234375,-0.9906005859375,-0.019927978515625,0.0028228759765625
1782846211533066500,4.40606640625,-0.990020751953125,-0.0208740234375,0.0028228759765625
1782846211543071500,4.416071533203125,-0.991241455078125,-0.02105712890625,0.0020599365234375
1782846211553075500,4.426075439453125,-0.9903564453125,-0.02069091796875,0.000274658203125
1782846211563080400,4.43608056640625,-0.990478515625,-0.021514892578125,0.0008087158203125
1782846211573085400,4.44608544921875,-0.98968505859375,-0.0214691162109375,0.0020294189453125
1782846211583090400,4.45609033203125,-0.9897613525390625,-0.0204010009765625,0.0042724609375
1782846211593095400,4.466095458984375,-0.991058349609375,-0.0216217041015625,0.0021514892578125
1782846211603100400,4.476100341796875,-0.99127197265625,-0.01959228515625,0.003265380859375
1782846211613105400,4.48610546875,-0.991729736328125,-0.0222320556640625,0.002105712890625
1782846211623110700,4.496110595703125,-0.98974609375,-0.0205535888671875,0.0026092529296875
1782846211633115600,4.50611572265625,-0.9890289306640625,-0.020965576171875,0.00274658203125
1782846211643120600,4.51612060546875,-0.9897613525390625,-0.02069091796875,0.0028076171875
1782846211653125600,4.526125732421875,-0.98974609375,-0.0211944580078125,0.0020751953125
1782846211663130600,4.536130615234375,-0.989837646484375,-0.0211944580078125,0.0030517578125
1782846211673135600,4.546135498046875,-0.990997314453125,-0.0199127197265625,0.0026397705078125
1782846211683140600,4.556140625,-0.9906463623046875,-0.0220184326171875,0.0016937255859375
1782846211693145600,4.5661455078125,-0.9907684326171875,-0.0224456787109375,0.0020751953125
1782846211703150600,4.576150634765625,-0.9894866943359375,-0.0213623046875,0.0037078857421875
1782846211713155600,4.586155517578125,-0.9914093017578125,-0.02154541015625,0.0034637451171875
1782846211723160600,4.59616064453125,-0.9895172119140625,-0.022613525390625,0.0025634765625
1782846211733165600,4.60616552734375,-0.990264892578125,-0.022247314453125,0.003204345703125
1782846211743170600,4.616170654296875,-0.990570068359375,-0.020355224609375,0.0028076171875
1782846211753175600,4.626175537109375,-0.9912261962890625,-0.020965576171875,0.00250244140625
1782846211763180500,4.6361806640625,-0.9901885986328125,-0.0211639404296875,0.0022430419921875
1782846211773185500,4.646185546875,-0.990997314453125,-0.0218505859375,0.0013580322265625
1782846211783190800,4.656190673828125,-0.9902801513671875,-0.022003173828125,0.0031890869140625
1782846211793195800,4.66619580078125,-0.99053955078125,-0.020477294921875,0.0040283203125
1782846211803200800,4.67620068359375,-0.9906768798828125,-0.0201568603515625,0.003448486328125
1782846211813205800,4.686205810546875,-0.99053955078125,-0.020477294921875,0.0029449462890625
1782846211823210800,4.696210693359375,-0.9916839599609375,-0.0218963623046875,0.00140380859375
1782846211833215700,4.7062158203125,-0.991668701171875,-0.0220489501953125,0.0031280517578125
1782846211843220700,4.716220703125,-0.9916534423828125,-0.0208282470703125,0.0041046142578125
1782846211853225700,4.726225830078125,-0.9900665283203125,-0.021759033203125,0.00250244140625
1782846211863230700,4.736230712890625,-0.989898681640625,-0.0208892822265625,0.002960205078125
1782846211873235700,4.746235595703125,-0.99017333984375,-0.022216796875,0.00177001953125
1782846211883240700,4.75624072265625,-0.990478515625,-0.0198974609375,0.0034332275390625
1782846211893245700,4.76624560546875,-0.9912109375,-0.02081298828125,0.0020751953125
1782846211903250700,4.776250732421875,-0.991302490234375,-0.0212249755859375,0.003173828125
1782846211913255700,4.786255615234375,-0.99041748046875,-0.021026611328125,0.002197265625
1782846211923260700,4.7962607421875,-0.989501953125,-0.0204315185546875,0.0024261474609375
1782846211933265700,4.806265625,-0.990234375,-0.0208282470703125,0.003631591796875
1782846211943270700,4.816270751953125,-0.9917755126953125,-0.0226287841796875,0.0045013427734375
1782846211953275600,4.826275634765625,-0.9923553466796875,-0.021209716796875,0.004974365234375
1782846211963280600,4.83628076171875,-0.990509033203125,-0.0202789306640625,0.002044677734375
1782846211973285600,4.84628564453125,-0.9910125732421875,-0.0218658447265625,0.0029296875
1782846211983290600,4.85629052734375,-0.9910430908203125,-0.0218658447265625,0.0039215087890625
1782846211993295600,4.866295654296875,-0.9915771484375,-0.02130126953125,0.001922607421875
1782846212003300600,4.876300537109375,-0.990631103515625,-0.020538330078125,0.0020294189453125
1782846212013305600,4.8863056640625,-0.9904632568359375,-0.0223236083984375,0.0030670166015625
1782846212023310600,4.896310546875,-0.9901885986328125,-0.02166748046875,0.0033416748046875
1782846212033315600,4.906315673828125,-0.989501953125,-0.0222625732421875,0.003509521484375
1782846212043320600,4.916320556640625,-0.990203857421875,-0.0203399658203125,0.003631591796875
1782846212053325600,4.92632568359375,-0.98980712890625,-0.0201568603515625,0.0034637451171875
1782846212063330600,4.93633056640625,-0.9900360107421875,-0.022552490234375,0.002685546875
1782846212073335600,4.94633544921875,-0.989471435546875,-0.02154541015625,0.003387451171875
1782846212083340500,4.956340576171875,-0.9901885986328125,-0.021636962890625,0.0032501220703125
1782846212093345500,4.966345458984375,-0.9908447265625,-0.02142333984375,0.0024566650390625
1782846212103350500,4.9763505859375,-0.989990234375,-0.0212554931640625,0.0045013427734375
1782846212113354800,4.986354736328125,-0.990753173828125,-0.02276611328125,0.004302978515625
1782846212123359700,4.99635986328125,-0.9898529052734375,-0.022705078125,0.00335693359375
1782846212133364700,5.00636474609375,-0.99163818359375,-0.0217437744140625,0.003143310546875
1782846212143369700,5.01636962890625,-0.9903411865234375,-0.022186279296875,0.0028076171875
1782846212153374700,5.026374755859375,-0.98968505859375,-0.0215911865234375,0.003173828125
1782846212163379700,5.036379638671875,-0.9918212890625,-0.0208587646484375,0.0024566650390625
1782846212173384700,5.046384765625,-0.98944091796875,-0.0218353271484375,0.0027618408203125
1782846212183389700,5.0563896484375,-0.99005126953125,-0.0220489501953125,0.003387451171875
1782846212193394700,5.066394775390625,-0.9906005859375,-0.0210113525390625,0.002685546875
1782846212203399700,5.076399658203125,-0.9903411865234375,-0.0221099853515625,0.001495361328125
1782846212213404700,5.08640478515625,-0.98944091796875,-0.022125244140625,0.002716064453125
1782846212223409700,5.09640966796875,-0.989288330078125,-0.022979736328125,0.004180908203125
1782846212233414700,5.10641455078125,-0.99169921875,-0.0228424072265625,0.0048370361328125
1782846212243419600,5.116419677734375,-0.9924163818359375,-0.019744873046875,0.00341796875
1782846212253424600,5.126424560546875,-0.9894866943359375,-0.0201416015625,0.00250244140625
1782846212263429600,5.1364296875,-0.9911651611328125,-0.0205078125,0.002593994140625
1782846212273434600,5.1464345703125,-0.99151611328125,-0.0206451416015625,0.002960205078125
1782846212283439600,5.156439697265625,-0.9909515380859375,-0.0225067138671875,0.001953125
1782846212293444600,5.166444580078125,-0.990234375,-0.0218963623046875,0.00360107421875
1782846212303449600,5.17644970703125,-0.9910125732421875,-0.02191162109375,0.00244140625
1782846212313454600,5.18645458984375,-0.9905242919921875,-0.0220947265625,0.001251220703125
1782846212323459600,5.19645947265625,-0.990966796875,-0.02093505859375,0.0022125244140625
1782846212333464600,5.206464599609375,-0.9913787841796875,-0.0219879150390625,0.0023040771484375
1782846212343469600,5.216469482421875,-0.9904022216796875,-0.0215301513671875,0.0025177001953125
1782846212353474600,5.226474609375,-0.9919281005859375,-0.0207977294921875,0.0035552978515625
1782846212363479600,5.2364794921875,-0.991058349609375,-0.02117919921875,0.003753662109375
1782846212373484500,5.246484619140625,-0.991546630859375,-0.0222930908203125,0.0040435791015625
1782846212383489500,5.256489501953125,-0.99017333984375,-0.020538330078125,0.00341796875
1782846212393494500,5.26649462890625,-0.9920501708984375,-0.0224151611328125,0.002960205078125
1782846212403499500,5.27649951171875,-0.9913787841796875,-0.0212860107421875,0.0020904541015625
1782846212413504500,5.28650439453125,-0.9887847900390625,-0.0217132568359375,0.0025482177734375
1782846212423509500,5.296509521484375,-0.989227294921875,-0.0216217041015625,0.0041046142578125
1782846212433514500,5.306514404296875,-0.989349365234375,-0.02362060546875,0.0018463134765625
1782846212443519500,5.31651953125,-0.989837646484375,-0.0224609375,0.00341796875
1782846212453524500,5.3265244140625,-0.9904937744140625,-0.021514892578125,0.00341796875
1782846212463529500,5.336529541015625,-0.9907379150390625,-0.0216064453125,0.003143310546875
1782846212473534500,5.346534423828125,-0.990692138671875,-0.02093505859375,0.0023651123046875
1782846212483539500,5.35653955078125,-0.9917144775390625,-0.0211029052734375,0.00299072265625
1782846212493543700,5.366543701171875,-0.990264892578125,-0.0227813720703125,0.001708984375
1782846212503548700,5.376548583984375,-0.9896392822265625,-0.021759033203125,0.0026092529296875
1782846212513553700,5.3865537109375,-0.9906768798828125,-0.0217437744140625,0.0034942626953125
1782846212523558700,5.39655859375,-0.9908905029296875,-0.02166748046875,0.0020599365234375
1782846212533564000,5.40656396484375,-0.99029541015625,-0.022705078125,0.0025787353515625
1782846212543569000,5.41656884765625,-0.9898223876953125,-0.02154541015625,0.00274658203125
1782846212553574000,5.426573974609375,-0.9898681640625,-0.0209808349609375,0.0030670166015625
1782846212563579000,5.436578857421875,-0.9902496337890625,-0.0223541259765625,0.0016632080078125
1782846212573584000,5.446583984375,-0.9907379150390625,-0.0214996337890625,0.003021240234375
1782846212583588900,5.4565888671875,-0.9915618896484375,-0.02105712890625,0.0035400390625
1782846212593593900,5.46659375,-0.9904327392578125,-0.0214080810546875,0.00341796875
1782846212603598800,5.476598876953125,-0.989471435546875,-0.0210723876953125,0.003448486328125
1782846212613603800,5.486603759765625,-0.990234375,-0.0211639404296875,0.0028839111328125
1782846212623608800,5.49660888671875,-0.9892120361328125,-0.022186279296875,0.003662109375
1782846212633613800,5.50661376953125,-0.9913177490234375,-0.02130126953125,0.0017547607421875
1782846212643617500,5.516617431640625,-0.9910888671875,-0.0213623046875,0.002044677734375
1782846212653622500,5.52662255859375,-0.99102783203125,-0.0219879150390625,0.00262451171875
1782846212663627500,5.53662744140625,-0.9899749755859375,-0.0224151611328125,0.001617431640625
1782846212673632500,5.546632568359375,-0.9917144775390625,-0.020782470703125,0.00286865234375
1782846212683637500,5.556637451171875,-0.990570068359375,-0.0199432373046875,0.00286865234375
1782846212693642500,5.566642578125,-0.9907379150390625,-0.020751953125,0.00274658203125
1782846212703647700,5.576647705078125,-0.9907684326171875,-0.0219268798828125,0.003143310546875
1782846212713652700,5.58665283203125,-0.990509033203125,-0.0207977294921875,0.0024261474609375
1782846212723657700,5.59665771484375,-0.9911651611328125,-0.0211639404296875,0.0030975341796875
1782846212733662700,5.606662841796875,-0.990692138671875,-0.0210723876953125,0.002166748046875
1782846212743668000,5.61666796875,-0.991424560546875,-0.02154541015625,0.00274658203125
1782846212753673000,5.6266728515625,-0.9908447265625,-0.0219573974609375,0.00225830078125
1782846212763678000,5.636677978515625,-0.9902801513671875,-0.0207061767578125,0.0008392333984375
1782846212773683000,5.646682861328125,-0.9903106689453125,-0.022216796875,0.0020904541015625
1782846212783688000,5.65668798828125,-0.9896087646484375,-0.0212249755859375,0.00323486328125
1782846212793693000,5.66669287109375,-0.9904937744140625,-0.0213623046875,0.002593994140625
1782846212803698000,5.676697998046875,-0.9915924072265625,-0.020111083984375,0.0044097900390625
1782846212813703000,5.686702880859375,-0.990692138671875,-0.021209716796875,0.0034637451171875
1782846212823708000,5.6967080078125,-0.9917755126953125,-0.0222320556640625,0.001983642578125
1782846212833713000,5.706712890625,-0.9904327392578125,-0.0205230712890625,0.0042266845703125
1782846212843718000,5.7167177734375,-0.9919586181640625,-0.020782470703125,0.0022735595703125
1782846212853723000,5.726722900390625,-0.9896087646484375,-0.021575927734375,0.0023040771484375
1782846212863727900,5.736727783203125,-0.9906768798828125,-0.0217437744140625,0.0033111572265625
1782846212873732900,5.74673291015625,-0.9911041259765625,-0.0228424072265625,0.003021240234375
1782846212883737900,5.75673779296875,-0.9916229248046875,-0.0203704833984375,0.002685546875
1782846212893742800,5.766742919921875,-0.9906768798828125,-0.021759033203125,0.003265380859375
1782846212903747800,5.776747802734375,-0.991241455078125,-0.02056884765625,0.002197265625
1782846212913752800,5.7867529296875,-0.990570068359375,-0.02056884765625,0.003814697265625
1782846212923757800,5.7967578125,-0.99151611328125,-0.021575927734375,0.00128173828125
1782846212933762800,5.8067626953125,-0.9904632568359375,-0.02081298828125,0.0041046142578125
1782846212943767800,5.816767822265625,-0.990570068359375,-0.019927978515625,0.0039520263671875
1782846212953772800,5.826772705078125,-0.989044189453125,-0.0217132568359375,0.0024871826171875
1782846212963777800,5.83677783203125,-0.990966796875,-0.0214691162109375,0.001556396484375
1782846212973782800,5.84678271484375,-0.9909210205078125,-0.0205535888671875,0.0027618408203125
1782846212983787800,5.856787841796875,-0.9895782470703125,-0.0212249755859375,0.0028839111328125
1782846212993792800,5.866792724609375,-0.991912841796875,-0.0218353271484375,0.00390625
1782846213003797800,5.8767978515625,-0.9915924072265625,-0.0213775634765625,0.00201416015625
1782846213013802800,5.886802734375,-0.9893798828125,-0.02093505859375,0.002899169921875
1782846213023807700,5.896807861328125,-0.9899444580078125,-0.0215911865234375,0.00347900390625
1782846213033812700,5.906812744140625,-0.9909820556640625,-0.021453857421875,0.00311279296875
1782846213043817700,5.916817626953125,-0.990814208984375,-0.022186279296875,0.0028839111328125
1782846213053822700,5.92682275390625,-0.9899444580078125,-0.0214385986328125,0.002899169921875
1782846213063827700,5.93682763671875,-0.9893035888671875,-0.020263671875,0.0026397705078125
1782846213073832700,5.946832763671875,-0.990966796875,-0.0218963623046875,0.001922607421875
1782846213083837700,5.956837646484375,-0.9904327392578125,-0.0206146240234375,0.0026092529296875
1782846213093842700,5.9668427734375,-0.99078369140625,-0.0212249755859375,0.0024566650390625
1782846213103847000,5.976846923828125,-0.99114990234375,-0.021484375,0.0037078857421875
1782846213113852000,5.986851806640625,-0.9914398193359375,-0.0233154296875,0.0016937255859375
1782846213123857000,5.99685693359375,-0.9910430908203125,-0.022216796875,0.0020294189453125
1782846213133862000,6.00686181640625,-0.989959716796875,-0.023040771484375,0.0021514892578125
1782846213143867000,6.016866943359375,-0.9902801513671875,-0.02252197265625,0.0016632080078125
1782846213153872000,6.026871826171875,-0.990753173828125,-0.0209197998046875,0.001708984375
1782846213163876900,6.036876953125,-0.990875244140625,-0.0217742919921875,0.0030975341796875
1782846213173881900,6.0468818359375,-0.98992919921875,-0.0221710205078125,0.003936767578125
1782846213183886800,6.056886962890625,-0.989990234375,-0.0219879150390625,0.002105712890625
1782846213193891800,6.066891845703125,-0.9903717041015625,-0.02099609375,0.0018157958984375
1782846213203896800,6.076896728515625,-0.988739013671875,-0.0208740234375,0.00299072265625
1782846213213901800,6.08690185546875,-0.9893798828125,-0.020477294921875,0.0015106201171875
1782846213223906800,6.09690673828125,-0.989593505859375,-0.0206756591796875,0.0029296875
1782846213233911800,6.106911865234375,-0.9910125732421875,-0.02264404296875,0.00250244140625
1782846213243916800,6.116916748046875,-0.988861083984375,-0.02191162109375,0.002105712890625
1782846213253921800,6.126921875,-0.99114990234375,-0.0202789306640625,0.0019683837890625
1782846213263926800,6.1369267578125,-0.99005126953125,-0.0217742919921875,0.0037078857421875
1782846213273931800,6.146931884765625,-0.98931884765625,-0.0221099853515625,0.0035552978515625
1782846213283936800,6.156936767578125,-0.991668701171875,-0.0210723876953125,0.00274658203125
1782846213293941800,6.166941650390625,-0.9901885986328125,-0.0219268798828125,0.003509521484375
1782846213303946800,6.17694677734375,-0.9904937744140625,-0.0215301513671875,0.0037078857421875
1782846213313951700,6.18695166015625,-0.9910430908203125,-0.0210113525390625,0.0019073486328125
1782846213323956700,6.196956787109375,-0.9901123046875,-0.0203704833984375,0.002899169921875
1782846213333961700,6.206961669921875,-0.9898681640625,-0.0205841064453125,0.002655029296875
1782846213343966700,6.216966796875,-0.989654541015625,-0.02264404296875,0.0026092529296875
1782846213353971700,6.2269716796875,-0.990447998046875,-0.02117919921875,0.0030364990234375
1782846213363976700,6.236976806640625,-0.9898223876953125,-0.0218658447265625,0.0017852783203125
1782846213373981700,6.246981689453125,-0.99066162109375,-0.02069091796875,0.001678466796875
1782846213383986700,6.256986572265625,-0.990814208984375,-0.022369384765625,0.003204345703125
1782846213393991700,6.26699169921875,-0.99200439453125,-0.0216217041015625,0.0034332275390625
1782846213403996700,6.27699658203125,-0.991180419921875,-0.0209808349609375,0.0018310546875
1782846213414001700,6.287001708984375,-0.990234375,-0.0225067138671875,0.0012969970703125
1782846213424006700,6.297006591796875,-0.9912261962890625,-0.0207977294921875,0.0037384033203125
1782846213434011600,6.30701171875,-0.992279052734375,-0.0215606689453125,0.0036163330078125
1782846213444016600,6.3170166015625,-0.9894561767578125,-0.0224609375,0.00347900390625
1782846213454021600,6.327021728515625,-0.989349365234375,-0.0210113525390625,0.003387451171875
1782846213464026600,6.337026611328125,-0.991241455078125,-0.0210418701171875,0.0027313232421875
1782846213474031600,6.347031494140625,-0.990875244140625,-0.021240234375,0.00128173828125
1782846213484036600,6.35703662109375,-0.990203857421875,-0.0231475830078125,0.0039520263671875
1782846213494042600,6.367042724609375,-0.990966796875,-0.02117919921875,0.0030975341796875
1782846213504047600,6.377047607421875,-0.9900665283203125,-0.020233154296875,0.0017852783203125
1782846213514052600,6.387052490234375,-0.98992919921875,-0.022430419921875,0.0034027099609375
1782846213524057600,6.3970576171875,-0.9898529052734375,-0.021881103515625,0.0031585693359375
1782846213534061600,6.4070615234375,-0.9912261962890625,-0.0222015380859375,0.0028228759765625
1782846213544066600,6.417066650390625,-0.9904022216796875,-0.0208282470703125,0.0036468505859375
1782846213554071600,6.427071533203125,-0.9895782470703125,-0.022308349609375,0.003326416015625
1782846213564076500,6.43707666015625,-0.9899749755859375,-0.0210418701171875,0.0016937255859375
1782846213574081500,6.44708154296875,-0.9903564453125,-0.0223541259765625,0.00396728515625
1782846213584086800,6.457086669921875,-0.991180419921875,-0.021270751953125,0.00341796875
1782846213594091800,6.467091796875,-0.9906005859375,-0.020477294921875,0.00433349609375
1782846213604096800,6.4770966796875,-0.9895477294921875,-0.021697998046875,0.0037078857421875
1782846213614101800,6.487101806640625,-0.9897003173828125,-0.021087646484375,0.001861572265625
1782846213624106800,6.497106689453125,-0.9908905029296875,-0.0219268798828125,0.0030364990234375
1782846213634111700,6.50711181640625,-0.991485595703125,-0.0216522216796875,0.0038909912109375
1782846213644116700,6.51711669921875,-0.98974609375,-0.02142333984375,0.0015869140625
1782846213654121700,6.527121826171875,-0.9900970458984375,-0.021392822265625,0.0031280517578125
1782846213664126700,6.537126708984375,-0.9920806884765625,-0.02252197265625,0.0031280517578125
1782846213674131700,6.547131591796875,-0.9911346435546875,-0.0205841064453125,0.00341796875
1782846213684136700,6.55713671875,-0.9902191162109375,-0.0220489501953125,-0.0000762939453125
1782846213694141700,6.5671416015625,-0.990142822265625,-0.021697998046875,0.0017852783203125
1782846213704146700,6.577146728515625,-0.9914093017578125,-0.0197601318359375,0.003692626953125
1782846213714151700,6.587151611328125,-0.9903411865234375,-0.021209716796875,0.00103759765625
1782846213724156700,6.59715673828125,-0.990966796875,-0.0212860107421875,0.0024871826171875
1782846213734162000,6.607161865234375,-0.9908294677734375,-0.020416259765625,0.003631591796875
1782846213744167000,6.6171669921875,-0.9904022216796875,-0.0206298828125,0.00396728515625
1782846213754172000,6.627171875,-0.989715576171875,-0.021148681640625,0.0017242431640625
1782846213764177000,6.637177001953125,-0.991119384765625,-0.0207672119140625,0.002349853515625
1782846213774182000,6.647181884765625,-0.98956298828125,-0.021942138671875,0.002166748046875
1782846213784187000,6.657186767578125,-0.9903564453125,-0.0218048095703125,0.0023651123046875
1782846213794192000,6.66719189453125,-0.989471435546875,-0.0222015380859375,0.0028533935546875
1782846213804196900,6.67719677734375,-0.989990234375,-0.0213165283203125,0.0031280517578125
1782846213814201900,6.687201904296875,-0.990203857421875,-0.02215576171875,0.00323486328125
1782846213824206800,6.697206787109375,-0.9888763427734375,-0.0224761962890625,0.002349853515625
1782846213834211800,6.7072119140625,-0.9905548095703125,-0.02081298828125,0.00372314453125
1782846213844216800,6.717216796875,-0.9906158447265625,-0.0205078125,0.0023345947265625
1782846213854221800,6.727221923828125,-0.9905853271484375,-0.022216796875,0.0035552978515625
1782846213864226800,6.737226806640625,-0.99114990234375,-0.021636962890625,0.00244140625
1782846213874231800,6.747231689453125,-0.9898834228515625,-0.02166748046875,0.0036773681640625
1782846213884236800,6.75723681640625,-0.9890899658203125,-0.0210418701171875,0.003204345703125
1782846213894241800,6.76724169921875,-0.99053955078125,-0.022613525390625,0.0049591064453125
1782846213904246800,6.777246826171875,-0.98779296875,-0.0228424072265625,0.0030975341796875
1782846213914251800,6.787251708984375,-0.990875244140625,-0.021392822265625,0.0025634765625
1782846213924256800,6.7972568359375,-0.9909820556640625,-0.02069091796875,0.0021209716796875
1782846213934261800,6.80726171875,-0.9918975830078125,-0.0216217041015625,0.002471923828125
1782846213944265700,6.817265625,-0.99053955078125,-0.0209197998046875,0.00244140625
1782846213954270700,6.827270751953125,-0.990997314453125,-0.0209503173828125,0.0023345947265625
1782846213964275700,6.837275634765625,-0.9893646240234375,-0.0220947265625,0.0021209716796875
1782846213974281000,6.847281005859375,-0.991851806640625,-0.022003173828125,0.0022735595703125
1782846213984286000,6.857285888671875,-0.9914703369140625,-0.02154541015625,0.001983642578125
1782846213994291000,6.867291015625,-0.99078369140625,-0.0217132568359375,0.0028839111328125
1782846214004296000,6.8772958984375,-0.991180419921875,-0.022064208984375,0.003570556640625
1782846214014301000,6.887301025390625,-0.9900970458984375,-0.022674560546875,0.0032806396484375
1782846214024306000,6.897305908203125,-0.9891204833984375,-0.0217742919921875,0.0033721923828125
1782846214034311000,6.907310791015625,-0.990264892578125,-0.0214080810546875,0.002685546875
1782846214044316000,6.91731591796875,-0.99053955078125,-0.0213165283203125,0.0018310546875
1782846214054321000,6.92732080078125,-0.9903106689453125,-0.0217742919921875,0.0026092529296875
1782846214064326000,6.937325927734375,-0.9899749755859375,-0.0198516845703125,0.002960205078125
1782846214074331000,6.947330810546875,-0.9912872314453125,-0.0211334228515625,0.0022735595703125
1782846214084335900,6.9573359375,-0.9924468994140625,-0.022613525390625,0.0024871826171875
1782846214094340900,6.9673408203125,-0.990966796875,-0.020782470703125,0.0020294189453125
1782846214104345900,6.977345947265625,-0.98895263671875,-0.020843505859375,0.0033721923828125
1782846214114350800,6.987350830078125,-0.989288330078125,-0.022247314453125,0.0016937255859375
1782846214124355800,6.99735595703125,-0.99169921875,-0.0212860107421875,0.002593994140625
1782846214134360800,7.00736083984375,-0.9897918701171875,-0.0206451416015625,0.00360107421875
1782846214144365800,7.01736572265625,-0.99029541015625,-0.020904541015625,0.00201416015625
1782846214154370800,7.027370849609375,-0.9907989501953125,-0.0201873779296875,0.0025634765625
1782846214164375800,7.037375732421875,-0.9904022216796875,-0.0217742919921875,0.0038909912109375
1782846214174380800,7.047380859375,-0.990936279296875,-0.022491455078125,0.001495361328125
1782846214184385800,7.0573857421875,-0.9898834228515625,-0.0222625732421875,0.0022125244140625
1782846214194390800,7.067390869140625,-0.9901885986328125,-0.0212860107421875,0.002593994140625
1782846214204395800,7.077395751953125,-0.9892120361328125,-0.022125244140625,0.003570556640625
1782846214214400800,7.08740087890625,-0.99066162109375,-0.02227783203125,0.0023651123046875
1782846214224405800,7.09740576171875,-0.9909515380859375,-0.0215911865234375,0.0030670166015625
1782846214234410800,7.10741064453125,-0.9905548095703125,-0.0213623046875,0.0030517578125
1782846214244415700,7.117415771484375,-0.989715576171875,-0.020355224609375,0.003936767578125
1782846214254420700,7.127420654296875,-0.990936279296875,-0.0217132568359375,0.0026397705078125
1782846214264425700,7.13742578125,-0.9898834228515625,-0.02099609375,0.0030059814453125
1782846214274430700,7.1474306640625,-0.9900360107421875,-0.0211334228515625,0.0026702880859375
1782846214284435700,7.157435791015625,-0.9917755126953125,-0.02142333984375,0.00384521484375
1782846214294440700,7.167440673828125,-0.98992919921875,-0.0211029052734375,0.00225830078125
1782846214304445700,7.17744580078125,-0.990447998046875,-0.02117919921875,0.003448486328125
1782846214314450700,7.18745068359375,-0.990081787109375,-0.0219879150390625,0.0016021728515625
1782846214324455700,7.19745556640625,-0.9907989501953125,-0.02020263671875,0.0010528564453125
1782846214334460000,7.2074599609375,-0.9910430908203125,-0.0203094482421875,0.003265380859375
1782846214344465000,7.21746484375,-0.99053955078125,-0.0226287841796875,0.00274658203125
1782846214354470000,7.227469970703125,-0.9918212890625,-0.020751953125,0.0030364990234375
1782846214364475000,7.237474853515625,-0.9901580810546875,-0.0211029052734375,0.0026397705078125
1782846214374480000,7.24747998046875,-0.9909820556640625,-0.021484375,0.001190185546875
1782846214384484900,7.25748486328125,-0.9901580810546875,-0.0209197998046875,0.0026092529296875
1782846214394489900,7.26748974609375,-0.989593505859375,-0.020904541015625,0.0026397705078125
1782846214404494800,7.277494873046875,-0.9919281005859375,-0.0224761962890625,0.0020751953125
1782846214414499800,7.287499755859375,-0.9914703369140625,-0.0218963623046875,0.002838134765625
1782846214424504800,7.2975048828125,-0.9906768798828125,-0.0209808349609375,0.0027008056640625
1782846214434509800,7.307509765625,-0.990966796875,-0.021270751953125,0.0023651123046875
1782846214444514800,7.317514892578125,-0.9901275634765625,-0.0214996337890625,0.0023345947265625
1782846214454519800,7.327519775390625,-0.9910430908203125,-0.0217742919921875,0.0034942626953125
1782846214464524800,7.33752490234375,-0.9913330078125,-0.021148681640625,0.0035858154296875
1782846214474529800,7.34752978515625,-0.9920196533203125,-0.0222930908203125,0.0054473876953125
1782846214484534800,7.35753466796875,-0.9893341064453125,-0.0220184326171875,0.002197265625
1782846214494540000,7.3675400390625,-0.989959716796875,-0.021636962890625,0.0030670166015625
1782846214504545000,7.377544921875,-0.9899749755859375,-0.0214996337890625,0.003173828125
1782846214514550000,7.387550048828125,-0.9901123046875,-0.02142333984375,0.00384521484375
1782846214524555000,7.397554931640625,-0.9892425537109375,-0.0211944580078125,0.002838134765625
1782846214534560000,7.40756005859375,-0.9912567138671875,-0.0208587646484375,0.002532958984375
1782846214544565000,7.41756494140625,-0.990264892578125,-0.0209197998046875,0.0023345947265625
1782846214554570000,7.427570068359375,-0.9915008544921875,-0.0224761962890625,0.00103759765625
1782846214564575000,7.437574951171875,-0.991607666015625,-0.020843505859375,0.001617431640625
1782846214574580000,7.447580078125,-0.990814208984375,-0.020721435546875,0.0027618408203125
1782846214584585000,7.4575849609375,-0.99005126953125,-0.0223541259765625,0.002960205078125
1782846214594590000,7.46758984375,-0.990020751953125,-0.021453857421875,0.0023651123046875
1782846214604595000,7.477594970703125,-0.99163818359375,-0.0228729248046875,0.00201416015625
1782846214614600000,7.487599853515625,-0.9906768798828125,-0.022552490234375,0.0019073486328125
1782846214624605000,7.49760498046875,-0.9918975830078125,-0.0212249755859375,0.003753662109375
1782846214634610000,7.50760986328125,-0.9914703369140625,-0.0217742919921875,0.0013275146484375
1782846214644615000,7.517614990234375,-0.99072265625,-0.0208740234375,0.0038909912109375
1782846214654620000,7.527619873046875,-0.990325927734375,-0.02313232421875,0.0039825439453125
1782846214664625000,7.537625,-0.9896240234375,-0.0228729248046875,0.0038299560546875
1782846214674630000,7.5476298828125,-0.990325927734375,-0.022064208984375,0.0033721923828125
1782846214684635000,7.557634765625,-0.9906768798828125,-0.02081298828125,0.0032958984375
1782846214694638800,7.567638916015625,-0.992431640625,-0.0211029052734375,0.003448486328125
1782846214704644900,7.577644775390625,-0.9901885986328125,-0.021209716796875,0.003692626953125
1782846214714649000,7.587649169921875,-0.9897613525390625,-0.02197265625,0.0009918212890625
1782846214724654000,7.597654052734375,-0.9910125732421875,-0.0207977294921875,0.0032501220703125
1782846214734659000,7.6076591796875,-0.990386962890625,-0.0208892822265625,0.0030364990234375
1782846214744664000,7.6176640625,-0.9896392822265625,-0.022003173828125,0.00274658203125
1782846214754669000,7.6276689453125,-0.989501953125,-0.02093505859375,0.0021209716796875
1782846214764674000,7.637674072265625,-0.9914703369140625,-0.0213470458984375,0.000823974609375
1782846214774679000,7.647678955078125,-0.9908447265625,-0.0220489501953125,0.0022430419921875
1782846214784684000,7.65768408203125,-0.99041748046875,-0.0208740234375,0.0031890869140625
1782846214794689000,7.66768896484375,-0.991241455078125,-0.0213623046875,0.003753662109375
1782846214804694000,7.677694091796875,-0.9899139404296875,-0.021392822265625,0.002716064453125
1782846214814699000,7.687698974609375,-0.9907989501953125,-0.0214385986328125,0.0013580322265625
1782846214824704000,7.6977041015625,-0.9913787841796875,-0.02178955078125,0.0031280517578125
1782846214834709000,7.707708984375,-0.9908599853515625,-0.0220184326171875,0.001800537109375
1782846214844714000,7.7177138671875,-0.9924774169921875,-0.02117919921875,0.0027923583984375
1782846214854719000,7.727718994140625,-0.9911956787109375,-0.0217437744140625,0.004669189453125
1782846214864724000,7.737723876953125,-0.9908599853515625,-0.0217742919921875,0.002685546875
1782846214874729000,7.74772900390625,-0.990936279296875,-0.022857666015625,0.0030670166015625
1782846214884734000,7.75773388671875,-0.9908294677734375,-0.0219879150390625,0.0041656494140625
1782846214894739000,7.767739013671875,-0.989501953125,-0.0228271484375,0.003326416015625
1782846214904744000,7.777743896484375,-0.9906768798828125,-0.020477294921875,0.002471923828125
1782846214914749000,7.7877490234375,-0.9902496337890625,-0.0220947265625,0.002655029296875
1782846214924754000,7.79775390625,-0.98968505859375,-0.0210723876953125,0.002716064453125
1782846214934759000,7.807759033203125,-0.98968505859375,-0.021514892578125,0.00469970703125
1782846214944764000,7.817763916015625,-0.990936279296875,-0.0231170654296875,0.003387451171875
1782846214954769000,7.827768798828125,-0.9904022216796875,-0.022247314453125,0.00213623046875
1782846214964774000,7.83777392578125,-0.9896392822265625,-0.02197265625,0.003448486328125
1782846214974779000,7.84777880859375,-0.990478515625,-0.0210418701171875,0.002288818359375
1782846214984784000,7.857783935546875,-0.9898529052734375,-0.022308349609375,0.002349853515625
1782846214994788900,7.867788818359375,-0.990631103515625,-0.02117919921875,0.0025177001953125
1782846215004793900,7.8777939453125,-0.9896240234375,-0.0222015380859375,0.00201416015625
1782846215014798800,7.887798828125,-0.9891815185546875,-0.0218963623046875,0.0031585693359375
1782846215024803800,7.897803955078125,-0.990814208984375,-0.020751953125,0.003509521484375
1782846215034808800,7.907808837890625,-0.992095947265625,-0.02105712890625,0.0031280517578125
1782846215044813800,7.917813720703125,-0.989776611328125,-0.0209808349609375,0.00323486328125
1782846215054818800,7.92781884765625,-0.9905853271484375,-0.0205078125,0.003021240234375
1782846215064823800,7.93782373046875,-0.991424560546875,-0.0217132568359375,0.0012359619140625
1782846215074828000,7.947828125,-0.989837646484375,-0.0215606689453125,0.00396728515625
1782846215084833000,7.9578330078125,-0.99029541015625,-0.0211181640625,0.001220703125
1782846215094838000,7.967838134765625,-0.99017333984375,-0.0214080810546875,0.00238037109375
1782846215104843000,7.977843017578125,-0.9900054931640625,-0.02178955078125,0.00390625
1782846215114848000,7.987847900390625,-0.9914398193359375,-0.0220184326171875,0.002838134765625
1782846215124853000,7.99785302734375,-0.990570068359375,-0.0213623046875,0.0035552978515625
1782846215134858000,8.00785791015625,-0.9906768798828125,-0.0214691162109375,0.003143310546875
1782846215144863000,8.017863037109375,-0.9912109375,-0.0226287841796875,0.00384521484375
1782846215154868000,8.027867919921874,-0.9911041259765625,-0.0214996337890625,0.0026397705078125
1782846215164873000,8.037873046875,-0.990447998046875,-0.02227783203125,0.0019989013671875
1782846215174878000,8.0478779296875,-0.99163818359375,-0.0213775634765625,0.00189208984375
1782846215184883000,8.057883056640625,-0.9911651611328125,-0.020538330078125,0.0033111572265625
1782846215194888000,8.067887939453126,-0.990753173828125,-0.02142333984375,0.0030364990234375
1782846215204893000,8.077892822265625,-0.9905548095703125,-0.02227783203125,0.0021820068359375
1782846215214898000,8.08789794921875,-0.9903106689453125,-0.022003173828125,0.003326416015625
1782846215224903000,8.09790283203125,-0.9906158447265625,-0.0214691162109375,0.0017852783203125
1782846215234908000,8.107907958984375,-0.9899749755859375,-0.0214996337890625,0.00250244140625
1782846215244913000,8.117912841796874,-0.9902191162109375,-0.0211181640625,0.0038909912109375
1782846215254918000,8.12791796875,-0.9901275634765625,-0.0221710205078125,0.00244140625
1782846215264923000,8.1379228515625,-0.9901885986328125,-0.0212554931640625,0.003143310546875
1782846215274927900,8.147927978515625,-0.9907684326171875,-0.0206451416015625,0.00323486328125
1782846215284932900,8.157932861328124,-0.990570068359375,-0.02197265625,0.0027313232421875
1782846215294937900,8.167937744140625,-0.989898681640625,-0.021392822265625,0.002349853515625
1782846215304942800,8.17794287109375,-0.99066162109375,-0.0201873779296875,0.0032806396484375
1782846215314947800,8.18794775390625,-0.9906158447265625,-0.0214691162109375,0.0026092529296875
1782846215324952800,8.197952880859376,-0.990753173828125,-0.02166748046875,0.0032806396484375
1782846215334957800,8.207957763671875,-0.991241455078125,-0.0210723876953125,0.0020294189453125
1782846215344962800,8.217962890625,-0.990325927734375,-0.021026611328125,0.0016937255859375
1782846215354967800,8.2279677734375,-0.9904327392578125,-0.0203094482421875,0.0026092529296875
1782846215364972800,8.237972900390625,-0.9903717041015625,-0.02166748046875,0.0026702880859375
1782846215374977800,8.247977783203124,-0.9901275634765625,-0.021087646484375,0.00238037109375
1782846215384982800,8.257982666015625,-0.989898681640625,-0.020721435546875,0.00262451171875
1782846215394987800,8.26798779296875,-0.9907989501953125,-0.0194549560546875,0.0031280517578125
1782846215404992800,8.27799267578125,-0.9906768798828125,-0.020233154296875,0.0025634765625
1782846215414997800,8.287997802734376,-0.9901885986328125,-0.0216522216796875,0.001922607421875
1782846215425002000,8.298001953125,-0.98980712890625,-0.020782470703125,0.003448486328125
1782846215435007000,8.308007080078125,-0.9897613525390625,-0.0213470458984375,0.0013885498046875
1782846215445012000,8.318011962890624,-0.98980712890625,-0.0215606689453125,0.0025634765625
1782846215455017000,8.328016845703125,-0.990875244140625,-0.021209716796875,0.00244140625
1782846215465022000,8.33802197265625,-0.9893035888671875,-0.0205230712890625,0.0013427734375
1782846215475027000,8.34802685546875,-0.990692138671875,-0.0208282470703125,0.002655029296875
1782846215485032000,8.358031982421876,-0.9897918701171875,-0.0220489501953125,0.002960205078125
1782846215495036200,8.3680361328125,-0.989288330078125,-0.0217742919921875,0.0014190673828125
1782846215505041200,8.378041259765626,-0.9903106689453125,-0.02093505859375,0.003082275390625
1782846215515046100,8.388046142578125,-0.9903411865234375,-0.022125244140625,0.003753662109375
1782846215525051100,8.398051025390625,-0.990509033203125,-0.021331787109375,0.0022735595703125
1782846215535056100,8.40805615234375,-0.9896392822265625,-0.0205230712890625,0.0025482177734375
1782846215545061000,8.41806103515625,-0.9892425537109375,-0.021575927734375,0.0021209716796875
1782846215555066000,8.428066162109374,-0.9901275634765625,-0.0211639404296875,0.0014495849609375
1782846215565071000,8.438071044921875,-0.9896392822265625,-0.022674560546875,0.0033416748046875
1782846215575076000,8.448076171875,-0.990447998046875,-0.0215301513671875,0.0033111572265625
1782846215585081000,8.4580810546875,-0.991302490234375,-0.021820068359375,0.0025177001953125
1782846215595086000,8.468086181640626,-0.9903564453125,-0.0229339599609375,0.0006256103515625
1782846215605091000,8.478091064453125,-0.9911346435546875,-0.0209197998046875,0.002227783203125
1782846215615096000,8.488095947265625,-0.991455078125,-0.021636962890625,0.0032958984375
1782846215625101000,8.49810107421875,-0.9900970458984375,-0.0217742919921875,0.0018768310546875
1782846215635106000,8.50810595703125,-0.989990234375,-0.021697998046875,0.0019073486328125
1782846215645111000,8.518111083984374,-0.9907684326171875,-0.02130126953125,0.00201416015625
1782846215655116000,8.528115966796875,-0.990814208984375,-0.020721435546875,0.0030517578125
1782846215665121000,8.53812109375,-0.9910430908203125,-0.0210418701171875,0.0042877197265625
1782846215675126000,8.5481259765625,-0.9898529052734375,-0.0215301513671875,0.0035552978515625
1782846215685131000,8.558131103515626,-0.9913787841796875,-0.02032470703125,0.0040435791015625
1782846215695136000,8.568135986328125,-0.9918060302734375,-0.0218353271484375,0.00274658203125
1782846215705141000,8.57814111328125,-0.9913330078125,-0.021759033203125,0.0026702880859375
1782846215715146000,8.58814599609375,-0.990814208984375,-0.0225372314453125,0.002838134765625
1782846215725151000,8.59815087890625,-0.9911041259765625,-0.022369384765625,0.0043487548828125
1782846215735156000,8.608156005859374,-0.9902496337890625,-0.021881103515625,0.0030975341796875
1782846215745161000,8.618160888671875,-1.00054931640625,-0.0219268798828125,0.00103759765625
1782846215755166000,8.628166015625,-1.0104827880859375,-0.0242462158203125,-0.00738525390625
1782846215765170200,8.638170166015625,-0.9398956298828125,-0.0247802734375,0.025115966796875
1782846215775175200,8.648175048828126,-1.014556884765625,-0.0230255126953125,-0.0060272216796875
1782846215785180200,8.65818017578125,-0.9729766845703125,-0.0238037109375,0.0064239501953125
1782846215795185200,8.66818505859375,-0.994842529296875,-0.0203094482421875,0.00360107421875
1782846215805190100,8.678190185546875,-0.996856689453125,-0.018218994140625,0.0030670166015625
