time,seconds_elapsed,z,y,x
1782846207208409600,0.08140966796875,-0.0015431686770170927,0.008050451055169106,0.001829707296565175
1782846207218414600,0.09141455078125,-0.0009171144338324666,0.00047857710160315037,-0.0016248762840405107
1782846207228419600,0.101419677734375,-0.001331768580712378,-0.0075844088569283485,-0.002185471821576357
1782846207238424600,0.111424560546875,0.00007195374928414822,-0.000033744145184755325,0.00019460503244772553
1782846207248429600,0.1214296875,-0.00005161692388355732,0.003872580360621214,0.0010446860687807202
1782846207258434600,0.1314345703125,-0.00113818165846169,-0.0011217610444873571,-0.0005241344915702939
1782846207268439600,0.141439453125,-0.00007504760287702084,-0.0028011503163725138,-0.0017180294962599874
1782846207278444500,0.151444580078125,0.0003438203129917383,0.003043852746486664,-0.0023143193684518337
1782846207288449500,0.161449462890625,0.00041386159136891365,-0.00028643012046813965,0.00012966332724317908
1782846207298454500,0.17145458984375,0.000026426278054714203,-0.003924333490431309,-0.002180964918807149
1782846207308459500,0.18145947265625,-0.000863868510350585,0.0007204855792224407,-0.0024960169102996588
1782846207318464500,0.191464599609375,-0.0008625669870525599,0.004612499848008156,0.001753331278450787
1782846207328469500,0.201469482421875,-0.002377905650064349,0.0006427920889109373,-0.00045229867100715637
1782846207338474500,0.211474609375,-0.000422794371843338,-0.004610655829310417,-0.0011131075443699956
1782846207348479500,0.2214794921875,-0.00023690564557909966,0.0017207433702424169,0.00022513099247589707
1782846207358484500,0.231484375,-0.0005708485841751099,0.0046173701994121075,0.0003905349876731634
1782846207368489500,0.241489501953125,0.0006507434882223606,-0.000014133285731077194,-0.0016087000258266926
1782846207378494500,0.251494384765625,0.00031989417038857937,-0.0013171215541660786,0.0050567383877933025
1782846207388499500,0.26149951171875,-0.0002428318839520216,-0.0001469284761697054,0.0010694534284994006
1782846207398504400,0.27150439453125,-0.0014084428548812866,-0.0010534937027841806,0.0023836540058255196
1782846207408509400,0.281509521484375,-0.000766620971262455,0.0002977941185235977,0.0015013485681265593
1782846207418514400,0.291514404296875,-0.000395460519939661,-0.0009620510973036289,0.0006673251045867801
1782846207428519400,0.30151953125,-0.0015723115066066384,-0.0020118695683777332,-0.00017077173106372356
1782846207438524400,0.3115244140625,0.00023876503109931946,0.00040240795351564884,-0.0023621385917067528
1782846207448529400,0.321529296875,-0.0006161098135635257,-0.0028796717524528503,-0.003552038688212633
1782846207458534400,0.331534423828125,0.0004910209681838751,-0.00000428222119808197,-0.0010482048382982612
1782846207468539400,0.341539306640625,-0.000036817509680986404,0.0005360732320696115,-0.0007097170455381274
1782846207478544400,0.35154443359375,0.0017193674575537443,0.0005788763519376516,-0.0025087916292250156
1782846207488549600,0.361549560546875,-0.0006601667264476418,0.0016201722901314497,-0.0006317957304418087
1782846207498554600,0.3715546875,0.0005738353356719017,-0.0008053355850279331,0.00018703937530517578
1782846207508559600,0.3815595703125,-0.00011885282583534718,0.0011134720407426357,0.0013929186388850212
1782846207518564600,0.391564697265625,-0.002128749620169401,-0.00201758136972785,-0.0013383498881012201
1782846207528569600,0.401569580078125,-0.0013140885857865214,-0.0016260966658592224,0.0007692758226767182
1782846207538574600,0.41157470703125,0.0008409118745476007,0.00023770262487232685,0.00033975631231442094
1782846207548579600,0.42157958984375,-0.0017181194853037596,-0.0005814856849610806,0.001044961391016841
1782846207558584600,0.43158447265625,0.0020489851012825966,0.000155583955347538,-0.0011332172434777021
1782846207568589600,0.441589599609375,0.000010601477697491646,-0.0000015425030142068863,-0.0006306788418442011
1782846207578594600,0.451594482421875,-0.0009769044118002057,-0.00012961495667696,-0.0018532674293965101
1782846207588599800,0.461599853515625,-0.00046690902672708035,0.0006152710411697626,0.00020908447913825512
1782846207598604800,0.471604736328125,0.00035894662141799927,0.00020184647291898727,-0.0006870802026242018
1782846207608609800,0.48160986328125,0.000280383275821805,0.00019225897267460823,0.0024349435698240995
1782846207618614800,0.49161474609375,0.0009281381499022245,0.00017698528245091438,0.0020139189437031746
1782846207628619800,0.501619873046875,0.0034522823989391327,-0.000623560743406415,-0.0016204968560487032
1782846207638624800,0.511624755859375,-0.0006226736586540937,0.0012738648802042007,-0.0009360072435811162
1782846207648629800,0.521629638671875,0.00046682567335665226,0.0006325757130980492,-0.0003035065019503236
1782846207658634800,0.531634765625,-0.00035514659248292446,-0.0003204930108040571,0.0011507885064929724
1782846207668638700,0.541638671875,-0.0009761957917362452,-0.0011780308559536934,0.0016831543762236834
1782846207678644700,0.551644775390625,0.0012698923237621784,0.00026273634284734726,0.00032390287378802896
1782846207688648700,0.561648681640625,0.0004866565577685833,-0.0013881572522222996,-0.0011110083432868123
1782846207698653700,0.57165380859375,-0.0012745932908728719,-0.00040666316635906696,0.0010486154351383448
1782846207708658700,0.58165869140625,-0.0009568781824782491,-0.0009960208553820848,-0.0001761723542585969
1782846207718663700,0.59166357421875,0.0005196745041757822,0.0031886552460491657,-0.001762555562891066
1782846207728668700,0.601668701171875,0.0017916001379489899,0.000741476658731699,-0.000983048346824944
1782846207738673700,0.611673583984375,0.0027792765758931637,0.0033258814364671707,-0.0015670883003622293
1782846207748678700,0.6216787109375,0.0015148075763136148,0.0014411623124033213,-0.002047522459179163
1782846207758683600,0.63168359375,-0.0012484865728765726,0.002613367047160864,-0.0014526633312925696
1782846207768688600,0.641688720703125,-0.0004972087917849422,-0.0003541933838278055,0.0006179444026201963
1782846207778693600,0.651693603515625,0.0018852006178349257,0.0005176234990358353,-0.001542610116302967
1782846207788698600,0.66169873046875,-0.0009566586231812835,0.00002440623939037323,-0.00009811169002205133
1782846207798703600,0.67170361328125,-0.000009999610483646393,-0.0000509780365973711,-0.0017448215512558818
1782846207808708600,0.68170849609375,-0.002763175405561924,0.0014686217764392495,-0.002440439071506262
1782846207818713600,0.691713623046875,-0.0017001782543957233,0.00011541275307536125,0.0008257494191639125
1782846207828718600,0.701718505859375,0.001793889096006751,0.0011729539837688208,-0.0014075774233788252
1782846207838723600,0.7117236328125,0.002068065572530031,0.0004214916843920946,0.0011951911728829145
1782846207848728600,0.721728515625,-0.002008435083553195,-0.0007015634328126907,-0.0015244288370013237
1782846207858733600,0.731733642578125,-0.0013599100057035685,0.0005452954210340977,0.0005967041943222284
1782846207868738600,0.741738525390625,0.0010824750643223524,-0.0009631193242967129,-0.0021801739931106567
1782846207878743600,0.75174365234375,-0.00006500259041786194,-0.0015321874525398016,0.003368557896465063
1782846207888748500,0.76174853515625,0.001400801120325923,0.0001783610787242651,0.0025906485971063375
1782846207898753500,0.77175341796875,-0.0003337396774441004,-0.0009752712212502956,0.0025189206935465336
1782846207908758500,0.781758544921875,-0.0015156505396589637,-0.00021227565594017506,-0.000389251159504056
1782846207918763500,0.791763427734375,0.0009026967454701662,0.0020765624940395355,-0.00019010843243449926
1782846207928768500,0.8017685546875,0.0012220097705721855,0.0015612408751621842,-0.00033738126512616873
1782846207938773800,0.811773681640625,0.0026497726794332266,0.0013428465463221073,-0.0011178795248270035
1782846207948778800,0.82177880859375,-0.0019471094710752368,-0.0011543994769454002,0.0010754999238997698
1782846207958783700,0.83178369140625,0.000008667586371302605,-0.0006743392441421747,-0.00057010049931705
1782846207968788700,0.841788818359375,-0.00011729984544217587,-0.000618679216131568,0.001539389370009303
1782846207978793700,0.851793701171875,0.0009072476532310247,0.002425188198685646,0.0006197215989232063
1782846207988798700,0.861798828125,-0.00025974935851991177,0.0012395489029586315,-0.0013158638030290604
1782846207998803700,0.8718037109375,0.00020883395336568356,0.0003201535437256098,0.0004920505452901125
1782846208008808700,0.88180859375,0.0007643694989383221,-0.0019339458085596561,-0.000001965905539691448
1782846208018813700,0.891813720703125,-0.0013117173220962286,-0.0008643418550491333,0.0018458229023963213
1782846208028818700,0.901818603515625,0.0007564935367554426,-0.00043850229121744633,0.0001765535562299192
1782846208038823700,0.91182373046875,0.0001831348054111004,0.0021397662349045277,0.0018756247591227293
1782846208048828700,0.92182861328125,-0.0005923776188865304,-0.0011516346130520105,0.0009456488187424839
1782846208058833700,0.931833740234375,-0.00036455458030104637,0.0017705925274640322,-0.0007144154515117407
1782846208068838700,0.941838623046875,0.0012887357734143734,0.0016377007123082876,-0.002365042455494404
1782846208078843600,0.95184375,0.0010405629873275757,0.0014537855749949813,0.000752326799556613
1782846208088848600,0.9618486328125,-0.0009986194781959057,-0.0003936493303626776,0.004678891506046057
1782846208098853600,0.971853515625,-0.0008322000503540039,0.0004789952654391527,-0.002053807955235243
1782846208108858600,0.981858642578125,-0.00033631944097578526,0.0006116207223385572,0.0013800718588754535
1782846208118863600,0.991863525390625,-0.0017281344626098871,0.0003840227145701647,0.0008348452975042164
1782846208128868600,1.00186865234375,-0.0007382374024018645,0.0016753894742578268,-0.0012738455552607775
1782846208138873600,1.01187353515625,0.000865445239469409,-0.0009492202661931515,0.003073503728955984
1782846208148878600,1.021878662109375,-0.00016120332293212414,-0.00012896652333438396,0.0009352517081424594
1782846208158883600,1.031883544921875,-0.0017192242667078972,-0.000009984942153096199,0.0004749583313241601
1782846208168888600,1.041888671875,-0.0001767212525010109,0.0013120082439854741,0.00030904338927939534
1782846208178893600,1.0518935546875,-0.0015431244391947985,-0.0018984100315719843,0.000664681545458734
1782846208188898600,1.061898681640625,-0.00038624717853963375,0.0005053593777120113,-0.0012075206032022834
1782846208198903600,1.071903564453125,0.0007608870510011911,-0.0008024098351597786,-0.0014111208729445934
1782846208208908500,1.081908447265625,0.001364359399303794,0.0003925508353859186,-0.0001418582396581769
1782846208218913500,1.09191357421875,0.0022498166654258966,-0.0011887834407389164,0.0004212656058371067
1782846208228918500,1.10191845703125,-0.0009550311369821429,-0.00016426527872681618,-0.0012948752846568823
1782846208238923500,1.111923583984375,-0.0003350407350808382,0.00016196025535464287,-0.0004484616219997406
1782846208248928500,1.121928466796875,-0.0023744895588606596,-0.00031687598675489426,0.0011968392645940185
1782846208258933500,1.13193359375,0.0013713415246456861,0.0032814783044159412,-0.00368472165428102
1782846208268938500,1.1419384765625,-0.0006039250874891877,-0.0002498731482774019,0.001310303108766675
1782846208278943500,1.151943603515625,0.0007027816027402878,-0.0013303575105965137,0.0013785760384052992
1782846208288947500,1.161947509765625,-0.0001488972920924425,0.0009194810409098864,-0.0002092006616294384
1782846208298953500,1.171953369140625,-0.0002043785061687231,-0.00036670733243227005,-0.0031399498693645
1782846208308957700,1.181957763671875,0.002049987204372883,-0.00007615657523274422,-0.0012051633093506098
1782846208318962700,1.191962646484375,-0.000752077205106616,0.00045290240086615086,-0.0017613694071769714
1782846208328967700,1.2019677734375,-0.002762497402727604,0.00011201784946024418,0.0016461452469229698
1782846208338972700,1.21197265625,0.0000056747812777757645,-0.00022343825548887253,-0.002139730378985405
1782846208348977700,1.221977783203125,-0.00230807950720191,0.0016128113493323326,-0.0003415641840547323
1782846208358982700,1.231982666015625,0.0008028417360037565,0.0021862105932086706,0.0015209034318104386
1782846208368987600,1.241987548828125,0.0012952603865414858,0.00007086177356541157,0.0015723025426268578
1782846208378992600,1.25199267578125,-0.0014605890028178692,-0.0005621162708848715,-0.0017843174282461405
1782846208388997600,1.26199755859375,0.0002608783543109894,0.00213167117908597,0.00044634618097916245
1782846208399002600,1.272002685546875,-0.0008540366543456912,-0.0014876353088766336,0.0011927688028663397
1782846208409007600,1.282007568359375,-0.00020502437837421894,-0.00004926207475364208,-0.00011724012438207865
1782846208419012600,1.2920126953125,-0.0001461526844650507,-0.0012376320082694292,-0.0013383019249886274
1782846208429017600,1.302017578125,-0.002448987914249301,-0.0018972971010953188,0.0005775760510005057
1782846208439022600,1.312022705078125,-0.0016736844554543495,0.0004031502176076174,0.0004892434808425605
1782846208449027600,1.322027587890625,0.0018834997899830341,0.0024351419415324926,-0.0023752525448799133
1782846208459032600,1.332032470703125,0.0006657366175204515,0.0015113039407879114,0.0010235648369416595
1782846208469037600,1.34203759765625,-0.001493021845817566,-0.0006445248145610094,0.00265688169747591
1782846208479042800,1.352042724609375,0.00022345688194036484,-0.0023345425724983215,0.0036989585496485233
1782846208489047600,1.362047607421875,0.0020285474602133036,-0.0012003020383417606,-0.0007461238419637084
1782846208499052500,1.372052490234375,-0.0015752827748656273,-0.001512336079031229,0.000807635486125946
1782846208509057500,1.3820576171875,-0.0014514457434415817,-0.003423154354095459,0.0012143001658841968
1782846208519062500,1.3920625,-0.0017881175735965371,-0.002228581579402089,-0.0015351157635450363
1782846208529067500,1.402067626953125,-0.0011819821083918214,0.0007826546207070351,-0.00046905246563255787
1782846208539072500,1.412072509765625,-0.0014952529454603791,-0.0013609044253826141,-0.0008466242579743266
1782846208549077500,1.422077392578125,0.00005843513645231724,0.00023885653354227543,0.00043568777618929744
1782846208559082500,1.43208251953125,-0.00031945412047207355,0.0011692792177200317,-0.001690619857981801
1782846208569087500,1.44208740234375,-0.0010603455593809485,-0.00020864023827016354,-0.0008101786952465773
1782846208579092500,1.452092529296875,0.00011688540689647198,-0.0006729026790708303,0.0010279103880748153
1782846208589097500,1.462097412109375,0.0007693599909543991,-0.0003195013850927353,-0.000695421127602458
1782846208599102500,1.4721025390625,-0.0015569542301818728,-0.0008627346251159906,0.0027182255871593952
1782846208609107500,1.482107421875,-0.0010791830718517303,-0.0022494422737509012,-0.0003827590262517333
1782846208619112400,1.492112548828125,0.0003532040864229202,-0.0006465653423219919,0.0012001431314274669
1782846208629117700,1.50211767578125,0.0002389545552432537,-0.000212203711271286,0.0019104082603007555
1782846208639122700,1.512122802734375,0.000006589805707335472,-0.0009031237568706274,-0.000707283616065979
1782846208649127700,1.522127685546875,0.00046092504635453224,-0.000763041665777564,0.0009401478455401957
1782846208659132700,1.532132568359375,-0.0005452686455100775,0.0010184685233980417,0.0027034510858356953
1782846208669137700,1.5421376953125,-0.0007316898554563522,-0.0024476354010403156,0.002925825072452426
1782846208679142700,1.552142578125,0.0003986735828220844,-0.00044378452003002167,0.0001504829851910472
1782846208689147600,1.562147705078125,-0.0013989601284265518,0.0005687493830919266,-0.0015555380377918482
1782846208699152600,1.572152587890625,-0.0012295974884182215,0.00017072749324142933,0.0008801844669505954
1782846208709157600,1.58215771484375,0.0014183835592120886,-0.0028080183546990156,0.001319339731708169
1782846208719162600,1.59216259765625,-0.002585057634860277,-0.001315941335633397,-0.00034512823913246393
1782846208729167600,1.602167724609375,0.0005108672194182873,0.003433007514104247,0.0026456015184521675
1782846208739172600,1.612172607421875,0.000007537892088294029,-0.0003074288833886385,0.0018467013724148273
1782846208749177600,1.622177490234375,-0.0014023396652191877,0.0023280351888388395,-0.00046092772390693426
1782846208759182600,1.6321826171875,-0.001701493514701724,0.000011084368452429771,0.001130584510974586
1782846208769187600,1.6421875,0.00047643971629440784,0.0021043289452791214,-0.0015506859635934234
1782846208779192600,1.652192626953125,-0.001850024564191699,-0.00018625054508447647,-0.0022507156245410442
1782846208789197600,1.662197509765625,0.0009185976814478636,0.0023514756467193365,-0.003596144262701273
1782846208799202600,1.67220263671875,0.0005576102994382381,0.0007331059314310551,-0.0013291668146848679
1782846208809207600,1.68220751953125,0.0005568114574998617,-0.0014767851680517197,0.0015308018773794174
1782846208819212800,1.692212890625,-0.0009374571964144707,0.00043169548735022545,0.003011398483067751
1782846208829217800,1.7022177734375,0.0014450065791606903,-0.0006791090127080679,-0.001415041508153081
1782846208839222800,1.712222900390625,-0.0002639454323798418,-0.002065215492621064,0.0013029729016125202
1782846208849227800,1.722227783203125,0.0006463231984525919,0.00043229712173342705,-0.0010797572322189808
1782846208859232800,1.732232666015625,-0.0006232751766219735,-0.001343580661341548,0.0018040374852716923
1782846208869237800,1.74223779296875,0.0000995066948235035,0.0005041204858571291,-0.0010125215630978346
1782846208879242800,1.75224267578125,0.0019078734330832958,-0.0001652257051318884,0.0002111629582941532
1782846208889247700,1.762247802734375,-0.0008354486199095845,-0.0007109073922038078,-0.0013289431808516383
1782846208899252700,1.772252685546875,-0.002282209461554885,-0.00004875659942626953,0.0006615788443014026
1782846208909257700,1.7822578125,-0.00182787433732301,0.0017683182377368212,0.001290617510676384
1782846208919262700,1.7922626953125,0.00017828680574893951,0.000499064801260829,-0.00006148987449705601
1782846208929267700,1.802267822265625,-0.0004227886674925685,-0.0009656739421188831,0.00021041888976469636
1782846208939272700,1.812272705078125,0.0017847290728241205,-0.0010331145022064447,0.0024613123387098312
1782846208949277700,1.822277587890625,-0.00008907075971364975,-0.0021095641423016787,-0.001266580424271524
1782846208959282700,1.83228271484375,-0.00045221857726573944,-0.00026768329553306103,-0.003626286517828703
1782846208969287700,1.84228759765625,-0.000290032010525465,0.001330213388428092,0.0017397167393937707
1782846208979292700,1.852292724609375,0.001915917033329606,0.0008978161495178938,0.00009421521099284291
1782846208989297700,1.862297607421875,-0.00013871188275516033,0.0013436292065307498,0.0002524069859646261
1782846208999301600,1.872301513671875,0.0011785973329097033,0.0006242466624826193,0.00012657803017646074
1782846209009307600,1.8823076171875,-0.0004680351121351123,0.0011552809737622738,-0.0007211061893031001
1782846209019311600,1.8923115234375,0.0004875564482063055,-0.0014070607721805573,-0.000514198443852365
1782846209029316600,1.902316650390625,0.0013613395858556032,0.0007458385080099106,-0.000931249582208693
1782846209039321600,1.912321533203125,-0.001010281965136528,-0.002584103960543871,0.00028476398438215256
1782846209049326600,1.92232666015625,0.00010957731865346432,-0.0014828871935606003,-0.0028292702045291662
1782846209059331600,1.93233154296875,0.0004339008592069149,0.000414571026340127,0.0000061087775975465775
1782846209069336600,1.942336669921875,0.0006320399697870016,-0.0015127586666494608,0.0007411412661895156
1782846209079341600,1.952341552734375,-0.0005374174797907472,0.00005020527169108391,-0.0008656247518956661
1782846209089346600,1.9623466796875,0.0007558136712759733,0.002579942112788558,-0.000001162756234407425
1782846209099351600,1.9723515625,0.0004916952457278967,0.0016169367590919137,-0.0006814370863139629
1782846209109356500,1.9823564453125,-0.0004286931362003088,-0.00017590331844985485,0.0010506828548386693
1782846209119361500,1.992361572265625,0.0007315024267882109,-0.0002821176312863827,0.0009752607438713312
1782846209129366500,2.002366455078125,0.0016593479085713625,0.00030058203265070915,-0.0023643430322408676
1782846209139371500,2.01237158203125,-0.0003604154335334897,0.0012435601092875004,-0.0015130219981074333
1782846209149376500,2.02237646484375,-0.001423283014446497,-0.000038485508412122726,0.0016651942860335112
1782846209159381500,2.032381591796875,-0.0014241049066185951,-0.0006167185492813587,-0.0004158365773037076
1782846209169386800,2.04238671875,0.0024995303247123957,-0.00322661641985178,-0.0037328037433326244
1782846209179391700,2.052391845703125,0.000613469397649169,0.0014647780917584896,-0.001316242152824998
1782846209189396700,2.062396728515625,-0.0010392883559688926,-0.0012069048825651407,0.002613784745335579
1782846209199401700,2.072401611328125,-0.0013953319285064936,0.0005110511556267738,0.002180647337809205
1782846209209406700,2.08240673828125,0.0007168212905526161,-0.0011243962217122316,0.0003910030936822295
1782846209219411700,2.09241162109375,0.0001949472352862358,-0.0018531358800828457,0.0031982334330677986
1782846209229416700,2.102416748046875,-0.0005105241434648633,0.0014798103366047144,0.0009894076501950622
1782846209239421700,2.112421630859375,0.0011509614996612072,0.002470109611749649,0.0013498140033334494
1782846209249426700,2.1224267578125,0.0014915799256414175,-0.0009334101341664791,0.0012419559061527252
1782846209259431700,2.132431640625,0.0011882053222507238,0.002708627376705408,0.0011037919903174043
1782846209269436700,2.142436767578125,-0.0010464531369507313,-0.0034640473313629627,-0.0007748018251731992
1782846209279441700,2.152441650390625,-0.0006704414263367653,0.0003397401887923479,0.0013644082937389612
1782846209289446700,2.16244677734375,-0.0007154488703235984,0.0009464083705097437,-0.0003812938230112195
1782846209299451600,2.17245166015625,0.0001459664199501276,0.0004083276726305485,-0.00008780474308878183
1782846209309456600,2.18245654296875,-0.0006340735126286745,0.0012621369678527117,0.000358008430339396
1782846209319461600,2.192461669921875,-0.00010802876204252243,0.0025196257047355175,0.0016992982709780335
1782846209329466600,2.202466552734375,-0.0021991427056491375,-0.0022322528529912233,0.0008614677935838699
1782846209339471600,2.2124716796875,-0.00006424961611628532,-0.000487195560708642,-0.00010038493201136589
1782846209349476600,2.2224765625,-0.0005249764071777463,0.0004824614152312279,0.00210045138373971
1782846209359481600,2.232481689453125,0.0009279283694922924,-0.000024378066882491112,0.005603306461125612
1782846209369486600,2.242486572265625,0.0005273888818919659,0.001511467038653791,-0.00030118832364678383
1782846209379491600,2.25249169921875,0.0014401653315871954,-0.0003684463445097208,-0.0013842704938724637
1782846209389496600,2.26249658203125,0.001055605011060834,0.00012157531455159187,0.0018551985267549753
1782846209399501600,2.27250146484375,0.00040099560283124447,0.0015396447852253914,-0.00004361802712082863
1782846209409506600,2.282506591796875,0.0007051285356283188,0.0006506815552711487,0.0001760927843861282
1782846209419511600,2.292511474609375,-0.0006194803863763809,0.0007800357416272163,0.0014792531728744507
1782846209429516500,2.3025166015625,-0.0010306724580004811,0.000728370388969779,-0.0017279917374253273
1782846209439521500,2.312521484375,-0.0011845908593386412,0.0004812967963516712,0.000507244432810694
1782846209449526500,2.322526611328125,0.0002902678679674864,0.0005257716402411461,-0.0007106191478669643
1782846209459531500,2.332531494140625,0.003495641052722931,-0.00020315800793468952,0.0010689034825190902
1782846209469536500,2.34253662109375,0.001262314384803176,-0.000002621905878186226,-0.000020329374819993973
1782846209479541500,2.35254150390625,-0.000386078841984272,0.0024599400348961353,-0.0019210074096918106
1782846209489546800,2.362546630859375,-0.0012819662224501371,0.00003113714046776295,-0.0014693352859467268
1782846209499551700,2.3725517578125,-0.00014526024460792542,0.00030537298880517483,-0.0007678301772102714
1782846209509556700,2.382556640625,0.0005101438146084547,-0.00037133623845875263,0.0019363434985280037
1782846209519561700,2.392561767578125,0.0002916164230555296,-0.0014744973741471767,0.0019338586134836078
1782846209529566700,2.402566650390625,-0.002743854420259595,0.001497057732194662,-0.00019933341536670923
1782846209539571700,2.41257177734375,0.0003436978440731764,-0.00021937699057161808,-0.002740120515227318
1782846209549576700,2.42257666015625,-0.0002943954896181822,-0.00027210754342377186,0.0015371824847534299
1782846209559581700,2.432581787109375,-0.0013016760349273682,0.0007915061432868242,0.0014902451075613499
1782846209569586700,2.442586669921875,0.0000618624035269022,0.002124151913449168,-0.0017928997986018658
1782846209579591700,2.452591796875,0.00021447776816785336,-0.0013535688631236553,0.0000917230499908328
1782846209589596700,2.4625966796875,0.0005726730450987816,0.0008978673722594976,-0.001067817211151123
1782846209599601700,2.4726015625,-0.0001079067587852478,0.0005641651805490255,0.0009388868929818273
1782846209609606700,2.482606689453125,0.0010258008260279894,-0.0020627768244594336,-0.0025927310343831778
1782846209619611600,2.492611572265625,-0.0023425889667123556,-0.0015161947812885046,-0.0028918194584548473
1782846209629616600,2.50261669921875,-0.0013766603078693151,-0.002439778996631503,0.0012099811574444175
1782846209639621600,2.51262158203125,0.0008639127481728792,-0.001058925874531269,0.003002980723977089
1782846209649626600,2.522626708984375,0.0009592538699507713,-0.000647467328235507,-0.00047590641770511866
1782846209659631600,2.532631591796875,-0.0007245339220389724,-0.00036858278326690197,0.001330660772509873
1782846209669636600,2.54263671875,-0.002231350401416421,-0.0013917693868279457,0.0014283987693488598
1782846209679641600,2.5526416015625,0.0007484566885977983,0.00018632784485816956,-0.0004441381897777319
1782846209689646800,2.562646728515625,0.0001513760071247816,-0.0009766744915395975,0.0023476537317037582
1782846209699651800,2.57265185546875,0.0002501863054931164,-0.0007332782261073589,-0.0014176772674545646
1782846209709656800,2.58265673828125,0.0002640348393470049,0.0002078828401863575,-0.0014557604445144534
1782846209719661800,2.592661865234375,0.002981114899739623,-0.0023644014727324247,0.0013127051061019301
1782846209729666800,2.602666748046875,-0.0001619479153305292,-0.0007444007787853479,0.000883936183527112
1782846209739671800,2.612671875,0.0005505464505404234,0.0007883070502430201,-0.0027775082271546125
1782846209749676800,2.6226767578125,-0.00020312820561230183,-0.001711069606244564,-0.00030502944719046354
1782846209759681800,2.632681884765625,0.0008516476955264807,0.0005315190646797419,0.000385173421818763
1782846209769686800,2.642686767578125,0.002212256658822298,-0.0023396348115056753,0.0002666627406142652
1782846209779691800,2.65269189453125,0.0008967805188149214,-0.0036210345569998026,-0.0005995313404127955
1782846209789696800,2.66269677734375,0.0030800397507846355,-0.0003376232925802469,0.0006225932156667113
1782846209799701800,2.67270166015625,-0.00023487908765673637,0.002506100805476308,-0.001755515462718904
1782846209809705700,2.682705810546875,0.00338329141959548,0.0006424207240343094,0.0014088525203987956
1782846209819711700,2.692711669921875,0.0015634584706276655,0.0013936926843598485,0.0025369953364133835
1782846209829715700,2.7027158203125,-0.000609414535574615,-0.00011871661990880966,0.0012959622545167804
1782846209839720700,2.712720703125,0.00015559513121843338,-0.000331612303853035,-0.0014658782165497541
1782846209849725700,2.7227255859375,-0.002219678368419409,-0.00028474070131778717,-0.0005995518295094371
1782846209859730700,2.732730712890625,0.0006946863140910864,0.0005340003408491611,0.0024070758372545242
1782846209869735700,2.742735595703125,0.00038336263969540596,0.0004399907775223255,0.0010986647102981806
1782846209879740700,2.75274072265625,-0.0015808513853698969,0.0008589511271566153,-0.0026748802047222853
1782846209889745700,2.76274560546875,-0.0009171916171908379,-0.0005693021230399609,0.0006298364023678005
1782846209899750700,2.772750732421875,-0.0014160044956952333,-0.001008476596325636,-0.0015886425971984863
1782846209909755600,2.782755615234375,-0.0011001535458490252,0.0004442778881639242,-0.0009617344476282597
1782846209919760600,2.7927607421875,0.0011424750555306673,-0.001346230274066329,0.0010365896159783006
1782846209929765600,2.802765625,-0.0012634245213121176,0.000552603742107749,-0.0014582595322281122
1782846209939770600,2.8127705078125,0.0014741544146090746,0.0014025118434801698,-0.000015429570339620113
1782846209949775600,2.822775634765625,0.0011327371466904879,-0.00140659068711102,0.00115156767424196
1782846209959780600,2.832780517578125,-0.00014764908701181412,0.0017637781566008925,0.0025230953469872475
1782846209969785600,2.84278564453125,-0.00029385671950876713,-0.00007220497354865074,0.000037300982512533665
1782846209979790600,2.85279052734375,0.0006528028752654791,-0.00035771867260336876,0.0036846762523055077
1782846209989795600,2.862795654296875,0.0006466775666922331,0.0005022159311920404,0.0013727860059589148
1782846209999800600,2.872800537109375,0.0020929102320224047,-0.0004491955041885376,0.0012582576600834727
1782846210009805600,2.8828056640625,-0.0009686597622931004,-0.0002651710528880358,0.0003253523609600961
1782846210019810600,2.892810546875,0.0028965475503355265,0.0001904906239360571,-0.0013588316505774856
1782846210029815600,2.902815673828125,0.00249627442099154,0.0015244680689647794,-0.0014099642867222428
1782846210039820500,2.912820556640625,-0.0007367988582700491,-0.001066272146999836,0.0016028028912842274
1782846210049825800,2.92282568359375,0.0007303366437554359,-0.000534438993781805,0.0006837459513917565
1782846210059830800,2.932830810546875,0.0009400979615747929,-0.000724834157153964,0.001007413025945425
1782846210069835800,2.942835693359375,-0.00006924010813236237,0.0002517472021281719,0.0012143406784161925
1782846210079840800,2.9528408203125,-0.0023506400175392628,0.00031012878753244877,-0.0002728523686528206
1782846210089845800,2.962845703125,0.0002864222042262554,0.0004411563277244568,0.0006627161637879908
1782846210099850800,2.972850830078125,-0.0005891254404559731,-0.00034593092277646065,0.0007186881848610938
1782846210109855700,2.982855712890625,-0.00009431014768779278,0.0009113473352044821,0.0010039127664640546
1782846210119860700,2.99286083984375,-0.001284108031541109,0.0016263999277725816,0.001462911837734282
1782846210129865700,3.00286572265625,0.0003169842530041933,-0.00008521368727087975,-0.0016090443823486567
1782846210139870700,3.01287060546875,0.0009485485497862101,0.0007664558943361044,0.0005800664657726884
1782846210149875700,3.022875732421875,-0.0008128662593662739,-0.00006258604116737843,0.002070105168968439
1782846210159880700,3.032880615234375,-0.0006156552117317915,-0.001033431151881814,0.0012336692307144403
1782846210169885700,3.0428857421875,0.0000884844921529293,-0.001222781604155898,-0.00011096079833805561
1782846210179890700,3.052890625,0.0010403117630630732,0.00021038693375885487,-0.001427678856998682
1782846210189895700,3.062895751953125,0.0005351102445274591,0.0005962790455669165,-0.002894015284255147
1782846210199900700,3.072900634765625,-0.0021930336952209473,0.00018547498621046543,0.0002447033184580505
1782846210209905700,3.08290576171875,-0.002072924980893731,0.0014880269300192595,0.0011065022554248571
1782846210219910700,3.09291064453125,-0.00041157309897243977,0.002602707128971815,0.00007400114554911852
1782846210229915600,3.10291552734375,0.0003647382836788893,0.0008769787382334471,-0.0022551994770765305
1782846210239920600,3.112920654296875,0.0014127951581031084,-0.00008663325570523739,-0.003225365187972784
1782846210249926000,3.12292578125,-0.0013779313303530216,-0.0036094626411795616,-0.00294626597315073
1782846210259931000,3.132930908203125,0.00009283609688282013,-0.0005734451115131378,0.00218665087595582
1782846210269935900,3.142935791015625,0.0007397178560495377,0.0016809205990284681,-0.0006075376877561212
1782846210279940900,3.15294091796875,0.0025938961189240217,0.0010696093086153269,-0.0005621089367195964
1782846210289945900,3.16294580078125,0.0003869342617690563,-0.001649744575843215,-0.00012561690527945757
1782846210299950800,3.172950927734375,0.0003020737785845995,0.0011795596219599247,-0.0006453648675233126
1782846210309955800,3.182955810546875,0.0007100701332092285,0.0011044584680348635,-0.0014965111622586846
1782846210319960800,3.1929609375,-0.0012538135051727295,0.0013498121406883001,0.0017208447679877281
1782846210329965800,3.2029658203125,-0.000467115780338645,0.002220399444922805,-0.0006078232545405626
1782846210339970800,3.212970703125,-0.001660737325437367,-0.0004313059616833925,0.0003952961997129023
1782846210349975800,3.222975830078125,-0.001232234644703567,-0.001057148678228259,0.0011090233456343412
1782846210359980800,3.232980712890625,-0.0018882540753111243,-0.00015832227654755116,0.002191493520513177
1782846210369985800,3.24298583984375,-0.0004179228562861681,-0.0010163926053792238,0.0021928250789642334
1782846210379990800,3.25299072265625,0.0011298866011202335,-0.0009574953000992537,-0.002484453609213233
1782846210389995800,3.262995849609375,-0.00013218563981354237,0.000837741419672966,-0.001410667086020112
1782846210400000800,3.273000732421875,-0.00043146079406142235,-0.0003299526870250702,0.001908032689243555
1782846210410005800,3.283005859375,0.0004417896270751953,0.001229061745107174,-0.0005338197806850076
1782846210420010800,3.2930107421875,-0.0009350150357931852,0.002451583743095398,-0.00008719996549189091
1782846210430015700,3.303015625,-0.0009153076680377126,-0.0013532745651900768,-0.0009247642010450363
1782846210440020700,3.313020751953125,0.0005929921753704548,-0.0002621673047542572,0.00020623410819098353
1782846210450025700,3.323025634765625,0.0007788806688040495,-0.0012347535230219364,0.0004251459613442421
1782846210460030700,3.33303076171875,-0.00048261065967381,0.001454759854823351,-0.0017399891512468457
1782846210470035700,3.34303564453125,-0.0009270922746509314,-0.0005852214526385069,-0.0008329165866598487
1782846210480040700,3.353040771484375,-0.0001325509510934353,0.00043802568688988686,-0.00021365552674978971
1782846210490045400,3.36304541015625,-0.00029047648422420025,0.0003293687477707863,-0.002497316338121891
1782846210500050400,3.373050537109375,-0.0012818702962249517,-0.001868963474407792,0.00109340890776366
1782846210510055400,3.383055419921875,-0.001770293922163546,0.000496189808472991,-0.0010072925360873342
1782846210520060400,3.393060302734375,-0.0014741916675120592,-0.0008083030115813017,0.001462996588088572
1782846210530065700,3.403065673828125,0.00047870445996522903,-0.00009590736590325832,0.0010339614236727357
1782846210540070700,3.413070556640625,0.0015955404378473759,0.0027095223776996136,0.002233314560726285
1782846210550075600,3.42307568359375,0.0008506542071700096,0.0007417125161737204,0.0005243640625849366
1782846210560080600,3.43308056640625,-0.0006282684626057744,-0.0010875258594751358,0.000719549716450274
1782846210570086000,3.4430859375,-0.000528666190803051,-0.0006361198611557484,-0.001565975253470242
1782846210580089600,3.453089599609375,-0.000445792218670249,-0.0009173164144158363,-0.0002660860773175955
1782846210590094600,3.463094482421875,0.00010707997716963291,0.00023476709611713886,-0.0009119026362895966
1782846210600099600,3.473099609375,-0.00038773263804614544,0.001349194790236652,0.004155375063419342
1782846210610104600,3.4831044921875,-0.0013853528071194887,0.0001515713520348072,0.00043706956785172224
1782846210620109600,3.493109619140625,0.0012982001062482595,-0.0006598636973649263,-0.002058803103864193
1782846210630114600,3.503114501953125,0.000036128098145127296,-0.0009416260290890932,0.0004458999028429389
1782846210640119600,3.51311962890625,0.0005573972593992949,-0.0008376925252377987,0.0026582058053463697
1782846210650124500,3.52312451171875,0.0003661822993308306,-0.0010520769283175468,-0.00009443750604987144
1782846210660129500,3.533129638671875,-0.00017673615366220474,0.0001447531394660473,-0.0021057394333183765
1782846210670134500,3.543134521484375,-0.00011574989184737206,-0.00036976952105760574,-0.0001531095476821065
1782846210680139500,3.553139404296875,-0.00001392420381307602,0.0010224995203316212,-0.0015668068081140518
1782846210690144500,3.56314453125,0.0013789089862257242,0.0025319792330265045,-0.000751613057218492
1782846210700149500,3.5731494140625,-0.0014252669643610716,0.000634894473478198,0.0024949107319116592
1782846210710154500,3.583154541015625,0.0022174050100147724,0.0004673816729336977,-0.0020766714587807655
1782846210720159700,3.59315966796875,-0.00011713174171745777,0.00004435167647898197,-0.00005912245251238346
1782846210730164700,3.603164794921875,-0.00026893196627497673,0.00006698840297758579,0.001551557332277298
1782846210740169700,3.613169677734375,0.0003795926459133625,0.000001096632331609726,-0.00009862682782113552
1782846210750174700,3.6231748046875,0.0009654879104346037,-0.0020356890745460987,-0.0008022340480238199
1782846210760179700,3.6331796875,-0.00035319768358021975,0.0030419686809182167,-0.0004535391926765442
1782846210770184700,3.643184814453125,-0.001538304379209876,-0.00033678370527923107,0.0023568947799503803
1782846210780189700,3.653189697265625,0.00031561614014208317,-0.0009839977137744427,0.004444784484803677
1782846210790194700,3.663194580078125,-0.002440223004668951,0.001119100721552968,-0.0003017677227035165
1782846210800199700,3.67319970703125,0.0007237838581204414,0.0005882247351109982,0.0008517251117154956
1782846210810204700,3.68320458984375,0.0013895740266889334,0.00013069366104900837,0.0019257779931649566
1782846210820209700,3.693209716796875,0.0003077539149671793,0.0009568820241838694,0.0017666437197476625
1782846210830214700,3.703214599609375,0.0005562268197536469,0.00176195555832237,-0.001658713910728693
1782846210840219600,3.7132197265625,-0.0010433128336444497,0.000539017841219902,0.0034108601976186037
1782846210850224600,3.723224609375,0.0022656649816781282,-0.0013978993520140648,0.0007056211470626295
1782846210860229600,3.733229736328125,0.0006668283604085445,-0.0009897623676806688,-0.0029510774184018373
1782846210870234600,3.743234619140625,-0.00014996319077908993,-0.001182042295113206,0.00033206777879968286
1782846210880239600,3.753239501953125,0.0006831672508269548,0.000801813555881381,0.0023524996358901262
1782846210890244600,3.76324462890625,-0.0004279034910723567,0.0012114078272134066,0.0010326369665563107
1782846210900249600,3.77324951171875,-0.0017048397567123175,-0.002874025609344244,0.0005430186283774674
1782846210910254600,3.783254638671875,0.0016952180303633213,0.002727933693677187,0.0010727214394137263
1782846210920259800,3.793259765625,0.0008962852880358696,0.0006102193146944046,0.0020608725026249886
1782846210930264800,3.803264892578125,0.0009862999431788921,-0.0014033967163413763,0.0013226441806182265
1782846210940269800,3.813269775390625,0.000625263899564743,-0.0017372420988976955,0.0006036984268575907
1782846210950274800,3.82327490234375,-0.002367596607655287,-0.0003670456353574991,-0.0008951285853981972
1782846210960279800,3.83327978515625,0.0012247711420059204,-0.00014550751075148582,0.00013598427176475525
1782846210970284800,3.843284912109375,0.0016474146395921707,-0.002155129099264741,0.00027446862077340484
1782846210980289800,3.853289794921875,0.00008969823829829693,0.0016907696845009923,0.0026037662755697966
1782846210990294800,3.863294677734375,-0.00038168125320225954,-0.0005859667435288429,-0.00044049310963600874
1782846211000299800,3.8732998046875,0.0006842818111181259,0.003785099368542433,0.0009757934603840113
1782846211010304800,3.8833046875,-0.0016611641040071845,0.0004436313174664974,-0.0023318526800721884
1782846211020309800,3.893309814453125,0.0007546748965978622,-0.0013216801453381777,-0.0004984113620594144
1782846211030314800,3.903314697265625,-0.00023309164680540562,-0.0013046360109001398,0.0031533152796328068
1782846211040319700,3.91331982421875,0.00015985011123120785,0.0022501652128994465,-0.0015789209865033627
1782846211050324700,3.92332470703125,0.001281839795410633,-0.00010912911966443062,-0.00040153751615434885
1782846211060329700,3.933329833984375,0.000792752718552947,0.0014799359487369657,0.0005712812999263406
1782846211070334700,3.943334716796875,-0.0011100758565589786,-0.0007422056514769793,0.0033164676278829575
1782846211080339700,3.953339599609375,-0.0014404538087546825,-0.0012845287565141916,-0.0013347367057576776
1782846211090344700,3.9633447265625,0.001732436241582036,-0.000006477814167737961,-0.0009725469863042235
1782846211100349700,3.973349609375,0.002257331507280469,-0.00045133382081985474,0.0024762265384197235
1782846211110354700,3.983354736328125,-0.0024202445056289434,0.00050207762978971,-0.00000397535040974617
1782846211120359700,3.993359619140625,-0.0018250150606036186,0.001799688907340169,0.0012843122240155935
1782846211130364700,4.00336474609375,0.002395296236500144,0.002157085109502077,-0.0010222515556961298
1782846211140369700,4.01336962890625,0.0005420707166194916,0.0009157909080386162,-0.0014328969409689307
1782846211150374700,4.023374755859375,-0.0010022964561358094,0.0007229780312627554,-0.0007234308868646622
1782846211160379600,4.033379638671875,0.0004038223996758461,0.0008568556513637304,0.00035893789026886225
1782846211170384600,4.043384521484375,0.0003684023395180702,-0.0002070772461593151,0.0004798454465344548
1782846211180389600,4.0533896484375,0.0015554637648165226,-0.00015532411634922028,0.0004045034875161946
1782846211190394600,4.06339453125,0.0015155165456235409,0.0013709334889426827,-0.002950547030195594
1782846211200399600,4.073399658203125,0.000011232215911149979,0.0011298824101686478,-0.0012485693441703916
1782846211210404600,4.083404541015625,-0.002024488290771842,0.0015067196218296885,0.0025893119163811207
1782846211220409600,4.09340966796875,0.0024871090427041054,0.0011964957229793072,0.0013304814929142594
1782846211230414600,4.10341455078125,-0.00029456254560500383,-0.001033369218930602,-0.0023172502405941486
1782846211240419600,4.113419677734375,-0.001286782557144761,-0.00018746359273791313,-0.003047314938157797
1782846211250424600,4.123424560546875,-0.0011866478016600013,0.0003454349935054779,0.0012089491356164217
1782846211260428500,4.133428466796875,0.0023801838979125023,-0.0018692314624786377,0.00018624908989295363
1782846211270433800,4.143433837890625,0.00007228855974972248,-0.001486002467572689,0.002193207386881113
1782846211280438800,4.153438720703125,-0.0010991914896294475,-0.0014579263515770435,-0.001904872595332563
1782846211290443800,4.16344384765625,-0.0023516761139035225,-0.0008517908863723278,0.000030979281291365623
1782846211300448800,4.17344873046875,0.0005483028944581747,-0.0010219241958111525,0.00020041101379320025
1782846211310453800,4.183453857421875,0.0008068957831710577,-0.001999304397031665,-0.0017538164975121617
1782846211320458800,4.193458740234375,0.0004348854999989271,-0.0013320883736014366,0.0010762220481410623
1782846211330463700,4.203463623046875,0.00009639770723879337,-0.0025006835348904133,0.0036893156357109547
1782846211340468700,4.21346875,0.0016925758682191372,0.0005838307552039623,-0.0004784531192854047
1782846211350473700,4.2234736328125,0.0017897812649607658,-0.00010086805559694767,0.00002248748205602169
1782846211360478700,4.233478759765625,-0.00044225016608834267,-0.00023549026809632778,-0.0018778885714709759
1782846211370483700,4.243483642578125,0.000860035652294755,-0.0002946124877780676,0.0027714581228792667
1782846211380488700,4.25348876953125,0.0003728605806827545,0.001183976186439395,-0.0022543794475495815
1782846211390493700,4.26349365234375,0.00005008559674024582,0.0037834877148270607,0.001203735126182437
1782846211400498700,4.273498779296875,0.000034091994166374207,0.0014772424474358559,0.0017887656576931477
1782846211410503700,4.283503662109375,0.00061066634953022,0.00007375655695796013,0.0005029915482737124
1782846211420508700,4.2935087890625,-0.0005288181127980351,-0.001453137258067727,-0.001524108462035656
1782846211430513700,4.303513671875,-0.0007983300602063537,0.0015692843589931726,0.001111621968448162
1782846211440518700,4.3135185546875,0.0004896328318864107,-0.001235830131918192,-0.0006337201921269298
1782846211450523600,4.323523681640625,0.00042837997898459435,0.001243573147803545,-0.001208696747198701
1782846211460528600,4.333528564453125,0.000024399254471063614,-0.00033302558586001396,-0.000909139052964747
1782846211470533600,4.34353369140625,-0.002411328023299575,-0.001995636848732829,-0.0013605448184534907
1782846211480538600,4.35353857421875,0.0011154853273183107,-0.0023298056330531836,0.001658435445278883
1782846211490543600,4.363543701171875,0.0008289292454719543,0.00012855837121605873,-0.002592235803604126
1782846211500548600,4.373548583984375,0.00048672244884073734,0.0012664077803492546,0.00003157486207783222
1782846211510553600,4.3835537109375,0.002452668035402894,0.002558307256549597,0.0011202751193195581
1782846211520558600,4.39355859375,0.0004772862885147333,-0.0010830676183104515,-0.0001881178468465805
1782846211530563600,4.4035634765625,0.00009645428508520126,0.00023173470981419086,0.0014366767136380076
1782846211540568600,4.413568603515625,-0.0008716691518202424,-0.0016216849908232689,-0.0010343164904043078
1782846211550573600,4.423573486328125,-0.0005001581739634275,-0.000015532830730080605,-0.0012007640907540917
1782846211560578600,4.43357861328125,-0.0005998839624226093,0.00022795330733060837,0.002253700513392687
1782846211570583600,4.44358349609375,-0.00164943584240973,-0.0006109422538429499,0.0007796409772709012
1782846211580588500,4.453588623046875,0.000006913905963301659,-0.0003561810590326786,0.0014438485959544778
1782846211590593500,4.463593505859375,0.0012149238027632236,-0.002410010900348425,0.00015115016140043736
1782846211600598500,4.4735986328125,0.0032541651744395494,0.00010913959704339504,0.0012985178036615252
1782846211610603500,4.483603515625,-0.0011264686472713947,-0.00010710908100008965,-0.0007270824862644076
1782846211620608500,4.4936083984375,0.001221156446263194,0.0009171725250780582,0.0016619658563286066
1782846211630613500,4.503613525390625,-0.0015946037601679564,-0.00017206044867634773,-0.0000030423980206251144
1782846211640618500,4.513618408203125,0.0009077929425984621,0.0025727171450853348,-0.002027010777965188
1782846211650623500,4.52362353515625,-0.0016405859496444464,-0.0016198973171412945,0.0015240481588989496
1782846211660628500,4.53362841796875,0.0001879099290817976,0.001544751226902008,-0.0017589081544429064
1782846211670633500,4.543633544921875,0.0017506526783108711,-0.001531732501462102,0.0028701983392238617
1782846211680638500,4.553638427734375,-0.0008289687102660537,0.0014871923485770822,-0.00046411086805164814
1782846211690643500,4.5636435546875,0.0015271299052983522,0.0016754778334870934,-0.0013826352078467607
1782846211700648400,4.5736484375,0.0009012164082378149,0.0028902185149490833,-0.000005307374522089958
1782846211710653400,4.5836533203125,0.0001579283270984888,0.000598834827542305,0.0024682367220520973
1782846211720658400,4.593658447265625,0.00090632657520473,0.0002736770547926426,-0.0016256673261523247
1782846211730663400,4.603663330078125,0.0010053962469100952,0.0005961856804788113,0.0015171291306614876
1782846211740668400,4.61366845703125,0.0004575229249894619,-0.00015903287567198277,0.003167655086144805
1782846211750673400,4.62367333984375,-0.0009134724969044328,0.00013711047358810902,0.000004352303221821785
1782846211760678700,4.6336787109375,-0.0011744220973923802,0.0008687956724315882,-0.00008826050907373428
1782846211770683600,4.64368359375,-0.00007347133941948414,-0.002693715039640665,0.0016659635584801435
1782846211780688600,4.653688720703125,0.0006871651858091354,-0.0011079791001975536,0.0026351111009716988
1782846211790693600,4.663693603515625,0.0010632036719471216,0.0016667685704305768,-0.0013913223519921303
1782846211800698600,4.67369873046875,-0.002314574085175991,-0.0004256344400346279,-0.0014133593067526817
1782846211810703600,4.68370361328125,0.00041543226689100266,-0.00017423206008970737,-0.0007520965300500393
1782846211820708600,4.69370849609375,0.0008680205792188644,-0.002495105378329754,-0.00012781505938619375
1782846211830713600,4.703713623046875,0.001884016441181302,0.0009696672204881907,-0.002642638050019741
1782846211840718600,4.713718505859375,-0.00015902239829301834,-0.00040394323877990246,-0.0014377390034496784
1782846211850722600,4.72372265625,-0.0005302670178934932,-0.001827402738854289,0.002499478403478861
1782846211860728600,4.733728515625,3.424938768148422e-7,0.000013563083484768867,0.0017123701982200146
1782846211870732500,4.743732666015625,-0.0007322930032387376,-0.001341719413176179,0.0017515188083052635
1782846211880737500,4.753737548828125,0.00013109436258673668,-0.001716803526505828,0.0013715453678742051
1782846211890742500,4.763742431640625,-0.00041112524922937155,0.0037844881881028414,0.002323359251022339
1782846211900747500,4.77374755859375,-0.00014856434427201748,-0.0002350369468331337,0.002391410991549492
1782846211910752500,4.78375244140625,-0.0004835899453610182,-0.0005199951119720936,0.00035063078394159675
1782846211920757500,4.793757568359375,-0.00019042380154132843,-0.00033162254840135574,0.0003625090466812253
1782846211930762500,4.803762451171875,-0.00045194628182798624,0.0021712162997573614,-0.0006753248162567616
1782846211940767500,4.813767578125,0.002358499215915799,0.001407975796610117,-0.0006817521061748266
1782846211950772500,4.8237724609375,-0.001120654633268714,-0.0009630366694182158,0.001947853248566389
1782846211960777500,4.833777587890625,-0.0014400777872651815,0.0027073861565440893,-0.00037456152494996786
1782846211970782500,4.843782470703125,0.00010508834384381771,-0.0002814794424921274,0.0011623486643657088
1782846211980787500,4.853787353515625,-0.0010410035029053688,-0.0016082949005067348,0.0011705844663083553
1782846211990792400,4.86379248046875,0.0022503971122205257,0.0002665705978870392,0.0012933561811223626
1782846212000797400,4.87379736328125,0.0005970259662717581,0.0028153713792562485,0.0016633793711662292
1782846212010802400,4.883802490234375,0.0024156987201422453,-0.0011426182463765144,0.0010575102642178535
1782846212020807400,4.893807373046875,0.0007534648757427931,0.00032710726372897625,0.00020869437139481306
1782846212030812400,4.9038125,0.0014232499524950981,0.0012597462628036737,0.00326333986595273
1782846212040817400,4.9138173828125,0.000809074379503727,-0.000004516681656241417,0.0012150413822382689
1782846212050822400,4.923822509765625,0.0016969724092632532,-0.0003576518502086401,0.003603630466386676
1782846212060827400,4.933827392578125,0.0004454313311725855,-0.0015026307664811611,0.0018777691293507814
1782846212070832400,4.943832275390625,-0.0025295859668403864,-0.0025324751622974873,0.00008066807640716434
1782846212080837600,4.953837646484375,0.001772905234247446,0.001061394577845931,-0.0006758078234270215
1782846212090842600,4.963842529296875,-0.000988792977295816,-0.00011945096775889397,0.0009212898439727724
1782846212100847600,4.97384765625,-0.0013497069012373686,0.0027355896309018135,-0.0006926784990355372
1782846212110852600,4.9838525390625,0.0012069276999682188,0.0005422101821750402,0.001687921117991209
1782846212120857600,4.993857666015625,0.0014998468104749918,0.00020609050989151,0.0009742471156641841
1782846212130862600,5.003862548828125,0.0010031673591583967,0.000342710642144084,0.0008054026984609663
1782846212140867600,5.01386767578125,-0.0010966263944283128,0.00010623224079608917,0.0008368055569007993
1782846212150872800,5.023872802734375,-0.00011099036782979965,0.0017102542333304882,0.0014914105413481593
1782846212160877800,5.0338779296875,0.0002971556968986988,0.000046904198825359344,-0.0007248640758916736
1782846212170882800,5.0438828125,0.001698244595900178,0.002746816724538803,-0.0013528374256566167
1782846212180887800,5.0538876953125,-0.00043960975017398596,0.0002583037130534649,0.000388436543289572
1782846212190892800,5.063892822265625,0.0013921123463660479,0.0018764403648674488,0.0010931090218946338
1782846212200897800,5.073897705078125,-0.0005381874507293105,0.0014231509994715452,-0.0021567577496170998
1782846212210902800,5.08390283203125,0.0020203113090246916,-0.00039365747943520546,-0.0011849701404571533
1782846212220907800,5.09390771484375,0.002357400255277753,0.0013496095780283213,0.00045496667735278606
1782846212230912800,5.103912841796875,0.0017512647900730371,-0.0010429741814732552,0.0004794677661266178
1782846212240917800,5.113917724609375,0.0005609283689409494,0.0027466563042253256,0.001433845842257142
1782846212250922800,5.1239228515625,0.001220593461766839,0.0004970841109752655,-0.0002487392630428076
1782846212260927700,5.133927734375,-0.00018419488333165646,0.0005183534231036901,-0.0006560292094945908
1782846212270932700,5.1439326171875,0.00019344128668308258,-0.000624142587184906,-0.0005524322623386979
1782846212280937700,5.153937744140625,-0.0005632059182971716,0.0016733127413317561,0.00002924358705058694
1782846212290942700,5.163942626953125,-0.00043777108658105135,0.0008884791750460863,-0.0007241646526381373
1782846212300947700,5.17394775390625,0.0006392081268131733,0.0008375120814889669,-0.00035460892831906676
1782846212310952700,5.18395263671875,-0.00009635696187615395,0.0006444328464567661,0.0005681763868778944
1782846212320957700,5.193957763671875,0.0011586463078856468,0.000904611311852932,-0.00004618021193891764
1782846212330962700,5.203962646484375,0.0019378871656954288,0.0015341826947405934,-0.00029358791653066874
1782846212340967700,5.2139677734375,0.0007166543509811163,-0.0006518547888845205,0.0003993610735051334
1782846212350972700,5.22397265625,-0.00007164152339100838,0.00014176731929183006,-0.0003481882158666849
1782846212360977700,5.233977783203125,-0.00068431138060987,0.0011434140615165234,0.0005729497061111033
1782846212370981600,5.243981689453125,0.002257682615891099,-0.00010241265408694744,-0.0004449104890227318
1782846212380987600,5.253987548828125,0.000982166500762105,0.0006182768847793341,0.003145676339045167
1782846212390991600,5.26399169921875,0.0011848330032080412,-0.001169236609712243,-0.00040378462290391326
1782846212400996600,5.27399658203125,0.0016243963036686182,-0.000704791396856308,-0.0012983845081180334
1782846212411001600,5.284001708984375,0.0014949666801840067,-0.0008427430875599384,0.000553577789105475
1782846212421006600,5.294006591796875,0.000023362692445516586,-0.0024670863058418036,0.0016758773708716035
1782846212431011600,5.304011474609375,0.0007876900490373373,-0.0011019499506801367,0.0006399077828973532
1782846212441016600,5.3140166015625,0.00007366831414401531,-0.0015514439437538385,0.0030661318451166153
1782846212451021600,5.324021484375,0.0014127057511359453,0.00028107711113989353,-0.0005302008939906955
1782846212461026600,5.334026611328125,-0.000011182855814695358,-0.00006297603249549866,-0.0009176675812341273
1782846212471031600,5.344031494140625,-0.0005424834089353681,0.002145849633961916,-0.00007078232010826468
1782846212481036500,5.35403662109375,0.00031738518737256527,0.0016538311028853059,-0.0005904850549995899
1782846212491040800,5.364040771484375,-0.0022847894579172134,-0.00013394886627793312,0.0013275234960019588
1782846212501045800,5.374045654296875,-0.0005339568015187979,-0.00034284708090126514,0.0008664000779390335
1782846212511050800,5.38405078125,0.0012439694255590439,0.0014220296870917082,0.0013532259035855532
1782846212521055700,5.3940556640625,0.00025999615900218487,-0.001018026378005743,-0.00007695518434047699
1782846212531060700,5.404060791015625,-0.001646827207878232,0.0008219517767429352,-0.0005358178750611842
1782846212541065700,5.414065673828125,-0.0023710380773991346,-0.0004058629274368286,0.0008957418031059206
1782846212551070700,5.42407080078125,0.001100126188248396,0.001264471560716629,-0.0026116413064301014
1782846212561075700,5.43407568359375,-0.001668937737122178,-0.0006707545835524797,0.000811222824268043
1782846212571080700,5.444080810546875,0.0008954200893640518,-0.00039192172698676586,-0.0020607300102710724
1782846212581085700,5.454085693359375,-0.001472819596529007,-0.000002762768417596817,0.003304474288597703
1782846212591090700,5.464090576171875,-0.000387048814445734,0.0007727497722953558,-0.001583225093781948
1782846212601095700,5.474095703125,-0.001807490480132401,0.00047858990728855133,0.002168667037039995
1782846212611100700,5.4841005859375,-0.0016740660648792982,-0.0017291705589741468,-0.0013043612707406282
1782846212621105700,5.494105712890625,-0.0007964810356497765,0.00017305254004895687,0.0012142895720899105
1782846212631110700,5.504110595703125,0.00042271404527127743,0.0005514875520020723,0.0016068395925685763
1782846212641115600,5.51411572265625,0.00025532254949212074,0.00146695994772017,0.001018466311506927
1782846212651120600,5.52412060546875,0.0010223127901554108,-0.001010844949632883,0.0006269816076382995
1782846212661125600,5.534125732421875,0.0003166829701513052,-0.000361371785402298,0.000133291759993881
1782846212671130600,5.544130615234375,0.001951597398146987,-0.00108814868144691,-0.0035413377918303013
1782846212681135600,5.554135498046875,0.001230467576533556,0.0010374041739851236,-0.0017672134563326836
1782846212691140600,5.564140625,-0.00037941313348710537,-0.0014859410002827644,0.0004677113320212811
1782846212701145600,5.5741455078125,-0.0009317053481936455,-0.0008101761341094971,0.001743283006362617
1782846212711150600,5.584150634765625,-0.0007143913535401225,0.0013033084105700254,0.00039572350215166807
1782846212721155600,5.594155517578125,0.0002234636340290308,0.0021344837732613087,-0.0008286769734695554
1782846212731160600,5.60416064453125,-0.0017294322606176138,-0.0011292202398180962,0.0013716267421841621
1782846212741165600,5.61416552734375,-0.000004548812285065651,-0.00028556445613503456,0.0018956774147227407
1782846212751170600,5.624170654296875,-0.0016056413296610117,0.00027343304827809334,0.0007425285875797272
1782846212761175600,5.634175537109375,-0.0006436122348532081,0.0015408769249916077,-0.0004736314294859767
1782846212771180500,5.6441806640625,0.0015518979635089636,0.0014753631548956037,-0.0012443502200767398
1782846212781185500,5.654185546875,0.002216509310528636,0.0025675464421510696,-0.001100952853448689
1782846212791190500,5.6641904296875,-0.001530025852844119,0.0011643266770988703,0.0013579437509179115
1782846212801195500,5.674195556640625,-0.0003389285411685705,0.001020511845126748,0.0002798392088152468
1782846212811200500,5.684200439453125,-0.002666531363502145,0.0008790979627519846,-0.002054687822237611
1782846212821205500,5.69420556640625,0.0005866035353392363,0.00022115418687462807,-0.0001458211336284876
1782846212831210800,5.704210693359375,0.00027634529396891594,-0.001624416559934616,-0.0013471730053424835
1782846212841215700,5.7142158203125,0.00003709178417921066,0.0005946033634245396,0.001629083533771336
1782846212851220700,5.724220703125,0.0016216724179685116,-0.0017383259255439043,0.00009989645332098007
1782846212861225700,5.734225830078125,0.00044449069537222385,0.0023872442543506622,0.0005954587832093239
1782846212871229700,5.744229736328125,-0.0003629797138273716,-0.0001712546218186617,-0.0005233351839706302
1782846212881234700,5.754234619140625,0.0018229263368993998,0.003684628987684846,0.0021672328002750874
1782846212891239700,5.76423974609375,-0.00033370149321854115,0.0002616681158542633,-0.0010748995700851083
1782846212901244700,5.77424462890625,-0.0013319331919774413,-0.001232616137713194,-0.001727148424834013
1782846212911249700,5.784249755859375,-0.0005375122418627143,-0.0010350095108151436,0.000581545929890126
1782846212921254700,5.794254638671875,-0.0015449541388079524,0.0009176456369459629,0.0005010734312236309
1782846212931259600,5.804259765625,-0.0014173886738717556,0.0005181715823709965,-0.00010426313383504748
1782846212941264600,5.8142646484375,-0.0007520387880504131,-0.0011347273830324411,-0.0015248515410348773
1782846212951269600,5.82426953125,-0.0010921244975179434,0.00046210410073399544,-0.0011373615125194192
1782846212961274600,5.834274658203125,0.00011501414701342583,0.00011523440480232239,0.000523392460308969
1782846212971279600,5.844279541015625,-0.0007012448040768504,-0.0007694677915424109,0.003647014033049345
1782846212981284600,5.85428466796875,-0.00003840983845293522,0.0008514043875038624,0.00042211246909573674
1782846212991289600,5.86428955078125,0.0001954156905412674,0.000817315885797143,-0.0035412036813795567
1782846213001294800,5.874294921875,0.0009132556151598692,-0.00005960185080766678,0.0013196524232625961
1782846213011299800,5.8842998046875,-0.0010849141981452703,-0.0012934445403516293,0.0026650812942534685
1782846213021304800,5.894304931640625,0.000554847763851285,-0.0002087256871163845,0.00021088571520522237
1782846213031309800,5.904309814453125,-0.0006393137155100703,0.0003103245981037617,0.00018265622202306986
1782846213041314800,5.914314697265625,-0.0009014190873131156,-0.00003281352110207081,-0.00010844680946320295
1782846213051319800,5.92431982421875,-0.00039461953565478325,0.0007147358264774084,0.00010087765986099839
1782846213061324800,5.93432470703125,-0.0007524162065237761,0.0023893816396594048,-0.0010406658984720707
1782846213071329800,5.944329833984375,0.000176228117197752,-0.00002131168730556965,0.0009199533378705382
1782846213081334800,5.954334716796875,-0.0003308197483420372,-0.0006406367756426334,-0.000627260422334075
1782846213091339800,5.96433984375,0.00010487320832908154,0.001098141074180603,-0.0011870567686855793
1782846213101344800,5.9743447265625,-0.0009840488201007247,-0.001071196747943759,-0.00018133537378162146
1782846213111349800,5.984349853515625,-0.002669030800461769,-0.0020272715482860804,0.0006865888135507703
1782846213121354800,5.994354736328125,0.0005094141233712435,0.0005514312069863081,0.0007883062935434282
1782846213131359700,6.00435986328125,0.0003930339589715004,0.001627614488825202,0.0013853870332241058
1782846213141364700,6.01436474609375,-0.0010857080342248082,0.0011153633240610361,-0.0012127638328820467
1782846213151369700,6.02436962890625,0.0032507169526070356,0.001635478576645255,-0.0010910574346780777
1782846213161374700,6.034374755859375,-0.0030121798627078533,0.00020198826678097248,0.0016693667275831103
1782846213171379700,6.044379638671875,0.0006512643303722143,0.0007966721896082163,0.0002752019208855927
1782846213181384700,6.054384765625,0.0001280517317354679,-0.00009309477172791958,0.0010808809893205762
1782846213191389700,6.0643896484375,-0.00038141082040965557,0.0013969439314678311,0.00001348607474938035
1782846213201394700,6.074394775390625,-0.002743062097579241,-0.0007969762664288282,0.0017859532963484526
1782846213211399700,6.084399658203125,-0.00030999816954135895,-0.002137345029041171,0.0009790154872462153
1782846213221404700,6.09440478515625,-0.0002116849645972252,0.0012547115329653025,-0.00016451242845505476
1782846213231409700,6.10440966796875,0.000532668549567461,-0.0005234810523688793,0.00002616987330839038
1782846213241415000,6.114414794921875,0.0002507937606424093,-0.0014626614283770323,-0.0008548791520297527
1782846213251420000,6.124419921875,-0.0028081131167709827,-0.0008749018888920546,-2.707820385694504e-7
1782846213261425000,6.1344248046875,-0.004384501371532679,-0.000021925894543528557,0.0013176306383684278
1782846213271430000,6.144429931640625,0.0009213145822286606,0.00003346777521073818,0.0018289575818926096
1782846213281435000,6.154434814453125,-0.0009073927067220211,-0.0007425057701766491,-0.001037296373397112
1782846213291439900,6.16443994140625,-0.0012887574266642332,-0.002050650306046009,-0.0026698140427470207
1782846213301444900,6.17444482421875,0.0024351284373551607,0.0007320265285670757,-0.0014489413006231189
1782846213311449900,6.184449951171875,0.0027618983294814825,-0.0007305818144232035,-0.002688908949494362
1782846213321454800,6.194454833984375,0.000544434180483222,-0.001136368839070201,0.000762325944378972
1782846213331458800,6.204458740234375,0.0012930487282574177,0.0007872325368225574,-0.002219082787632942
1782846213341463800,6.2144638671875,0.0005228039808571339,-0.0006093664560467005,-0.000719784467946738
1782846213351468800,6.22446875,-0.001755263889208436,0.0008955858647823334,0.00006158702308312058
1782846213361473800,6.234473876953125,0.00044435472227633,-0.00009834533557295799,0.000159979157615453
1782846213371478800,6.244478759765625,-0.0005402159877121449,0.001067852834239602,-0.0027473936788737774
1782846213381483800,6.25448388671875,-0.0026832849252969027,0.000004826579242944717,0.00006924552144482732
1782846213391488800,6.26448876953125,-0.00063984130974859,0.0013103081146255136,-0.0012090718373656273
1782846213401493800,6.27449365234375,-0.002481120405718684,0.0010711601935327053,-0.002335709985345602
1782846213411498800,6.284498779296875,-0.0005026580765843391,0.0013249593321233988,-0.003855575807392597
1782846213421503700,6.294503662109375,0.0006838028784841299,0.0013607732253149152,-0.0009423914016224444
1782846213431508700,6.3045087890625,0.00009124958887696266,0.0013357395073398948,-0.0007865963852964342
1782846213441513700,6.314513671875,-0.0015657312469556928,0.00047743995673954487,0.0012105818605050445
1782846213451518700,6.324518798828125,-0.00041178357787430286,0.0004955495242029428,-0.0015370012260973454
1782846213461523700,6.334523681640625,-0.0022591587621718645,0.0005884079728275537,-0.00020624540047720075
1782846213471528700,6.34452880859375,-0.00006817630492150784,0.0012379528488963842,-0.00024539377773180604
1782846213481533700,6.35453369140625,-0.0002897544763982296,-0.0007055031601339579,-0.0005752083379775286
1782846213491538700,6.36453857421875,-0.000007459428161382675,0.002012785291299224,0.00024105049669742584
1782846213501544700,6.374544677734375,0.0008555974345654249,0.0008186446502804756,0.00008842773968353868
1782846213511549700,6.3845498046875,-0.0018006394384428859,-0.00035208091139793396,-0.000981630408205092
1782846213521554700,6.3945546875,-0.0002233667764812708,0.002280437620356679,-0.0007395040011033416
1782846213531559700,6.4045595703125,0.0005252477712929249,-0.0009630261920392513,-0.0012007633922621608
1782846213541564700,6.414564697265625,-0.0007990723242983222,0.0008032349869608879,0.0007294450188055634
1782846213551569700,6.424569580078125,-0.00004619685932993889,0.000922278268262744,0.0024437217507511377
1782846213561574700,6.43457470703125,0.0018948635552078485,0.00029561715200543404,0.00026900682132691145
1782846213571579600,6.44457958984375,-0.0002468505408614874,0.001627996563911438,0.00045596068957820535
1782846213581584600,6.454584716796875,-0.0009509267983958125,0.0014474920462816954,-0.001959306886419654
1782846213591589600,6.464589599609375,0.0008677458390593529,-0.00007503712549805641,0.0007781564490869641
1782846213601594600,6.4745947265625,0.00007189204916357994,0.0016699287807568908,-0.00011938269017264247
1782846213611599600,6.484599609375,-0.0009185376111418009,-0.0009290501475334167,-0.00013110059080645442
1782846213621604600,6.4946044921875,-0.00017072586342692375,0.0010907729156315327,-0.0006188865518197417
1782846213631609600,6.504609619140625,0.001045007025822997,0.001790385227650404,-0.0015802877023816109
1782846213641614600,6.514614501953125,-0.0020942187402397394,-0.0015273310709744692,0.00008504436118528247
1782846213651619600,6.52461962890625,0.0006594897713512182,-0.0007065448444336653,-0.0025118039920926094
1782846213661624600,6.53462451171875,0.0015742592513561249,0.0016061285277828574,0.0003216750919818878
1782846213671629600,6.544629638671875,0.00017237127758562565,0.0018791025504469872,-0.002279966836795211
1782846213681634600,6.554634521484375,-0.00008292077109217644,0.0009600683115422726,-0.00027531321393325925
1782846213691639600,6.5646396484375,0.0010667657479643822,-0.000216782558709383,0.002513815416023135
1782846213701644500,6.57464453125,-0.00009700399823486805,-0.0029012986924499273,-0.002589503303170204
1782846213711649500,6.5846494140625,-0.0013114053290337324,-0.0007143106777220964,0.0005575539544224739
1782846213721654500,6.594654541015625,0.0010070609860122204,0.001103352988138795,0.004665676970034838
1782846213731659800,6.60465966796875,0.002334380755200982,0.000019180122762918472,0.0002187305362895131
1782846213741664800,6.614664794921875,0.0011131011415272951,0.000864911824464798,0.0002396849449723959
1782846213751668700,6.624668701171875,0.001937615917995572,-0.0005521562416106462,0.0013430325780063868
1782846213761673700,6.634673828125,-0.0017210872611030936,0.0009076464921236038,0.0007309406064450741
1782846213771678700,6.6446787109375,0.002004941226914525,0.001234682509675622,-0.0017029221635311842
1782846213781683700,6.65468359375,-0.0007382277399301529,-0.0013707354664802551,0.00034668378066271544
1782846213791688700,6.664688720703125,-0.0014495579525828362,-0.00028523080982267857,0.0015056915581226349
1782846213801693700,6.674693603515625,0.000044402433559298515,0.0025054682046175003,0.0005585384205915034
1782846213811698700,6.68469873046875,0.000578099861741066,0.00004151160828769207,0.0007998208166100085
1782846213821703700,6.69470361328125,0.0011047003790736198,0.000014778226613998413,0.00016090768622234464
1782846213831708700,6.704708740234375,-0.00016243173740804195,-0.001062736613675952,0.0006392113864421844
1782846213841713700,6.714713623046875,0.0017800391651690006,-0.0003570220433175564,0.0001256810501217842
1782846213851718700,6.72471875,-0.0016557048074901104,-0.0024193739518523216,-0.0011023025726899505
1782846213861723600,6.7347236328125,0.0031868242658674717,0.00003549782559275627,0.0003385813324712217
1782846213871728600,6.744728759765625,0.0007039594929665327,-0.0006318902596831322,0.0009596304735168815
1782846213881733600,6.754733642578125,-0.000487944227643311,-0.0014277275186032057,-0.0016616289503872395
1782846213891738600,6.764738525390625,0.0005224591586738825,0.0005430118180811405,0.0007892781286500394
1782846213901743600,6.77474365234375,0.0020715745631605387,-0.0005680099129676819,-0.0007227991009131074
1782846213911748600,6.78474853515625,-0.0012754864292219281,-0.0011051692999899387,0.0013539338251575828
1782846213921753600,6.794753662109375,-0.00271481997333467,-0.00003767362795770168,-0.0013641470577567816
1782846213931758600,6.804758544921875,-0.0007107913261279464,-0.0007932123262435198,-0.0007622726261615753
1782846213941763600,6.814763671875,0.0023015683982521296,0.0019390678498893976,-0.0006105484208092093
1782846213951768600,6.8247685546875,-0.001422862522304058,0.0008610202930867672,0.0034763384610414505
1782846213961773600,6.834773681640625,-0.0025415150448679924,0.0008335285820066929,0.001976505620405078
1782846213971778600,6.844778564453125,-0.0003492007963359356,0.00005988008342683315,-0.0020214319229125977
1782846213981783600,6.854783447265625,0.00039857998490333557,-0.00040135160088539124,-0.0035888664424419403
1782846213991788500,6.86478857421875,-0.0006597602041438222,0.000312641728669405,0.0008439652738161385
1782846214001793500,6.87479345703125,0.0009005249012261629,-0.00044962624087929726,-0.002114510163664818
1782846214011798500,6.884798583984375,0.0017306322697550058,0.00019858707673847675,0.0001031039864756167
1782846214021803500,6.894803466796875,0.0010485958773642778,-0.0010350700467824936,-0.0012830090709030628
1782846214031808800,6.904808837890625,-0.0010643560672178864,-0.0018843519501388073,-0.002687027445062995
1782846214041813800,6.914813720703125,-0.0008993386290967464,-0.0013642050325870514,-0.00046423415187746286
1782846214051818800,6.92481884765625,0.0006721927784383297,-0.0008848360739648342,0.0022327490150928497
1782846214061823700,6.93482373046875,-0.0009144709911197424,0.0009515834972262383,0.000553030869923532
1782846214071828700,6.944828857421875,0.0003404105082154274,-0.0009126293007284403,-0.0009527205256745219
1782846214081833700,6.954833740234375,-0.0035671114455908537,-0.0003053564578294754,0.0002713872818276286
1782846214091838700,6.964838623046875,-0.0007383017800748348,-0.0017943296115845442,0.000873261655215174
1782846214101843700,6.97484375,-0.00113078358117491,-0.0004793794360011816,-0.0007298262789845467
1782846214111848700,6.9848486328125,0.0024136174470186234,0.0024900450371205807,0.00211709295399487
1782846214121854000,6.99485400390625,0.0004735169932246208,-0.0007642169948667288,-0.0008138120174407959
1782846214131859000,7.00485888671875,0.0005038771778345108,0.002305075991898775,-0.002933422103524208
1782846214141862700,7.014862548828125,-0.00009676930494606495,-0.0012313562911003828,-0.0010695481905713677
1782846214151867600,7.02486767578125,-0.0014608403434976935,0.0006786629091948271,0.0019193175248801708
1782846214161872600,7.03487255859375,0.0010388190858066082,0.00018631736747920513,-0.00001670466735959053
1782846214171877600,7.044877685546875,-0.0005252553382888436,0.001018022419884801,0.000208066136110574
1782846214181882600,7.054882568359375,-0.0003680785885080695,0.00039208377711474895,0.0004063213709741831
1782846214191887600,7.0648876953125,-0.0019843510817736387,-0.00026838015764951706,0.003384268144145608
1782846214201892900,7.074892822265625,-0.0012977180304005742,-0.0019095756579190493,-0.0008150095818564296
1782846214211897900,7.08489794921875,-0.0003821231657639146,0.0004896663594990969,0.0011757033644244075
1782846214221902800,7.09490283203125,0.0004043898079544306,0.000579608604311943,0.0023142320569604635
1782846214231907800,7.104907958984375,0.0005109163466840982,0.0018009344348683953,0.0019656242802739143
1782846214241912800,7.114912841796875,-0.0024855260271579027,-0.0010674218647181988,-0.000669930363073945
1782846214251917800,7.124917724609375,-0.0027084327302873135,0.0012908075004816055,-0.00011892232578247786
1782846214261922800,7.1349228515625,0.0013766735792160034,-0.0024839879479259253,0.00025438208831474185
1782846214271927800,7.144927734375,-0.000016958452761173248,0.0014670777600258589,-0.001547512598335743
1782846214281932800,7.154932861328125,-0.00018796930089592934,-0.0015543312765657902,-0.0011846660636365414
1782846214291937800,7.164937744140625,0.001887165941298008,-0.0004464564844965935,0.0006039129802957177
1782846214301942800,7.17494287109375,0.0014548224862664938,0.001301528885960579,0.001256407704204321
1782846214311947800,7.18494775390625,-0.00167385907843709,0.000016287202015519142,0.0018279221840202808
1782846214321952800,7.194952880859375,0.0007880853954702616,-0.0014456475619226694,0.0008309067925438285
1782846214331957800,7.204957763671875,-0.00024522095918655396,0.0025458980817347765,0.00005619326839223504
1782846214341962800,7.214962646484375,0.0009462679736316204,0.00013319100253283978,0.0010294554522261024
1782846214351967700,7.2249677734375,-0.00015574810095131397,-0.0001546966377645731,-0.0009122552582994103
1782846214361972700,7.23497265625,-0.00005794805474579334,-0.0009070367086678743,0.0035919214133173227
1782846214371977700,7.244977783203125,0.0001843995414674282,-0.0007347303908318281,-0.0003474265686236322
1782846214381982700,7.254982666015625,0.0020283942576497793,0.0008163698948919773,-0.0009069836232811213
1782846214391987700,7.26498779296875,0.00012370129115879536,-0.00035408930853009224,0.0014568381011486053
1782846214401992700,7.27499267578125,0.0018024370074272156,-0.0005193536635488272,0.0012214225716888905
1782846214411997700,7.284997802734375,0.0009608780965209007,0.001531280460767448,0.0011079718824476004
1782846214422002700,7.295002685546875,0.00024040276184678078,-0.0007969972211867571,0.0008478573872707784
1782846214432007700,7.305007568359375,0.003209028160199523,0.0006570888217538595,-0.0008219445589929819
1782846214442012700,7.3150126953125,-0.0027657519094645977,-0.000803790520876646,-0.0004744520992971957
1782846214452017700,7.325017578125,-0.0010104625253006816,0.0007299238350242376,0.0016712567303329706
1782846214462022700,7.335022705078125,0.0013740656431764364,-0.00016365735791623592,-0.0013292883522808552
1782846214472028000,7.34502783203125,0.0007974912878125906,0.00033568544313311577,-0.00014950818149372935
1782846214482033000,7.355032958984375,0.00014232750982046127,-0.00006226403638720512,-0.0010619810782372952
1782846214492038000,7.365037841796875,0.0013764363247901201,0.001898887800052762,0.000360679579898715
1782846214502043000,7.37504296875,0.0000031783711165189743,-0.0020845080725848675,0.00011358788469806314
1782846214512047900,7.3850478515625,0.0005813506431877613,0.0014822636730968952,-0.0006312982877716422
1782846214522052900,7.395052978515625,0.00037244101986289024,0.0003889624495059252,-0.0013318299315869808
1782846214532056800,7.405056884765625,-0.0002715112641453743,0.0012382445856928825,-0.001564856618642807
1782846214542061800,7.415061767578125,0.0018668398261070251,0.0005668019875884056,0.000644079816993326
1782846214552066800,7.42506689453125,-0.0005619629519060254,-0.00032828631810843945,0.00034500681795179844
1782846214562071800,7.43507177734375,0.0011234134435653687,-0.00028996774926781654,-0.0004352628602646291
1782846214572076800,7.445076904296875,-0.0009799512336030602,0.0024184673093259335,-0.0014651073142886162
1782846214582081800,7.455081787109375,0.0010433429852128029,-0.002936983248218894,0.0013201157562434673
1782846214592086800,7.465086669921875,0.001288087572902441,0.0013621575199067593,-0.002813110128045082
1782846214602091800,7.475091796875,0.0007253941148519516,-0.0024313977919518948,0.0013047768734395504
1782846214612096800,7.4850966796875,-0.0001385353971272707,-0.0011722552590072155,-0.0024284422397613525
1782846214622101800,7.495101806640625,-0.0007032676367089152,0.0009240764193236828,-0.0010920491768047214
1782846214632106800,7.505106689453125,0.0012160725891590118,0.0033060077112168074,-0.001323477947153151
1782846214642111700,7.51511181640625,0.00023717456497251987,-0.0003715439233928919,0.001733963144943118
1782846214652116700,7.52511669921875,0.0010771355591714382,-0.0009731519967317581,-0.0014778091572225094
1782846214662121700,7.535121826171875,-0.0010644311551004648,-0.00004668976180255413,0.00040661945240572095
1782846214672126700,7.545126708984375,-0.0007914571324363351,-0.0017055727075785398,0.0021126405335962772
1782846214682131700,7.555131591796875,0.0003402077127248049,0.0015264544636011124,0.000045580381993204355
1782846214692136700,7.56513671875,0.00025764969177544117,-0.0009319095406681299,0.00349224335514009
1782846214702141700,7.5751416015625,-0.0016275111120194197,0.0018634621519595385,0.000612471834756434
1782846214712146700,7.585146728515625,0.0015600263141095638,-0.0016351323574781418,-0.0015500150620937347
1782846214722151700,7.595151611328125,0.0006924043409526348,-0.0016801576130092144,-0.00004232482751831412
1782846214732156700,7.60515673828125,-0.0024980625603348017,-0.0014234292320907116,0.00023304607020691037
1782846214742161700,7.61516162109375,-0.0007506546098738909,-0.0008059106767177582,0.000250886136200279
1782846214752166700,7.625166748046875,0.001967633841559291,-0.00023226579651236534,0.00013983232202008367
1782846214762171600,7.635171630859375,-0.0006237148772925138,-0.000562816159799695,-0.000695244234520942
1782846214772176600,7.6451767578125,0.000610393937677145,-0.0004144781269133091,-0.000564749410841614
1782846214782182000,7.655181884765625,0.0011238951701670885,-0.0013204780407249928,-0.0006013892125338316
1782846214792187000,7.665186767578125,0.0017763697542250156,-0.00024695764295756817,-0.0008802221855148673
1782846214802192000,7.67519189453125,0.0006727920845150948,-0.0005339186172932386,0.002425210550427437
1782846214812196900,7.68519677734375,-0.0007626517908647656,0.0021990174427628517,0.0017362508224323392
1782846214822201900,7.695201904296875,0.00029785512015223503,-0.0009549777023494244,0.001529741333797574
1782846214832206800,7.705206787109375,0.001873114611953497,-0.002057526260614395,-0.001094537554308772
1782846214842211800,7.7152119140625,0.00019319215789437294,-0.00026133027859032154,-0.0022835831623524427
1782846214852216800,7.725216796875,-0.0001487575937062502,0.00178983632940799,-0.00011257437290623784
1782846214862222000,7.73522216796875,0.00164275080896914,0.0010503274388611317,0.00013029261026531458
1782846214872227000,7.74522705078125,-0.001317086280323565,0.0004886668175458908,0.0010525452671572566
1782846214882232000,7.755232177734375,0.0007242579013109207,0.001290727872401476,0.003859960939735174
1782846214892235800,7.76523583984375,-0.0008741714991629124,-0.0013649764005094767,0.0005192917305976152
1782846214902240800,7.77524072265625,0.0007322321180254221,-0.0015202707145363092,0.0004311231314204633
1782846214912245800,7.785245849609375,0.000615851953625679,-0.001832393230870366,-0.0009068489307537675
1782846214922250800,7.795250732421875,0.00013267900794744492,0.0005648753140121698,0.0018825022270902991
1782846214932255700,7.805255859375,-0.0016729442868381739,0.0009465061593800783,0.00040684471605345607
1782846214942260700,7.8152607421875,0.002251238562166691,0.0003534767311066389,0.0013070030836388469
1782846214952266000,7.825265869140625,-0.0007362954784184694,0.0005074073560535908,-0.0003297756193205714
1782846214962271000,7.83527099609375,-0.0009415545500814915,0.0005196367856115103,0.0008602637681178749
1782846214972276000,7.84527587890625,0.000031830742955207825,-0.0005970264319330454,-0.0007386981742456555
1782846214982281000,7.855281005859375,0.00022682268172502518,-0.0026654349640011787,0.0028128400444984436
1782846214992286000,7.865285888671875,0.0023251273669302464,-0.0011492976918816566,0.001415479346178472
1782846215002291000,7.875291015625,0.0015844767913222313,-0.0014086253941059113,0.0030123908072710037
1782846215012296000,7.8852958984375,0.003300351556390524,0.002007944043725729,-0.00011682335752993822
1782846215022301000,7.895301025390625,-0.0002982793375849724,0.0013923599617555737,-0.0008829269208945334
1782846215032306000,7.905305908203125,0.0002822896931320429,-0.0017296639271080494,-0.0014483160339295864
1782846215042311000,7.915310791015625,0.0010061447974294424,-0.001824894454330206,-0.002294342266395688
1782846215052316000,7.92531591796875,-0.00040666223503649235,-0.0011953231878578663,-0.0019888775423169136
1782846215062321000,7.93532080078125,-0.00014800229109823704,-0.001417695078998804,0.0008707097149454057
1782846215072326000,7.945325927734375,0.0015257943887263536,0.0014840852236375213,-0.001228926470503211
1782846215082331000,7.955330810546875,-0.0001551634632050991,0.0013252856442704797,0.0014335826272144914
1782846215092335900,7.9653359375,0.0019596528727561235,0.0015652364818379283,0.0002130559296347201
1782846215102340900,7.9753408203125,0.0006493381224572659,0.0014302288182079792,-0.0013659405522048473
1782846215112345900,7.985345947265625,-0.0004343022592365742,-0.0002014900092035532,-0.0009701946983113885
1782846215122350800,7.995350830078125,-0.0013387822546064854,-0.002045723143965006,0.0010442067869007587
1782846215132355800,8.00535595703125,0.00019679637625813484,-0.001996454317122698,0.0035385233350098133
1782846215142360800,8.01536083984375,0.0004607748705893755,0.0003086791839450598,-0.0003559904871508479
1782846215152365800,8.02536572265625,0.0012181778438389301,-0.0005027861334383488,0.0009082120377570391
1782846215162370800,8.035370849609375,-0.000363251194357872,-0.00003461865708231926,-0.00012049247743561864
1782846215172375800,8.045375732421874,-0.0016655368963256478,-0.0011917620431631804,-0.00004459236515685916
1782846215182380800,8.055380859375,-0.002563981804996729,-0.0024189481046050787,0.0014904635027050972
1782846215192385800,8.0653857421875,0.0009300855454057455,-0.002070606453344226,0.00026461045490577817
1782846215202390800,8.075390869140625,0.00008600694127380848,0.00046997913159430027,0.0003167196409776807
1782846215212396000,8.08539599609375,-0.00017684698104858398,-0.0008789119310677052,-0.002104093786329031
1782846215222401000,8.095401123046875,0.0002801050432026386,0.0002601649612188339,-0.0001640506088733673
1782846215232406000,8.105406005859376,-0.00022349879145622253,-0.00028311973437666893,0.003166764974594116
1782846215242411000,8.115410888671875,0.0018254918977618217,-0.00041791261173784733,-0.0011555602541193366
1782846215252415000,8.1254150390625,0.0023930114693939686,-0.0008557362016290426,0.000679357792250812
1782846215262420000,8.135419921875,0.0018347904551774263,-0.00021261232905089855,-0.0012908042408525944
1782846215272425000,8.145425048828125,0.0020230759400874376,0.002467326819896698,-0.0033704666420817375
1782846215282430000,8.155429931640626,0.0020817990880459547,0.0016559427604079247,-0.001609847997315228
1782846215292435000,8.16543505859375,0.0022186858113855124,0.0007011995185166597,0.0004706134204752743
1782846215302440000,8.17543994140625,-0.00039159366860985756,-0.0008207140490412712,-0.0004413062706589699
1782846215312445000,8.18544482421875,-0.0005013158079236746,0.0011715966975316405,-0.003483435371890664
1782846215322450000,8.195449951171875,-0.0005636538844555616,-0.000002776971086859703,-0.0022365886252373457
1782846215332455000,8.205454833984374,0.0008305110968649387,0.0005301216151565313,-0.002184390788897872
1782846215342460000,8.2154599609375,-0.0013619643868878484,-0.0006291414611041546,0.001610161387361586
1782846215352465000,8.22546484375,0.0011222322937101126,0.0010060393251478672,0.00011293223360553384
1782846215362470000,8.235469970703125,0.00016043963842093945,0.00028857472352683544,0.003393635619431734
1782846215372475000,8.245474853515624,-0.002789277583360672,-0.00022621429525315762,0.0003421856672503054
1782846215382480000,8.25547998046875,-0.0020154279191046953,-0.0005508977919816971,-0.0011158213019371033
1782846215392484900,8.26548486328125,0.0020869052968919277,-0.000586317852139473,-0.002417840762063861
1782846215402489900,8.27548974609375,0.0016673165373504162,-0.0018154866993427277,0.00010177778312936425
1782846215412494800,8.285494873046876,-0.0017391329165548086,-0.0013622166588902473,0.0005435962229967117
1782846215422499800,8.295499755859375,-0.0028816803824156523,-0.0013892645947635174,-0.0006606311653740704
1782846215432504800,8.3055048828125,-0.000971395056694746,0.0020568659529089928,-0.0007863323553465307
1782846215442509800,8.315509765625,-0.000587278394959867,-0.0004065255634486675,0.00016816990682855248
1782846215452514800,8.325514892578125,0.0000635981559753418,0.0002499434631317854,0.0020571500062942505
1782846215462519800,8.335519775390624,-0.0010937359184026718,-0.0009028532076627016,-0.00138017104472965
1782846215472524800,8.34552490234375,-0.0008274198044091463,-0.0011787565890699625,0.000687773572281003
1782846215482529800,8.35552978515625,0.0008879778906702995,0.00026241480372846127,0.0000962011399678886
1782846215492534800,8.36553466796875,0.00031539821065962315,0.0008605606853961945,0.0013271141797304153
1782846215502539300,8.375539306640626,0.000045188236981630325,0.0002629330847412348,-0.0008899339591152966
1782846215512544300,8.385544189453125,-0.00038544507697224617,-0.0005770279094576836,0.0003803939325734973
1782846215522549200,8.39554931640625,0.00010471977293491364,0.00035120919346809387,-0.0018107822397723794
1782846215532554200,8.40555419921875,-0.0016947782132774591,-0.00006823870353400707,-0.00039025209844112396
1782846215542559200,8.415559326171875,0.00006959168240427971,-0.00045116269029676914,-0.0014069268945604563
1782846215552564200,8.425564208984374,0.00001925812102854252,-0.0014807407278567553,-0.0006018533604219556
1782846215562569200,8.4355693359375,0.0022694733925163746,0.0017913603223860264,0.000780747679527849
1782846215572574200,8.44557421875,-0.002159896306693554,0.00033061648719012737,0.0016300297575071454
1782846215582579200,8.4555791015625,-0.0006568072130903602,-0.0023983416613191366,-0.0008050590404309332
1782846215592584200,8.465584228515626,0.00000525452196598053,0.0003556334413588047,0.002506848191842437
1782846215602588200,8.475588134765625,0.001152899581938982,0.001185597968287766,0.0016055323649197817
1782846215612593200,8.48559326171875,0.0007334516849368811,-0.0002109636552631855,0.0001360000460408628
1782846215622598100,8.49559814453125,-0.00010261056013405323,0.0005663987249135971,-0.00008376449113711715
1782846215632603100,8.50560302734375,0.0007618514355272055,0.0008987612091004848,-0.002249979879707098
1782846215642608000,8.515608154296874,-0.0012502575991675258,-0.0015409053303301334,-0.0003782107960432768
1782846215652613000,8.525613037109375,0.0001574892085045576,-0.00005938904359936714,0.00061807781457901
1782846215662618000,8.5356181640625,-0.0007905400125309825,0.0011031636968255043,-0.0025403564795851707
1782846215672623000,8.545623046875,0.00017325789667665958,-0.0016092658042907715,0.0001600888790562749
1782846215682628000,8.555628173828126,0.0007854744326323271,-0.0015091176610440016,-0.0005835315096192062
1782846215692633000,8.565633056640625,-0.0002142761368304491,-0.0008939274121075869,-0.00019843835616484284
1782846215702638000,8.57563818359375,0.0012433519586920738,-0.00039905053563416004,0.0009252435993403196
1782846215712643000,8.58564306640625,-0.0017471115570515394,0.0002502279821783304,-0.0039909519255161285
1782846215722648000,8.59564794921875,0.0013066628016531467,-0.002207129029557109,-0.002468888647854328
1782846215732653000,8.605653076171874,-0.001238520140759647,-0.003714744234457612,0.0010113302851095796
1782846215742658000,8.615657958984375,-0.0013167030410841107,0.11591564118862152,0.04778298735618591
1782846215752663000,8.6256630859375,-0.001695404527708888,-0.03765847161412239,0.013874555006623268
1782846215762668000,8.63566796875,-0.008396098390221596,0.02444886602461338,0.00791526772081852
1782846215772673000,8.645673095703126,0.0031300627160817385,-0.039429981261491776,-0.0036606949288398027
1782846215782678000,8.655677978515625,-0.0011470149038359523,0.0029177898541092873,0.001979920081794262
1782846215792683000,8.66568310546875,-0.0015978880692273378,-0.030664140358567238,-0.00831825751811266
1782846215802688000,8.67568798828125,0.0019364249892532825,0.020191781222820282,-0.000015066005289554596
1782846215812693000,8.68569287109375,0.0025401636958122253,-0.00933228898793459,-0.002569303847849369
