time,seconds_elapsed,z,y,x
1782846782772634400,0.06363427734375,0.122039794921875,0.008575439453125,-0.04888916015625
1782846782782639400,0.073639404296875,0.175262451171875,-0.013824462890625,-0.092559814453125
1782846782792644400,0.083644287109375,0.2315216064453125,-0.0356292724609375,-0.1110076904296875
1782846782802648000,0.09364794921875,0.27880859375,-0.04730224609375,-0.1046295166015625
1782846782812653000,0.103653076171875,0.2643585205078125,-0.0496673583984375,-0.079071044921875
1782846782822658000,0.113657958984375,0.2025146484375,-0.047943115234375,-0.0584259033203125
1782846782832662000,0.123662109375,0.1277313232421875,-0.0450286865234375,-0.045654296875
1782846782842667000,0.1336669921875,0.045684814453125,-0.016845703125,-0.027008056640625
1782846782852672000,0.143672119140625,-0.0859527587890625,0.02093505859375,0.0155029296875
1782846782862676000,0.153676025390625,-0.238128662109375,-0.0136871337890625,0.03973388671875
1782846782872681000,0.163680908203125,-0.36346435546875,-0.118896484375,0.02960205078125
1782846782882686000,0.17368603515625,-0.493560791015625,-0.260223388671875,-0.0149078369140625
1782846782892690000,0.18368994140625,-0.62738037109375,-0.4234466552734375,-0.0292816162109375
1782846782902695000,0.19369482421875,-0.78497314453125,-0.5743865966796875,-0.0203704833984375
1782846782912700000,0.203699951171875,-0.984344482421875,-0.6150360107421875,0.01068115234375
1782846782922704000,0.213703857421875,-1.26556396484375,-0.55755615234375,0.0396270751953125
1782846782932708900,0.223708984375,-1.6029052734375,-0.5363922119140625,0.076629638671875
1782846782942713900,0.2337138671875,-1.9130859375,-0.62225341796875,0.087554931640625
1782846782952718000,0.243718017578125,-2.1722412109375,-0.78564453125,0.083251953125
1782846782962723000,0.25372314453125,-2.15728759765625,-0.8779296875,0.0647735595703125
1782846782972728000,0.26372802734375,-1.9155731201171875,-0.8098602294921875,0.1571197509765625
1782846782982732000,0.27373193359375,-1.96527099609375,-0.8779144287109375,0.29766845703125
1782846782992737000,0.283737060546875,-2.1644134521484375,-0.7677459716796875,0.4549560546875
1782846783002742000,0.293741943359375,-2.21728515625,-0.500030517578125,0.5494384765625
1782846783012746000,0.30374609375,-2.3468475341796875,-0.3027801513671875,0.5067138671875
1782846783022751000,0.3137509765625,-2.4259796142578125,-0.2389373779296875,0.3657684326171875
1782846783032756000,0.323755859375,-2.3814849853515625,-0.2900390625,0.2895355224609375
1782846783042760000,0.333760009765625,-2.1455535888671875,-0.4412384033203125,0.2703094482421875
1782846783052765000,0.343764892578125,-1.7736968994140625,-0.66925048828125,0.297271728515625
1782846783062770000,0.35377001953125,-1.47381591796875,-0.8367156982421875,0.344024658203125
1782846783072774000,0.36377392578125,-1.2975616455078125,-0.8225555419921875,0.382293701171875
1782846783082779000,0.37377880859375,-1.2516632080078125,-0.658172607421875,0.3895721435546875
1782846783092783900,0.383783935546875,-1.2700958251953125,-0.464508056640625,0.36767578125
1782846783102788000,0.3937880859375,-1.2695159912109375,-0.297210693359375,0.348968505859375
1782846783112793000,0.40379296875,-1.2016448974609375,-0.1794281005859375,0.3106536865234375
1782846783122798000,0.413798095703125,-1.075958251953125,-0.104705810546875,0.2311248779296875
1782846783132802000,0.423802001953125,-0.922576904296875,-0.065948486328125,0.13946533203125
1782846783142807000,0.43380712890625,-0.749542236328125,-0.0391082763671875,0.0558013916015625
1782846783152812000,0.44381201171875,-0.5730743408203125,-0.0158843994140625,-0.0180206298828125
1782846783162816000,0.45381591796875,-0.4154205322265625,-0.02716064453125,-0.0824432373046875
1782846783172821000,0.463821044921875,-0.2880096435546875,-0.0423583984375,-0.1348114013671875
1782846783182826000,0.473825927734375,-0.2196502685546875,-0.0533599853515625,-0.1831512451171875
1782846783192830200,0.483830322265625,-0.1922149658203125,-0.0531768798828125,-0.21185302734375
1782846783202835200,0.493835205078125,-0.18817138671875,-0.0479888916015625,-0.212615966796875
1782846783212840200,0.503840087890625,-0.2089385986328125,-0.0567169189453125,-0.1952667236328125
1782846783222844000,0.513843994140625,-0.2395782470703125,-0.0911712646484375,-0.167510986328125
1782846783232849000,0.523848876953125,-0.2573089599609375,-0.13665771484375,-0.120635986328125
1782846783242854000,0.53385400390625,-0.268280029296875,-0.178253173828125,-0.0623931884765625
1782846783252857900,0.54385791015625,-0.2741546630859375,-0.206878662109375,0.0152130126953125
1782846783262862800,0.55386279296875,-0.29522705078125,-0.212799072265625,0.079925537109375
1782846783272867800,0.563867919921875,-0.3624114990234375,-0.1886444091796875,0.13848876953125
1782846783282872000,0.5738720703125,-0.4472198486328125,-0.14324951171875,0.1912994384765625
1782846783292877000,0.583876953125,-0.520233154296875,-0.08984375,0.22900390625
1782846783302882000,0.593882080078125,-0.598602294921875,-0.02716064453125,0.249237060546875
1782846783312886000,0.603885986328125,-0.6740875244140625,0.029998779296875,0.24005126953125
1782846783322891000,0.61389111328125,-0.7022552490234375,0.065185546875,0.2085723876953125
1782846783332896000,0.62389599609375,-0.691802978515625,0.0827484130859375,0.1740264892578125
1782846783342900000,0.63389990234375,-0.6650543212890625,0.0887451171875,0.1538238525390625
1782846783352905000,0.643905029296875,-0.64111328125,0.074432373046875,0.1451263427734375
1782846783362910000,0.653909912109375,-0.629547119140625,0.0414581298828125,0.1340179443359375
1782846783372914200,0.6639140625,-0.646697998046875,0.001190185546875,0.1102142333984375
1782846783382919200,0.673919189453125,-0.716461181640625,-0.0289764404296875,0.098052978515625
1782846783392924200,0.683924072265625,-0.8464508056640625,-0.0795440673828125,0.0819091796875
1782846783402928000,0.69392822265625,-0.9752349853515625,-0.1439361572265625,0.063629150390625
1782846783412933000,0.70393310546875,-1.134674072265625,-0.23321533203125,0.0369415283203125
1782846783422938000,0.713938232421875,-1.3904876708984375,-0.3238067626953125,0.037872314453125
1782846783432941800,0.72394189453125,-1.7092437744140625,-0.366455078125,0.0478057861328125
1782846783442946800,0.73394677734375,-1.9850921630859375,-0.364990234375,0.1459503173828125
1782846783452951800,0.743951904296875,-2.246185302734375,-0.3826446533203125,0.2920989990234375
1782846783462956000,0.7539560546875,-2.4828338623046875,-0.4379425048828125,0.4485931396484375
1782846783472961000,0.7639609375,-2.6092529296875,-0.508941650390625,0.58642578125
1782846783482966000,0.773966064453125,-2.66766357421875,-0.6372528076171875,0.6425323486328125
1782846783492970000,0.783969970703125,-2.704498291015625,-0.7507171630859375,0.6000823974609375
1782846783502975000,0.79397509765625,-2.685211181640625,-0.789398193359375,0.4684295654296875
1782846783512980000,0.80397998046875,-2.6059722900390625,-0.7970123291015625,0.290802001953125
1782846783522984000,0.81398388671875,-2.487457275390625,-0.7991485595703125,0.1356658935546875
1782846783532989000,0.823989013671875,-2.3144378662109375,-0.8165740966796875,-0.0098114013671875
1782846783542994000,0.833993896484375,-2.14013671875,-0.8255615234375,-0.119476318359375
1782846783552998100,0.843998046875,-2.018951416015625,-0.773773193359375,-0.1408233642578125
1782846783563003100,0.854003173828125,-1.932647705078125,-0.6256561279296875,-0.0808258056640625
1782846783573008100,0.864008056640625,-1.8358612060546875,-0.420867919921875,-0.0194091796875
1782846783583012000,0.87401220703125,-1.7160491943359375,-0.2212066650390625,0.0577850341796875
1782846783593017000,0.88401708984375,-1.568084716796875,-0.05767822265625,0.095550537109375
1782846783603022000,0.89402197265625,-1.3693084716796875,0.054168701171875,0.1068267822265625
1782846783613025800,0.90402587890625,-1.12750244140625,0.0690460205078125,0.1099395751953125
1782846783623030800,0.91403076171875,-0.867645263671875,0.002471923828125,0.09637451171875
1782846783633035800,0.924035888671875,-0.5817413330078125,-0.0977020263671875,0.0687103271484375
1782846783643040000,0.9340400390625,-0.3009185791015625,-0.1923065185546875,0.056671142578125
1782846783653045000,0.944044921875,-0.0530853271484375,-0.2411041259765625,0.063995361328125
1782846783663050000,0.954050048828125,0.1344146728515625,-0.20843505859375,0.0801849365234375
1782846783673054000,0.964053955078125,0.2291412353515625,-0.130615234375,0.085357666015625
1782846783683059000,0.974058837890625,0.2466278076171875,-0.062774658203125,0.0784912109375
1782846783693064000,0.98406396484375,0.219512939453125,-0.0127105712890625,0.0655059814453125
1782846783703068000,0.99406787109375,0.201568603515625,0.0361175537109375,0.053741455078125
1782846783713073000,1.004072998046875,0.1920928955078125,0.0670928955078125,0.0318603515625
1782846783723078000,1.014077880859375,0.1960906982421875,0.07470703125,0.009979248046875
1782846783733082000,1.02408203125,0.219024658203125,0.069305419921875,-0.0040435791015625
1782846783743087000,1.034087158203125,0.2353515625,0.045166015625,-0.021240234375
1782846783753092000,1.044092041015625,0.2496185302734375,0.012451171875,-0.0292205810546875
1782846783763096000,1.054095947265625,0.25244140625,-0.0045623779296875,-0.022613525390625
1782846783773101000,1.06410107421875,0.2552947998046875,-0.000335693359375,0.002716064453125
1782846783783106000,1.07410595703125,0.24688720703125,0.008880615234375,0.0267181396484375
1782846783793110000,1.084110107421875,0.2138519287109375,0.0260162353515625,0.0385894775390625
1782846783803115000,1.094114990234375,0.1636962890625,0.0455474853515625,0.0530548095703125
1782846783813120000,1.1041201171875,0.105865478515625,0.072967529296875,0.0579681396484375
1782846783823124200,1.114124267578125,0.0472869873046875,0.099700927734375,0.062225341796875
1782846783833129200,1.124129150390625,0.0102081298828125,0.1041107177734375,0.0718841552734375
1782846783843134200,1.13413427734375,-0.0135345458984375,0.0824127197265625,0.0761566162109375
1782846783853138200,1.14413818359375,-0.0266876220703125,0.053619384765625,0.07965087890625
1782846783863143200,1.15414306640625,-0.058349609375,0.0317230224609375,0.08648681640625
1782846783873148200,1.164148193359375,-0.12677001953125,0.00128173828125,0.0770111083984375
1782846783883152100,1.174152099609375,-0.2202606201171875,-0.0420074462890625,0.05767822265625
1782846783893157000,1.1841572265625,-0.33648681640625,-0.0833740234375,0.04339599609375
1782846783903162400,1.194162353515625,-0.5083770751953125,-0.127227783203125,0.024566650390625
1782846783913166000,1.204166015625,-0.7026824951171875,-0.1766510009765625,0.0077972412109375
1782846783923171000,1.214171142578125,-0.8707427978515625,-0.2292022705078125,0.035125732421875
1782846783933176000,1.224176025390625,-1.060150146484375,-0.3147735595703125,0.087432861328125
1782846783943180000,1.234179931640625,-1.2825927734375,-0.414825439453125,0.1462554931640625
1782846783953185000,1.24418505859375,-1.4810638427734375,-0.50189208984375,0.2120819091796875
1782846783963190000,1.25418994140625,-1.6090850830078125,-0.5455322265625,0.2789764404296875
1782846783973194200,1.2641943359375,-1.70947265625,-0.536834716796875,0.3480682373046875
1782846783983199200,1.27419921875,-1.864166259765625,-0.516845703125,0.3752593994140625
1782846783993204200,1.284204345703125,-2.0803985595703125,-0.5846710205078125,0.3193359375
1782846784003208200,1.294208251953125,-2.2837982177734375,-0.75189208984375,0.2023773193359375
1782846784013213200,1.304213134765625,-2.4808502197265625,-0.828338623046875,0.100982666015625
1782846784023218200,1.31421826171875,-2.647674560546875,-0.7188262939453125,0.0767822265625
1782846784033222100,1.32422216796875,-2.7357330322265625,-0.504486083984375,0.1525421142578125
1782846784043227100,1.33422705078125,-2.6912384033203125,-0.26116943359375,0.30023193359375
1782846784053232000,1.344232177734375,-2.53009033203125,-0.10882568359375,0.399627685546875
1782846784063236400,1.354236328125,-2.3030548095703125,-0.1122283935546875,0.373870849609375
1782846784073241300,1.364241455078125,-2.048004150390625,-0.2319793701171875,0.25927734375
1782846784083246300,1.374246337890625,-1.723968505859375,-0.4304962158203125,0.1346893310546875
1782846784093250000,1.38425,-1.327178955078125,-0.656158447265625,0.0480804443359375
1782846784103255000,1.394255126953125,-0.9595947265625,-0.7969970703125,0.030548095703125
1782846784113260000,1.404260009765625,-0.715728759765625,-0.8028106689453125,0.0366973876953125
1782846784123264000,1.414263916015625,-0.6521148681640625,-0.705352783203125,0.026519775390625
1782846784133269000,1.42426904296875,-0.7020111083984375,-0.567474365234375,0.00732421875
1782846784143274000,1.43427392578125,-0.7860565185546875,-0.4266204833984375,-0.0037841796875
1782846784153278200,1.4442783203125,-0.8523406982421875,-0.277130126953125,0.0158233642578125
1782846784163283200,1.454283203125,-0.90118408203125,-0.15252685546875,0.0146942138671875
1782846784173288200,1.4642880859375,-0.933074951171875,-0.038543701171875,0.01251220703125
1782846784183292200,1.474292236328125,-0.936126708984375,0.0472869873046875,0.016448974609375
1782846784193297200,1.484297119140625,-0.8888397216796875,0.0807952880859375,0.0243988037109375
1782846784203302100,1.49430224609375,-0.7947540283203125,0.0864410400390625,0.0430755615234375
1782846784213306000,1.50430615234375,-0.69024658203125,0.07470703125,0.057281494140625
1782846784223311000,1.51431103515625,-0.5885162353515625,0.0359039306640625,0.045501708984375
1782846784233316000,1.524316162109375,-0.502288818359375,0.0004425048828125,0.01873779296875
1782846784243320300,1.5343203125,-0.4263153076171875,-0.0229339599609375,0.0054931640625
1782846784253325300,1.5443251953125,-0.3553924560546875,-0.040557861328125,-0.0033416748046875
1782846784263330300,1.554330322265625,-0.2890472412109375,-0.0562744140625,-0.0049896240234375
1782846784273334000,1.564333984375,-0.2426910400390625,-0.0637664794921875,0.0046234130859375
1782846784283339000,1.574339111328125,-0.211029052734375,-0.0683746337890625,0.0226287841796875
1782846784293344000,1.584343994140625,-0.202606201171875,-0.07232666015625,0.0499114990234375
1782846784303348000,1.594347900390625,-0.212982177734375,-0.0721435546875,0.089752197265625
1782846784313353000,1.60435302734375,-0.23321533203125,-0.058837890625,0.1260986328125
1782846784323358000,1.61435791015625,-0.2871856689453125,-0.03839111328125,0.1449127197265625
1782846784333362200,1.624362060546875,-0.3557891845703125,-0.020172119140625,0.1466217041015625
1782846784343367200,1.6343671875,-0.401336669921875,-0.0033111572265625,0.1520233154296875
1782846784353372200,1.6443720703125,-0.436370849609375,0.0124359130859375,0.1483306884765625
1782846784363376000,1.654376220703125,-0.5018310546875,0.0330047607421875,0.1355133056640625
1782846784373381000,1.664381103515625,-0.5955352783203125,0.0624237060546875,0.1260986328125
1782846784383386000,1.67438623046875,-0.6871490478515625,0.0867156982421875,0.1121368408203125
1782846784393390000,1.68439013671875,-0.792236328125,0.085845947265625,0.088714599609375
1782846784403395000,1.69439501953125,-0.8937835693359375,0.043182373046875,0.059814453125
1782846784413400000,1.704400146484375,-0.9834136962890625,-0.033599853515625,0.042266845703125
1782846784423404300,1.714404296875,-1.07012939453125,-0.1105804443359375,0.0576324462890625
1782846784433409300,1.7244091796875,-1.1916046142578125,-0.1599273681640625,0.08172607421875
1782846784443414300,1.734414306640625,-1.366180419921875,-0.1898345947265625,0.1150360107421875
1782846784453418000,1.74441796875,-1.558349609375,-0.2307891845703125,0.1507720947265625
1782846784463423000,1.754423095703125,-1.74993896484375,-0.27215576171875,0.1935272216796875
1782846784473428000,1.764427978515625,-1.911651611328125,-0.3148345947265625,0.2665557861328125
1782846784483432000,1.774431884765625,-2.026947021484375,-0.3784332275390625,0.3460235595703125
1782846784493437000,1.78443701171875,-2.1372528076171875,-0.4780731201171875,0.402252197265625
1782846784503442200,1.794442138671875,-2.241180419921875,-0.5884552001953125,0.4431610107421875
1782846784513446100,1.804446044921875,-2.3415069580078125,-0.701263427734375,0.4655609130859375
1782846784523451100,1.814451171875,-2.4205474853515625,-0.7879486083984375,0.4744110107421875
1782846784533456100,1.8244560546875,-2.465606689453125,-0.82257080078125,0.489593505859375
1782846784543460000,1.834460205078125,-2.4911651611328125,-0.8054046630859375,0.4867706298828125
1782846784553465000,1.844465087890625,-2.49267578125,-0.79931640625,0.416839599609375
1782846784563470000,1.854469970703125,-2.4139404296875,-0.799285888671875,0.294708251953125
1782846784573474000,1.86447412109375,-2.266326904296875,-0.77850341796875,0.16375732421875
1782846784583479000,1.87447900390625,-2.1279754638671875,-0.73883056640625,0.0802001953125
1782846784593484300,1.884484375,-1.9542999267578125,-0.6906585693359375,0.0464324951171875
1782846784603488300,1.89448828125,-1.761566162109375,-0.593505859375,0.061798095703125
1782846784613493200,1.9044931640625,-1.5990142822265625,-0.4586334228515625,0.1026458740234375
1782846784623498200,1.914498291015625,-1.4561920166015625,-0.3433380126953125,0.1181182861328125
1782846784633502000,1.924501953125,-1.2996978759765625,-0.25482177734375,0.0975341796875
1782846784643507200,1.934507080078125,-1.1018524169921875,-0.1939849853515625,0.06805419921875
1782846784653512200,1.94451220703125,-0.88238525390625,-0.1597747802734375,0.0312347412109375
1782846784663516200,1.95451611328125,-0.680938720703125,-0.1492767333984375,0.01446533203125
1782846784673521200,1.964521240234375,-0.517333984375,-0.14727783203125,0.0182037353515625
1782846784683526100,1.974526123046875,-0.371429443359375,-0.123260498046875,0.03009033203125
1782846784693530000,1.984530029296875,-0.2360687255859375,-0.088531494140625,0.034210205078125
1782846784703535000,1.99453515625,-0.123046875,-0.0566864013671875,0.0183868408203125
1782846784713540000,2.0045400390625,-0.0247344970703125,-0.0333099365234375,-0.012603759765625
1782846784723544000,2.0145439453125,0.036529541015625,-0.008880615234375,-0.0354766845703125
1782846784733549000,2.024549072265625,0.0225677490234375,0.03857421875,-0.0604400634765625
1782846784743554000,2.034553955078125,0.004638671875,0.089691162109375,-0.0617523193359375
1782846784753558300,2.044558349609375,0.0075836181640625,0.135589599609375,-0.0449371337890625
1782846784763563300,2.054563232421875,0.0385894775390625,0.1421051025390625,-0.0290069580078125
1782846784773568300,2.064568359375,0.0928955078125,0.112396240234375,-0.01312255859375
1782846784783572200,2.074572265625,0.1448822021484375,0.0854949951171875,0.021148681640625
1782846784793577200,2.0845771484375,0.2035675048828125,0.0585479736328125,0.0566864013671875
1782846784803581700,2.094581787109375,0.2579803466796875,0.029937744140625,0.077178955078125
1782846784813585700,2.104585693359375,0.288848876953125,0.0203857421875,0.0876617431640625
1782846784823590700,2.114590576171875,0.30609130859375,0.010498046875,0.0867919921875
1782846784833595600,2.124595703125,0.3123321533203125,0.0044708251953125,0.083160400390625
1782846784843600000,2.134599853515625,0.307647705078125,0.011077880859375,0.0803070068359375
1782846784853604900,2.14460498046875,0.2644805908203125,0.022369384765625,0.0800018310546875
1782846784863609900,2.15460986328125,0.196258544921875,0.0281219482421875,0.0792694091796875
1782846784873613800,2.16461376953125,0.1267547607421875,0.029052734375,0.08941650390625
1782846784883618800,2.174618896484375,0.061065673828125,0.0286865234375,0.0995941162109375
1782846784893623800,2.184623779296875,-0.0012664794921875,0.0297088623046875,0.106353759765625
1782846784903627500,2.19462744140625,-0.0639495849609375,0.029571533203125,0.131591796875
1782846784913632500,2.204632568359375,-0.1331787109375,0.0194091796875,0.1503448486328125
1782846784923637800,2.2146376953125,-0.2084503173828125,-0.011993408203125,0.1489105224609375
1782846784933641700,2.224641845703125,-0.3289337158203125,-0.065704345703125,0.1226348876953125
1782846784943646700,2.234646728515625,-0.5136260986328125,-0.1237945556640625,0.0857086181640625
1782846784953651700,2.244651611328125,-0.7561798095703125,-0.17352294921875,0.0587921142578125
1782846784963655700,2.25465576171875,-1.03106689453125,-0.238250732421875,0.0709381103515625
1782846784973660700,2.26466064453125,-1.2600250244140625,-0.3430023193359375,0.1115875244140625
1782846784983665700,2.274665771484375,-1.410003662109375,-0.4972381591796875,0.182281494140625
1782846784993669600,2.284669677734375,-1.4996490478515625,-0.6402740478515625,0.2571868896484375
1782846785003674600,2.294674560546875,-1.5410919189453125,-0.7191925048828125,0.309326171875
1782846785013679600,2.3046796875,-1.597930908203125,-0.7131805419921875,0.333770751953125
1782846785023684900,2.314684814453125,-1.703704833984375,-0.6085357666015625,0.3116302490234375
1782846785033688800,2.324688720703125,-1.9187774658203125,-0.5876007080078125,0.215789794921875
1782846785043693800,2.33469384765625,-2.2456512451171875,-0.6285858154296875,0.1099700927734375
1782846785053698800,2.34469873046875,-2.5119171142578125,-0.573211669921875,0.05328369140625
1782846785063702800,2.354702880859375,-2.6205291748046875,-0.436370849609375,0.082550048828125
1782846785073707800,2.364707763671875,-2.664337158203125,-0.2962493896484375,0.155120849609375
1782846785083712800,2.374712646484375,-2.6617889404296875,-0.1803741455078125,0.23193359375
1782846785093716700,2.384716796875,-2.572723388671875,-0.1060333251953125,0.2671356201171875
1782846785103722000,2.394721923828125,-2.4078826904296875,-0.1212615966796875,0.234161376953125
1782846785113727000,2.40472705078125,-2.1823577880859375,-0.2234954833984375,0.17767333984375
1782846785123730700,2.414730712890625,-1.9163055419921875,-0.3569183349609375,0.1598052978515625
1782846785133735700,2.424735595703125,-1.6027374267578125,-0.48223876953125,0.1671600341796875
1782846785143740700,2.43474072265625,-1.2939453125,-0.536376953125,0.1905975341796875
1782846785153744600,2.44474462890625,-1.0477752685546875,-0.4889373779296875,0.1986236572265625
1782846785163749600,2.45474951171875,-0.8806915283203125,-0.378875732421875,0.1675567626953125
1782846785173754600,2.464754638671875,-0.7889556884765625,-0.2716064453125,0.093719482421875
1782846785183758800,2.4747587890625,-0.732696533203125,-0.196441650390625,-0.0034332275390625
1782846785193763800,2.484763916015625,-0.68292236328125,-0.1448974609375,-0.081207275390625
1782846785203768800,2.494768798828125,-0.623931884765625,-0.0810089111328125,-0.1266937255859375
1782846785213772800,2.504772705078125,-0.57244873046875,-0.0475006103515625,-0.15655517578125
1782846785223777800,2.51477783203125,-0.51202392578125,-0.0272216796875,-0.16253662109375
1782846785233782800,2.52478271484375,-0.4454498291015625,-0.0022125244140625,-0.155120849609375
1782846785243786800,2.534786865234375,-0.3932952880859375,0.0194854736328125,-0.14154052734375
1782846785253791700,2.544791748046875,-0.34344482421875,0.02532958984375,-0.1324005126953125
1782846785263796700,2.554796630859375,-0.3128814697265625,0.0185546875,-0.116851806640625
1782846785273801000,2.564801025390625,-0.2995452880859375,0.0070037841796875,-0.1079254150390625
1782846785283806000,2.574805908203125,-0.2764434814453125,-0.0182342529296875,-0.1016387939453125
1782846785293811000,2.58481103515625,-0.258270263671875,-0.044158935546875,-0.0892486572265625
1782846785303814700,2.594814697265625,-0.25250244140625,-0.074249267578125,-0.0729217529296875
1782846785313819600,2.604819580078125,-0.26129150390625,-0.1010589599609375,-0.050079345703125
1782846785323824600,2.61482470703125,-0.2945098876953125,-0.1284332275390625,-0.0272064208984375
1782846785333828600,2.62482861328125,-0.3464202880859375,-0.156707763671875,0.008697509765625
1782846785343833600,2.63483349609375,-0.3935394287109375,-0.155303955078125,0.0617218017578125
1782846785353838600,2.644838623046875,-0.4481964111328125,-0.1378173828125,0.1281585693359375
1782846785363842800,2.6548427734375,-0.5074462890625,-0.1187286376953125,0.192047119140625
1782846785373847800,2.664847900390625,-0.5540771484375,-0.0852203369140625,0.2612762451171875
1782846785383852800,2.674852783203125,-0.6013641357421875,-0.0460052490234375,0.3033599853515625
1782846785393856800,2.684856689453125,-0.659149169921875,0.0000762939453125,0.3058013916015625
1782846785403861800,2.69486181640625,-0.7189788818359375,0.059112548828125,0.289520263671875
1782846785413866800,2.70486669921875,-0.788543701171875,0.11114501953125,0.2472686767578125
1782846785423870700,2.71487060546875,-0.8673248291015625,0.15142822265625,0.205596923828125
1782846785433875700,2.724875732421875,-0.9497833251953125,0.1891632080078125,0.1781158447265625
1782846785443880700,2.734880615234375,-1.021209716796875,0.2076416015625,0.1620025634765625
1782846785453885000,2.744885009765625,-1.11090087890625,0.1808929443359375,0.1300048828125
1782846785463890000,2.754889892578125,-1.1927337646484375,0.08111572265625,0.09771728515625
1782846785473895000,2.76489501953125,-1.2272796630859375,-0.0702972412109375,0.086151123046875
1782846785483898600,2.774898681640625,-1.2654876708984375,-0.2484893798828125,0.1318206787109375
1782846785493903600,2.784903564453125,-1.3578643798828125,-0.40936279296875,0.2477264404296875
1782846785503908600,2.79490869140625,-1.5065155029296875,-0.532379150390625,0.3231048583984375
1782846785513912600,2.80491259765625,-1.7281341552734375,-0.6015472412109375,0.360107421875
1782846785523917600,2.81491748046875,-1.99383544921875,-0.611175537109375,0.38812255859375
1782846785533922600,2.824922607421875,-2.23602294921875,-0.5368804931640625,0.4302520751953125
1782846785543927600,2.834927490234375,-2.4740447998046875,-0.4482421875,0.471893310546875
1782846785553931800,2.844931884765625,-2.71954345703125,-0.459716796875,0.4579315185546875
1782846785563936800,2.854936767578125,-2.8994598388671875,-0.536376953125,0.359100341796875
1782846785573941800,2.864941650390625,-2.9202880859375,-0.5677642822265625,0.229034423828125
1782846785583945700,2.87494580078125,-2.8265228271484375,-0.5373382568359375,0.1128387451171875
1782846785593950700,2.88495068359375,-2.7078399658203125,-0.4813079833984375,0.0641937255859375
1782846785603954700,2.89495458984375,-2.583221435546875,-0.41680908203125,0.0689544677734375
1782846785613959700,2.904959716796875,-2.434814453125,-0.3347625732421875,0.067230224609375
1782846785623964700,2.914964599609375,-2.21160888671875,-0.22467041015625,0.0640716552734375
1782846785633969700,2.9249697265625,-1.9677734375,-0.112518310546875,0.0727386474609375
1782846785643974000,2.934973876953125,-1.714508056640625,-0.03350830078125,0.0762786865234375
1782846785653979000,2.944978759765625,-1.423004150390625,0.017303466796875,0.0637969970703125
1782846785663983900,2.95498388671875,-1.1102447509765625,0.03387451171875,0.0447540283203125
1782846785673987800,2.96498779296875,-0.817352294921875,-0.0107879638671875,0.0345611572265625
1782846785683992800,2.974992919921875,-0.56561279296875,-0.095245361328125,0.054290771484375
1782846785693997800,2.984997802734375,-0.3573150634765625,-0.179534912109375,0.1034088134765625
1782846785704001800,2.995001708984375,-0.2138824462890625,-0.2104644775390625,0.1840667724609375
1782846785714006800,3.0050068359375,-0.13818359375,-0.1681671142578125,0.2527923583984375
1782846785724011800,3.01501171875,-0.09344482421875,-0.0916595458984375,0.25640869140625
1782846785734015700,3.025015625,-0.0498199462890625,-0.0044403076171875,0.2353668212890625
1782846785744020700,3.035020751953125,-0.002655029296875,0.0804443359375,0.21337890625
1782846785754025700,3.045025634765625,-0.0135040283203125,0.149749755859375,0.1599273681640625
1782846785764029700,3.05502978515625,-0.0509033203125,0.2002410888671875,0.12725830078125
1782846785774034700,3.06503466796875,-0.0388031005859375,0.2067718505859375,0.13525390625
1782846785784039700,3.075039794921875,0.0250091552734375,0.1702117919921875,0.135467529296875
1782846785794044000,3.0850439453125,0.1065826416015625,0.1143035888671875,0.137542724609375
1782846785804049000,3.095048828125,0.1805572509765625,0.052825927734375,0.140838623046875
1782846785814054000,3.105053955078125,0.259765625,0.0046234130859375,0.1427001953125
1782846785824058000,3.11505810546875,0.32196044921875,-0.0045318603515625,0.1320648193359375
1782846785834063000,3.12506298828125,0.3301849365234375,0.0096588134765625,0.1020965576171875
1782846785844068000,3.135068115234375,0.3094024658203125,0.0300140380859375,0.0540008544921875
1782846785854071800,3.14507177734375,0.2874603271484375,0.040496826171875,0.0162506103515625
1782846785864076800,3.155076904296875,0.2431793212890625,0.04681396484375,-0.0091400146484375
1782846785874081800,3.165081787109375,0.166900634765625,0.0359954833984375,-0.02020263671875
1782846785884086000,3.1750859375,0.1080780029296875,0.0135498046875,-0.0100250244140625
1782846785894091000,3.185091064453125,0.0869598388671875,-0.0133819580078125,0.0033721923828125
1782846785904096000,3.195095947265625,0.0689697265625,-0.0404815673828125,0.0236968994140625
1782846785914100000,3.205099853515625,-0.0158843994140625,-0.0400390625,0.0608062744140625
1782846785924105000,3.21510498046875,-0.1341094970703125,-0.04498291015625,0.087127685546875
1782846785934110000,3.22510986328125,-0.2605133056640625,-0.06658935546875,0.07244873046875
1782846785944114000,3.235114013671875,-0.4243316650390625,-0.09149169921875,0.0670013427734375
1782846785954119000,3.245118896484375,-0.5930633544921875,-0.1374053955078125,0.06158447265625
1782846785964124000,3.2551240234375,-0.7474365234375,-0.2084808349609375,0.0471649169921875
1782846785974128000,3.265128173828125,-0.9407196044921875,-0.30230712890625,0.036102294921875
1782846785984133000,3.275133056640625,-1.1804351806640625,-0.3990478515625,0.03118896484375
1782846785994138000,3.28513818359375,-1.3897247314453125,-0.4901123046875,0.052581787109375
1782846786004142000,3.29514208984375,-1.5061798095703125,-0.5418243408203125,0.1378021240234375
1782846786014147000,3.30514697265625,-1.593658447265625,-0.5901336669921875,0.242523193359375
1782846786024152000,3.315152099609375,-1.6837921142578125,-0.6636810302734375,0.281585693359375
1782846786034155800,3.32515576171875,-1.75091552734375,-0.6995849609375,0.23089599609375
1782846786044160800,3.335160888671875,-1.832550048828125,-0.81195068359375,0.070159912109375
1782846786054165800,3.345165771484375,-2.049896240234375,-0.9623565673828125,-0.1200408935546875
1782846786064170000,3.355169921875,-2.357421875,-0.9275970458984375,-0.1805267333984375
1782846786074175000,3.365175048828125,-2.5634765625,-0.69268798828125,-0.0701904296875
1782846786084180000,3.375179931640625,-2.5839691162109375,-0.3509063720703125,0.1611328125
1782846786094184000,3.385183837890625,-2.5260467529296875,-0.0021820068359375,0.391387939453125
1782846786104189000,3.39518896484375,-2.3892974853515625,0.1846923828125,0.4618377685546875
1782846786114194000,3.40519384765625,-2.16937255859375,0.186737060546875,0.3893280029296875
1782846786124198000,3.415197998046875,-1.895172119140625,0.0178375244140625,0.2303924560546875
1782846786134203000,3.425202880859375,-1.5565948486328125,-0.2976226806640625,0.0899810791015625
1782846786144208000,3.435207763671875,-1.072174072265625,-0.70843505859375,0.0367431640625
1782846786154212000,3.445212158203125,-0.5582275390625,-0.94256591796875,0.1151275634765625
1782846786164217000,3.455217041015625,-0.22198486328125,-0.8445892333984375,0.2050018310546875
1782846786174222000,3.46522216796875,-0.2125701904296875,-0.6244659423828125,0.2126922607421875
1782846786184226000,3.47522607421875,-0.434051513671875,-0.47674560546875,0.13946533203125
1782846786194231000,3.48523095703125,-0.5933685302734375,-0.3329010009765625,0.08856201171875
1782846786204236000,3.495236083984375,-0.7147674560546875,-0.2007293701171875,0.0845794677734375
1782846786214240000,3.505239990234375,-0.9026336669921875,-0.0926513671875,0.0579071044921875
1782846786224245000,3.515244873046875,-1.023101806640625,0.026458740234375,0.0229034423828125
1782846786234250000,3.52525,-0.995849609375,0.1309814453125,0.0037078857421875
1782846786244254000,3.53525390625,-0.91241455078125,0.1875457763671875,0.0124053955078125
1782846786254259000,3.545259033203125,-0.8183135986328125,0.1880645751953125,0.016510009765625
1782846786264264000,3.555263916015625,-0.715484619140625,0.1372222900390625,0.004486083984375
1782846786274268000,3.565267822265625,-0.6350860595703125,0.0630035400390625,0.01763916015625
1782846786284273000,3.57527294921875,-0.571563720703125,-0.0194244384765625,0.038604736328125
1782846786294278000,3.58527783203125,-0.479034423828125,-0.0701751708984375,0.0509033203125
1782846786304281900,3.59528173828125,-0.391326904296875,-0.1169586181640625,0.03985595703125
1782846786314286800,3.605286865234375,-0.33563232421875,-0.152191162109375,0.0108795166015625
1782846786324291800,3.615291748046875,-0.317169189453125,-0.1456298828125,-0.01422119140625
1782846786334296800,3.625296875,-0.3647918701171875,-0.1394195556640625,-0.033935546875
1782846786344301000,3.635301025390625,-0.4850921630859375,-0.1269378662109375,-0.049285888671875
1782846786354306000,3.64530615234375,-0.589508056640625,-0.1243133544921875,-0.0614776611328125
1782846786364310000,3.65531005859375,-0.6144256591796875,-0.0890655517578125,-0.0215301513671875
1782846786374315000,3.66531494140625,-0.6453704833984375,-0.04632568359375,0.040130615234375
1782846786384320000,3.675320068359375,-0.727508544921875,-0.01220703125,0.080047607421875
1782846786394325000,3.685324951171875,-0.849945068359375,0.04913330078125,0.0923004150390625
1782846786404329000,3.695328857421875,-1.00482177734375,0.1011962890625,0.0777740478515625
1782846786414334000,3.705333984375,-1.16900634765625,0.138031005859375,0.0315399169921875
1782846786424338000,3.715337890625,-1.24676513671875,0.1457672119140625,-0.0162353515625
1782846786434343000,3.725343017578125,-1.22015380859375,0.0832672119140625,-0.0457305908203125
1782846786444348000,3.735347900390625,-1.2103424072265625,-0.028411865234375,-0.0514373779296875
1782846786454352000,3.745351806640625,-1.2312469482421875,-0.149169921875,-0.0646820068359375
1782846786464356900,3.75535693359375,-1.259033203125,-0.248687744140625,-0.0612640380859375
1782846786474361900,3.76536181640625,-1.314178466796875,-0.3231201171875,-0.0120086669921875
1782846786484366800,3.775366943359375,-1.384674072265625,-0.393829345703125,0.0597686767578125
1782846786494370800,3.785370849609375,-1.451202392578125,-0.4991912841796875,0.140533447265625
1782846786504375800,3.795375732421875,-1.561431884765625,-0.592315673828125,0.225189208984375
1782846786514381000,3.805381103515625,-1.74688720703125,-0.6087646484375,0.29315185546875
1782846786524385000,3.815385009765625,-1.91436767578125,-0.6035003662109375,0.3593292236328125
1782846786534390000,3.82539013671875,-2.016937255859375,-0.625274658203125,0.4049224853515625
1782846786544395000,3.83539501953125,-2.0704193115234375,-0.6795654296875,0.401336669921875
1782846786554399000,3.84539892578125,-2.0695953369140625,-0.76324462890625,0.3642425537109375
1782846786564404000,3.855404052734375,-2.00531005859375,-0.868377685546875,0.2760009765625
1782846786574409000,3.865408935546875,-1.9158935546875,-0.9542083740234375,0.157196044921875
1782846786584413000,3.875412841796875,-1.8437957763671875,-0.969512939453125,0.0666351318359375
1782846786594418200,3.885418212890625,-1.7911529541015625,-0.9175262451171875,0.034820556640625
1782846786604423200,3.895423095703125,-1.7891082763671875,-0.8197479248046875,0.0305328369140625
1782846786614427000,3.905427001953125,-1.7949676513671875,-0.6674957275390625,0.05706787109375
1782846786624431900,3.915431884765625,-1.738677978515625,-0.483673095703125,0.1069183349609375
1782846786634436900,3.925436767578125,-1.631134033203125,-0.334442138671875,0.1491546630859375
1782846786644440800,3.93544091796875,-1.4786224365234375,-0.2473907470703125,0.1668853759765625
1782846786654445800,3.94544580078125,-1.272674560546875,-0.2206573486328125,0.17718505859375
1782846786664450800,3.955450927734375,-1.046234130859375,-0.2415008544921875,0.1639404296875
1782846786674455000,3.965455078125,-0.818634033203125,-0.27459716796875,0.13165283203125
1782846786684460000,3.9754599609375,-0.5919342041015625,-0.2701568603515625,0.0965576171875
1782846786694465000,3.985465087890625,-0.4079437255859375,-0.2240447998046875,0.041015625
1782846786704469000,3.995468994140625,-0.2658843994140625,-0.1707305908203125,-0.036163330078125
1782846786714474000,4.005473876953125,-0.181671142578125,-0.13861083984375,-0.1150970458984375
1782846786724479000,4.01547900390625,-0.1063995361328125,-0.1004638671875,-0.1730804443359375
1782846786734483000,4.02548291015625,-0.0219879150390625,-0.049591064453125,-0.199371337890625
1782846786744488000,4.035488037109375,0.026123046875,-0.00482177734375,-0.198944091796875
1782846786754493000,4.045492919921875,0.0144500732421875,0.033203125,-0.1784820556640625
1782846786764497200,4.0554970703125,-0.0238494873046875,0.0875701904296875,-0.150726318359375
1782846786774502100,4.065502197265625,-0.0504150390625,0.1324005126953125,-0.1414337158203125
1782846786784507100,4.075507080078125,-0.0370025634765625,0.145538330078125,-0.1377716064453125
1782846786794510800,4.0855107421875,-0.0032806396484375,0.1317596435546875,-0.1225128173828125
1782846786804515800,4.095515869140625,0.0222625732421875,0.1072998046875,-0.1032562255859375
1782846786814521000,4.10552099609375,0.05181884765625,0.074981689453125,-0.090972900390625
1782846786824524800,4.11552490234375,0.09222412109375,0.0298614501953125,-0.07318115234375
1782846786834529800,4.12552978515625,0.125640869140625,-0.00994873046875,-0.0446624755859375
1782846786844534800,4.13553466796875,0.1590118408203125,-0.022796630859375,-0.0085906982421875
1782846786854539000,4.1455390625,0.173736572265625,-0.0260772705078125,0.0272064208984375
1782846786864544000,4.1555439453125,0.177276611328125,-0.027862548828125,0.0527191162109375
1782846786874549000,4.165549072265625,0.1563568115234375,-0.0223846435546875,0.0650787353515625
1782846786884553000,4.175552978515625,0.1147003173828125,-0.012115478515625,0.0676116943359375
1782846786894558000,4.185557861328125,0.073455810546875,0.0139007568359375,0.0654144287109375
1782846786904563000,4.19556298828125,0.029754638671875,0.0330963134765625,0.070159912109375
1782846786914567000,4.20556689453125,-0.0177764892578125,0.046478271484375,0.05828857421875
1782846786924572000,4.215572021484375,-0.1201629638671875,0.05413818359375,0.042510986328125
1782846786934577000,4.225576904296875,-0.27886962890625,0.0282745361328125,0.01153564453125
1782846786944581000,4.2355810546875,-0.480560302734375,0.001312255859375,-0.0048065185546875
1782846786954586000,4.245586181640625,-0.75274658203125,-0.0025787353515625,0.006988525390625
1782846786964591000,4.255591064453125,-1.0357513427734375,-0.028289794921875,0.0438385009765625
1782846786974595000,4.265594970703125,-1.2630157470703125,-0.1061248779296875,0.0952606201171875
1782846786984600000,4.27560009765625,-1.47271728515625,-0.19805908203125,0.1542510986328125
1782846786994605000,4.28560498046875,-1.5915679931640625,-0.25103759765625,0.2208251953125
1782846787004608800,4.29560888671875,-1.6831817626953125,-0.3019256591796875,0.279541015625
1782846787014613800,4.30561376953125,-1.779144287109375,-0.375274658203125,0.3024139404296875
1782846787024618800,4.31561865234375,-1.8596649169921875,-0.5252532958984375,0.2924346923828125
1782846787034623000,4.325623046875,-1.8680267333984375,-0.704803466796875,0.275909423828125
1782846787044628000,4.3356279296875,-1.9033203125,-0.8242950439453125,0.29742431640625
1782846787054633000,4.345633056640625,-2.2023162841796875,-0.7808990478515625,0.393035888671875
1782846787064637000,4.355636962890625,-2.529296875,-0.555633544921875,0.4903564453125
1782846787074642000,4.365641845703125,-2.606536865234375,-0.321807861328125,0.52215576171875
1782846787084646000,4.37564599609375,-2.577301025390625,-0.2021026611328125,0.4900054931640625
1782846787094651000,4.38565087890625,-2.438751220703125,-0.214263916015625,0.4178466796875
1782846787104656000,4.39565576171875,-2.171173095703125,-0.3237152099609375,0.34759521484375
1782846787114660900,4.405660888671875,-1.8623046875,-0.4732666015625,0.323089599609375
1782846787124665000,4.4156650390625,-1.534881591796875,-0.6332855224609375,0.3245391845703125
1782846787134670000,4.425670166015625,-1.2726593017578125,-0.7031707763671875,0.3042449951171875
1782846787144674000,4.435674072265625,-1.1189422607421875,-0.627960205078125,0.2587738037109375
1782846787154679000,4.445678955078125,-1.069061279296875,-0.4825592041015625,0.1698455810546875
1782846787164684000,4.45568408203125,-1.078643798828125,-0.329833984375,0.07598876953125
1782846787174687700,4.465687744140625,-1.0876922607421875,-0.20257568359375,0.010498046875
1782846787184692700,4.475692626953125,-1.0502166748046875,-0.104583740234375,-0.030914306640625
1782846787194698000,4.485697998046875,-0.9834136962890625,-0.0444183349609375,-0.0584869384765625
1782846787204702000,4.495701904296875,-0.8860931396484375,-0.009765625,-0.0721282958984375
1782846787214707000,4.50570703125,-0.774566650390625,0.025634765625,-0.0865325927734375
1782846787224712000,4.5157119140625,-0.6616973876953125,0.0399169921875,-0.105255126953125
1782846787234716000,4.5257158203125,-0.559814453125,0.0394744873046875,-0.1204376220703125
1782846787244721000,4.535720947265625,-0.468963623046875,0.0223541259765625,-0.1319732666015625
1782846787254726000,4.545725830078125,-0.3993377685546875,0.0016632080078125,-0.1544952392578125
1782846787264729900,4.555729736328125,-0.3604583740234375,-0.0073699951171875,-0.1834869384765625
1782846787274734800,4.56573486328125,-0.3543243408203125,-0.0131378173828125,-0.2024383544921875
1782846787284740000,4.575739990234375,-0.378265380859375,-0.0185394287109375,-0.20306396484375
1782846787294744000,4.585744140625,-0.404754638671875,-0.0367889404296875,-0.1819000244140625
1782846787304749000,4.5957490234375,-0.4091796875,-0.0618438720703125,-0.135406494140625
1782846787314754000,4.605754150390625,-0.3996429443359375,-0.091064453125,-0.0741729736328125
1782846787324758000,4.615758056640625,-0.3908843994140625,-0.115081787109375,-0.01580810546875
1782846787334763000,4.625762939453125,-0.398834228515625,-0.130462646484375,0.0374908447265625
1782846787344768000,4.63576806640625,-0.429229736328125,-0.1273345947265625,0.0709228515625
1782846787354772000,4.64577197265625,-0.483245849609375,-0.1168975830078125,0.083526611328125
1782846787364777000,4.65577685546875,-0.543487548828125,-0.08758544921875,0.091156005859375
1782846787374782000,4.665781982421875,-0.594482421875,-0.0428619384765625,0.089996337890625
1782846787384786000,4.675785888671875,-0.6349029541015625,-0.0006561279296875,0.0711212158203125
1782846787394791000,4.685791015625,-0.6574249267578125,0.0314483642578125,0.042633056640625
1782846787404796000,4.6957958984375,-0.6556549072265625,0.0460205078125,0.0035247802734375
1782846787414800000,4.7057998046875,-0.6575164794921875,0.0430145263671875,-0.0323944091796875
1782846787424804900,4.715804931640625,-0.6745147705078125,0.0279541015625,-0.0469207763671875
1782846787434809900,4.725809814453125,-0.692596435546875,0.01373291015625,-0.0522918701171875
1782846787444814000,4.73581396484375,-0.7347564697265625,-0.0002899169921875,-0.0521392822265625
1782846787454819000,4.745819091796875,-0.7939453125,-0.0383148193359375,-0.0511932373046875
1782846787464824000,4.755823974609375,-0.890472412109375,-0.0816650390625,-0.0542449951171875
1782846787474828000,4.765828125,-1.02587890625,-0.1428070068359375,-0.0232696533203125
1782846787484833000,4.7758330078125,-1.200958251953125,-0.233795166015625,0.0359344482421875
1782846787494838000,4.785838134765625,-1.3545074462890625,-0.3412628173828125,0.0892333984375
1782846787504842000,4.795842041015625,-1.4627838134765625,-0.448455810546875,0.144073486328125
1782846787514847000,4.805846923828125,-1.6136016845703125,-0.5338134765625,0.1937408447265625
1782846787524852000,4.81585205078125,-1.7646484375,-0.600250244140625,0.2456817626953125
1782846787534856000,4.82585595703125,-1.903167724609375,-0.6323394775390625,0.3116912841796875
1782846787544861000,4.83586083984375,-2.1381072998046875,-0.6297760009765625,0.36669921875
1782846787554866200,4.8458662109375,-2.46759033203125,-0.5687713623046875,0.388153076171875
1782846787564870000,4.855869873046875,-2.75567626953125,-0.46044921875,0.40447998046875
1782846787574875000,4.865875,-2.92120361328125,-0.37200927734375,0.39288330078125
1782846787584879900,4.8758798828125,-2.93731689453125,-0.328948974609375,0.340728759765625
1782846787594883800,4.8858837890625,-2.8506011962890625,-0.31414794921875,0.259552001953125
1782846787604888800,4.895888916015625,-2.7220306396484375,-0.301513671875,0.134857177734375
1782846787614893800,4.905893798828125,-2.5959930419921875,-0.2798919677734375,0.01953125
1782846787624898000,4.91589794921875,-2.4211883544921875,-0.2364044189453125,-0.0487518310546875
1782846787634903000,4.925903076171875,-2.2064208984375,-0.163055419921875,-0.05950927734375
1782846787644908000,4.935907958984375,-1.9665069580078125,-0.0865936279296875,-0.0197906494140625
1782846787654912000,4.945912109375,-1.7260589599609375,-0.0465545654296875,0.037353515625
1782846787664917000,4.9559169921875,-1.470794677734375,-0.027984619140625,0.0904388427734375
1782846787674922000,4.965921875,-1.1714324951171875,-0.0441741943359375,0.117584228515625
1782846787684926000,4.975926025390625,-0.8692474365234375,-0.09771728515625,0.1257781982421875
1782846787694931000,4.985930908203125,-0.5937652587890625,-0.152587890625,0.1212921142578125
1782846787704936000,4.99593603515625,-0.3446807861328125,-0.142608642578125,0.11383056640625
1782846787714940200,5.005940185546875,-0.163330078125,-0.086700439453125,0.0903167724609375
1782846787724945200,5.015945068359375,-0.0533905029296875,-0.04541015625,0.040618896484375
1782846787734950100,5.0259501953125,-0.0011444091796875,-0.02325439453125,-0.0049591064453125
1782846787744953900,5.035953857421875,0.0616302490234375,0.009979248046875,-0.042633056640625
1782846787754958800,5.045958740234375,0.1295623779296875,0.04486083984375,-0.064117431640625
1782846787764962800,5.055962890625,0.13348388671875,0.08795166015625,-0.081512451171875
1782846787774967800,5.0659677734375,0.11358642578125,0.139495849609375,-0.0931854248046875
1782846787784972800,5.075972900390625,0.125335693359375,0.1705474853515625,-0.091705322265625
1782846787794977000,5.08597705078125,0.1418609619140625,0.180023193359375,-0.086944580078125
1782846787804982300,5.095982177734375,0.1689453125,0.1538848876953125,-0.08978271484375
1782846787814987300,5.1059873046875,0.185760498046875,0.1031646728515625,-0.099822998046875
1782846787824991200,5.1159912109375,0.1853485107421875,0.0462188720703125,-0.1083984375
1782846787834996200,5.125996337890625,0.1935577392578125,-0.0047607421875,-0.108612060546875
1782846787845001200,5.136001220703125,0.214630126953125,-0.0360565185546875,-0.103271484375
1782846787855005200,5.146005126953125,0.22161865234375,-0.0452117919921875,-0.08563232421875
1782846787865010200,5.15601025390625,0.190826416015625,-0.0289764404296875,-0.053619384765625
1782846787875015200,5.16601513671875,0.13128662109375,0.0040435791015625,-0.0169677734375
1782846787885019400,5.176019287109375,0.06573486328125,0.0305633544921875,0.007568359375
1782846787895024400,5.1860244140625,0.0037994384765625,0.05560302734375,0.0448760986328125
1782846787905029400,5.196029296875,-0.060333251953125,0.0642852783203125,0.0899505615234375
1782846787915033300,5.206033447265625,-0.1161956787109375,0.0542755126953125,0.1014251708984375
1782846787925038300,5.216038330078125,-0.1665191650390625,0.0471649169921875,0.0841522216796875
1782846787935043300,5.226043212890625,-0.2417144775390625,0.0243682861328125,0.05755615234375
1782846787945047000,5.236047119140625,-0.3433380126953125,-0.0172576904296875,0.016204833984375
1782846787955052000,5.246052001953125,-0.447784423828125,-0.078765869140625,-0.0245208740234375
1782846787965057000,5.25605712890625,-0.5845947265625,-0.1514434814453125,-0.036407470703125
1782846787975061200,5.266061279296875,-0.7932281494140625,-0.215301513671875,-0.040008544921875
1782846787985066200,5.276066162109375,-1.055877685546875,-0.26953125,-0.03466796875
1782846787995071200,5.2860712890625,-1.2626190185546875,-0.3382568359375,0.0169525146484375
1782846788005075200,5.2960751953125,-1.389923095703125,-0.4044036865234375,0.132293701171875
1782846788015080200,5.306080078125,-1.4772186279296875,-0.4217071533203125,0.2790069580078125
1782846788025085200,5.316085205078125,-1.566925048828125,-0.399322509765625,0.4255523681640625
1782846788035089200,5.326089111328125,-1.6826171875,-0.4058837890625,0.45721435546875
1782846788045094100,5.33609423828125,-1.854827880859375,-0.540740966796875,0.27911376953125
1782846788055099100,5.34609912109375,-2.0016021728515625,-0.7601776123046875,0.0146026611328125
1782846788065103400,5.356103271484375,-2.07049560546875,-0.9171295166015625,-0.1416015625
1782846788075108400,5.3661083984375,-2.1767120361328125,-0.91094970703125,-0.0882415771484375
1782846788085113300,5.37611328125,-2.2823486328125,-0.6803741455078125,0.1478118896484375
1782846788095117300,5.386117431640625,-2.257354736328125,-0.28082275390625,0.464111328125
1782846788105122300,5.396122314453125,-2.171844482421875,0.0618743896484375,0.655914306640625
1782846788115127300,5.406127197265625,-2.092620849609375,0.22637939453125,0.6210479736328125
1782846788125131000,5.416131103515625,-2.0031890869140625,0.21429443359375,0.4306488037109375
1782846788135136300,5.42613623046875,-1.8367919921875,0.0615997314453125,0.2103424072265625
1782846788145141200,5.436141357421875,-1.5956573486328125,-0.2093048095703125,0.0729217529296875
1782846788155145200,5.446145263671875,-1.217498779296875,-0.61053466796875,0.06787109375
1782846788165150200,5.456150146484375,-0.716705322265625,-0.9842071533203125,0.19720458984375
1782846788175155200,5.4661552734375,-0.2695465087890625,-0.93341064453125,0.3846435546875
1782846788185159200,5.4761591796875,-0.152191162109375,-0.6458587646484375,0.40606689453125
1782846788195164200,5.4861640625,-0.4022674560546875,-0.448211669921875,0.232208251953125
1782846788205169200,5.496169189453125,-0.70672607421875,-0.3054656982421875,0.0506744384765625
1782846788215173000,5.506173095703125,-0.89105224609375,-0.15118408203125,-0.03875732421875
1782846788225178400,5.516178466796875,-1.0344696044921875,-0.023468017578125,-0.0569610595703125
1782846788235183400,5.526183349609375,-1.0901031494140625,0.0633697509765625,-0.03009033203125
1782846788245187300,5.536187255859375,-1.021575927734375,0.1083526611328125,-0.00396728515625
1782846788255192300,5.5461923828125,-0.94122314453125,0.1236114501953125,0.0234832763671875
1782846788265196300,5.5561962890625,-0.8787841796875,0.1194000244140625,0.059539794921875
1782846788275201300,5.566201171875,-0.8048858642578125,0.103607177734375,0.085845947265625
1782846788285206300,5.576206298828125,-0.7485198974609375,0.0869293212890625,0.0874786376953125
1782846788295210200,5.586210205078125,-0.6993408203125,0.074310302734375,0.078460693359375
1782846788305215200,5.59621533203125,-0.6464385986328125,0.052001953125,0.0745697021484375
1782846788315220500,5.606220458984375,-0.6036834716796875,0.018463134765625,0.0860595703125
1782846788325224200,5.61622412109375,-0.539459228515625,-0.012481689453125,0.095062255859375
1782846788335229200,5.626229248046875,-0.48638916015625,-0.0319976806640625,0.1201629638671875
1782846788345234200,5.636234130859375,-0.4637908935546875,-0.0364532470703125,0.1654510498046875
1782846788355238100,5.646238037109375,-0.455657958984375,-0.0408782958984375,0.214019775390625
1782846788365243100,5.6562431640625,-0.465362548828125,-0.0371551513671875,0.2624053955078125
1782846788375248100,5.666248046875,-0.4918670654296875,-0.0246734619140625,0.2937774658203125
1782846788385252400,5.67625244140625,-0.5389862060546875,-0.017730712890625,0.2843475341796875
1782846788395257300,5.68625732421875,-0.5875396728515625,-0.0081024169921875,0.2463531494140625
1782846788405262300,5.696262451171875,-0.6339111328125,0.0079803466796875,0.1936798095703125
1782846788415266300,5.706266357421875,-0.6855621337890625,0.0280914306640625,0.1503448486328125
1782846788425271300,5.716271240234375,-0.7369232177734375,0.04974365234375,0.1161041259765625
1782846788435276300,5.7262763671875,-0.80657958984375,0.0659332275390625,0.0835723876953125
1782846788445280300,5.7362802734375,-0.860870361328125,0.066558837890625,0.0531463623046875
1782846788455285200,5.74628515625,-0.9108428955078125,0.0570068359375,0.0261688232421875
1782846788465290200,5.756290283203125,-0.9773712158203125,0.031158447265625,-0.0021209716796875
1782846788475294500,5.76629443359375,-1.0651397705078125,-0.0025482177734375,-0.01422119140625
1782846788485299500,5.776299560546875,-1.1710205078125,-0.03826904296875,-0.006103515625
1782846788495304400,5.786304443359375,-1.28448486328125,-0.0707244873046875,0.0204010009765625
1782846788505308200,5.79630810546875,-1.3943939208984375,-0.10882568359375,0.07830810546875
1782846788515313200,5.806313232421875,-1.51092529296875,-0.1723175048828125,0.14453125
1782846788525318100,5.816318115234375,-1.6116790771484375,-0.2586212158203125,0.1888580322265625
1782846788535322000,5.826322021484375,-1.66082763671875,-0.347412109375,0.223907470703125
1782846788545327000,5.8363271484375,-1.697784423828125,-0.4241790771484375,0.252288818359375
1782846788555332000,5.84633203125,-1.7443084716796875,-0.5048675537109375,0.2850341796875
1782846788565336300,5.85633642578125,-1.8077545166015625,-0.5689239501953125,0.3363494873046875
1782846788575341300,5.86634130859375,-1.8968048095703125,-0.6089630126953125,0.374542236328125
1782846788585345300,5.87634521484375,-2.002593994140625,-0.631500244140625,0.4018402099609375
1782846788595350300,5.886350341796875,-2.111541748046875,-0.617828369140625,0.4076080322265625
1782846788605355300,5.896355224609375,-2.20257568359375,-0.577972412109375,0.3801727294921875
1782846788615359200,5.906359130859375,-2.2657623291015625,-0.5362701416015625,0.3223114013671875
1782846788625364200,5.9163642578125,-2.2923736572265625,-0.5041351318359375,0.23162841796875
1782846788635369200,5.926369140625,-2.2660369873046875,-0.483245849609375,0.11944580078125
1782846788645373400,5.93637353515625,-2.17401123046875,-0.44189453125,0.021270751953125
1782846788655378400,5.94637841796875,-2.055694580078125,-0.3473968505859375,-0.0199432373046875
1782846788665383400,5.956383544921875,-1.9033660888671875,-0.2095794677734375,0.006561279296875
1782846788675387100,5.96638720703125,-1.719940185546875,-0.0604705810546875,0.0780792236328125
1782846788685392100,5.97639208984375,-1.52850341796875,0.05889892578125,0.1368255615234375
1782846788695397000,5.986397216796875,-1.321441650390625,0.114349365234375,0.1462249755859375
1782846788705401000,5.996401123046875,-1.0803070068359375,0.0989837646484375,0.129913330078125
1782846788715406000,6.006406005859375,-0.823883056640625,0.043304443359375,0.12945556640625
1782846788725411000,6.0164111328125,-0.5756378173828125,-0.0327301025390625,0.105804443359375
1782846788735415300,6.026415283203125,-0.3569793701171875,-0.0976715087890625,0.0446014404296875
1782846788745420300,6.036420166015625,-0.2060089111328125,-0.11932373046875,-0.0160980224609375
1782846788755425300,6.04642529296875,-0.121856689453125,-0.098358154296875,-0.069915771484375
1782846788765429200,6.05642919921875,-0.0867919921875,-0.0650482177734375,-0.100311279296875
1782846788775434200,6.066434326171875,-0.052734375,-0.039398193359375,-0.0900115966796875
1782846788785439200,6.076439208984375,-0.03497314453125,0.0087890625,-0.0604095458984375
1782846788795443200,6.086443115234375,-0.079620361328125,0.088226318359375,-0.0333404541015625
1782846788805448200,6.0964482421875,-0.1279754638671875,0.1627349853515625,-0.0084991455078125
1782846788815453000,6.106452880859375,-0.122711181640625,0.201446533203125,0.00244140625
1782846788825457000,6.116456787109375,-0.07586669921875,0.1994476318359375,0.009429931640625
1782846788835462000,6.1264619140625,-0.0260772705078125,0.172454833984375,0.021575927734375
1782846788845467000,6.136466796875,0.016815185546875,0.1281890869140625,0.0308990478515625
1782846788855470800,6.146470947265625,0.0789031982421875,0.0729522705078125,0.04827880859375
1782846788865475800,6.156475830078125,0.14556884765625,0.0065460205078125,0.0809783935546875
1782846788875480800,6.166480712890625,0.19647216796875,-0.0389251708984375,0.110595703125
1782846788885485000,6.176485107421875,0.217620849609375,-0.0579071044921875,0.1204071044921875
1782846788895490000,6.186489990234375,0.2026824951171875,-0.0561065673828125,0.113739013671875
1782846788905494000,6.196493896484375,0.153106689453125,-0.042572021484375,0.098663330078125
1782846788915499000,6.2064990234375,0.083770751953125,-0.0252227783203125,0.070648193359375
1782846788925504000,6.21650390625,0.0055084228515625,0.0001983642578125,0.0335540771484375
1782846788935507700,6.2265078125,-0.0750732421875,0.025848388671875,0.01312255859375
1782846788945512700,6.2365126953125,-0.157989501953125,0.0574951171875,-0.009796142578125
1782846788955517700,6.246517578125,-0.2447967529296875,0.07183837890625,-0.0400543212890625
1782846788965522000,6.25652197265625,-0.3553924560546875,0.0611419677734375,-0.0477752685546875
1782846788975527000,6.26652685546875,-0.485137939453125,0.028167724609375,-0.0675506591796875
1782846788985532000,6.276531982421875,-0.62841796875,0.0001983642578125,-0.06500244140625
1782846788995536000,6.286535888671875,-0.7933197021484375,-0.0411376953125,-0.0108642578125
1782846789005540900,6.296540771484375,-0.9891357421875,-0.119537353515625,0.0405731201171875
1782846789015545900,6.3065458984375,-1.203765869140625,-0.188140869140625,0.0546417236328125
1782846789025549800,6.3165498046875,-1.40185546875,-0.2415771484375,0.0730133056640625
1782846789035554800,6.326554931640625,-1.54058837890625,-0.3168182373046875,0.111114501953125
1782846789045559800,6.336559814453125,-1.562744140625,-0.3905487060546875,0.168060302734375
1782846789055564000,6.34656396484375,-1.5410614013671875,-0.388153076171875,0.2512664794921875
1782846789065569000,6.356569091796875,-1.66656494140625,-0.3938140869140625,0.2627105712890625
1782846789075574000,6.366573974609375,-1.8933258056640625,-0.4943084716796875,0.170562744140625
1782846789085578000,6.376577880859375,-2.0714874267578125,-0.5488739013671875,0.098236083984375
1782846789095583000,6.3865830078125,-2.174072265625,-0.483612060546875,0.1129150390625
1782846789105588000,6.396587890625,-2.2057342529296875,-0.307769775390625,0.21533203125
1782846789115591700,6.406591796875,-2.202239990234375,-0.1035919189453125,0.3365631103515625
1782846789125596700,6.4165966796875,-2.1664886474609375,0.0150604248046875,0.392242431640625
1782846789135601700,6.4266015625,-2.0767059326171875,0.0125885009765625,0.3563690185546875
1782846789145606000,6.43660595703125,-1.914520263671875,-0.12725830078125,0.2467498779296875
1782846789155611000,6.44661083984375,-1.6779022216796875,-0.3685150146484375,0.1442108154296875
1782846789165614800,6.45661474609375,-1.3624267578125,-0.5894012451171875,0.110107421875
1782846789175619800,6.466619873046875,-1.0632781982421875,-0.6676788330078125,0.1363525390625
1782846789185624800,6.476624755859375,-0.9108428955078125,-0.5991668701171875,0.1599273681640625
1782846789195628800,6.48662890625,-0.9320068359375,-0.4658355712890625,0.13360595703125
1782846789205633800,6.4966337890625,-1.062255859375,-0.3441619873046875,0.07025146484375
1782846789215638800,6.506638671875,-1.190155029296875,-0.2109832763671875,0.0252838134765625
1782846789225643000,6.51664306640625,-1.2767181396484375,-0.1005401611328125,-0.01068115234375
1782846789235648000,6.52664794921875,-1.3264923095703125,-0.0270843505859375,-0.030120849609375
1782846789245653000,6.536653076171875,-1.2707061767578125,0.0280609130859375,-0.020355224609375
1782846789255657000,6.546656982421875,-1.1467742919921875,0.0625152587890625,-0.0135345458984375
1782846789265662000,6.556661865234375,-1.0324859619140625,0.0829315185546875,-0.0128326416015625
1782846789275667000,6.5666669921875,-0.9031219482421875,0.071258544921875,-0.0108795166015625
1782846789285670700,6.576670654296875,-0.7600250244140625,0.04058837890625,-0.02587890625
1782846789295675600,6.586675537109375,-0.640289306640625,0.0104217529296875,-0.06622314453125
1782846789305681000,6.596680908203125,-0.5289459228515625,-0.0146331787109375,-0.102142333984375
1782846789315684900,6.606684814453125,-0.4409942626953125,-0.0325469970703125,-0.11651611328125
1782846789325689900,6.61668994140625,-0.38470458984375,-0.046905517578125,-0.121826171875
1782846789335694800,6.62669482421875,-0.343841552734375,-0.059478759765625,-0.1101226806640625
1782846789345698800,6.63669873046875,-0.3167877197265625,-0.06280517578125,-0.0793304443359375
1782846789355703800,6.646703857421875,-0.307373046875,-0.0646514892578125,-0.0415191650390625
1782846789365708800,6.656708740234375,-0.3186798095703125,-0.0637969970703125,0.0010528564453125
1782846789375712800,6.666712646484375,-0.329193115234375,-0.052825927734375,0.033782958984375
1782846789385717800,6.6767177734375,-0.341766357421875,-0.0355377197265625,0.0707550048828125
1782846789395722000,6.686721923828125,-0.362091064453125,-0.02374267578125,0.0949554443359375
1782846789405727000,6.69672705078125,-0.3921356201171875,-0.0113525390625,0.11376953125
1782846789415732000,6.70673193359375,-0.4382171630859375,0.016143798828125,0.1187591552734375
1782846789425736000,6.71673583984375,-0.48486328125,0.0426788330078125,0.109466552734375
1782846789435741000,6.726740966796875,-0.5383148193359375,0.0552978515625,0.0814056396484375
1782846789445746000,6.736745849609375,-0.60919189453125,0.0616607666015625,0.06402587890625
1782846789455750000,6.74675,-0.68353271484375,0.0535125732421875,0.0390777587890625
1782846789465755000,6.7567548828125,-0.7736358642578125,0.0305633544921875,0.0074462890625
1782846789475759900,6.766759765625,-0.8607025146484375,0.004180908203125,-0.014373779296875
1782846789485763800,6.776763916015625,-0.9628143310546875,-0.047515869140625,-0.0213165283203125
1782846789495768800,6.786768798828125,-1.092010498046875,-0.1122894287109375,0.0006561279296875
1782846789505773800,6.79677392578125,-1.2409210205078125,-0.1678009033203125,0.014404296875
1782846789515777800,6.80677783203125,-1.44329833984375,-0.205657958984375,0.0010528564453125
1782846789525782800,6.81678271484375,-1.6967315673828125,-0.224853515625,0.01080322265625
1782846789535787800,6.826787841796875,-1.906829833984375,-0.2125701904296875,0.1063690185546875
1782846789545791700,6.836791748046875,-2.0923919677734375,-0.2007293701171875,0.23895263671875
1782846789555796700,6.846796630859375,-2.2594146728515625,-0.2391815185546875,0.385772705078125
1782846789565802000,6.856802001953125,-2.3502197265625,-0.3489990234375,0.517822265625
1782846789575806000,6.866805908203125,-2.3622283935546875,-0.5145416259765625,0.6005859375
1782846789585811000,6.87681103515625,-2.3220977783203125,-0.682952880859375,0.6211395263671875
1782846789595816000,6.88681591796875,-2.2431488037109375,-0.8157196044921875,0.5954742431640625
1782846789605820000,6.89681982421875,-2.153778076171875,-0.891845703125,0.5389251708984375
1782846789615825000,6.906824951171875,-2.0662841796875,-0.9062042236328125,0.46893310546875
1782846789625828900,6.916828857421875,-2.0233917236328125,-0.898895263671875,0.381988525390625
1782846789635833900,6.926833740234375,-2.0078582763671875,-0.8540496826171875,0.284759521484375
1782846789645838800,6.9368388671875,-1.933746337890625,-0.7711639404296875,0.209747314453125
1782846789655842800,6.9468427734375,-1.86029052734375,-0.6432342529296875,0.1612091064453125
1782846789665847800,6.956847900390625,-1.7811737060546875,-0.489593505859375,0.1313018798828125
1782846789675852800,6.966852783203125,-1.66729736328125,-0.32861328125,0.120849609375
1782846789685856800,6.976856689453125,-1.5261077880859375,-0.1823577880859375,0.1062164306640625
1782846789695861800,6.98686181640625,-1.385223388671875,-0.0562896728515625,0.0815887451171875
1782846789705866800,6.99686669921875,-1.2065582275390625,0.0374755859375,0.062774658203125
1782846789715871000,7.00687109375,-0.9832305908203125,0.0800018310546875,0.046417236328125
1782846789725876000,7.0168759765625,-0.7435150146484375,0.0741424560546875,0.0198516845703125
1782846789735881000,7.026880859375,-0.50811767578125,0.0433502197265625,-0.0099334716796875
1782846789745885000,7.036885009765625,-0.2996063232421875,-0.00469970703125,-0.0335845947265625
1782846789755890000,7.046889892578125,-0.123565673828125,-0.0581512451171875,-0.064666748046875
1782846789765895000,7.05689501953125,0.03021240234375,-0.0892791748046875,-0.08819580078125
1782846789775899000,7.06689892578125,0.13348388671875,-0.1016998291015625,-0.09765625
1782846789785903900,7.07690380859375,0.1622467041015625,-0.107513427734375,-0.1090240478515625
1782846789795908900,7.086908935546875,0.1439971923828125,-0.09991455078125,-0.1158447265625
1782846789805913000,7.0969130859375,0.0941009521484375,-0.0746002197265625,-0.1197052001953125
1782846789815918000,7.10691796875,0.02056884765625,-0.022125244140625,-0.1088409423828125
1782846789825923000,7.116923095703125,-0.01324462890625,0.0136260986328125,-0.084320068359375
1782846789835927000,7.126927001953125,-0.0142364501953125,0.0382843017578125,-0.053436279296875
1782846789845932000,7.13693212890625,0.00946044921875,0.062347412109375,0.00048828125
1782846789855936000,7.14693603515625,0.0302734375,0.0614166259765625,0.0424957275390625
1782846789865941000,7.15694091796875,0.05816650390625,0.0603179931640625,0.0651092529296875
1782846789875946000,7.166946044921875,0.0987701416015625,0.050048828125,0.058074951171875
1782846789885950200,7.1769501953125,0.1309814453125,0.04046630859375,0.0321197509765625
1782846789895955200,7.186955078125,0.1575927734375,0.034393310546875,0.002960205078125
1782846789905960200,7.196960205078125,0.16021728515625,0.024200439453125,-0.0245513916015625
1782846789915964000,7.2069638671875,0.1419677734375,0.0229949951171875,-0.0435028076171875
1782846789925969000,7.216968994140625,0.1176605224609375,0.024261474609375,-0.0380401611328125
1782846789935974000,7.226973876953125,0.0805206298828125,0.0269317626953125,-0.013763427734375
1782846789945977900,7.236977783203125,0.032562255859375,0.0217742919921875,-0.0010833740234375
1782846789955982800,7.24698291015625,-0.000640869140625,0.0200347900390625,-0.008544921875
1782846789965987800,7.25698779296875,-0.0600128173828125,0.0259857177734375,-0.0142669677734375
1782846789975992000,7.266991943359375,-0.207763671875,0.0178680419921875,-0.048004150390625
1782846789985997000,7.2769970703125,-0.438232421875,-0.013824462890625,-0.104644775390625
1782846789996002000,7.287001953125,-0.6588287353515625,-0.052154541015625,-0.110260009765625
1782846790006006000,7.297006103515625,-0.8251495361328125,-0.111541748046875,-0.00250244140625
1782846790016011000,7.307010986328125,-0.945465087890625,-0.2011260986328125,0.1583404541015625
1782846790026016000,7.31701611328125,-1.0670013427734375,-0.3111114501953125,0.287445068359375
1782846790036020000,7.32702001953125,-1.2315521240234375,-0.44842529296875,0.3564453125
1782846790046025000,7.33702490234375,-1.4066619873046875,-0.5802764892578125,0.3884124755859375
1782846790056029200,7.347029296875,-1.51654052734375,-0.641204833984375,0.4193115234375
1782846790066034200,7.3570341796875,-1.52587890625,-0.6528778076171875,0.4564971923828125
1782846790076039200,7.3670390625,-1.55804443359375,-0.643646240234375,0.446533203125
1782846790086043000,7.37704296875,-1.7315826416015625,-0.760101318359375,0.27410888671875
1782846790096048000,7.387048095703125,-1.9691314697265625,-0.9765777587890625,0.072021484375
1782846790106053000,7.39705322265625,-2.142608642578125,-1.03155517578125,-0.0068206787109375
1782846790116056800,7.407056884765625,-2.2496337890625,-0.8751068115234375,0.107025146484375
1782846790126061800,7.417061767578125,-2.35595703125,-0.6187744140625,0.3186798095703125
1782846790136066800,7.42706689453125,-2.368865966796875,-0.4144744873046875,0.513519287109375
1782846790146071000,7.437071044921875,-2.2535858154296875,-0.3314666748046875,0.608123779296875
1782846790156076000,7.447075927734375,-2.05206298828125,-0.380828857421875,0.5742034912109375
1782846790166081000,7.4570810546875,-1.75738525390625,-0.53680419921875,0.4635162353515625
1782846790176085000,7.4670849609375,-1.3833465576171875,-0.718963623046875,0.3701019287109375
1782846790186090000,7.477090087890625,-1.0032196044921875,-0.7955780029296875,0.343963623046875
1782846790196095000,7.487094970703125,-0.7149505615234375,-0.7047576904296875,0.312286376953125
1782846790206099000,7.497098876953125,-0.608978271484375,-0.58306884765625,0.2155609130859375
1782846790216104000,7.50710400390625,-0.6859893798828125,-0.5064697265625,0.0986785888671875
1782846790226108200,7.517108154296875,-0.812469482421875,-0.3796844482421875,0.0454864501953125
1782846790236113200,7.527113037109375,-0.9109954833984375,-0.226348876953125,0.0402069091796875
1782846790246118100,7.5371181640625,-1.0188751220703125,-0.1043243408203125,0.0113067626953125
1782846790256122000,7.5471220703125,-1.041259765625,-0.0175628662109375,-0.01654052734375
1782846790266127000,7.557127197265625,-0.980224609375,0.04266357421875,-0.021453857421875
1782846790276132000,7.567132080078125,-0.9550018310546875,0.08880615234375,0.05230712890625
1782846790286135800,7.5771357421875,-0.892822265625,0.07763671875,0.085723876953125
1782846790296140800,7.587140869140625,-0.764892578125,0.0479888916015625,0.1317901611328125
1782846790306145800,7.597145751953125,-0.669677734375,0.0076751708984375,0.16424560546875
1782846790316150000,7.60714990234375,-0.5621795654296875,-0.0172271728515625,0.1444854736328125
1782846790326155000,7.617155029296875,-0.4911651611328125,-0.0192718505859375,0.1284637451171875
1782846790336160000,7.627159912109375,-0.442718505859375,-0.0272674560546875,0.0500335693359375
1782846790346164000,7.6371640625,-0.3810882568359375,-0.00830078125,-0.0083465576171875
1782846790356169000,7.6471689453125,-0.357086181640625,-0.0061492919921875,-0.0045013427734375
1782846790366174000,7.657174072265625,-0.3314971923828125,-0.0005950927734375,0.025054931640625
1782846790376178000,7.667177978515625,-0.317352294921875,0.0016326904296875,0.10980224609375
1782846790386183000,7.677182861328125,-0.3461761474609375,-0.004241943359375,0.205474853515625
1782846790396187100,7.687187255859375,-0.4409332275390625,-0.0094757080078125,0.2519073486328125
1782846790406192000,7.697192138671875,-0.547393798828125,0.015594482421875,0.2125244140625
1782846790416197000,7.707197021484375,-0.6217041015625,0.05078125,0.1876068115234375
1782846790426201000,7.717201171875,-0.7102508544921875,0.05450439453125,0.1637420654296875
1782846790436206000,7.7272060546875,-0.80133056640625,0.0363616943359375,0.1284637451171875
1782846790446211000,7.737211181640625,-0.86175537109375,-0.0020294189453125,0.1020660400390625
1782846790456214800,7.74721484375,-0.93292236328125,-0.0665283203125,0.1136474609375
1782846790466219800,7.7572197265625,-1.0296478271484375,-0.1672210693359375,0.140655517578125
1782846790476225000,7.76722509765625,-1.1156005859375,-0.265167236328125,0.171234130859375
1782846790486229000,7.77722900390625,-1.2663726806640625,-0.31890869140625,0.1840057373046875
1782846790496234000,7.78723388671875,-1.4521026611328125,-0.3526458740234375,0.204925537109375
1782846790506239000,7.797239013671875,-1.6031036376953125,-0.3936767578125,0.2514801025390625
1782846790516243000,7.807242919921875,-1.74945068359375,-0.4141845703125,0.2788543701171875
1782846790526248000,7.817248046875,-1.88348388671875,-0.4126129150390625,0.2591400146484375
1782846790536253000,7.8272529296875,-2.02740478515625,-0.4037322998046875,0.2207183837890625
1782846790546257000,7.8372568359375,-2.1753387451171875,-0.416717529296875,0.2001800537109375
1782846790556262100,7.84726220703125,-2.2444305419921875,-0.4645843505859375,0.22064208984375
1782846790566266000,7.85726611328125,-2.2629852294921875,-0.5347900390625,0.2521820068359375
1782846790576271000,7.86727099609375,-2.2381134033203125,-0.6117401123046875,0.2951507568359375
1782846790586276000,7.877276123046875,-2.181427001953125,-0.681732177734375,0.336090087890625
1782846790596280000,7.887280029296875,-2.1127166748046875,-0.7425994873046875,0.3364715576171875
1782846790606285000,7.89728515625,-2.010955810546875,-0.786224365234375,0.285491943359375
1782846790616290000,7.9072900390625,-1.94012451171875,-0.7781829833984375,0.25042724609375
1782846790626294000,7.9172939453125,-1.898162841796875,-0.7118682861328125,0.241485595703125
1782846790636299000,7.927299072265625,-1.8280181884765625,-0.5914306640625,0.258209228515625
1782846790646304000,7.937303955078125,-1.7624359130859375,-0.436614990234375,0.2798309326171875
1782846790656308000,7.947307861328125,-1.670379638671875,-0.289093017578125,0.2872161865234375
1782846790666313000,7.95731298828125,-1.50421142578125,-0.1690521240234375,0.2780303955078125
1782846790676318000,7.96731787109375,-1.2817840576171875,-0.0949554443359375,0.26922607421875
1782846790686322000,7.977322021484375,-1.0399017333984375,-0.0687713623046875,0.254486083984375
1782846790696327000,7.987326904296875,-0.8003082275390625,-0.05999755859375,0.2276611328125
1782846790706332000,7.997331787109375,-0.6009063720703125,-0.0457916259765625,0.1982421875
1782846790716336000,8.007336181640625,-0.4285736083984375,-0.0234375,0.1553192138671875
1782846790726341000,8.017341064453126,-0.2915191650390625,0.0000457763671875,0.0994110107421875
1782846790736345000,8.027344970703124,-0.21697998046875,0.0166015625,0.051788330078125
1782846790746350000,8.03735009765625,-0.1731109619140625,0.0216522216796875,0.004730224609375
1782846790756355000,8.04735498046875,-0.1236419677734375,0.018798828125,-0.024078369140625
1782846790766359000,8.057359130859375,-0.0999755859375,0.028411865234375,-0.05218505859375
1782846790776364000,8.067364013671876,-0.1366424560546875,0.048095703125,-0.1082000732421875
1782846790786369000,8.077369140625,-0.1326141357421875,0.0753021240234375,-0.1207275390625
1782846790796373000,8.087373046875,-0.04876708984375,0.074920654296875,-0.096771240234375
1782846790806378000,8.0973779296875,0.0401458740234375,0.0420989990234375,-0.059600830078125
1782846790816383200,8.10738330078125,0.113555908203125,0.0171966552734375,-0.008941650390625
1782846790826387200,8.11738720703125,0.1724395751953125,-0.00103759765625,0.017547607421875
1782846790836392200,8.12739208984375,0.20587158203125,-0.0205841064453125,0.01434326171875
1782846790846397200,8.137397216796876,0.2053375244140625,-0.0229644775390625,0.003082275390625
1782846790856401000,8.14740087890625,0.1697998046875,-0.0194091796875,-0.0026397705078125
1782846790866406000,8.157406005859375,0.1099395751953125,0.0098114013671875,0.012420654296875
1782846790876411100,8.1674111328125,0.0260772705078125,0.0423583984375,0.0212860107421875
1782846790886415000,8.1774150390625,-0.03985595703125,0.0482177734375,0.0217437744140625
1782846790896420000,8.187420166015626,-0.0668792724609375,0.030517578125,0.02392578125
1782846790906424000,8.197424072265624,-0.0653533935546875,0.0068359375,0.026885986328125
1782846790916429000,8.207428955078125,-0.070892333984375,-0.01031494140625,0.0245819091796875
1782846790926434000,8.21743408203125,-0.089447021484375,-0.016326904296875,0.02630615234375
1782846790936438000,8.22743798828125,-0.1275787353515625,-0.012939453125,0.0400390625
1782846790946443000,8.237443115234376,-0.1771392822265625,-0.04315185546875,0.0577392578125
1782846790956448000,8.247447998046875,-0.3287506103515625,-0.0932769775390625,0.018096923828125
1782846790966452200,8.2574521484375,-0.5152740478515625,-0.13519287109375,-0.0508880615234375
1782846790976457200,8.267457275390624,-0.672088623046875,-0.146331787109375,-0.01654052734375
1782846790986462200,8.277462158203125,-0.8453521728515625,-0.1955108642578125,0.0667266845703125
1782846790996466200,8.287466064453126,-1.033477783203125,-0.2785186767578125,0.18804931640625
1782846791006471200,8.29747119140625,-1.195587158203125,-0.3647003173828125,0.2879638671875
1782846791016476200,8.30747607421875,-1.29388427734375,-0.4154205322265625,0.349212646484375
1782846791026480000,8.317480224609374,-1.3479461669921875,-0.4039154052734375,0.381683349609375
1782846791036485000,8.327485107421875,-1.4244232177734375,-0.3614959716796875,0.3910980224609375
1782846791046489000,8.337489013671876,-1.527435302734375,-0.334625244140625,0.3579254150390625
1782846791056494000,8.347494140625,-1.64886474609375,-0.38006591796875,0.2811126708984375
1782846791066499000,8.3574990234375,-1.7582244873046875,-0.5171966552734375,0.2046356201171875
1782846791076503000,8.3675029296875,-1.8086395263671875,-0.6700439453125,0.17108154296875
1782846791086508000,8.377508056640625,-1.7873077392578125,-0.749542236328125,0.2281646728515625
1782846791096513000,8.387512939453124,-1.79803466796875,-0.7210540771484375,0.3451690673828125
1782846791106517000,8.39751708984375,-1.8323822021484375,-0.5982818603515625,0.4311370849609375
1782846791116522000,8.40752197265625,-1.8381805419921875,-0.4697265625,0.43475341796875
1782846791126527000,8.41752685546875,-1.8427886962890625,-0.395111083984375,0.3850250244140625
1782846791136531200,8.42753125,-1.7829742431640625,-0.427154541015625,0.303192138671875
1782846791146536200,8.4375361328125,-1.6492767333984375,-0.5499114990234375,0.1981048583984375
1782846791156541200,8.447541259765625,-1.4814300537109375,-0.6982421875,0.105072021484375
1782846791166545200,8.457545166015626,-1.3018341064453125,-0.8111419677734375,0.0506439208984375
1782846791176550100,8.467550048828125,-1.1740570068359375,-0.838714599609375,0.04620361328125
1782846791186555100,8.47755517578125,-1.159881591796875,-0.76934814453125,0.1006622314453125
1782846791196559000,8.48755908203125,-1.2350006103515625,-0.6631622314453125,0.1393280029296875
1782846791206564000,8.497564208984375,-1.29058837890625,-0.5564117431640625,0.1476898193359375
1782846791216568000,8.507568115234376,-1.3126983642578125,-0.460662841796875,0.1345062255859375
1782846791226573000,8.517572998046875,-1.195526123046875,-0.27618408203125,0.146881103515625
1782846791236578000,8.527578125,-1.113800048828125,-0.1802520751953125,0.1237335205078125
1782846791246582000,8.53758203125,-1.03497314453125,-0.1701812744140625,0.201507568359375
1782846791256587000,8.5475869140625,-1.0813140869140625,-0.1475982666015625,0.2146148681640625
1782846791266592000,8.557592041015624,-1.03216552734375,-0.112640380859375,0.1871185302734375
1782846791276596000,8.567595947265625,-0.920166015625,-0.096771240234375,0.11822509765625
1782846791286601000,8.57760107421875,-0.81744384765625,-0.1026153564453125,0.0146331787109375
