time,seconds_elapsed,z,y,x
1782846187991745800,0.064745849609375,-0.9887237548828125,-0.021392822265625,0.004608154296875
1782846188001750800,0.074750732421875,-0.99761962890625,-0.02215576171875,0.0010833740234375
1782846188011755800,0.084755859375,-0.9914398193359375,-0.0232086181640625,0.0009918212890625
1782846188021760800,0.0947607421875,-0.9844970703125,-0.0224456787109375,0.0047149658203125
1782846188031765800,0.104765869140625,-0.990386962890625,-0.0207061767578125,0.0023956298828125
1782846188041770800,0.114770751953125,-0.997344970703125,-0.0205535888671875,0.0017242431640625
1782846188051775700,0.124775634765625,-0.98883056640625,-0.022796630859375,0.0022430419921875
1782846188061780700,0.13478076171875,-0.9873504638671875,-0.021514892578125,0.0036468505859375
1782846188071785700,0.14478564453125,-0.99224853515625,-0.02117919921875,0.0030059814453125
1782846188081790700,0.154790771484375,-0.9925994873046875,-0.0212249755859375,0.00189208984375
1782846188091795700,0.164795654296875,-0.988037109375,-0.0211334228515625,0.0023193359375
1782846188101800700,0.17480078125,-0.98883056640625,-0.0211639404296875,0.002960205078125
1782846188111805700,0.1848056640625,-0.991363525390625,-0.020721435546875,0.002838134765625
1782846188121810700,0.194810791015625,-0.9906463623046875,-0.0214080810546875,0.0017547607421875
1782846188131815700,0.204815673828125,-0.990234375,-0.0213470458984375,0.0037841796875
1782846188141820700,0.214820556640625,-0.9901885986328125,-0.0211181640625,0.000762939453125
1782846188151825700,0.22482568359375,-0.991729736328125,-0.0216522216796875,0.0019683837890625
1782846188161830700,0.23483056640625,-0.98876953125,-0.0223541259765625,0.0023651123046875
1782846188171835600,0.244835693359375,-0.990234375,-0.021209716796875,0.0029754638671875
1782846188181840600,0.254840576171875,-0.9904022216796875,-0.0220489501953125,0.0033721923828125
1782846188191845600,0.264845703125,-0.9916534423828125,-0.0219879150390625,0.003265380859375
1782846188201850600,0.2748505859375,-0.990020751953125,-0.020263671875,0.0050811767578125
1782846188211855600,0.284855712890625,-0.9896087646484375,-0.0216522216796875,0.0018463134765625
1782846188221860600,0.294860595703125,-0.991119384765625,-0.021270751953125,0.0021209716796875
1782846188231865600,0.304865478515625,-0.9898529052734375,-0.022003173828125,0.0030059814453125
1782846188241870600,0.31487060546875,-0.9893646240234375,-0.0214996337890625,0.00048828125
1782846188251875600,0.32487548828125,-0.989959716796875,-0.0224609375,0.0023193359375
1782846188261880600,0.334880615234375,-0.9908905029296875,-0.0225067138671875,0.0022735595703125
1782846188271885600,0.344885498046875,-0.9907379150390625,-0.02154541015625,0.0034637451171875
1782846188281890600,0.354890625,-0.989715576171875,-0.020355224609375,0.001251220703125
1782846188291895600,0.3648955078125,-0.9899444580078125,-0.0197601318359375,0.002044677734375
1782846188301900500,0.374900634765625,-0.9917449951171875,-0.020843505859375,0.0018463134765625
1782846188311905500,0.384905517578125,-0.9917755126953125,-0.021392822265625,0.0028533935546875
1782846188321910500,0.39491064453125,-0.99139404296875,-0.0219268798828125,0.0033416748046875
1782846188331915500,0.40491552734375,-0.9910430908203125,-0.021697998046875,0.003143310546875
1782846188341920500,0.41492041015625,-0.99017333984375,-0.021331787109375,0.001953125
1782846188351925500,0.424925537109375,-0.9895172119140625,-0.0218505859375,0.0016326904296875
1782846188361930500,0.434930419921875,-0.990753173828125,-0.021697998046875,0.0035400390625
1782846188371935500,0.444935546875,-0.9915924072265625,-0.0231781005859375,0.0028533935546875
1782846188381940500,0.4549404296875,-0.990142822265625,-0.0220184326171875,0.002838134765625
1782846188391945700,0.46494580078125,-0.9901123046875,-0.0211181640625,0.00244140625
1782846188401950700,0.47495068359375,-0.989837646484375,-0.0214691162109375,0.00396728515625
1782846188411955700,0.484955810546875,-0.98968505859375,-0.022064208984375,0.003082275390625
1782846188421960700,0.494960693359375,-0.9903106689453125,-0.02093505859375,0.003173828125
1782846188431966000,0.504966064453125,-0.9901885986328125,-0.02001953125,0.0033416748046875
1782846188441971000,0.514970947265625,-0.99188232421875,-0.0213775634765625,0.0012969970703125
1782846188451976000,0.524975830078125,-0.99102783203125,-0.019622802734375,0.0026702880859375
1782846188461981000,0.53498095703125,-0.9901275634765625,-0.02081298828125,0.002838134765625
1782846188471985700,0.544985595703125,-0.99114990234375,-0.0213165283203125,0.002777099609375
1782846188481990700,0.55499072265625,-0.9915008544921875,-0.020233154296875,0.0031585693359375
1782846188491995600,0.56499560546875,-0.989990234375,-0.021392822265625,0.001617431640625
1782846188502000600,0.575000732421875,-0.9891510009765625,-0.0214996337890625,0.0040435791015625
1782846188512005600,0.585005615234375,-0.990936279296875,-0.021209716796875,0.00238037109375
1782846188522010600,0.5950107421875,-0.989898681640625,-0.0205078125,0.0031890869140625
1782846188532015600,0.605015625,-0.989990234375,-0.0207672119140625,0.004119873046875
1782846188542020600,0.6150205078125,-0.9895782470703125,-0.0211639404296875,0.00262451171875
1782846188552025600,0.625025634765625,-0.990234375,-0.02178955078125,0.00347900390625
1782846188562030600,0.635030517578125,-0.9897613525390625,-0.020721435546875,0.003662109375
1782846188572035600,0.64503564453125,-0.9898834228515625,-0.021514892578125,0.0024261474609375
1782846188582040600,0.65504052734375,-0.9908447265625,-0.021270751953125,0.0041351318359375
1782846188592045600,0.665045654296875,-0.989410400390625,-0.022613525390625,0.00390625
1782846188602050600,0.675050537109375,-0.9903717041015625,-0.021209716796875,0.001495361328125
1782846188612055600,0.6850556640625,-0.9906463623046875,-0.0211334228515625,0.00250244140625
1782846188622060500,0.695060546875,-0.989776611328125,-0.020782470703125,0.0037078857421875
1782846188632065500,0.7050654296875,-0.989990234375,-0.020538330078125,0.002197265625
1782846188642070500,0.715070556640625,-0.990936279296875,-0.02215576171875,0.0023193359375
1782846188652075500,0.725075439453125,-0.9887847900390625,-0.021240234375,0.00213623046875
1782846188662080500,0.73508056640625,-0.9893646240234375,-0.0220947265625,0.0025634765625
1782846188672085500,0.74508544921875,-0.9910430908203125,-0.0208740234375,0.003631591796875
1782846188682090500,0.755090576171875,-0.990814208984375,-0.0223541259765625,0.00433349609375
1782846188692095500,0.765095458984375,-0.9895477294921875,-0.0211029052734375,0.00152587890625
1782846188702100500,0.7751005859375,-0.9881439208984375,-0.0212860107421875,0.0022125244140625
1782846188712105500,0.78510546875,-0.9909515380859375,-0.021881103515625,0.00128173828125
1782846188722110500,0.7951103515625,-0.9900360107421875,-0.0216217041015625,0.002685546875
1782846188732115500,0.805115478515625,-0.99176025390625,-0.0209503173828125,0.0026702880859375
1782846188742120400,0.815120361328125,-0.99072265625,-0.021453857421875,0.0035400390625
1782846188752125400,0.82512548828125,-0.9911956787109375,-0.022674560546875,0.0020751953125
1782846188762130400,0.83513037109375,-0.9890594482421875,-0.022552490234375,0.003326416015625
1782846188772135400,0.845135498046875,-0.988739013671875,-0.0216217041015625,0.0031890869140625
1782846188782140400,0.855140380859375,-0.991363525390625,-0.022247314453125,0.0028228759765625
1782846188792145400,0.8651455078125,-0.991424560546875,-0.0213775634765625,0.0027313232421875
1782846188802150400,0.875150390625,-0.9905853271484375,-0.0211639404296875,0.002716064453125
1782846188812155400,0.8851552734375,-0.9911956787109375,-0.022247314453125,0.0036773681640625
1782846188822160400,0.895160400390625,-0.9898681640625,-0.0213165283203125,0.0027313232421875
1782846188832165400,0.905165283203125,-0.989471435546875,-0.0197906494140625,0.0026702880859375
1782846188842170400,0.91517041015625,-0.9905548095703125,-0.02191162109375,0.0049591064453125
1782846188852175400,0.92517529296875,-0.9901123046875,-0.021881103515625,0.00250244140625
1782846188862180400,0.935180419921875,-0.9913482666015625,-0.021484375,0.001220703125
1782846188872185300,0.945185302734375,-0.9910430908203125,-0.0212554931640625,0.00201416015625
1782846188882190600,0.955190673828125,-0.9891815185546875,-0.0208282470703125,0.0025634765625
1782846188892195600,0.965195556640625,-0.988800048828125,-0.0209808349609375,0.0024871826171875
1782846188902200600,0.97520068359375,-0.9901885986328125,-0.0224761962890625,0.002044677734375
1782846188912205600,0.98520556640625,-0.989471435546875,-0.022369384765625,0.003265380859375
1782846188922210600,0.99521044921875,-0.9903564453125,-0.02105712890625,0.0029296875
1782846188932215600,1.005215576171875,-0.990997314453125,-0.0224761962890625,0.00299072265625
1782846188942220500,1.015220458984375,-0.988128662109375,-0.0217742919921875,0.0029144287109375
1782846188952225500,1.0252255859375,-0.9903564453125,-0.022064208984375,0.0029144287109375
1782846188962230500,1.03523046875,-0.989288330078125,-0.0220947265625,0.003997802734375
1782846188972235500,1.045235595703125,-0.988922119140625,-0.0211639404296875,0.002105712890625
1782846188982240500,1.055240478515625,-0.988739013671875,-0.0204010009765625,0.00274658203125
1782846188992245500,1.06524560546875,-0.9904632568359375,-0.0213623046875,0.0036468505859375
1782846189002250500,1.07525048828125,-0.990478515625,-0.0211639404296875,0.0035247802734375
1782846189012255500,1.08525537109375,-0.9905548095703125,-0.0206298828125,0.003082275390625
1782846189022260500,1.095260498046875,-0.99066162109375,-0.0202484130859375,0.0018463134765625
1782846189032265500,1.105265380859375,-0.990081787109375,-0.020538330078125,0.00244140625
1782846189042270500,1.1152705078125,-0.9897003173828125,-0.02215576171875,0.0019683837890625
1782846189052275500,1.125275390625,-0.991790771484375,-0.02081298828125,0.0026397705078125
1782846189062280400,1.135280517578125,-0.990447998046875,-0.02203369140625,0.0025482177734375
1782846189072285400,1.145285400390625,-0.990631103515625,-0.0219268798828125,0.00274658203125
1782846189082290400,1.15529052734375,-0.9924163818359375,-0.022125244140625,0.0028076171875
1782846189092295400,1.16529541015625,-0.991302490234375,-0.0215911865234375,0.0016326904296875
1782846189102300400,1.175300537109375,-0.989776611328125,-0.020965576171875,0.00164794921875
1782846189112305400,1.185305419921875,-0.9918060302734375,-0.0207061767578125,0.004913330078125
1782846189122310400,1.195310302734375,-0.9904022216796875,-0.02197265625,0.0021514892578125
1782846189132315400,1.2053154296875,-0.9900665283203125,-0.0207672119140625,0.00164794921875
1782846189142320400,1.2153203125,-0.9899444580078125,-0.020782470703125,0.00091552734375
1782846189152325400,1.225325439453125,-0.9909515380859375,-0.02093505859375,0.002960205078125
1782846189162330400,1.235330322265625,-0.98956298828125,-0.02130126953125,0.0013427734375
1782846189172335400,1.24533544921875,-0.9919281005859375,-0.0216522216796875,0.0023345947265625
1782846189182340400,1.25534033203125,-0.9921112060546875,-0.0212860107421875,0.0020904541015625
1782846189192345300,1.265345458984375,-0.9901580810546875,-0.0207977294921875,0.0013275146484375
1782846189202350300,1.275350341796875,-0.989532470703125,-0.0203399658203125,0.0026702880859375
1782846189212355300,1.285355224609375,-0.9917144775390625,-0.0219268798828125,0.001739501953125
1782846189222360300,1.2953603515625,-0.990203857421875,-0.0211334228515625,0.0032958984375
1782846189232365300,1.305365234375,-0.9922027587890625,-0.020751953125,0.0009002685546875
1782846189242370300,1.315370361328125,-0.990447998046875,-0.0206451416015625,0.00115966796875
1782846189252375300,1.325375244140625,-0.9905853271484375,-0.021087646484375,0.0032196044921875
1782846189262380300,1.33538037109375,-0.99267578125,-0.0214996337890625,0.0010223388671875
1782846189272385300,1.34538525390625,-0.9896697998046875,-0.0219573974609375,0.003692626953125
1782846189282390300,1.355390380859375,-0.9910430908203125,-0.023284912109375,0.003021240234375
1782846189292396500,1.365396484375,-0.990631103515625,-0.021453857421875,0.002288818359375
1782846189302400300,1.375400146484375,-0.990997314453125,-0.0208740234375,0.002349853515625
1782846189312405200,1.3854052734375,-0.9907379150390625,-0.020416259765625,0.002685546875
1782846189322410500,1.395410400390625,-0.9897003173828125,-0.0224761962890625,0.0007171630859375
1782846189332416500,1.40541650390625,-0.9893035888671875,-0.02154541015625,0.0020904541015625
1782846189342421500,1.41542138671875,-0.98944091796875,-0.02227783203125,0.0030059814453125
1782846189352426500,1.425426513671875,-0.9897003173828125,-0.02154541015625,0.003448486328125
1782846189362431500,1.435431396484375,-0.9900665283203125,-0.02105712890625,0.001434326171875
1782846189372436500,1.4454365234375,-0.9906005859375,-0.020904541015625,0.002288818359375
1782846189382441500,1.45544140625,-0.9896697998046875,-0.021209716796875,0.003173828125
1782846189392446500,1.465446533203125,-0.989593505859375,-0.02069091796875,0.0026702880859375
1782846189402451500,1.475451416015625,-0.9909210205078125,-0.02117919921875,0.002288818359375
1782846189412456400,1.48545654296875,-0.9915771484375,-0.0216522216796875,0.00396728515625
1782846189422461400,1.49546142578125,-0.989501953125,-0.0213623046875,0.0016326904296875
1782846189432466400,1.505466552734375,-0.989654541015625,-0.022003173828125,0.003326416015625
1782846189442471400,1.515471435546875,-0.9900360107421875,-0.021026611328125,0.0037994384765625
1782846189452476400,1.525476318359375,-0.9902801513671875,-0.0206298828125,0.003662109375
1782846189462481400,1.5354814453125,-0.9912567138671875,-0.02301025390625,0.0026397705078125
1782846189472486700,1.545486572265625,-0.9918212890625,-0.02154541015625,0.003143310546875
1782846189482491600,1.55549169921875,-0.9914398193359375,-0.0220184326171875,0.002044677734375
1782846189492496600,1.56549658203125,-0.9898529052734375,-0.0211334228515625,0.00091552734375
1782846189502501600,1.575501708984375,-0.990753173828125,-0.021087646484375,0.0042572021484375
1782846189512506600,1.585506591796875,-0.9897918701171875,-0.0226287841796875,0.003570556640625
1782846189522511600,1.59551171875,-0.990570068359375,-0.022613525390625,0.0030670166015625
1782846189532516600,1.6055166015625,-0.991058349609375,-0.022308349609375,0.0020294189453125
1782846189542521600,1.615521484375,-0.990753173828125,-0.0211639404296875,0.00213623046875
1782846189552526600,1.625526611328125,-0.98980712890625,-0.0204620361328125,0.0012664794921875
1782846189562531600,1.635531494140625,-0.9892730712890625,-0.021209716796875,0.00140380859375
1782846189572536800,1.645536865234375,-0.9908447265625,-0.020172119140625,0.0029754638671875
1782846189582541800,1.655541748046875,-0.9913330078125,-0.021636962890625,0.0023651123046875
1782846189592546800,1.665546875,-0.9900665283203125,-0.019805908203125,0.0019378662109375
1782846189602551800,1.6755517578125,-0.9912567138671875,-0.0220184326171875,0.0027618408203125
1782846189612556800,1.685556884765625,-0.9898529052734375,-0.0210113525390625,0.00396728515625
1782846189622561800,1.695561767578125,-0.9906158447265625,-0.0206756591796875,0.0026702880859375
1782846189632566800,1.70556689453125,-0.99090576171875,-0.0208282470703125,0.002838134765625
1782846189642571800,1.71557177734375,-0.9900360107421875,-0.020111083984375,0.0042724609375
1782846189652576800,1.72557666015625,-0.98968505859375,-0.02203369140625,0.00140380859375
1782846189662581800,1.735581787109375,-0.9906005859375,-0.0220489501953125,0.002044677734375
1782846189672586800,1.745586669921875,-0.9908447265625,-0.022125244140625,0.0030670166015625
1782846189682591700,1.755591796875,-0.9884490966796875,-0.0223541259765625,0.002838134765625
1782846189692596700,1.7655966796875,-0.990509033203125,-0.02264404296875,0.0030059814453125
1782846189702601700,1.775601806640625,-0.9909820556640625,-0.0218505859375,0.0035247802734375
1782846189712606700,1.785606689453125,-0.9907684326171875,-0.02178955078125,0.002166748046875
1782846189722611700,1.79561181640625,-0.990509033203125,-0.0222625732421875,0.004241943359375
1782846189732616700,1.80561669921875,-0.989990234375,-0.0219573974609375,0.0020599365234375
1782846189742621700,1.81562158203125,-0.9896697998046875,-0.0224151611328125,0.00164794921875
1782846189752626700,1.825626708984375,-0.989898681640625,-0.0214996337890625,0.0022125244140625
1782846189762631700,1.835631591796875,-0.9897613525390625,-0.0215911865234375,0.0015106201171875
1782846189772636700,1.84563671875,-0.990997314453125,-0.0204010009765625,0.0028076171875
1782846189782641700,1.8556416015625,-0.9915008544921875,-0.02130126953125,0.00347900390625
1782846189792646700,1.865646728515625,-0.9919586181640625,-0.02081298828125,0.000457763671875
1782846189802651600,1.875651611328125,-0.9922027587890625,-0.0208740234375,0.00213623046875
1782846189812656600,1.88565673828125,-0.9898681640625,-0.0213165283203125,0.0019073486328125
1782846189822661600,1.89566162109375,-0.9901275634765625,-0.0219573974609375,0.00390625
1782846189832666600,1.90566650390625,-0.9914703369140625,-0.021636962890625,0.0020599365234375
1782846189842671600,1.915671630859375,-0.991912841796875,-0.020721435546875,0.0047607421875
1782846189852676600,1.925676513671875,-0.99176025390625,-0.0207672119140625,0.0027923583984375
1782846189862681600,1.935681640625,-0.9903717041015625,-0.0200347900390625,0.003509521484375
1782846189872686600,1.9456865234375,-0.990936279296875,-0.0201416015625,0.0024261474609375
1782846189882691600,1.955691650390625,-0.9910888671875,-0.020904541015625,0.0027313232421875
1782846189892696600,1.965696533203125,-0.989532470703125,-0.0201873779296875,0.0027618408203125
1782846189902701600,1.97570166015625,-0.989715576171875,-0.02130126953125,0.001617431640625
1782846189912706600,1.98570654296875,-0.99072265625,-0.0208892822265625,0.004638671875
1782846189922711600,1.995711669921875,-0.9906158447265625,-0.0228118896484375,0.0038604736328125
1782846189932716500,2.005716552734375,-0.9918365478515625,-0.021636962890625,0.001434326171875
1782846189942721500,2.015721435546875,-0.99163818359375,-0.0211181640625,0.0028228759765625
1782846189952726500,2.0257265625,-0.991180419921875,-0.021881103515625,0.00274658203125
1782846189962731500,2.0357314453125,-0.9910736083984375,-0.0229034423828125,0.0042724609375
1782846189972736500,2.045736572265625,-0.990081787109375,-0.021728515625,0.0025787353515625
1782846189982741500,2.055741455078125,-0.99212646484375,-0.0208282470703125,0.0016021728515625
1782846189992746500,2.06574658203125,-0.991119384765625,-0.0219573974609375,0.002838134765625
1782846190002751500,2.07575146484375,-0.9904327392578125,-0.0206756591796875,0.0025482177734375
1782846190012756500,2.085756591796875,-0.991058349609375,-0.0215301513671875,0.0027923583984375
1782846190022761500,2.095761474609375,-0.9896392822265625,-0.021453857421875,0.0021514892578125
1782846190032766500,2.105766357421875,-0.9901123046875,-0.0223388671875,0.00140380859375
1782846190042771500,2.115771484375,-0.9911651611328125,-0.0220947265625,0.0032196044921875
1782846190052776400,2.1257763671875,-0.9901885986328125,-0.0211181640625,0.0019989013671875
1782846190062781700,2.13578173828125,-0.9884033203125,-0.0222320556640625,0.0035858154296875
1782846190072786700,2.14578662109375,-0.9904022216796875,-0.0223541259765625,0.0040435791015625
1782846190082791700,2.155791748046875,-0.9895477294921875,-0.0220947265625,0.0037384033203125
1782846190092796700,2.165796630859375,-0.9909820556640625,-0.02099609375,0.003204345703125
1782846190102801700,2.1758017578125,-0.9905853271484375,-0.0208282470703125,0.0022735595703125
1782846190112806700,2.185806640625,-0.9915924072265625,-0.0222015380859375,0.00311279296875
1782846190122811600,2.195811767578125,-0.9915618896484375,-0.0215606689453125,0.00274658203125
1782846190132816600,2.205816650390625,-0.989837646484375,-0.0211944580078125,0.00225830078125
1782846190142821600,2.215821533203125,-0.992401123046875,-0.0222625732421875,0.002593994140625
1782846190152826600,2.22582666015625,-0.990020751953125,-0.0219268798828125,0.001922607421875
1782846190162831600,2.23583154296875,-0.9909515380859375,-0.0207977294921875,0.00372314453125
1782846190172836600,2.245836669921875,-0.990447998046875,-0.0208740234375,0.0031280517578125
1782846190182841600,2.255841552734375,-0.9906158447265625,-0.02117919921875,0.000152587890625
1782846190192846600,2.2658466796875,-0.9909820556640625,-0.0220947265625,0.0006866455078125
1782846190202851600,2.2758515625,-0.9896240234375,-0.0226593017578125,0.0030670166015625
1782846190212856600,2.285856689453125,-0.9903106689453125,-0.021820068359375,0.0026397705078125
1782846190222861600,2.295861572265625,-0.9904327392578125,-0.0202178955078125,0.0025787353515625
1782846190232866600,2.305866455078125,-0.989532470703125,-0.02130126953125,0.0013275146484375
1782846190242871600,2.31587158203125,-0.989410400390625,-0.021240234375,0.0038299560546875
1782846190252876500,2.32587646484375,-0.9901123046875,-0.0204620361328125,0.00347900390625
1782846190262881500,2.335881591796875,-0.98956298828125,-0.022064208984375,0.002593994140625
1782846190272886500,2.345886474609375,-0.990142822265625,-0.0211334228515625,0.0027008056640625
1782846190282891800,2.355891845703125,-0.990997314453125,-0.0216064453125,0.00262451171875
1782846190292896800,2.365896728515625,-0.9915924072265625,-0.0226898193359375,0.0023956298828125
1782846190302901800,2.37590185546875,-0.9894866943359375,-0.0214080810546875,0.001983642578125
1782846190312906800,2.38590673828125,-0.991912841796875,-0.020538330078125,0.003143310546875
1782846190322911700,2.395911865234375,-0.9888763427734375,-0.02154541015625,0.001678466796875
1782846190332916700,2.405916748046875,-0.9907684326171875,-0.0210723876953125,0.00189208984375
1782846190342921700,2.415921630859375,-0.991058349609375,-0.0209197998046875,0.002410888671875
1782846190352926700,2.4259267578125,-0.99005126953125,-0.0197906494140625,0.00390625
1782846190362931700,2.435931640625,-0.9906768798828125,-0.02227783203125,0.00213623046875
1782846190372936700,2.445936767578125,-0.9921875,-0.021575927734375,0.00146484375
1782846190382941700,2.455941650390625,-0.9906005859375,-0.020538330078125,0.003173828125
1782846190392946700,2.46594677734375,-0.98931884765625,-0.021575927734375,0.0027923583984375
1782846190402951700,2.47595166015625,-0.9918365478515625,-0.02044677734375,0.001922607421875
1782846190412956700,2.485956787109375,-0.990142822265625,-0.0209808349609375,0.0040283203125
1782846190422961700,2.495961669921875,-0.9890899658203125,-0.020965576171875,0.0028533935546875
1782846190432966700,2.505966552734375,-0.991668701171875,-0.0222625732421875,0.002777099609375
1782846190442971600,2.5159716796875,-0.9908294677734375,-0.021575927734375,0.004669189453125
1782846190452976600,2.5259765625,-0.990753173828125,-0.0214996337890625,0.0031585693359375
1782846190462981600,2.535981689453125,-0.9889068603515625,-0.0213470458984375,0.0030364990234375
1782846190472985900,2.54598583984375,-0.9904632568359375,-0.0208740234375,0.0035858154296875
1782846190482990800,2.555990966796875,-0.9907684326171875,-0.0217132568359375,0.00238037109375
1782846190492995800,2.565995849609375,-0.989959716796875,-0.0203704833984375,0.002349853515625
1782846190503000800,2.576000732421875,-0.9901275634765625,-0.0211334228515625,0.00238037109375
1782846190513005800,2.586005859375,-0.988677978515625,-0.02191162109375,0.0005645751953125
1782846190523010800,2.5960107421875,-0.989532470703125,-0.020233154296875,0.001068115234375
1782846190533015800,2.606015869140625,-0.9910888671875,-0.0218048095703125,0.002685546875
1782846190543020800,2.616020751953125,-0.990570068359375,-0.0209503173828125,0.00323486328125
1782846190553025800,2.62602587890625,-0.989959716796875,-0.0214080810546875,0.0022430419921875
1782846190563030800,2.63603076171875,-0.9910125732421875,-0.0208740234375,0.002105712890625
1782846190573035800,2.646035888671875,-0.990692138671875,-0.021148681640625,0.001129150390625
1782846190583040800,2.656040771484375,-0.99102783203125,-0.0206756591796875,0.002716064453125
1782846190593045800,2.666045654296875,-0.991546630859375,-0.02197265625,0.002899169921875
1782846190603050800,2.67605078125,-0.990447998046875,-0.0228729248046875,0.0034332275390625
1782846190613055700,2.6860556640625,-0.9899139404296875,-0.0216827392578125,0.0023956298828125
1782846190623060700,2.696060791015625,-0.9899139404296875,-0.0213165283203125,0.0028228759765625
1782846190633065700,2.706065673828125,-0.990753173828125,-0.022247314453125,0.002685546875
1782846190643070700,2.71607080078125,-0.9909820556640625,-0.0225067138671875,0.0024871826171875
1782846190653075700,2.72607568359375,-0.988922119140625,-0.0222930908203125,0.0018310546875
1782846190663080700,2.736080810546875,-0.98980712890625,-0.02264404296875,0.00262451171875
1782846190673085700,2.746085693359375,-0.99066162109375,-0.0223541259765625,0.0019378662109375
1782846190683090700,2.756090576171875,-0.98944091796875,-0.0230255126953125,0.00286865234375
1782846190693095700,2.766095703125,-0.9908447265625,-0.0215911865234375,0.002349853515625
1782846190703100700,2.7761005859375,-0.9917144775390625,-0.0197906494140625,0.002593994140625
1782846190713105700,2.786105712890625,-0.9893035888671875,-0.0195770263671875,0.003204345703125
1782846190723110700,2.796110595703125,-0.9897613525390625,-0.020477294921875,0.0029296875
1782846190733115600,2.80611572265625,-0.9916839599609375,-0.0219573974609375,0.0018463134765625
1782846190743120600,2.81612060546875,-0.9895782470703125,-0.022369384765625,0.000762939453125
1782846190753125600,2.826125732421875,-0.9908447265625,-0.0208587646484375,0.002899169921875
1782846190763130600,2.836130615234375,-0.9898681640625,-0.0216522216796875,0.001861572265625
1782846190773135600,2.846135498046875,-0.9906768798828125,-0.020599365234375,0.0030059814453125
1782846190783142000,2.856141845703125,-0.990814208984375,-0.0205230712890625,0.001922607421875
1782846190793147000,2.86614697265625,-0.989959716796875,-0.021209716796875,0.00201416015625
1782846190803152000,2.87615185546875,-0.9892578125,-0.02154541015625,0.0028228759765625
1782846190813156900,2.886156982421875,-0.9898529052734375,-0.0216064453125,0.0021820068359375
1782846190823161900,2.896161865234375,-0.990997314453125,-0.0224456787109375,0.002197265625
1782846190833166800,2.906166748046875,-0.9915008544921875,-0.0220794677734375,0.00286865234375
1782846190843171800,2.916171875,-0.9909820556640625,-0.02056884765625,0.003204345703125
1782846190853176800,2.9261767578125,-0.990142822265625,-0.0202484130859375,0.0028533935546875
1782846190863181800,2.936181884765625,-0.992584228515625,-0.0216522216796875,0.00164794921875
1782846190873186800,2.946186767578125,-0.988037109375,-0.0206298828125,0.0012664794921875
1782846190883191800,2.95619189453125,-0.988739013671875,-0.0204315185546875,0.00323486328125
1782846190893196800,2.96619677734375,-0.9902191162109375,-0.0216217041015625,0.0025634765625
1782846190903201800,2.976201904296875,-0.9908447265625,-0.0213470458984375,0.0023651123046875
1782846190913206800,2.986206787109375,-0.9907379150390625,-0.0223846435546875,0.00311279296875
1782846190923211800,2.996211669921875,-0.991607666015625,-0.021026611328125,0.0036773681640625
1782846190933216800,3.006216796875,-0.990692138671875,-0.0211334228515625,0.0011749267578125
1782846190943221800,3.0162216796875,-0.9898529052734375,-0.0206298828125,0.0025787353515625
1782846190953226800,3.026226806640625,-0.992034912109375,-0.0209808349609375,0.0044097900390625
1782846190963231700,3.036231689453125,-0.991363525390625,-0.0223388671875,0.00286865234375
1782846190973236700,3.04623681640625,-0.9896697998046875,-0.021331787109375,0.004058837890625
1782846190983241700,3.05624169921875,-0.9894561767578125,-0.0228118896484375,0.0036163330078125
1782846190993246700,3.066246826171875,-0.98883056640625,-0.02099609375,0.0022125244140625
1782846191003251700,3.076251708984375,-0.990570068359375,-0.0214385986328125,0.0022735595703125
1782846191013256700,3.086256591796875,-0.9923858642578125,-0.0214996337890625,0.0029754638671875
1782846191023261700,3.09626171875,-0.9906158447265625,-0.02178955078125,0.0020294189453125
1782846191033266700,3.1062666015625,-0.9907684326171875,-0.0205078125,0.0006866455078125
1782846191043271700,3.116271728515625,-0.9908447265625,-0.02020263671875,0.003021240234375
1782846191053276700,3.126276611328125,-0.9892730712890625,-0.0218353271484375,0.00067138671875
1782846191063281700,3.13628173828125,-0.990997314453125,-0.021392822265625,0.0030975341796875
1782846191073286700,3.14628662109375,-0.9903717041015625,-0.0226287841796875,0.0021514892578125
1782846191083291600,3.156291748046875,-0.990203857421875,-0.021514892578125,0.0031890869140625
1782846191093296600,3.166296630859375,-0.9913787841796875,-0.0216064453125,0.004669189453125
1782846191103302000,3.176302001953125,-0.9903411865234375,-0.02154541015625,0.002471923828125
1782846191113307000,3.186306884765625,-0.9886627197265625,-0.022216796875,0.0012359619140625
1782846191123311900,3.196311767578125,-0.989990234375,-0.0219573974609375,0.003326416015625
1782846191133316900,3.20631689453125,-0.990753173828125,-0.0220794677734375,0.0039825439453125
1782846191143321900,3.21632177734375,-0.9915771484375,-0.0237884521484375,0.00396728515625
1782846191153326800,3.226326904296875,-0.992156982421875,-0.0219879150390625,0.0030059814453125
1782846191163331800,3.236331787109375,-0.990692138671875,-0.0222930908203125,0.001556396484375
1782846191173336800,3.2463369140625,-0.9908294677734375,-0.0238189697265625,0.001983642578125
1782846191183341800,3.256341796875,-0.9904022216796875,-0.0226593017578125,0.0019989013671875
1782846191193346800,3.266346923828125,-0.9908599853515625,-0.0222320556640625,0.002044677734375
1782846191203351800,3.276351806640625,-0.9900360107421875,-0.02191162109375,0.00311279296875
1782846191213356800,3.286356689453125,-0.9916534423828125,-0.020721435546875,0.0010528564453125
1782846191223361800,3.29636181640625,-0.9907684326171875,-0.0206756591796875,0.00274658203125
1782846191233366800,3.30636669921875,-0.990325927734375,-0.0206451416015625,0.0042266845703125
1782846191243371800,3.316371826171875,-0.9908599853515625,-0.0207061767578125,0.0012969970703125
1782846191253376800,3.326376708984375,-0.990264892578125,-0.021820068359375,0.0012054443359375
1782846191263381800,3.3363818359375,-0.990020751953125,-0.0218963623046875,0.0030517578125
1782846191273386800,3.34638671875,-0.9915008544921875,-0.021820068359375,0.0017547607421875
1782846191283391700,3.356391845703125,-0.9905853271484375,-0.0208892822265625,0.00286865234375
1782846191293396700,3.366396728515625,-0.99102783203125,-0.020233154296875,0.0045318603515625
1782846191303401700,3.376401611328125,-0.98968505859375,-0.021820068359375,0.0017242431640625
1782846191313406700,3.38640673828125,-0.991302490234375,-0.0204010009765625,0.002593994140625
1782846191323411700,3.39641162109375,-0.989471435546875,-0.0207977294921875,0.003265380859375
1782846191333416700,3.406416748046875,-0.9896240234375,-0.0212554931640625,0.002777099609375
1782846191343421700,3.416421630859375,-0.9889678955078125,-0.0210723876953125,0.003204345703125
1782846191353426700,3.4264267578125,-0.990264892578125,-0.021575927734375,0.0025634765625
1782846191363431700,3.436431640625,-0.9893798828125,-0.0214080810546875,0.0040283203125
1782846191373436700,3.446436767578125,-0.9907073974609375,-0.0207061767578125,0.0031280517578125
1782846191383441700,3.456441650390625,-0.990386962890625,-0.021270751953125,0.00128173828125
1782846191393446700,3.46644677734375,-0.99102783203125,-0.021026611328125,0.00244140625
1782846191403451600,3.47645166015625,-0.9897308349609375,-0.021484375,0.0047607421875
1782846191413456600,3.48645654296875,-0.9896087646484375,-0.0214080810546875,0.0059051513671875
1782846191423461600,3.496461669921875,-0.99224853515625,-0.0206146240234375,0.00250244140625
1782846191433466600,3.506466552734375,-0.9908905029296875,-0.0212860107421875,0.0012969970703125
1782846191443471600,3.5164716796875,-0.990325927734375,-0.0213623046875,0.0036163330078125
1782846191453476600,3.5264765625,-0.9888458251953125,-0.0226593017578125,0.0028533935546875
1782846191463481600,3.536481689453125,-0.9908447265625,-0.021881103515625,0.0031585693359375
1782846191473486800,3.54648681640625,-0.9907379150390625,-0.021392822265625,0.00238037109375
1782846191483491800,3.556491943359375,-0.990509033203125,-0.0207672119140625,0.002593994140625
1782846191493496800,3.566496826171875,-0.9912261962890625,-0.0213470458984375,0.00006103515625
1782846191503501800,3.576501708984375,-0.9909210205078125,-0.01959228515625,0.00250244140625
1782846191513506800,3.5865068359375,-0.989532470703125,-0.019317626953125,0.0027008056640625
1782846191523511800,3.59651171875,-0.9909210205078125,-0.0214385986328125,0.0029296875
1782846191533516800,3.606516845703125,-0.990997314453125,-0.02154541015625,0.0037078857421875
1782846191543521800,3.616521728515625,-0.99237060546875,-0.0222625732421875,0.0027008056640625
1782846191553526800,3.62652685546875,-0.9914398193359375,-0.0221710205078125,0.0021820068359375
1782846191563531800,3.63653173828125,-0.99078369140625,-0.0221710205078125,0.0028839111328125
1782846191573536800,3.646536865234375,-0.9915924072265625,-0.0225677490234375,0.002227783203125
1782846191583541800,3.656541748046875,-0.9921875,-0.0227508544921875,0.001800537109375
1782846191593546800,3.666546630859375,-0.990631103515625,-0.020843505859375,0.0026092529296875
1782846191603551700,3.6765517578125,-0.990936279296875,-0.0226898193359375,0.0019989013671875
1782846191613556700,3.686556640625,-0.99139404296875,-0.021728515625,0.0012359619140625
1782846191623562000,3.69656201171875,-0.990570068359375,-0.02178955078125,0.003448486328125
1782846191633567000,3.70656689453125,-0.9911956787109375,-0.020751953125,0.0010528564453125
1782846191643572000,3.716572021484375,-0.9906463623046875,-0.0227203369140625,0.0017547607421875
1782846191653577000,3.726576904296875,-0.9904937744140625,-0.021942138671875,0.0029449462890625
1782846191663582000,3.73658203125,-0.9909210205078125,-0.0210723876953125,0.0028228759765625
1782846191673587000,3.7465869140625,-0.9908447265625,-0.02203369140625,0.001983642578125
1782846191683592200,3.75659228515625,-0.9907989501953125,-0.021728515625,0.0032958984375
1782846191693597200,3.76659716796875,-0.9901885986328125,-0.020660400390625,0.0032806396484375
1782846191703602200,3.776602294921875,-0.989837646484375,-0.021484375,0.0027923583984375
1782846191713607200,3.786607177734375,-0.9899749755859375,-0.021575927734375,0.0029296875
1782846191723612200,3.796612060546875,-0.99029541015625,-0.02130126953125,0.0030517578125
1782846191733617200,3.8066171875,-0.9906768798828125,-0.0226593017578125,0.00408935546875
1782846191743622100,3.8166220703125,-0.98992919921875,-0.021575927734375,0.0034027099609375
1782846191753627100,3.826627197265625,-0.98956298828125,-0.02130126953125,0.0019378662109375
1782846191763632000,3.836632080078125,-0.9908905029296875,-0.022552490234375,0.0030059814453125
1782846191773637000,3.84663720703125,-0.9901275634765625,-0.02239990234375,0.0030670166015625
1782846191783642000,3.85664208984375,-0.991302490234375,-0.0220184326171875,0.0035247802734375
1782846191793647000,3.866647216796875,-0.9916839599609375,-0.020416259765625,0.00238037109375
1782846191803652000,3.876652099609375,-0.9895477294921875,-0.0209197998046875,0.0025787353515625
1782846191813657000,3.886656982421875,-0.9903411865234375,-0.021270751953125,0.0024566650390625
1782846191823662000,3.896662109375,-0.9896240234375,-0.02191162109375,0.001983642578125
1782846191833667000,3.9066669921875,-0.9903106689453125,-0.0209808349609375,0.00445556640625
1782846191843672000,3.916672119140625,-0.9912872314453125,-0.02178955078125,0.004119873046875
1782846191853677000,3.926677001953125,-0.991119384765625,-0.0223236083984375,0.0019989013671875
1782846191863682000,3.93668212890625,-0.989898681640625,-0.0205535888671875,0.0019683837890625
1782846191873687000,3.94668701171875,-0.99017333984375,-0.0212554931640625,0.00323486328125
1782846191883692000,3.956692138671875,-0.9903106689453125,-0.0220489501953125,0.0017242431640625
1782846191893697000,3.966697021484375,-0.9910125732421875,-0.0217132568359375,0.001617431640625
1782846191903702000,3.976701904296875,-0.990478515625,-0.02239990234375,0.0038604736328125
1782846191913707000,3.98670703125,-0.990570068359375,-0.0222015380859375,0.0019073486328125
1782846191923712000,3.9967119140625,-0.98974609375,-0.02099609375,0.0029144287109375
1782846191933717000,4.006717041015625,-0.98907470703125,-0.020477294921875,0.0031890869140625
1782846191943722000,4.016721923828125,-0.990478515625,-0.021484375,0.002532958984375
1782846191953727000,4.02672705078125,-0.9895782470703125,-0.02252197265625,0.0018310546875
1782846191963732000,4.03673193359375,-0.9894561767578125,-0.0216217041015625,0.003692626953125
1782846191973737000,4.046737060546875,-0.988861083984375,-0.0220184326171875,0.002777099609375
1782846191983742000,4.056741943359375,-0.99114990234375,-0.021759033203125,0.001800537109375
1782846191993747000,4.066746826171875,-0.992401123046875,-0.021148681640625,0.0002899169921875
1782846192003752000,4.076751953125,-0.99114990234375,-0.0214080810546875,0.0019073486328125
1782846192013757000,4.0867568359375,-0.990386962890625,-0.0212554931640625,0.00250244140625
1782846192023762000,4.096761962890625,-0.9907989501953125,-0.021484375,0.002777099609375
1782846192033767000,4.106766845703125,-0.989837646484375,-0.0211181640625,0.001922607421875
1782846192043772000,4.11677197265625,-0.9888153076171875,-0.0228118896484375,0.0032958984375
1782846192053777000,4.12677685546875,-0.9910125732421875,-0.0217742919921875,0.001953125
1782846192063782000,4.136781982421875,-0.990264892578125,-0.020782470703125,0.002593994140625
1782846192073787000,4.146786865234375,-0.9907379150390625,-0.02227783203125,0.0028228759765625
1782846192083792000,4.1567919921875,-0.9895782470703125,-0.0205841064453125,0.003143310546875
1782846192093796900,4.166796875,-0.990631103515625,-0.0216522216796875,0.0027923583984375
1782846192103801900,4.1768017578125,-0.9906005859375,-0.0213165283203125,0.002410888671875
1782846192113806800,4.186806884765625,-0.990753173828125,-0.0213470458984375,0.0040435791015625
1782846192123811800,4.196811767578125,-0.990234375,-0.0218353271484375,0.001434326171875
1782846192133816800,4.20681689453125,-0.9899444580078125,-0.02166748046875,0.0016937255859375
1782846192143822000,4.216822021484375,-0.991119384765625,-0.0215606689453125,0.0035858154296875
1782846192153827000,4.2268271484375,-0.989288330078125,-0.0209503173828125,0.00128173828125
1782846192163832000,4.23683203125,-0.989990234375,-0.0222015380859375,0.0026702880859375
1782846192173837000,4.246837158203125,-0.9918365478515625,-0.02227783203125,0.0041961669921875
1782846192183842000,4.256842041015625,-0.9894256591796875,-0.0202484130859375,0.00262451171875
1782846192193847000,4.266846923828125,-0.9901275634765625,-0.020050048828125,0.00396728515625
1782846192203852000,4.27685205078125,-0.992034912109375,-0.02288818359375,0.004425048828125
1782846192213857000,4.28685693359375,-0.9899444580078125,-0.0215301513671875,0.001678466796875
1782846192223862000,4.296862060546875,-0.9910888671875,-0.0224761962890625,0.0029754638671875
1782846192233867000,4.306866943359375,-0.9904327392578125,-0.0205078125,0.0032501220703125
1782846192243872000,4.3168720703125,-0.9912872314453125,-0.0218048095703125,0.003204345703125
1782846192253877000,4.326876953125,-0.9897918701171875,-0.021820068359375,0.001922607421875
1782846192263882000,4.336882080078125,-0.990875244140625,-0.023651123046875,0.002105712890625
1782846192273888000,4.346887939453125,-0.990631103515625,-0.0230712890625,0.003570556640625
1782846192283892000,4.35689208984375,-0.991302490234375,-0.0214385986328125,0.001312255859375
1782846192293897000,4.36689697265625,-0.9907684326171875,-0.02203369140625,0.0031585693359375
1782846192303903000,4.376903076171875,-0.99066162109375,-0.0212860107421875,0.0032806396484375
1782846192313908000,4.386907958984375,-0.9915618896484375,-0.02154541015625,0.003204345703125
1782846192323912000,4.396911865234375,-0.9910888671875,-0.02001953125,0.002410888671875
1782846192333917000,4.4069169921875,-0.9911956787109375,-0.0218353271484375,0.003875732421875
1782846192343923000,4.4169228515625,-0.9913330078125,-0.0215606689453125,0.0033111572265625
1782846192353928000,4.426927978515625,-0.99017333984375,-0.0218048095703125,0.0035858154296875
1782846192363933000,4.436932861328125,-0.989105224609375,-0.0218658447265625,0.0030975341796875
1782846192373938200,4.446938232421875,-0.99114990234375,-0.02142333984375,0.0043487548828125
1782846192383943200,4.456943115234375,-0.99249267578125,-0.0208587646484375,0.00299072265625
1782846192393948200,4.4669482421875,-0.9906158447265625,-0.0216064453125,0.001800537109375
1782846192403953200,4.476953125,-0.9904327392578125,-0.0217132568359375,0.0028228759765625
1782846192413958100,4.486958251953125,-0.9903106689453125,-0.021331787109375,0.0029449462890625
1782846192423963100,4.496963134765625,-0.9904632568359375,-0.0219573974609375,0.001983642578125
1782846192433968000,4.506968017578125,-0.991363525390625,-0.0209808349609375,0.002899169921875
1782846192443973000,4.51697314453125,-0.990142822265625,-0.0209197998046875,0.00213623046875
1782846192453978000,4.52697802734375,-0.990509033203125,-0.02197265625,0.00262451171875
1782846192463983000,4.536983154296875,-0.9896697998046875,-0.0208740234375,0.002166748046875
1782846192473988400,4.54698828125,-0.9903717041015625,-0.0213470458984375,0.0011138916015625
1782846192483993300,4.556993408203125,-0.9907379150390625,-0.021759033203125,0.0036773681640625
1782846192493998300,4.566998291015625,-0.99053955078125,-0.0223388671875,0.0026092529296875
1782846192504003300,4.57700341796875,-0.99114990234375,-0.021484375,0.004852294921875
1782846192514008300,4.58700830078125,-0.9899139404296875,-0.02117919921875,0.0018768310546875
1782846192524013300,4.597013427734375,-0.98944091796875,-0.0194091796875,0.0013885498046875
1782846192534018300,4.607018310546875,-0.9896392822265625,-0.02215576171875,0.003997802734375
1782846192544023300,4.617023193359375,-0.991180419921875,-0.0219573974609375,0.00274658203125
1782846192554028300,4.6270283203125,-0.9891510009765625,-0.021270751953125,0.002593994140625
1782846192564033300,4.637033203125,-0.9900360107421875,-0.0215606689453125,0.0030059814453125
1782846192574038300,4.647038330078125,-0.991729736328125,-0.0218963623046875,0.0043182373046875
1782846192584043300,4.657043212890625,-0.9910888671875,-0.0225677490234375,0.002471923828125
1782846192594048300,4.66704833984375,-0.9916229248046875,-0.0215301513671875,0.0012359619140625
1782846192604053200,4.67705322265625,-0.9907989501953125,-0.021484375,0.002349853515625
1782846192614058200,4.687058349609375,-0.9891204833984375,-0.0219573974609375,0.00262451171875
1782846192624063200,4.697063232421875,-0.990936279296875,-0.0217132568359375,0.0030364990234375
1782846192634068200,4.707068115234375,-0.9897613525390625,-0.0223236083984375,0.0017547607421875
1782846192644073200,4.7170732421875,-0.9902496337890625,-0.0215606689453125,0.00213623046875
1782846192654078200,4.727078125,-0.9908905029296875,-0.02093505859375,0.00103759765625
1782846192664083200,4.737083251953125,-0.9897918701171875,-0.0227508544921875,0.003387451171875
1782846192674088200,4.747088134765625,-0.9911956787109375,-0.02154541015625,0.0031280517578125
1782846192684093200,4.75709326171875,-0.9903411865234375,-0.02203369140625,0.0027923583984375
1782846192694098200,4.76709814453125,-0.9886627197265625,-0.02130126953125,0.000762939453125
1782846192704103200,4.777103271484375,-0.989715576171875,-0.0212249755859375,0.00128173828125
1782846192714108200,4.787108154296875,-0.9907073974609375,-0.0225830078125,0.0034637451171875
1782846192724113200,4.797113037109375,-0.9916229248046875,-0.021240234375,0.0033416748046875
1782846192734118100,4.8071181640625,-0.9898681640625,-0.021942138671875,0.002838134765625
1782846192744123400,4.817123291015625,-0.990142822265625,-0.0213165283203125,0.0026397705078125
1782846192754128400,4.82712841796875,-0.9901275634765625,-0.0218658447265625,0.00152587890625
1782846192764133400,4.83713330078125,-0.9907989501953125,-0.021484375,0.0013275146484375
1782846192774138400,4.847138427734375,-0.9906463623046875,-0.0203399658203125,0.00262451171875
1782846192784143400,4.857143310546875,-0.989501953125,-0.021026611328125,0.0013427734375
1782846192794148400,4.8671484375,-0.990081787109375,-0.022247314453125,0.0027923583984375
1782846192804153300,4.8771533203125,-0.99188232421875,-0.02264404296875,0.0013885498046875
1782846192814158300,4.887158447265625,-0.989349365234375,-0.0214080810546875,0.00091552734375
1782846192824163300,4.897163330078125,-0.99066162109375,-0.0216522216796875,0.0020904541015625
1782846192834168300,4.907168212890625,-0.991119384765625,-0.021209716796875,0.002899169921875
1782846192844173300,4.91717333984375,-0.99078369140625,-0.0220184326171875,0.0016326904296875
1782846192854178300,4.92717822265625,-0.9906768798828125,-0.0222320556640625,0.001678466796875
1782846192864183600,4.93718359375,-0.9913482666015625,-0.021697998046875,0.0037689208984375
1782846192874188500,4.9471884765625,-0.989349365234375,-0.02044677734375,0.00311279296875
1782846192884193500,4.957193603515625,-0.9893951416015625,-0.020751953125,0.002410888671875
1782846192894198500,4.967198486328125,-0.9914703369140625,-0.02081298828125,0.0020599365234375
1782846192904203500,4.97720361328125,-0.9905548095703125,-0.0217437744140625,0.002044677734375
1782846192914208500,4.98720849609375,-0.9908447265625,-0.0208892822265625,0.0042724609375
1782846192924213500,4.997213623046875,-0.9898681640625,-0.0210723876953125,0.0024566650390625
1782846192934218500,5.007218505859375,-0.9915924072265625,-0.022216796875,0.00177001953125
1782846192944223500,5.017223388671875,-0.9904937744140625,-0.02142333984375,0.0018463134765625
1782846192954228500,5.027228515625,-0.9909210205078125,-0.0218048095703125,0.003570556640625
1782846192964233500,5.0372333984375,-0.9916534423828125,-0.021575927734375,0.003387451171875
1782846192974238500,5.047238525390625,-0.9898834228515625,-0.02117919921875,0.002410888671875
1782846192984243500,5.057243408203125,-0.990386962890625,-0.022674560546875,0.00189208984375
1782846192994248400,5.06724853515625,-0.990264892578125,-0.022186279296875,0.002899169921875
1782846193004253400,5.07725341796875,-0.9901885986328125,-0.021270751953125,0.0023956298828125
1782846193014258400,5.087258544921875,-0.991302490234375,-0.0214996337890625,0.000823974609375
1782846193024263400,5.097263427734375,-0.9905548095703125,-0.0208740234375,0.0014801025390625
1782846193034268400,5.107268310546875,-0.991119384765625,-0.0219879150390625,0.002655029296875
1782846193044273400,5.1172734375,-0.98931884765625,-0.02081298828125,0.00274658203125
1782846193054278400,5.1272783203125,-0.990570068359375,-0.02191162109375,0.0030059814453125
1782846193064283400,5.137283447265625,-0.9906005859375,-0.021728515625,0.003387451171875
1782846193074288400,5.147288330078125,-0.9910125732421875,-0.02154541015625,0.0037841796875
1782846193084293400,5.15729345703125,-0.9905853271484375,-0.021148681640625,0.00311279296875
1782846193094298400,5.16729833984375,-0.9916229248046875,-0.022003173828125,0.00421142578125
1782846193104303400,5.177303466796875,-0.9914093017578125,-0.021881103515625,0.002227783203125
1782846193114308400,5.187308349609375,-0.98980712890625,-0.0202789306640625,0.003265380859375
1782846193124313300,5.197313232421875,-0.9898834228515625,-0.021453857421875,0.0038604736328125
1782846193134318300,5.207318359375,-0.9899444580078125,-0.02178955078125,0.00262451171875
1782846193144323300,5.2173232421875,-0.990966796875,-0.021636962890625,0.0034027099609375
1782846193154328300,5.227328369140625,-0.9909820556640625,-0.0217437744140625,0.00177001953125
1782846193164333300,5.237333251953125,-0.9905242919921875,-0.0222015380859375,0.0011749267578125
1782846193174338300,5.24733837890625,-0.991790771484375,-0.022705078125,0.002044677734375
1782846193184343300,5.25734326171875,-0.9915771484375,-0.02203369140625,0.0020599365234375
1782846193194348300,5.267348388671875,-0.9911651611328125,-0.021087646484375,0.0024261474609375
1782846193204353300,5.277353271484375,-0.9898223876953125,-0.02099609375,0.0012054443359375
1782846193214358300,5.287358154296875,-0.9895477294921875,-0.0221710205078125,0.001373291015625
1782846193224363300,5.29736328125,-0.98876953125,-0.02130126953125,0.003875732421875
1782846193234368300,5.3073681640625,-0.9900665283203125,-0.0218963623046875,0.0025634765625
1782846193244373200,5.317373291015625,-0.9905548095703125,-0.021331787109375,0.0018157958984375
1782846193254378200,5.327378173828125,-0.9914398193359375,-0.02117919921875,0.002685546875
1782846193264383200,5.33738330078125,-0.9914398193359375,-0.0212554931640625,0.0026397705078125
1782846193274388200,5.34738818359375,-0.9893035888671875,-0.021881103515625,0.0023345947265625
1782846193284393200,5.357393310546875,-0.99188232421875,-0.021697998046875,0.0014801025390625
1782846193294398200,5.367398193359375,-0.991455078125,-0.0207977294921875,0.0029296875
1782846193304403200,5.3774033203125,-0.9903564453125,-0.0216827392578125,0.003387451171875
1782846193314408200,5.387408203125,-0.9916839599609375,-0.0215301513671875,0.0035247802734375
1782846193324413200,5.3974130859375,-0.989410400390625,-0.020538330078125,0.0051116943359375
1782846193334418200,5.407418212890625,-0.989776611328125,-0.0213165283203125,0.00244140625
1782846193344423200,5.417423095703125,-0.98968505859375,-0.020751953125,0.003204345703125
1782846193354428400,5.427428466796875,-0.9896697998046875,-0.0197906494140625,0.0010986328125
1782846193364433400,5.437433349609375,-0.9903106689453125,-0.0224151611328125,0.00115966796875
1782846193374438400,5.4474384765625,-0.9903564453125,-0.0215911865234375,0.002593994140625
1782846193384443400,5.457443359375,-0.9894561767578125,-0.021270751953125,0.004058837890625
1782846193394448400,5.467448486328125,-0.990325927734375,-0.022216796875,0.0034027099609375
1782846193404453400,5.477453369140625,-0.9915924072265625,-0.0204315185546875,0.0023345947265625
1782846193414458400,5.487458251953125,-0.9900360107421875,-0.0209503173828125,0.00103759765625
1782846193424463400,5.49746337890625,-0.99114990234375,-0.020904541015625,0.0032501220703125
1782846193434468400,5.50746826171875,-0.9910888671875,-0.022369384765625,0.0030517578125
1782846193444473300,5.517473388671875,-0.990386962890625,-0.0222015380859375,0.00146484375
1782846193454478300,5.527478271484375,-0.9896697998046875,-0.0198822021484375,0.00408935546875
1782846193464483300,5.5374833984375,-0.9901580810546875,-0.02239990234375,0.001953125
1782846193474488600,5.547488525390625,-0.990509033203125,-0.022216796875,0.0032196044921875
1782846193484493600,5.55749365234375,-0.9900360107421875,-0.0208282470703125,0.0035247802734375
1782846193494498600,5.56749853515625,-0.98944091796875,-0.02203369140625,0.002716064453125
1782846193504503600,5.577503662109375,-0.990020751953125,-0.021240234375,0.00274658203125
1782846193514508500,5.587508544921875,-0.9888458251953125,-0.0219268798828125,0.002105712890625
1782846193524513500,5.597513427734375,-0.9917755126953125,-0.0214996337890625,0.0021209716796875
1782846193534518500,5.6075185546875,-0.9898834228515625,-0.020751953125,0.003936767578125
1782846193544523500,5.6175234375,-0.9896240234375,-0.021240234375,0.0029449462890625
1782846193554528500,5.627528564453125,-0.990142822265625,-0.022186279296875,0.00140380859375
1782846193564533500,5.637533447265625,-0.99114990234375,-0.0207977294921875,0.0013275146484375
1782846193574538500,5.64753857421875,-0.9896240234375,-0.0225067138671875,0.003509521484375
1782846193584543500,5.65754345703125,-0.990386962890625,-0.0218658447265625,0.0039215087890625
1782846193594548500,5.667548583984375,-0.9912872314453125,-0.0222320556640625,0.0019989013671875
1782846193604553500,5.677553466796875,-0.990631103515625,-0.023406982421875,0.0034027099609375
1782846193614558500,5.687558349609375,-0.9910430908203125,-0.0222625732421875,0.004852294921875
1782846193624563500,5.6975634765625,-0.9912261962890625,-0.0216827392578125,0.00396728515625
1782846193634568400,5.707568359375,-0.989990234375,-0.0206298828125,0.003143310546875
1782846193644573400,5.717573486328125,-0.9915771484375,-0.0213623046875,0.00311279296875
1782846193654578400,5.727578369140625,-0.991302490234375,-0.02215576171875,0.00238037109375
1782846193664583400,5.73758349609375,-0.990478515625,-0.021484375,0.0019989013671875
1782846193674588400,5.74758837890625,-0.9907684326171875,-0.0201263427734375,0.0028839111328125
1782846193684593400,5.757593505859375,-0.9904632568359375,-0.0209197998046875,0.002685546875
1782846193694598400,5.767598388671875,-0.9902496337890625,-0.022491455078125,0.003570556640625
1782846193704603400,5.777603271484375,-0.9902801513671875,-0.023345947265625,0.00225830078125
1782846193714608400,5.7876083984375,-0.9896697998046875,-0.0207061767578125,0.002532958984375
1782846193724613400,5.79761328125,-0.9904632568359375,-0.02154541015625,0.0009307861328125
1782846193734618400,5.807618408203125,-0.9897308349609375,-0.0232696533203125,0.0016021728515625
1782846193744623400,5.817623291015625,-0.991302490234375,-0.021514892578125,0.0022430419921875
1782846193754628400,5.82762841796875,-0.98974609375,-0.020782470703125,0.003326416015625
1782846193764633300,5.83763330078125,-0.9900360107421875,-0.0211181640625,0.0022125244140625
1782846193774638300,5.847638427734375,-0.991058349609375,-0.02130126953125,0.001495361328125
1782846193784643300,5.857643310546875,-0.9889678955078125,-0.01922607421875,0.0024871826171875
1782846193794648300,5.8676484375,-0.9915618896484375,-0.0208587646484375,0.0032806396484375
1782846193804653300,5.8776533203125,-0.9908599853515625,-0.0212860107421875,0.003204345703125
1782846193814658300,5.887658203125,-0.9903717041015625,-0.020538330078125,0.001556396484375
1782846193824663300,5.897663330078125,-0.9916839599609375,-0.022216796875,0.003448486328125
1782846193834668300,5.907668212890625,-0.98980712890625,-0.0221099853515625,0.0025634765625
1782846193844673300,5.91767333984375,-0.9901580810546875,-0.02069091796875,0.00396728515625
1782846193854678300,5.92767822265625,-0.9904022216796875,-0.0216827392578125,0.00372314453125
1782846193864683300,5.937683349609375,-0.9904632568359375,-0.0201568603515625,0.0021209716796875
1782846193874688500,5.9476884765625,-0.9907684326171875,-0.021575927734375,0.00238037109375
1782846193884693500,5.957693603515625,-0.989715576171875,-0.0220947265625,0.001800537109375
1782846193894698500,5.967698486328125,-0.9896697998046875,-0.0228118896484375,0.000457763671875
1782846193904703500,5.977703369140625,-0.9909210205078125,-0.0211639404296875,0.0024871826171875
1782846193914708500,5.98770849609375,-0.9909515380859375,-0.02020263671875,0.0039825439453125
1782846193924713500,5.99771337890625,-0.99114990234375,-0.0222320556640625,0.0018768310546875
1782846193934718500,6.007718505859375,-0.9904937744140625,-0.022247314453125,0.0029144287109375
1782846193944723500,6.017723388671875,-0.9913177490234375,-0.0214691162109375,0.00244140625
1782846193954728400,6.027728515625,-0.989501953125,-0.021728515625,0.002593994140625
1782846193964733400,6.0377333984375,-0.9899139404296875,-0.021514892578125,0.0037078857421875
1782846193974738400,6.047738525390625,-0.990936279296875,-0.021575927734375,0.0028839111328125
1782846193984743400,6.057743408203125,-0.9912261962890625,-0.0210418701171875,0.003082275390625
1782846193994748400,6.06774853515625,-0.990692138671875,-0.0216827392578125,0.0032501220703125
1782846194004753400,6.07775341796875,-0.99102783203125,-0.0220489501953125,0.0029296875
1782846194014758400,6.08775830078125,-0.991241455078125,-0.0212860107421875,0.00189208984375
1782846194024763400,6.097763427734375,-0.9900054931640625,-0.021148681640625,0.00335693359375
1782846194034768400,6.107768310546875,-0.989990234375,-0.0201568603515625,0.0012054443359375
1782846194044773400,6.1177734375,-0.9907684326171875,-0.021240234375,0.0035858154296875
1782846194054778400,6.1277783203125,-0.991180419921875,-0.0204315185546875,0.003021240234375
1782846194064783400,6.137783447265625,-0.991302490234375,-0.020965576171875,0.0022430419921875
1782846194074788400,6.147788330078125,-0.991607666015625,-0.02081298828125,0.00201416015625
1782846194084793300,6.15779345703125,-0.989990234375,-0.021484375,0.001495361328125
1782846194094798300,6.16779833984375,-0.9903564453125,-0.021148681640625,0.0003509521484375
1782846194104803300,6.17780322265625,-0.9903411865234375,-0.0198211669921875,0.00262451171875
1782846194114808300,6.187808349609375,-0.99029541015625,-0.02099609375,0.003204345703125
1782846194124813300,6.197813232421875,-0.991424560546875,-0.0224609375,0.0032196044921875
1782846194134818300,6.207818359375,-0.9916839599609375,-0.021942138671875,0.002288818359375
1782846194144823300,6.2178232421875,-0.9903564453125,-0.0214996337890625,0.0034942626953125
1782846194154828300,6.227828369140625,-0.9904327392578125,-0.02093505859375,0.004638671875
1782846194164833300,6.237833251953125,-0.9921417236328125,-0.0223388671875,0.0028228759765625
1782846194174838300,6.24783837890625,-0.9903564453125,-0.022125244140625,0.0023193359375
1782846194184843300,6.25784326171875,-0.98931884765625,-0.0212249755859375,0.0017547607421875
1782846194194848300,6.26784814453125,-0.988861083984375,-0.0216522216796875,0.0016632080078125
1782846194204853200,6.277853271484375,-0.99017333984375,-0.0224609375,0.003326416015625
1782846194214858200,6.287858154296875,-0.98974609375,-0.0215301513671875,0.0024871826171875
1782846194224863200,6.29786328125,-0.991058349609375,-0.02142333984375,0.002685546875
1782846194234868200,6.3078681640625,-0.9908447265625,-0.0223846435546875,0.0016021728515625
1782846194244873200,6.317873291015625,-0.99078369140625,-0.02142333984375,0.0022125244140625
1782846194254878200,6.327878173828125,-0.99029541015625,-0.0209808349609375,0.0032958984375
1782846194264883200,6.33788330078125,-0.99310302734375,-0.019989013671875,0.0045013427734375
1782846194274888200,6.34788818359375,-0.9924468994140625,-0.0224151611328125,0.00323486328125
1782846194284893200,6.35789306640625,-0.9904022216796875,-0.0223388671875,0.0037689208984375
1782846194294898200,6.367898193359375,-0.9910430908203125,-0.021209716796875,0.0022125244140625
1782846194304903200,6.377903076171875,-0.9897918701171875,-0.020294189453125,0.0026702880859375
1782846194314908200,6.387908203125,-0.9897918701171875,-0.0226898193359375,0.00225830078125
1782846194324913200,6.3979130859375,-0.9902801513671875,-0.021942138671875,0.0019989013671875
1782846194334918400,6.40791845703125,-0.990997314453125,-0.0211944580078125,0.00457763671875
1782846194344923400,6.41792333984375,-0.9906158447265625,-0.0229949951171875,0.002593994140625
1782846194354928400,6.427928466796875,-0.98992919921875,-0.021148681640625,0.0025482177734375
1782846194364933400,6.437933349609375,-0.9906768798828125,-0.0204010009765625,0.0019073486328125
1782846194374938400,6.4479384765625,-0.9904937744140625,-0.021881103515625,0.0016326904296875
1782846194384943400,6.457943359375,-0.989776611328125,-0.0212860107421875,0.00360107421875
1782846194394948600,6.467948486328125,-0.9892578125,-0.0220794677734375,0.0024261474609375
1782846194404953600,6.47795361328125,-0.9904937744140625,-0.0223236083984375,0.003387451171875
1782846194414958600,6.48795849609375,-0.9899749755859375,-0.021942138671875,0.003021240234375
1782846194424963600,6.497963623046875,-0.990631103515625,-0.0219573974609375,0.0030975341796875
1782846194434968600,6.507968505859375,-0.991180419921875,-0.0223846435546875,0.00177001953125
1782846194444973600,6.5179736328125,-0.988983154296875,-0.021575927734375,0.002716064453125
1782846194454978600,6.527978515625,-0.9899444580078125,-0.021728515625,0.0039825439453125
1782846194464983600,6.537983642578125,-0.99139404296875,-0.0218963623046875,0.0028228759765625
1782846194474988800,6.54798876953125,-0.9906463623046875,-0.0207366943359375,0.001373291015625
1782846194484993800,6.557993896484375,-0.9889373779296875,-0.0218658447265625,0.0014190673828125
1782846194494998800,6.567998779296875,-0.9906158447265625,-0.021514892578125,0.0036468505859375
1782846194505003800,6.578003662109375,-0.9919281005859375,-0.0218048095703125,0.0025787353515625
1782846194515008800,6.5880087890625,-0.991455078125,-0.0213623046875,0.001434326171875
1782846194525013800,6.598013671875,-0.9897308349609375,-0.021575927734375,0.001678466796875
1782846194535018800,6.608018798828125,-0.9900360107421875,-0.0225830078125,0.0022125244140625
1782846194545023700,6.618023681640625,-0.990570068359375,-0.021636962890625,0.0023956298828125
1782846194555028700,6.62802880859375,-0.9911346435546875,-0.0211029052734375,0.0034637451171875
1782846194565033700,6.63803369140625,-0.9912872314453125,-0.02215576171875,0.002655029296875
1782846194575038700,6.648038818359375,-0.9915008544921875,-0.0219573974609375,0.0041351318359375
1782846194585043700,6.658043701171875,-0.9899139404296875,-0.021209716796875,0.004486083984375
1782846194595048700,6.668048583984375,-0.989105224609375,-0.0225067138671875,0.0025787353515625
1782846194605053700,6.6780537109375,-0.9897918701171875,-0.021881103515625,0.002349853515625
1782846194615058700,6.68805859375,-0.9911041259765625,-0.01947021484375,0.003387451171875
1782846194625063700,6.698063720703125,-0.9888153076171875,-0.0212554931640625,0.0034942626953125
1782846194635068700,6.708068603515625,-0.9903717041015625,-0.020965576171875,0.002685546875
1782846194645073700,6.71807373046875,-0.9904937744140625,-0.02093505859375,0.00274658203125
1782846194655078700,6.72807861328125,-0.9898223876953125,-0.022613525390625,0.00286865234375
1782846194665083600,6.738083740234375,-0.9903717041015625,-0.022613525390625,0.00274658203125
1782846194675088600,6.748088623046875,-0.989959716796875,-0.021270751953125,0.0022125244140625
1782846194685093600,6.75809375,-0.98974609375,-0.0203399658203125,0.0017547607421875
1782846194695098600,6.7680986328125,-0.990509033203125,-0.0216522216796875,0.003173828125
1782846194705103600,6.778103515625,-0.9904327392578125,-0.022430419921875,0.0019989013671875
1782846194715108600,6.788108642578125,-0.99029541015625,-0.0229949951171875,0.003936767578125
1782846194725113600,6.798113525390625,-0.9898681640625,-0.0216522216796875,0.001068115234375
1782846194735118600,6.80811865234375,-0.98895263671875,-0.0208282470703125,0.002593994140625
1782846194745123600,6.81812353515625,-0.990447998046875,-0.0211029052734375,0.0032958984375
1782846194755128600,6.828128662109375,-0.9911651611328125,-0.020355224609375,0.00274658203125
1782846194765133600,6.838133544921875,-0.9921722412109375,-0.0213470458984375,0.003204345703125
1782846194775138600,6.848138671875,-0.9910125732421875,-0.0215301513671875,0.001129150390625
1782846194785143600,6.8581435546875,-0.9907073974609375,-0.0228729248046875,0.0018768310546875
1782846194795148500,6.8681484375,-0.990142822265625,-0.0216064453125,0.0017242431640625
1782846194805153500,6.878153564453125,-0.9915618896484375,-0.0219268798828125,0.001068115234375
1782846194815158500,6.888158447265625,-0.9893951416015625,-0.0223388671875,0.003509521484375
1782846194825163500,6.89816357421875,-0.990631103515625,-0.0215301513671875,0.0029754638671875
1782846194835168500,6.90816845703125,-0.9901123046875,-0.0225677490234375,0.0031890869140625
1782846194845173500,6.918173583984375,-0.990142822265625,-0.0209503173828125,0.00201416015625
1782846194855178500,6.928178466796875,-0.989898681640625,-0.0213470458984375,0.0036773681640625
1782846194865183500,6.93818359375,-0.9906768798828125,-0.02239990234375,0.002899169921875
1782846194875188500,6.9481884765625,-0.9901123046875,-0.0226593017578125,0.0026397705078125
1782846194885193500,6.958193359375,-0.9904632568359375,-0.022308349609375,0.0011444091796875
1782846194895198500,6.968198486328125,-0.99072265625,-0.021331787109375,0.0023040771484375
1782846194905203500,6.978203369140625,-0.9908905029296875,-0.021942138671875,0.0037384033203125
1782846194915208700,6.988208740234375,-0.9898529052734375,-0.02215576171875,0.0030670166015625
1782846194925213700,6.998213623046875,-0.9905853271484375,-0.0214691162109375,0.001922607421875
1782846194935218700,7.00821875,-0.990142822265625,-0.02142333984375,0.00335693359375
1782846194945223700,7.0182236328125,-0.98968505859375,-0.0218963623046875,0.003204345703125
1782846194955228700,7.028228759765625,-0.9895782470703125,-0.0223388671875,0.002532958984375
1782846194965233700,7.038233642578125,-0.98992919921875,-0.0212249755859375,0.0025177001953125
1782846194975238700,7.04823876953125,-0.991241455078125,-0.0211334228515625,0.00360107421875
1782846194985243600,7.05824365234375,-0.98956298828125,-0.0208892822265625,0.00225830078125
1782846194995248600,7.06824853515625,-0.990234375,-0.023193359375,0.0022735595703125
1782846195005253600,7.078253662109375,-0.98876953125,-0.0219573974609375,0.0029754638671875
1782846195015258600,7.088258544921875,-0.9892578125,-0.0211639404296875,0.0016632080078125
1782846195025263600,7.098263671875,-0.9899139404296875,-0.022216796875,0.00054931640625
1782846195035268600,7.1082685546875,-0.990509033203125,-0.021759033203125,0.0033416748046875
1782846195045273600,7.118273681640625,-0.9905242919921875,-0.021240234375,0.002288818359375
1782846195055278600,7.128278564453125,-0.9893646240234375,-0.0212249755859375,0.0020904541015625
1782846195065283600,7.13828369140625,-0.990264892578125,-0.0220489501953125,0.002349853515625
1782846195075288600,7.14828857421875,-0.9902496337890625,-0.0211639404296875,0.0027618408203125
1782846195085293600,7.15829345703125,-0.988800048828125,-0.020538330078125,0.0023956298828125
1782846195095298600,7.168298583984375,-0.9914398193359375,-0.0213775634765625,0.00238037109375
1782846195105303600,7.178303466796875,-0.9906768798828125,-0.022064208984375,0.0012969970703125
1782846195115308500,7.18830859375,-0.99005126953125,-0.0217132568359375,0.003265380859375
1782846195125313500,7.1983134765625,-0.989501953125,-0.0224609375,0.0021820068359375
1782846195135318500,7.208318603515625,-0.990753173828125,-0.0213775634765625,0.001708984375
1782846195145323500,7.218323486328125,-0.9903411865234375,-0.0216217041015625,0.00323486328125
1782846195155328500,7.22832861328125,-0.9917755126953125,-0.0215911865234375,0.0027313232421875
1782846195165333500,7.23833349609375,-0.9908905029296875,-0.021575927734375,0.0028533935546875
1782846195175338500,7.24833837890625,-0.989990234375,-0.0218505859375,0.0035247802734375
1782846195185343500,7.258343505859375,-0.9901275634765625,-0.02301025390625,0.0045623779296875
1782846195195348500,7.268348388671875,-0.9911041259765625,-0.020355224609375,0.00433349609375
1782846195205353500,7.278353515625,-0.990753173828125,-0.0229034423828125,0.0015716552734375
1782846195215358500,7.2883583984375,-0.9904937744140625,-0.0216064453125,0.0028228759765625
1782846195225363500,7.298363525390625,-0.99017333984375,-0.02099609375,0.003509521484375
1782846195235368400,7.308368408203125,-0.9902191162109375,-0.0225982666015625,0.0039825439453125
1782846195245373400,7.31837353515625,-0.9900970458984375,-0.021514892578125,0.002685546875
1782846195255378400,7.32837841796875,-0.9900054931640625,-0.0215301513671875,0.002960205078125
1782846195265383400,7.338383544921875,-0.990570068359375,-0.021820068359375,0.00347900390625
1782846195275388400,7.348388427734375,-0.990509033203125,-0.021026611328125,0.001708984375
1782846195285393400,7.358393310546875,-0.9896392822265625,-0.0212249755859375,0.00323486328125
1782846195295398400,7.3683984375,-0.9903411865234375,-0.0202178955078125,0.002960205078125
1782846195305403400,7.3784033203125,-0.9903106689453125,-0.022003173828125,0.003936767578125
1782846195315408600,7.38840869140625,-0.9901275634765625,-0.0223541259765625,0.003692626953125
1782846195325413600,7.39841357421875,-0.99029541015625,-0.02099609375,0.0020294189453125
1782846195335418600,7.408418701171875,-0.9914398193359375,-0.0218353271484375,0.0027923583984375
1782846195345423600,7.418423583984375,-0.989959716796875,-0.022064208984375,0.0045623779296875
1782846195355428600,7.4284287109375,-0.9897003173828125,-0.021759033203125,0.0033416748046875
1782846195365433600,7.43843359375,-0.9908905029296875,-0.021759033203125,0.004302978515625
1782846195375438600,7.4484384765625,-0.99053955078125,-0.0205230712890625,0.00311279296875
1782846195385443600,7.458443603515625,-0.9902191162109375,-0.0213775634765625,0.0038909912109375
1782846195395448600,7.468448486328125,-0.9900360107421875,-0.0223846435546875,0.0033416748046875
1782846195405453600,7.47845361328125,-0.990997314453125,-0.0228729248046875,0.0016632080078125
1782846195415458600,7.48845849609375,-0.9905853271484375,-0.02142333984375,0.0022125244140625
1782846195425463600,7.498463623046875,-0.9907379150390625,-0.0216827392578125,0.003204345703125
1782846195435468800,7.50846875,-0.989715576171875,-0.0218963623046875,0.00323486328125
1782846195445473800,7.518473876953125,-0.991302490234375,-0.02166748046875,0.00250244140625
1782846195455478800,7.528478759765625,-0.99151611328125,-0.019805908203125,0.001678466796875
1782846195465483800,7.53848388671875,-0.9911956787109375,-0.020416259765625,0.0017242431640625
1782846195475488500,7.548488525390625,-0.9904022216796875,-0.021087646484375,0.0020904541015625
1782846195485493500,7.558493408203125,-0.99078369140625,-0.0215911865234375,0.0037841796875
1782846195495498500,7.56849853515625,-0.9903411865234375,-0.0216827392578125,0.00347900390625
1782846195505503500,7.57850341796875,-0.990875244140625,-0.0214996337890625,0.0024871826171875
1782846195515508500,7.588508544921875,-0.990875244140625,-0.0213623046875,0.0028076171875
1782846195525513500,7.598513427734375,-0.9901580810546875,-0.022003173828125,0.00152587890625
1782846195535518500,7.6085185546875,-0.9910888671875,-0.0218658447265625,0.002288818359375
1782846195545523500,7.6185234375,-0.9921112060546875,-0.022064208984375,0.0036468505859375
1782846195555528400,7.628528564453125,-0.9895172119140625,-0.0218505859375,0.0041961669921875
1782846195565533400,7.638533447265625,-0.9891815185546875,-0.0199737548828125,0.0045166015625
1782846195575538400,7.648538330078125,-0.990875244140625,-0.0208587646484375,0.00433349609375
1782846195585543400,7.65854345703125,-0.9893646240234375,-0.0235443115234375,0.0030670166015625
1782846195595548400,7.66854833984375,-0.990142822265625,-0.0228729248046875,0.001708984375
1782846195605553400,7.678553466796875,-0.9901885986328125,-0.021759033203125,0.0025482177734375
1782846195615558400,7.688558349609375,-0.9902801513671875,-0.02239990234375,0.0036468505859375
1782846195625563400,7.6985634765625,-0.99127197265625,-0.022003173828125,0.0024566650390625
1782846195635568400,7.708568359375,-0.989654541015625,-0.0214080810546875,0.00360107421875
1782846195645573400,7.718573486328125,-0.9900360107421875,-0.0220184326171875,0.0020599365234375
1782846195655578400,7.728578369140625,-0.9897613525390625,-0.022430419921875,0.003448486328125
1782846195665583400,7.738583251953125,-0.989959716796875,-0.0215606689453125,0.0020599365234375
1782846195675588400,7.74858837890625,-0.9922027587890625,-0.021759033203125,0.0021209716796875
1782846195685593300,7.75859326171875,-0.991119384765625,-0.022186279296875,0.002410888671875
1782846195695598300,7.768598388671875,-0.9904937744140625,-0.021392822265625,0.00189208984375
1782846195705603300,7.778603271484375,-0.989990234375,-0.021240234375,0.0027008056640625
1782846195715608300,7.7886083984375,-0.9888763427734375,-0.0211334228515625,0.002105712890625
1782846195725613300,7.79861328125,-0.990447998046875,-0.021392822265625,0.0040130615234375
1782846195735618300,7.808618408203125,-0.990447998046875,-0.02178955078125,0.001495361328125
1782846195745623300,7.818623291015625,-0.9897918701171875,-0.020904541015625,0.0025634765625
1782846195755628300,7.828628173828125,-0.990936279296875,-0.02081298828125,0.001953125
1782846195765633500,7.838633544921875,-0.9906768798828125,-0.0225982666015625,0.001617431640625
1782846195775638500,7.848638427734375,-0.9903106689453125,-0.0204620361328125,0.003570556640625
1782846195785643500,7.8586435546875,-0.991424560546875,-0.020751953125,0.0036468505859375
1782846195795648500,7.8686484375,-0.991119384765625,-0.023223876953125,0.001190185546875
1782846195805653500,7.878653564453125,-0.990234375,-0.0207672119140625,0.004119873046875
1782846195815658500,7.888658447265625,-0.99053955078125,-0.0213623046875,0.00341796875
1782846195825663500,7.89866357421875,-0.990570068359375,-0.0219879150390625,0.0015716552734375
1782846195835668500,7.90866845703125,-0.99090576171875,-0.02227783203125,0.0024261474609375
1782846195845673500,7.918673583984375,-0.9898529052734375,-0.0222320556640625,0.0038604736328125
1782846195855678500,7.928678466796875,-0.9902191162109375,-0.0213623046875,0.0032501220703125
1782846195865683500,7.938683349609375,-0.991668701171875,-0.021820068359375,0.0012359619140625
1782846195875688400,7.9486884765625,-0.9897003173828125,-0.0207061767578125,0.001708984375
1782846195885693400,7.958693359375,-0.9907379150390625,-0.022613525390625,0.0021820068359375
1782846195895698400,7.968698486328125,-0.990142822265625,-0.0222625732421875,0.000823974609375
1782846195905703400,7.978703369140625,-0.9900665283203125,-0.0210723876953125,0.0008697509765625
1782846195915708400,7.98870849609375,-0.9896240234375,-0.0216522216796875,0.00250244140625
1782846195925713700,7.998713623046875,-0.9902496337890625,-0.022216796875,0.003753662109375
1782846195935718700,8.00871875,-0.990447998046875,-0.02093505859375,0.00225830078125
1782846195945723600,8.0187236328125,-0.9911651611328125,-0.0199127197265625,0.001495361328125
1782846195955728600,8.028728759765626,-0.990478515625,-0.02099609375,0.0034027099609375
1782846195965733600,8.038733642578125,-0.9902191162109375,-0.022308349609375,0.0036468505859375
1782846195975738600,8.048738525390625,-0.9892425537109375,-0.0222625732421875,0.002777099609375
1782846195985743600,8.05874365234375,-0.990570068359375,-0.0227203369140625,0.0015411376953125
1782846195995748600,8.06874853515625,-0.99163818359375,-0.02191162109375,0.0020599365234375
1782846196005753600,8.078753662109374,-0.990234375,-0.01971435546875,0.00311279296875
1782846196015758600,8.088758544921875,-0.9901885986328125,-0.0212249755859375,0.0022430419921875
1782846196025763600,8.098763671875,-0.989471435546875,-0.0205078125,0.0031280517578125
1782846196035768600,8.1087685546875,-0.9896392822265625,-0.0215606689453125,0.0033416748046875
1782846196045773600,8.118773681640626,-0.9903411865234375,-0.0220794677734375,0.002532958984375
1782846196055778600,8.128778564453125,-0.990631103515625,-0.0213775634765625,0.0031280517578125
1782846196065783600,8.138783447265626,-0.99005126953125,-0.02154541015625,0.0022430419921875
1782846196075788500,8.14878857421875,-0.9916534423828125,-0.0227813720703125,0.004058837890625
1782846196085793500,8.15879345703125,-0.9912567138671875,-0.0216522216796875,0.00396728515625
1782846196095798500,8.168798583984374,-0.9898834228515625,-0.0205230712890625,0.00299072265625
1782846196105803500,8.178803466796875,-0.989044189453125,-0.022125244140625,0.00152587890625
1782846196115808500,8.18880859375,-0.99102783203125,-0.021148681640625,0.000732421875
1782846196125813500,8.1988134765625,-0.9910736083984375,-0.020172119140625,0.0016632080078125
1782846196135818500,8.208818603515626,-0.9905548095703125,-0.0206146240234375,0.00201416015625
1782846196145823500,8.218823486328125,-0.9902191162109375,-0.0233001708984375,0.0020904541015625
1782846196155828500,8.228828369140626,-0.989288330078125,-0.021209716796875,0.0020751953125
1782846196165833500,8.23883349609375,-0.9897003173828125,-0.020965576171875,0.0020751953125
1782846196175838500,8.24883837890625,-0.9911346435546875,-0.02154541015625,0.002197265625
1782846196185843500,8.258843505859375,-0.9892425537109375,-0.020660400390625,0.00079345703125
1782846196195848400,8.268848388671875,-0.9904632568359375,-0.0210723876953125,0.002777099609375
1782846196205853400,8.278853515625,-0.98956298828125,-0.022216796875,0.0017852783203125
1782846196215858400,8.2888583984375,-0.98956298828125,-0.0222625732421875,0.0029754638671875
1782846196225863400,8.298863525390624,-0.9915771484375,-0.0222930908203125,0.0031280517578125
1782846196235868400,8.308868408203125,-0.989776611328125,-0.0221710205078125,0.0047149658203125
1782846196245873400,8.318873291015626,-0.9893341064453125,-0.0204620361328125,0.0029449462890625
1782846196255878400,8.32887841796875,-0.9899139404296875,-0.0208740234375,0.0018157958984375
1782846196265883400,8.33888330078125,-0.991546630859375,-0.021209716796875,0.0001983642578125
1782846196275888400,8.348888427734375,-0.9910430908203125,-0.0207977294921875,0.002838134765625
1782846196285893400,8.358893310546875,-0.990386962890625,-0.02191162109375,0.0019073486328125
1782846196295898400,8.3688984375,-0.9904327392578125,-0.0226898193359375,0.0040740966796875
1782846196305903400,8.3789033203125,-0.989715576171875,-0.021942138671875,0.0037689208984375
1782846196315908400,8.388908447265624,-0.9909515380859375,-0.020660400390625,0.00299072265625
1782846196325913300,8.398913330078125,-0.9910888671875,-0.0216217041015625,0.0027313232421875
1782846196335918300,8.40891845703125,-0.990447998046875,-0.021331787109375,0.00140380859375
1782846196345923300,8.41892333984375,-0.9911346435546875,-0.02252197265625,0.00262451171875
1782846196355928300,8.42892822265625,-0.9891815185546875,-0.0206146240234375,0.0007781982421875
1782846196365933300,8.438933349609375,-0.98968505859375,-0.022247314453125,0.0019683837890625
1782846196375938300,8.448938232421876,-0.9909820556640625,-0.0212554931640625,0.0014495849609375
1782846196385943300,8.458943359375,-0.9902191162109375,-0.0206146240234375,0.003173828125
1782846196395948300,8.4689482421875,-0.9893341064453125,-0.0213470458984375,0.003265380859375
1782846196405953300,8.478953369140624,-0.9920654296875,-0.0206451416015625,0.003143310546875
1782846196415958500,8.48895849609375,-0.9900360107421875,-0.0218353271484375,0.002197265625
1782846196425963500,8.498963623046874,-0.9899749755859375,-0.022369384765625,0.002532958984375
1782846196435968500,8.508968505859375,-0.990966796875,-0.0213470458984375,0.003875732421875
1782846196445973500,8.518973388671874,-0.9912872314453125,-0.02178955078125,0.00262451171875
1782846196455978500,8.528978515625,-0.9904327392578125,-0.022125244140625,0.003204345703125
1782846196465983500,8.5389833984375,-0.9906768798828125,-0.022125244140625,0.001617431640625
1782846196475988000,8.548988037109375,-0.991668701171875,-0.022552490234375,0.0028839111328125
1782846196485993000,8.558992919921875,-0.9896087646484375,-0.02117919921875,0.0037841796875
1782846196495998000,8.568998046875,-0.9912567138671875,-0.022430419921875,0.0024261474609375
1782846196506003000,8.5790029296875,-0.9894256591796875,-0.021697998046875,0.0022735595703125
1782846196516008000,8.589008056640624,-0.9901885986328125,-0.0210723876953125,0.0026397705078125
1782846196526013000,8.599012939453125,-0.9896240234375,-0.0205230712890625,0.00238037109375
1782846196536018000,8.609017822265624,-0.9908447265625,-0.021270751953125,0.0029144287109375
1782846196546023000,8.61902294921875,-1.012420654296875,-0.02093505859375,-0.0019989013671875
1782846196556028000,8.62902783203125,-0.97113037109375,-0.0233612060546875,0.0060272216796875
1782846196566033000,8.639032958984375,-0.9828338623046875,-0.0230560302734375,0.0063323974609375
1782846196576038000,8.649037841796876,-0.99310302734375,-0.0237579345703125,0.0067138671875
1782846196586043000,8.65904296875,-0.9959869384765625,-0.021820068359375,-0.000579833984375
1782846196596048000,8.6690478515625,-0.9801025390625,-0.0207977294921875,0.0047760009765625
1782846196606052900,8.679052978515625,-0.9998321533203125,-0.018463134765625,0.003204345703125
1782846196616057900,8.689057861328125,-0.9881134033203125,-0.0196380615234375,0.004241943359375
1782846196626062800,8.699062744140624,-0.9915313720703125,-0.0200653076171875,-0.00146484375
