time,seconds_elapsed,z,y,x
1782846188009253600,0.082253662109375,-0.002709799911826849,0.006412193179130554,0.00007326615741476417
1782846188019258600,0.092258544921875,-0.0014762236969545484,-0.007278851233422756,-0.0011102426797151566
1782846188029263600,0.102263671875,-0.0005756095051765442,-0.0062994882464408875,-0.001825788989663124
1782846188039268600,0.1122685546875,0.0008055057842284441,0.006294067949056625,0.0020997102838009596
1782846188049273900,0.12227392578125,-0.0020893197506666183,0.00003888178616762161,-0.002414948306977749
1782846188059278800,0.13227880859375,-0.000032560667023062706,-0.008169246837496758,-0.00018774648196995258
1782846188069283800,0.142283935546875,-0.00045907951425760984,0.002102397382259369,0.000051323091611266136
1782846188079288800,0.152288818359375,0.00005144858732819557,0.00477221654728055,-0.0006536155706271529
1782846188089293800,0.1622939453125,-0.0012359499232843518,-0.003041959600523114,-0.0004437536117620766
1782846188099298800,0.172298828125,-0.0017680495511740446,-0.0037713993806391954,-0.00017797021428123116
1782846188109303800,0.1823037109375,-0.00017963210120797157,0.0008404720574617386,0.00027551688253879547
1782846188119308800,0.192308837890625,-0.0013074808521196246,0.0016319635324180126,-0.0026049581356346607
1782846188129313800,0.202313720703125,-0.00045399670489132404,-0.0032187155447900295,0.0006950684473849833
1782846188139318800,0.21231884765625,-0.001224449253641069,-0.0011550318449735641,-0.0002761864452622831
1782846188149323800,0.22232373046875,-0.002847812371328473,0.0013800746528431773,0.002266429364681244
1782846188159328800,0.232328857421875,0.00219514942727983,-0.00087935128249228,-0.000587147893384099
1782846188169333800,0.242333740234375,0.000632487004622817,0.0006739508826285601,-0.000044972170144319534
1782846188179338800,0.2523388671875,-0.0006271882448345423,0.0011626409832388163,-0.0001112848985940218
1782846188189343700,0.26234375,-0.0001281467266380787,0.0016662930138409138,0.00010420364560559392
1782846188199348700,0.2723486328125,0.0030519338324666023,0.00008064694702625275,-0.00045292958384379745
1782846188209353700,0.282353759765625,-0.00041336624417454004,-0.001623776275664568,-0.00007848918903619051
1782846188219358700,0.292358642578125,-0.0019960827194154263,0.000806890893727541,-0.0016758530400693417
1782846188229363700,0.30236376953125,-0.00036103464663028717,0.0015851883217692375,-0.0006764854770153761
1782846188239368700,0.31236865234375,0.0009297996293753386,-0.0015141984913498163,-0.0007633045315742493
1782846188249373700,0.322373779296875,-0.0025859177112579346,-0.000924212159588933,0.0014269569655880332
1782846188259378700,0.332378662109375,-0.0023331837728619576,-0.000473871361464262,-0.000799179426394403
1782846188269383700,0.3423837890625,-0.0012375523801892996,-0.00009250687435269356,0.0006948539521545172
1782846188279388700,0.352388671875,-0.0005376735934987664,0.002111525274813175,-0.0020117165986448526
1782846188289393700,0.3623935546875,0.0005931253544986248,0.0024114204570651054,0.0021632874850183725
1782846188299398700,0.372398681640625,-0.0008050340693444014,0.002521409187465906,0.002702577505260706
1782846188309403600,0.382403564453125,-0.000957858981564641,-0.0022089688573032618,0.0017406383994966745
1782846188319408600,0.39240869140625,-0.0006513291737064719,-0.0028750256169587374,-0.002508434932678938
1782846188329413600,0.40241357421875,-0.000947764958254993,-0.001481728395447135,-0.0027629362884908915
1782846188339418600,0.412418701171875,-0.0011400451185181737,0.0007401467300951481,0.001888274447992444
1782846188349423600,0.422423583984375,-0.0010250307386741042,0.0012007724726572633,-0.000704864680301398
1782846188359428600,0.4324287109375,-0.0018135927384719253,-0.0022967569530010223,-0.00034054421121254563
1782846188369433600,0.44243359375,0.00034854630939662457,-0.00015097460709512234,-0.000009136158041656017
1782846188379438600,0.4524384765625,0.0011150040663778782,0.0019047193927690387,-0.0037213165778666735
1782846188389443600,0.462443603515625,-0.0002898427192121744,0.0006296460051089525,0.0009938492439687252
1782846188399448600,0.472448486328125,0.0005639668088406324,-0.0006561281625181437,0.00014643132453784347
1782846188409453600,0.48245361328125,-0.0000404873862862587,0.000707557424902916,-0.0017852045129984617
1782846188419458600,0.49245849609375,-0.00010147388093173504,0.002332618460059166,-0.0011532364878803492
1782846188429463600,0.502463623046875,0.0010105881374329329,-0.0026037206407636404,0.0012679211795330048
1782846188439468500,0.512468505859375,-0.0014025020645931363,-0.0006601456552743912,-0.000834910839330405
1782846188449473500,0.5224736328125,0.001148434355854988,0.0012527040671557188,-0.0009877311531454325
1782846188459478500,0.532478515625,-0.000055580632761120796,-0.00006928900256752968,-0.00019197864457964897
1782846188469483300,0.542483154296875,-0.0014605532633140683,0.00030294759199023247,-0.0036935715470463037
1782846188479488300,0.55248828125,0.0009155189618468285,0.0003460906445980072,-0.00038193067302927375
1782846188489493200,0.5624931640625,0.0003942856565117836,-0.0011944514699280262,0.0015080966986715794
1782846188499498200,0.572498291015625,0.0012241266667842865,0.000028472160920500755,0.000543233472853899
1782846188509503500,0.58250341796875,0.0014149860944598913,-0.00036848336458206177,0.002112054266035557
1782846188519508500,0.592508544921875,-0.0010686779860407114,-0.0016127123963087797,-0.0013268855400383472
1782846188529513500,0.602513427734375,-0.00018502818420529366,-0.0014547386672347784,0.000052615825552493334
1782846188539518500,0.6125185546875,0.0015225906390696764,-0.0010664497967809439,0.0022622407414019108
1782846188549523500,0.6225234375,-0.0000718957744538784,-0.0019009148236364126,0.002085823565721512
1782846188559528400,0.632528564453125,0.002257837448269129,-0.0014212795067578554,0.0009595727315172553
1782846188569533400,0.642533447265625,-0.000367754022590816,-0.0011591992806643248,-0.000949064560700208
1782846188579538400,0.652538330078125,0.0021028604824095964,-0.0026028987485915422,0.000022722932044416666
1782846188589543700,0.662543701171875,0.0009122749324887991,0.0013874118449166417,-0.0010299407877027988
1782846188599548700,0.672548583984375,0.0012741985265165567,-0.0012866680044680834,-0.000024597567971795797
1782846188609553700,0.6825537109375,-0.0010467575630173087,-0.0006858590058982372,-0.0004456894821487367
1782846188619558700,0.69255859375,0.00003155623562633991,-0.0037106776144355536,-0.0010190680623054504
1782846188629563600,0.702563720703125,-0.0008372069569304585,0.000027818139642477036,0.0005175737896934152
1782846188639568600,0.712568603515625,0.00040755467489361763,-0.00019215908832848072,0.00033647887175902724
1782846188649573600,0.72257373046875,-0.0013698777183890343,0.000251011922955513,0.000498058507218957
1782846188659578600,0.73257861328125,-0.00029023224487900734,-0.00001557054929435253,-0.0014694849960505962
1782846188669583600,0.74258349609375,0.00045204279012978077,-0.00038473051972687244,-0.0006526595097966492
1782846188679588600,0.752588623046875,-0.0006164174992591143,-0.0014760936610400677,-0.00019859062740579247
1782846188689593600,0.762593505859375,0.00042186095379292965,0.002277252497151494,-0.002115702023729682
1782846188699598600,0.7725986328125,-0.00007109018042683601,-0.0019617010839283466,-0.00244327075779438
1782846188709603600,0.782603515625,0.0011298868339508772,0.0015056480187922716,-0.00040311861084774137
1782846188719608600,0.792608642578125,0.0016095221508294344,0.0010896623134613037,-0.0011493363417685032
1782846188729613600,0.802613525390625,0.0008290500845760107,0.002615612233057618,0.0009379995753988624
1782846188739618600,0.81261865234375,0.00029908097349107265,0.0000752229243516922,-0.0026980142574757338
1782846188749623600,0.82262353515625,0.0013672111090272665,-0.0007715770043432713,-0.0005356268375180662
1782846188759628500,0.832628662109375,0.001371738500893116,-0.0003731679171323776,-0.0006506754434667528
1782846188769633500,0.842633544921875,0.00048652361147105694,0.0002666215877979994,-0.0016829997766762972
1782846188779638500,0.852638427734375,-0.00250340742059052,-0.0015741551760584116,0.0024960325099527836
1782846188789643500,0.8626435546875,-0.0013383410405367613,0.00019622966647148132,0.0012448850320652127
1782846188799648500,0.8726484375,0.00016954075545072556,0.00029103830456733704,-0.00006565655348822474
1782846188809653500,0.882653564453125,0.0004002770874649286,-0.0016121063381433487,0.000527535448782146
1782846188819658500,0.892658447265625,0.0001616578083485365,-0.001773493830114603,-0.0007832724368199706
1782846188829663500,0.90266357421875,-0.001523741171695292,-0.0030693495646119118,-0.0009564458159729838
1782846188839668500,0.91266845703125,0.0011183808092027903,0.00206948583945632,-0.0023705842904746532
1782846188849673500,0.922673583984375,0.001236672978848219,0.0014877277426421642,0.00009323295671492815
1782846188859678500,0.932678466796875,-0.00010902248322963715,0.003614528104662895,-0.0017414188478142023
1782846188869683500,0.942683349609375,0.0002642709296196699,-0.0007164373528212309,-0.00014449359150603414
1782846188879688400,0.9526884765625,0.0008903800044208765,0.0028316923417150974,0.0023322461638599634
1782846188889693400,0.962693359375,0.0000904726330190897,-0.0005151191726326942,-0.0012525948695838451
1782846188899698400,0.972698486328125,-0.0013585533015429974,-0.0013015507720410824,-0.0006262194947339594
1782846188909703400,0.982703369140625,0.0013913612347096205,0.00003881263546645641,-0.0006924280896782875
1782846188919708400,0.99270849609375,0.0010693850927054882,0.0030298088677227497,-0.0012431697687134147
1782846188929713400,1.00271337890625,0.002528995741158724,-0.0007760317530483007,0.0023464716505259275
1782846188939718400,1.012718505859375,-0.0012151423143222928,0.0002546117175370455,-0.00004238390829414129
1782846188949723400,1.022723388671875,-0.0012681877706199884,0.0023451033048331738,0.0006586527451872826
1782846188959728400,1.032728271484375,0.001038642367348075,0.0002606471534818411,-0.0015339278616011143
1782846188969733400,1.0427333984375,-0.002423143247142434,-0.0002961771097034216,-0.0026693306863307953
1782846188979738400,1.05273828125,-0.002560029737651348,0.0006716158241033554,-0.0012610511621460319
1782846188989743400,1.062743408203125,0.002199294976890087,-0.0025353895034641027,-0.0003088422818109393
1782846188999748400,1.072748291015625,0.001205403357744217,-0.001080770744010806,-0.00042788556311279535
1782846189009753300,1.08275341796875,0.0007089567370712757,-0.0010327529162168503,-0.00015225948300212622
1782846189019758300,1.09275830078125,0.00022292975336313248,-0.0007376745343208313,0.00024721462978050113
1782846189029763600,1.102763671875,0.0007330134976655245,-0.00036371476016938686,0.00094411033205688
1782846189039768600,1.1127685546875,0.0022547438275069,-0.0009514745324850082,-0.0016601949464529753
1782846189049773600,1.122773681640625,0.00035362690687179565,0.0012483480386435986,-0.0003967595985159278
1782846189059778600,1.132778564453125,0.00030941865406930447,-0.0004448897670954466,0.0002581117441877723
1782846189069783600,1.142783447265625,0.00033717858605086803,0.002126045525074005,-0.0000884378096088767
1782846189079788500,1.15278857421875,-0.00012168404646217823,0.0002772791776806116,-0.000020527164451777935
1782846189089793500,1.16279345703125,-0.0014628476928919554,0.0013819615123793483,-0.00012345029972493649
1782846189099798500,1.172798583984375,0.0006623549852520227,0.00032548559829592705,0.00005231826798990369
1782846189109803500,1.182803466796875,-0.00034845038317143917,0.0006635235622525215,0.0005420777015388012
1782846189119808500,1.19280859375,-0.0005670959362760186,-0.0005633947439491749,-0.0000853630481287837
1782846189129813500,1.2028134765625,0.0012902466114610434,0.0015771974576637149,-0.0009477495914325118
1782846189139818500,1.212818603515625,-0.0020237909629940987,-0.0008012717589735985,-0.0005695807049050927
1782846189149823500,1.222823486328125,-0.0011520591797307134,-0.00020741717889904976,0.0010310608195140958
1782846189159828500,1.232828369140625,-0.0005818763747811317,0.0002807402051985264,-0.002035569166764617
1782846189169833500,1.24283349609375,-0.0004020610358566046,-0.00012814882211387157,-0.0005564475432038307
1782846189179838500,1.25283837890625,-0.0011466809082776308,-0.0006317526567727327,0.0026095183566212654
1782846189189843500,1.262843505859375,0.0002585954498499632,0.0005610266234725714,-0.00016601220704615116
1782846189199848400,1.272848388671875,-0.0007888259133324027,-0.0005452504847198725,-0.0001231352798640728
1782846189209853400,1.282853515625,-0.0007525786058977246,0.0007393152918666601,0.0015635708114132285
1782846189219858400,1.2928583984375,0.0009497138671576977,0.000379255972802639,-0.000957910087890923
1782846189229863400,1.302863525390625,-0.0013082334771752357,-0.0033668456599116325,0.0002520977286621928
1782846189239868400,1.312868408203125,0.0019424210768193007,-0.0012272619642317295,-0.00252904137596488
1782846189249873400,1.322873291015625,0.00014209491200745106,-0.000609236303716898,-0.000021819607354700565
1782846189259878400,1.33287841796875,-0.0008653789991512895,-0.0006185572128742933,0.00323469378054142
1782846189269883400,1.34288330078125,-0.0002413000911474228,0.0008496076334267855,0.00013601768296211958
1782846189279888400,1.352888427734375,-0.00041360652539879084,-0.0006356374360620975,0.0025935827288776636
1782846189289893400,1.362893310546875,0.0011924263089895248,-0.0008132285438477993,0.002397933043539524
1782846189299898400,1.3728984375,0.0007804352790117264,0.0013135718181729317,0.00014463247498497367
1782846189309903400,1.3829033203125,0.0003583463840186596,-0.0021927119232714176,-0.0015394813381135464
1782846189319908400,1.392908447265625,0.0005309192929416895,0.0009988201782107353,0.0012238146737217903
1782846189329913300,1.402913330078125,-0.0024458507541567087,-0.0019591404125094414,0.0005011397879570723
1782846189339918300,1.41291845703125,-0.0005643273470923305,-0.001045410055667162,0.001624727388843894
1782846189349923300,1.42292333984375,-0.000323515385389328,-0.001694324193522334,0.0010888585820794106
1782846189359928300,1.43292822265625,-0.0010452320566400886,0.001607462647370994,-0.001486418186686933
1782846189369933300,1.442933349609375,0.0004881303757429123,-0.0018674042075872421,0.003693431382998824
1782846189379938300,1.452938232421875,0.0013840177562087774,-0.001072716899216175,-0.00024724798277020454
1782846189389943300,1.462943359375,-0.0015460329595953226,-0.0022767947521060705,0.0012934614205732942
1782846189399948300,1.4729482421875,0.0012060778681188822,0.00010353862307965755,-0.001384879695251584
1782846189409953300,1.482953369140625,0.00031571858562529087,0.0020759818144142628,-0.0012888029450550675
1782846189419958300,1.492958251953125,-0.0006896248087286949,-0.0003570821136236191,-0.0019692406058311462
1782846189429963300,1.50296337890625,-0.0006344347493723035,-0.001407033996656537,-0.0021992081310600042
1782846189439968300,1.51296826171875,-0.0007420264882966876,-0.0010994391050189734,-0.0008271476253867149
1782846189449973500,1.522973388671875,0.0019833561964333057,-0.000026489607989788055,-0.0013389014638960361
1782846189459978500,1.532978515625,0.001668304204940796,-0.00041611003689467907,0.0013785881455987692
1782846189469983500,1.5429833984375,0.001022090669721365,-0.00037954538129270077,0.00034219928784295917
1782846189479988500,1.552988525390625,0.0026050738524645567,-0.0010709022171795368,-0.0034583976957947016
1782846189489993500,1.562993408203125,0.0023796181194484234,0.000036406563594937325,0.0012123858323320746
1782846189499998500,1.57299853515625,-0.001271842047572136,0.00024413317441940308,-0.00161003228276968
1782846189510003500,1.58300341796875,0.00001528952270746231,0.0012011986691504717,-0.0000428101047873497
1782846189520008400,1.593008544921875,-0.00041560991667211056,-0.0010497050825506449,0.0022642863914370537
1782846189530013400,1.603013427734375,-0.0008230627281591296,0.0006856648251414299,0.0029137139208614826
1782846189540018400,1.613018310546875,-0.0008246606448665261,-0.0009266126435250044,-0.002795570529997349
1782846189550023700,1.623023681640625,0.0006235679611563683,-0.00009237532503902912,0.00005937006790190935
1782846189560028700,1.633028564453125,-0.0034558619372546673,0.000006427988409996033,-0.0003672682214528322
1782846189570033700,1.64303369140625,0.000764606986194849,-0.002236636821180582,-0.00046845024917274714
1782846189580038700,1.65303857421875,0.0013808624353259802,-0.0016169194132089615,-0.004479437135159969
1782846189590043600,1.663043701171875,-0.0009401565184816718,-0.0012119202874600887,0.0004633308853954077
1782846189600048600,1.673048583984375,0.002093450166285038,0.001654706196859479,0.0007762523600831628
1782846189610053600,1.6830537109375,0.0021373331546783447,-0.00009142747148871422,0.0010969667928293347
1782846189620058600,1.69305859375,0.0008638096041977406,0.0007469356060028076,0.0007339778821915388
1782846189630063600,1.703063720703125,-0.0014114733785390854,-0.00037784106098115444,-0.0010499183554202318
1782846189640068600,1.713068603515625,0.00013182847760617733,-0.0001778376754373312,0.0017589177004992962
1782846189650073600,1.723073486328125,0.004237267188727856,0.0016879993490874767,0.0023403004743158817
1782846189660078600,1.73307861328125,-0.0006115501746535301,-0.0014518676325678825,0.0009935398120433092
1782846189670083600,1.74308349609375,0.0002842338290065527,-0.0004892125725746155,0.00019981584046036005
1782846189680088600,1.753088623046875,-0.0000380086712539196,0.0003259810619056225,-0.0012308342847973108
1782846189690093600,1.763093505859375,0.0009214859455823898,-0.0010262748692184687,0.00040321837877854705
1782846189700098600,1.7730986328125,-0.0011555133387446404,0.0004464532248675823,0.000009336858056485653
1782846189710103800,1.783103759765625,0.0019431053660809994,0.0015547710936516523,0.00015173439169302583
1782846189720108800,1.79310888671875,-0.0002689163666218519,-0.0019566067494452,0.0013648042222484946
1782846189730113800,1.80311376953125,0.0010768400970846415,0.0002442058175802231,0.00014741544146090746
1782846189740118800,1.813118896484375,0.0035000506322830915,-0.000264724250882864,0.001407889649271965
1782846189750123800,1.823123779296875,0.00024222512729465961,-0.0012240007054060698,-0.0024366104044020176
1782846189760128800,1.833128662109375,-0.0027607553638517857,0.0004868139512836933,0.0031754691153764725
1782846189770133800,1.8431337890625,0.0006395264063030481,0.0013975377660244703,0.00040091521805152297
1782846189780138800,1.853138671875,0.00006534880958497524,-0.00033218530006706715,0.0013631152687594295
1782846189790143700,1.863143798828125,-0.0002919873222708702,0.00010544783435761929,-0.0004820643225684762
1782846189800148700,1.873148681640625,-0.00012314296327531338,-0.0018836671952158213,-0.0005859276279807091
1782846189810153700,1.88315380859375,-0.001441104570403695,0.0008758078329265118,0.0025485767982900143
1782846189820158700,1.89315869140625,-0.0016767942579463124,-0.00019105453975498676,0.0015261893859133124
1782846189830163700,1.903163818359375,-0.0000596360769122839,0.00030640698969364166,0.0004893674049526453
1782846189840168700,1.913168701171875,-0.00017947843298316002,0.0014278641901910305,-0.00026191037613898516
1782846189850173700,1.923173583984375,-0.00021950085647404194,-0.0004590582102537155,0.0011649503139778972
1782846189860178700,1.9331787109375,-0.004378559533506632,-0.000716319540515542,0.00023550709011033177
1782846189870183700,1.94318359375,-0.002094059018418193,-0.0024808652233332396,0.0006762215052731335
1782846189880188700,1.953188720703125,0.0013659198302775621,-0.0001929434947669506,-0.0010473764268681407
1782846189890193700,1.963193603515625,0.0011165994219481945,0.0012666224502027035,0.0007847967790439725
1782846189900198700,1.97319873046875,-0.0000208364799618721,0.0012794055510312319,-0.0002956476528197527
1782846189910203600,1.98320361328125,0.00040874024853110313,0.001845689257606864,-0.002417891751974821
1782846189920208600,1.993208740234375,0.000058001838624477386,-0.00030135130509734154,-0.00020294077694416046
1782846189930213600,2.003213623046875,0.0005151496734470129,0.000686075771227479,0.0011243087938055396
1782846189940218600,2.013218505859375,-0.0017024646513164043,-0.0009038310963660479,0.0010409519309177995
1782846189950223600,2.0232236328125,0.000642469385638833,0.0013804882764816284,0.0021884224843233824
1782846189960228600,2.033228515625,-0.0000930957030504942,-0.0016760218422859907,-0.000059818034060299397
1782846189970233600,2.043233642578125,-0.001267861109226942,0.0021758186630904675,0.00014440907398238778
1782846189980238600,2.053238525390625,0.00029355031438171864,0.0010703406296670437,-0.0027789429295808077
1782846189990243600,2.06324365234375,0.0022049362305551767,0.0018203995423391461,0.0013268457259982824
1782846190000248600,2.07324853515625,0.0008299460168927908,-0.00025553442537784576,0.0004392141127027571
1782846190010253600,2.083253662109375,0.0008315718732774258,0.000631589675322175,0.0017790503334254026
1782846190020258600,2.093258544921875,-0.00029707583598792553,0.0012462472077459097,-0.0005099365953356028
1782846190030263600,2.103263671875,-0.0007181460969150066,-0.0010658202227205038,-0.002239522058516741
1782846190040268500,2.1132685546875,0.00030983402393758297,-0.00021067913621664047,-0.00046559039037674665
1782846190050273500,2.1232734375,0.00032263132743537426,-0.0022163894027471542,0.001046805176883936
1782846190060278500,2.133278564453125,0.0010278364643454552,0.0018345448188483715,0.0017458850052207708
1782846190070283800,2.14328369140625,0.0020290426909923553,-0.0022011995315551758,-0.0006195252062752843
1782846190080288800,2.153288818359375,-0.0009190767304971814,-0.0005223425105214119,-0.0007987559074535966
1782846190090293800,2.163293701171875,0.0015222325455397367,0.001798837911337614,-0.0005940839182585478
1782846190100298800,2.173298828125,-0.0013699603732675314,0.0010169337037950754,-0.0004121899837628007
1782846190110303700,2.1833037109375,-0.001485238317400217,-0.0032981892582029104,-0.002387003041803837
1782846190120308700,2.193308837890625,-0.0013531455770134926,-0.002114680362865329,0.0013653909554705024
1782846190130314500,2.203314453125,-0.0014530797488987446,-0.000013094861060380936,0.0012092575198039412
1782846190140319500,2.213319580078125,-0.00013588019646704197,0.00010754633694887161,-0.0003878402058035135
1782846190150324500,2.223324462890625,-0.00023873220197856426,-0.0002886042930185795,-0.00024109857622534037
1782846190160329500,2.23332958984375,0.0008225375786423683,-0.0010523987002670765,-0.00039955670945346355
1782846190170334500,2.24333447265625,0.0024642429780215025,0.0015478103887289762,-0.00039258773904293776
1782846190180339500,2.25333935546875,0.0003939014859497547,0.000013296958059072495,0.0010846677469089627
1782846190190344400,2.263344482421875,-0.0014577170368283987,0.002659011632204056,-0.00347867701202631
1782846190200349700,2.273349609375,0.0010616332292556763,-0.00023690960370004177,0.00010327459312975407
1782846190210354700,2.283354736328125,0.0023266300559043884,0.0015573949785903096,-0.003022552467882633
1782846190220359700,2.293359619140625,-0.001536817755550146,0.001528100110590458,-0.0013642021222040057
1782846190230364700,2.30336474609375,-0.001180878491140902,0.00250034686177969,-0.0013233694480732083
1782846190240369700,2.31336962890625,-0.002471712650731206,0.0007676943205296993,-0.001773976138792932
1782846190250374700,2.323374755859375,0.001088760094717145,0.002487210091203451,0.0013252138160169125
1782846190260379600,2.333379638671875,-0.00020420458167791367,0.0009732027538120747,0.0013342685997486115
1782846190270384600,2.343384521484375,-0.00007475260645151138,-0.001263780053704977,0.000515597639605403
1782846190280389600,2.3533896484375,0.0002994213718920946,0.000559419859200716,0.0008631401578895748
1782846190290394600,2.36339453125,0.000670216279104352,0.001320492010563612,-0.0001181937986984849
1782846190300399600,2.373399658203125,0.001074217725545168,-0.00005263392813503742,-0.00046813313383609056
1782846190310404600,2.383404541015625,-0.00039857695810496807,0.00015152757987380028,0.00008284393697977066
1782846190320409600,2.39340966796875,0.0003266017884016037,0.00010092766024172306,0.0006239982321858406
1782846190330414600,2.40341455078125,0.0021180054172873497,0.0015547365183010697,-0.00047245423775166273
1782846190340419600,2.413419677734375,-0.001570472726598382,0.0013243730645626783,0.00009772850899025798
1782846190350424600,2.423424560546875,0.0004807291552424431,0.000815144507214427,0.0016172899631783366
1782846190360429600,2.4334296875,-0.0025680577382445335,-0.0015036696568131447,0.0022977276239544153
1782846190370434600,2.4434345703125,-0.0023126492742449045,0.002076377859339118,-0.0007416402222588658
1782846190380439600,2.453439453125,0.0013792910613119602,0.0011820883955806494,0.0009505323250778019
1782846190390444500,2.463444580078125,0.0014158445410430431,0.002848336473107338,0.0024558259174227715
1782846190400449500,2.473449462890625,-0.001346119912341237,0.0015614971052855253,0.0018108083168044686
1782846190410454800,2.483454833984375,0.000500229187309742,-0.0008722699712961912,-0.0013482776703312993
1782846190420459800,2.493459716796875,0.000881061190739274,-0.0005897085648030043,-0.0008803603705018759
1782846190430464800,2.50346484375,0.001748015871271491,0.00021088821813464165,-0.0011329378467053175
1782846190440469800,2.5134697265625,0.0024292522575706244,0.002324372995644808,0.0013784229522570968
1782846190450474800,2.523474853515625,0.0014523491263389587,0.0014809472486376762,-0.0009585621301084757
1782846190460479700,2.533479736328125,0.0013380995951592922,-0.0006130961701273918,0.0006923315231688321
1782846190470483700,2.543483642578125,-0.0015710270963609219,0.002555309794843197,-0.001844128710217774
1782846190480488700,2.55348876953125,0.0007142315153032541,-0.0017403687816113234,0.0013372835237532854
1782846190490493700,2.56349365234375,-0.00044088251888751984,-0.000267640920355916,-0.002102597849443555
1782846190500498700,2.573498779296875,-0.0002896148944273591,0.0016325244214385748,-0.0005310665583238006
1782846190510503700,2.583503662109375,0.00039362977258861065,0.001189354807138443,-0.001438274746760726
1782846190520508700,2.5935087890625,0.0006373089272528887,-0.0003590069245547056,-0.0024670539423823357
1782846190530513700,2.603513671875,0.0006658751517534256,0.0022745050955563784,0.0004885240341536701
1782846190540518700,2.6135185546875,-0.0006060505984351039,0.000770617974922061,0.00023925217101350427
1782846190550523600,2.623523681640625,-0.0016500141937285662,0.0010389185044914484,0.0007993216859176755
1782846190560528600,2.633528564453125,0.00010048155672848225,0.0005731317214667797,0.0006768162129446864
1782846190570533600,2.64353369140625,-0.0010584990959614515,0.0009194929152727127,0.00018539035227149725
1782846190580538600,2.65353857421875,-0.0006624871166422963,-0.0006688162684440613,-0.0011701586190611124
1782846190590544000,2.6635439453125,0.001155330566689372,0.0006344330031424761,-0.0010088016279041767
1782846190600548900,2.673548828125,-0.0013259367551654577,0.0008440236561000347,-0.00234544207341969
1782846190610553900,2.683553955078125,-0.0004134314367547631,-0.0004556009080260992,0.0008452539332211018
1782846190620558800,2.693558837890625,0.0014390633441507816,0.0001523985993117094,-0.00009031454101204872
1782846190630563800,2.703563720703125,-0.0014898825902491808,0.0011690657120198011,-0.001269251573830843
1782846190640568800,2.71356884765625,0.00031361007131636143,-0.00007649464532732964,0.0012535610003396869
1782846190650573800,2.72357373046875,0.00114722759462893,0.000096944160759449,0.0004468417027965188
1782846190660578800,2.733578857421875,-0.0004285647301003337,0.000507337274029851,-0.0006509132217615843
1782846190670583800,2.743583740234375,0.0017947959713637829,-0.0002209541853517294,0.0012660454958677292
1782846190680588800,2.7535888671875,-0.0013895457377657294,0.0003628106787800789,-0.0008722065249457955
1782846190690593800,2.76359375,-0.0009010338690131903,0.0008525177836418152,-0.0011678135488182306
1782846190700598800,2.773598876953125,-0.0005308544496074319,-0.0012875983957201242,-0.0031159156933426857
1782846190710603800,2.783603759765625,0.0001446930691599846,0.0002288848627358675,0.0006228010170161724
1782846190720608800,2.79360888671875,0.0011673469562083483,-0.0009785923175513744,-0.00017241889145225286
1782846190730613800,2.80361376953125,-0.00012554763816297054,0.001316538080573082,-0.001318028662353754
1782846190740618800,2.81361865234375,0.000027850503101944923,0.0024571700487285852,0.0008785465033724904
1782846190750623700,2.823623779296875,0.0018386563751846552,0.0003502459730952978,-0.0026521203108131886
1782846190760628700,2.833628662109375,0.0003076051361858845,-0.0014095709193497896,0.0031634243205189705
1782846190770633700,2.8436337890625,-0.00039515888784080744,-0.0006662181112915277,-0.0003862512530758977
1782846190780638700,2.853638671875,-0.0019903923384845257,-0.00024490593932569027,-0.00008824351243674755
1782846190790643700,2.863643798828125,-0.0015027220360934734,-0.0016349945217370987,-0.0013341213343665004
1782846190800648700,2.873648681640625,-0.0016651749610900879,0.0014047377044335008,-0.002377814147621393
1782846190810653700,2.88365380859375,-0.0008125610183924437,-0.001335160806775093,0.0011278726160526276
1782846190820658700,2.89365869140625,-0.0005023027770221233,-0.0014246427454054356,0.0026064596604555845
1782846190830663700,2.90366357421875,0.0007127781864255667,-0.0006221462972462177,-0.0011841588420793414
1782846190840668700,2.913668701171875,-0.00179378897882998,0.0012274188920855522,-0.0006720328237861395
1782846190850673700,2.923673583984375,0.0006563577335327864,0.00024198181927204132,-0.0005046389997005463
1782846190860678700,2.9336787109375,-0.0015865565510466695,0.0008087025489658117,0.002554267644882202
1782846190870683600,2.94368359375,-0.0017465302953496575,-0.0014571226201951504,0.0008799328934401274
1782846190880688600,2.953688720703125,0.0014223651960492134,-0.002379907760769129,0.0012943206820636988
1782846190890693600,2.963693603515625,0.0009395291563123465,-0.0008294901344925165,0.00030500825960189104
1782846190900698600,2.97369873046875,0.0013861411716789007,0.0003449639771133661,0.0010762597667053342
1782846190910703600,2.98370361328125,-0.0005440128734335303,0.0016958577325567603,-0.00007910095155239105
1782846190920708600,2.99370849609375,-0.00001723947934806347,-0.0007800832390785217,-0.0028538485057651997
1782846190930713600,3.003713623046875,0.00042495597153902054,0.0003258376382291317,0.0008143566665239632
1782846190940718600,3.013718505859375,0.0024798510130494833,-0.0024499748833477497,0.0005544321611523628
1782846190950723600,3.0237236328125,-0.00024745031259953976,-0.0013558228965848684,0.001209435286000371
1782846190960728600,3.033728515625,0.00028624734841287136,-0.002262895228341222,0.0008179506403394043
1782846190970733600,3.043733642578125,-0.0004467872204259038,-0.0003684221301227808,-0.001473752548918128
1782846190980738600,3.053738525390625,0.001969232689589262,0.0010244110599160194,-0.0003272617468610406
1782846190990743600,3.06374365234375,0.000909783411771059,-0.00026368279941380024,0.0007751481607556343
1782846191000748800,3.073748779296875,-0.00031686865258961916,0.0004923886153846979,-0.0005476439837366343
1782846191010753800,3.08375390625,-0.0009202576475217938,0.0005841066595166922,-0.0020806160755455494
1782846191020758800,3.0937587890625,-0.0005266424268484116,-0.0010308343917131424,-0.001169282477349043
1782846191030763800,3.103763671875,0.00021199253387749195,0.00019825738854706287,-0.0032232641242444515
1782846191040768800,3.113768798828125,0.001758223632350564,0.00010318239219486713,-0.0003739478997886181
1782846191050773800,3.123773681640625,0.0012176008895039558,-0.0012645791284739971,-0.0007382787298411131
1782846191060778800,3.13377880859375,-0.0003744367277249694,-0.001275497954338789,-0.0016301714349538088
1782846191070783700,3.14378369140625,-0.00022065895609557629,-0.0000985416118055582,0.002307069720700383
1782846191080788700,3.153788818359375,0.0013346271589398384,0.0006508720107376575,-0.0031481492333114147
1782846191090793700,3.163793701171875,0.0014938015956431627,0.0007593792397528887,-0.002293731551617384
1782846191100798700,3.173798828125,0.0004684845916926861,-0.0007469046395272017,-0.003070309292525053
1782846191110804000,3.183803955078125,0.0006295973435044289,-0.00018797488883137703,-0.0008812095038592815
1782846191120809000,3.19380908203125,0.0006863228045403957,0.00020004785619676113,-0.0022258395329117775
1782846191130814000,3.20381396484375,0.0017080660909414291,-0.0014221519231796265,0.0015394218498840928
1782846191140819000,3.21381884765625,0.0009152430575340986,0.0008623076137155294,0.00021183601347729564
1782846191150824000,3.223823974609375,-0.0005320750642567873,0.0011034857016056776,-0.0016243023565039039
1782846191160829000,3.233828857421875,-0.002426647813990712,-0.0007546020206063986,-0.0009965951321646571
1782846191170834000,3.243833984375,-0.001218142220750451,-0.000019386643543839455,0.0011565603781491518
1782846191180839000,3.2538388671875,-0.0013704750454053283,-0.0004220565315335989,-0.0021414984948933125
1782846191190844000,3.263843994140625,-0.0036919903941452503,-0.0010320357978343964,0.000008051982149481773
1782846191200849000,3.273848876953125,0.0035435520112514496,0.002035126555711031,0.0029377955943346024
1782846191210854000,3.28385400390625,0.001344259362667799,0.0015085728373378515,-0.0007877980824559927
1782846191220859000,3.29385888671875,-0.0003766752779483795,0.0005080231931060553,-0.000030128750950098038
1782846191230864000,3.30386376953125,-0.0005836642812937498,-0.001498534344136715,0.0007159500382840633
1782846191240868900,3.313868896484375,-0.00018259231001138687,-0.0023704529739916325,0.0020880107767879963
1782846191250873900,3.323873779296875,0.00002255896106362343,0.0015948255313560367,0.000060028163716197014
1782846191260878800,3.33387890625,-0.0023125007282942533,-0.0021261433139443398,0.0015380826080217957
1782846191270883800,3.3438837890625,-0.00031841767486184835,0.001220890088006854,-0.0009897324489429593
1782846191280888800,3.353888916015625,-0.000615093857049942,-0.003267335006967187,-0.0023964140564203262
1782846191290893800,3.363893798828125,0.0008824698161333799,0.00036210869438946247,0.0007645120494998991
1782846191300898800,3.37389892578125,0.0008313371799886227,-0.00007464969530701637,-0.0026414047461003065
1782846191310903800,3.38390380859375,0.00041003432124853134,-0.0008671460673213005,0.00018639815971255302
1782846191320908800,3.39390869140625,0.001440677559003234,0.0004604395944625139,0.0014532639179378748
1782846191330913800,3.403913818359375,0.0008558437693864107,0.0009548580273985863,-0.00130673055537045
1782846191340918800,3.413918701171875,0.0017786291427910328,0.0005266217049211264,0.0013255379162728786
1782846191350923800,3.423923828125,-0.00035983556881546974,-0.00017347210086882114,-0.00022185442503541708
1782846191360928800,3.4339287109375,0.000630061374977231,0.0008582363370805979,-0.0013443769421428442
1782846191370933800,3.443933837890625,-0.0006124567007645965,0.0010853223502635956,-0.0015643772203475237
1782846191380938800,3.453938720703125,-0.0003378847613930702,-0.0006832832004874945,-0.0009747531730681658
1782846191390943700,3.46394384765625,0.00028230808675289154,0.000703807920217514,-0.0015721056843176484
1782846191400948700,3.47394873046875,-0.0030138862784951925,-0.0023817303590476513,-0.0008754226146265864
1782846191410953700,3.48395361328125,0.0003078195732086897,-0.0022265464067459106,-0.0021445960737764835
1782846191420958700,3.493958740234375,-0.00001602061092853546,-0.00025687250308692455,-0.0013797362335026264
1782846191430964700,3.50396484375,0.0011057679075747728,0.0013229437172412872,0.0013059631455689669
1782846191440968700,3.51396875,0.003656810149550438,0.0009695421904325485,0.0010127491550520062
1782846191450973700,3.5239736328125,-0.0015448081539943814,-0.0016231073532253504,0.00254710391163826
1782846191460979700,3.533979736328125,0.0023484667763113976,0.002092534676194191,0.0008298977045342326
1782846191470984700,3.543984619140625,-0.0005073522916063666,0.0009802051354199648,-0.002443303819745779
1782846191480990000,3.553989990234375,0.000027943169698119164,0.0002829895820468664,-0.0025647440925240517
1782846191490995000,3.563994873046875,0.001047035912051797,0.0006216245237737894,-0.0012137646554037929
1782846191501000000,3.574,0.0010734011884778738,-0.0009176824241876602,0.0011018539080396295
1782846191511005000,3.5840048828125,0.0006720523815602064,-0.0005932154599577188,-0.0002999892458319664
1782846191521010000,3.594010009765625,-0.0014030828606337309,-0.0006459460128098726,0.00034529465483501554
1782846191531015000,3.604014892578125,0.0025411779060959816,-0.0026175519451498985,0.0022278609685599804
1782846191541020000,3.61402001953125,0.0003765602596104145,-0.002428201027214527,-0.0017205416224896908
1782846191551025000,3.62402490234375,0.00026330421678721905,0.0013595216441899538,-0.0015346147119998932
1782846191561030000,3.63402978515625,0.0005629097577184439,0.0010972002055495977,0.001809516572393477
1782846191571035000,3.644034912109375,-0.00009932927787303925,-0.0016327775083482265,0.0002787270350381732
1782846191581039900,3.654039794921875,0.0005379652138799429,-0.0007976102642714977,-0.0004246138269081712
1782846191591044900,3.664044921875,-0.0004952230956405401,-0.0019744005985558033,0.0003657356137409806
1782846191601049900,3.6740498046875,0.0006022655870765448,0.001962550450116396,0.0012674819445237517
1782846191611054800,3.684054931640625,0.0006462610326707363,-0.0008850321173667908,-0.0006555216386914253
1782846191621059800,3.694059814453125,0.0013344218023121357,0.0013749264180660248,-0.001442485605366528
1782846191631064800,3.70406494140625,0.0000014365650713443756,-0.0005360073409974575,-0.000004335073754191399
1782846191641069800,3.71406982421875,-0.000026260269805788994,-0.0000803403090685606,0.001371187623590231
1782846191651074800,3.72407470703125,-0.0010958921629935503,-0.0007452336139976978,-0.001578579773195088
1782846191661079800,3.734079833984375,-0.001466604182496667,-0.0013377871364355087,-0.00002728856634348631
1782846191671084800,3.744084716796875,0.002183999866247177,0.0004995372146368027,0.0005810856237076223
1782846191681089800,3.75408984375,0.00003136671148240566,-0.0002775730099529028,0.0005262244958430529
1782846191691094800,3.7640947265625,-0.0012722578831017017,-0.0010568713769316673,0.0016922621289268136
1782846191701099800,3.774099853515625,-0.0011984884040430188,-0.0019698026590049267,0.0012696185149252415
1782846191711104800,3.784104736328125,0.0013214305508881807,-0.001192345516756177,-0.0010737203992903233
1782846191721109800,3.79410986328125,0.002125705126672983,0.0018460549181327224,0.00009940215386450291
1782846191731114800,3.80411474609375,-0.0011596960248425603,0.001540929195471108,-0.0006411728681996465
1782846191741119700,3.81411962890625,0.0010286234319210052,0.0013712858781218529,-0.003797551617026329
1782846191751124700,3.824124755859375,-0.00045724352821707726,-0.0007646810263395309,0.003297052113339305
1782846191761130000,3.8341298828125,0.000542773399502039,0.0008414715994149446,-0.0001024729572236538
1782846191771135000,3.844135009765625,0.0005924222059547901,0.0016276754904538393,-0.00044821726623922586
1782846191781140000,3.854139892578125,0.0008424930274486542,0.0028218368533998728,0.0010599307715892792
1782846191791145000,3.86414501953125,-0.0005256907315924764,0.00008198665454983711,-0.0016909734113141894
1782846191801150200,3.874150146484375,-0.000268162926658988,-0.0022256425581872463,0.0010496857576072216
1782846191811155200,3.8841552734375,-0.0022929906845092773,-0.0002754456363618374,-0.00038644205778837204
1782846191821160200,3.89416015625,-0.0007896363968029618,0.0012569371610879898,-0.0008471689652651548
1782846191831165200,3.904165283203125,0.000596845056861639,0.0004007334355264902,-0.0005603712052106857
1782846191841170200,3.914170166015625,0.0030805091373622417,0.002034316537901759,0.0014609680511057377
1782846191851175200,3.924175048828125,-0.001272931694984436,-0.0024806782603263855,0.0013552753953263164
1782846191861180200,3.93418017578125,-0.0013837192673236132,-0.001758428756147623,0.0006671145674772561
1782846191871185200,3.94418505859375,-0.0011190796503797174,0.0005616617854684591,-0.0008478617528453469
1782846191881190100,3.954190185546875,-0.0001387700904160738,-0.00023169373162090778,0.0008219401934184134
1782846191891195100,3.964195068359375,-0.0000016968697309494019,0.0013575132470577955,-0.0004911230644211173
1782846191901200100,3.9742001953125,0.0010840739123523235,-0.0004696815740317106,-0.0019143163226544857
1782846191911205000,3.984205078125,-0.0011463051196187735,-0.000041375868022441864,0.00011560064740478992
1782846191921210000,3.994210205078125,0.0012755736242979765,-0.0018619128968566656,-0.00001995428465306759
1782846191931215000,4.004215087890625,-0.0005339514464139938,-0.001549779437482357,-0.0019596582278609276
1782846191941220000,4.01422021484375,0.0009512936230748892,0.00012614787556231022,-0.000033660209737718105
1782846191951225000,4.02422509765625,-0.000990408705547452,0.00021271943114697933,-0.0008308280957862735
1782846191961230000,4.03422998046875,0.0013728805352002382,0.0006100630853325129,0.0013742692535743117
1782846191971235000,4.044235107421875,-0.0013421338517218828,-0.000850313575938344,0.0022857163567095995
1782846191981240000,4.054239990234375,-0.0016958017367869616,0.0003049657680094242,-0.0011886435095220804
1782846191991245000,4.0642451171875,-0.0014926071744412184,-0.0002572417724877596,0.0035489953588694334
1782846192001250000,4.07425,0.00018518418073654175,-0.00003220466896891594,-0.00012563425116240978
1782846192011255000,4.084255126953125,0.00007402151823043823,-0.001799185061827302,-0.0007934544701129198
1782846192021260000,4.094260009765625,-0.0003595410380512476,-0.0014287394005805254,-0.00013325689360499382
1782846192031265000,4.10426513671875,-0.0009945064084604383,0.000504929106682539,-0.00024661305360496044
1782846192041270000,4.11427001953125,0.0013147206045687199,0.001026109792292118,0.0020503634586930275
1782846192051275000,4.12427490234375,-0.0003649338614195585,0.0007315166294574738,0.0016443254426121712
1782846192061280000,4.134280029296875,-0.00016759359277784824,-0.00051723956130445,0.0013428556267172098
1782846192071285000,4.144284912109375,-0.000579874380491674,0.0005718322936445475,0.0013014591531828046
1782846192081290000,4.1542900390625,-0.0003148897085338831,-0.00007211999036371708,-0.0012887312332168221
1782846192091295000,4.164294921875,-0.0020620531868189573,0.00055262865498662,0.0029070042073726654
1782846192101300000,4.174300048828125,-0.0006401914870366454,-0.0014402149245142937,-0.001591607229784131
1782846192111305000,4.184304931640625,0.002189501654356718,-0.0005385600961744785,-0.0007802228210493922
1782846192121310000,4.19431005859375,-0.0015341303078457713,-0.00014387955889105797,0.0017108980100601912
1782846192131315000,4.20431494140625,0.0013591961469501257,-0.0015449938364326954,-0.0026901138480752707
1782846192141320000,4.21431982421875,0.0011653180699795485,0.00021029566414654255,0.00036027078749611974
1782846192151325000,4.224324951171875,-0.001005216734483838,-0.00018747802823781967,-0.0006032519740983844
1782846192161330000,4.234329833984375,-0.0009492903482168913,0.0001858971081674099,-0.0006887394702062011
1782846192171335000,4.2443349609375,0.0006288802251219749,0.0006065762136131525,-0.0005632777465507388
1782846192181340000,4.25433984375,-0.0011184198083356023,0.0012529254890978336,0.001417847815901041
1782846192191345000,4.264344970703125,0.0011259422171860933,0.0006856664549559355,-0.002617333550006151
1782846192201350000,4.274349853515625,0.0008577620610594749,-0.0023367549292743206,-0.000026610330678522587
1782846192211355000,4.28435498046875,-0.0002498708199709654,-0.003298655152320862,0.0006065017078071833
1782846192221359900,4.29435986328125,0.0005402890965342522,-0.001049082726240158,-0.00266945268958807
1782846192231364900,4.30436474609375,0.00024205935187637806,0.00031408993527293205,-0.002614385914057493
1782846192241369900,4.314369873046875,0.0013150470331311226,-0.0003093560226261616,-0.0005120865534991026
1782846192251374800,4.324374755859375,0.000005674548447132111,-0.00004000496119260788,0.0014974602963775396
1782846192261379800,4.3343798828125,0.0013127541169524193,0.00039622094482183456,0.003438105806708336
1782846192271384800,4.344384765625,0.001268092542886734,0.0030970468651503325,0.00045997585402801633
1782846192281389800,4.354389892578125,-0.00023259874433279037,-0.0010316516272723675,0.00008020910900086164
1782846192291395000,4.36439501953125,-0.002166507998481393,0.000592872966080904,0.0003545710351318121
1782846192301400000,4.374400146484375,-0.0007307978812605143,0.00036730337888002396,0.001494137686677277
1782846192311405000,4.384405029296875,-0.0003608544357120991,-0.00003685592673718929,-0.0016224146820604801
1782846192321410000,4.39441015625,0.0031987265683710575,0.0007296018302440643,0.00006123573984950781
1782846192331415000,4.4044150390625,-0.002446103608235717,-0.003912456799298525,0.003163173794746399
1782846192341420000,4.414419921875,-0.0018359733512625098,-0.0005534118972718716,-0.000698942574672401
1782846192351425000,4.424425048828125,0.00018195807933807373,-0.0017789916601032019,-0.0014057678636163473
1782846192361430000,4.434429931640625,-0.00022843503393232822,-0.0011704594362527132,0.0011484699789434671
1782846192371435000,4.44443505859375,0.0006071401294320822,-0.000375386793166399,-0.00019815715495496988
1782846192381440000,4.45443994140625,-0.0004935443866997957,-0.00006752554327249527,-0.0006378450198099017
1782846192391445000,4.464445068359375,0.00017305207438766956,0.0009144085925072432,-0.0014267589431256056
1782846192401450000,4.474449951171875,-0.0017556091770529747,0.002472357824444771,-0.0003465807531028986
1782846192411455000,4.484455078125,-0.000660400022752583,0.00027140136808156967,-0.0007073972374200821
1782846192421460000,4.4944599609375,0.0008125943131744862,0.0011632938403636217,0.0023001106455922127
1782846192431465000,4.50446484375,-0.0015916818520054221,0.000047228531911969185,0.000662905746139586
1782846192441470000,4.514469970703125,0.0009287337306886911,0.0013985163532197475,0.002260535955429077
1782846192451475000,4.524474853515625,0.0006580890621989965,0.0020560980774462223,-0.0006756713846698403
1782846192461480000,4.53447998046875,-0.001333156367763877,0.0013287889305502176,-0.0023425440303981304
1782846192471485000,4.54448486328125,0.0007692207582294941,0.002741302829235792,-0.0007320134900510311
1782846192481490400,4.554490478515625,0.0020366190001368523,0.00034499051980674267,0.0003521593753248453
1782846192491495400,4.564495361328125,0.0002054309006780386,0.0011512988712638617,-0.00014433625619858503
1782846192501500400,4.57450048828125,-0.0003935140557587147,-0.0012402196880429983,-0.0015835084486752748
1782846192511505400,4.58450537109375,0.00017815898172557354,-0.00006000138819217682,0.0011151907965540886
1782846192521510400,4.594510498046875,-0.0016311926301568747,0.0008811596781015396,-0.001358619425445795
1782846192531515400,4.604515380859375,-0.0003297810908406973,0.0006595863960683346,-0.0007624862482771277
1782846192541520400,4.614520263671875,-0.0003601410426199436,-0.0006171329878270626,0.001230357214808464
1782846192551525400,4.624525390625,0.0009582249913364649,0.0005477981176227331,0.0018084633629769087
1782846192561530400,4.6345302734375,-0.001433293567970395,0.0010063943918794394,-0.0005263299681246281
1782846192571535400,4.644535400390625,0.0009287996217608452,0.001012659166008234,-0.0033811372704803944
1782846192581540400,4.654540283203125,0.0011506408918648958,0.00021078134886920452,-0.0011334297014400363
1782846192591545300,4.66454541015625,-0.0020469296723604202,-0.0004858353640884161,-0.002304013352841139
1782846192601550300,4.67455029296875,0.0014793621376156807,0.000683292280882597,0.0005271931877359748
1782846192611555300,4.684555419921875,-0.0007459812331944704,-0.0009044595062732697,0.0017816177569329739
1782846192621560300,4.694560302734375,0.0009619039483368397,0.0008729344699531794,-0.0009731560712680221
1782846192631565300,4.7045654296875,0.00010566622950136662,0.0028888294473290443,0.001373359002172947
1782846192641570300,4.7145703125,-0.001464533619582653,0.0012302128598093987,-0.000566221191547811
1782846192651575300,4.7245751953125,-0.001351939863525331,-0.0005135764367878437,-0.0015096227871254086
1782846192661580300,4.734580322265625,0.0014126875903457403,-0.0012302328832447529,0.0010171843459829688
1782846192671585300,4.744585205078125,0.001324342330917716,0.001241615740582347,-0.00017438619397580624
1782846192681590300,4.75459033203125,-0.0014440136728808284,0.0005310843698680401,0.0004802188486792147
1782846192691595300,4.76459521484375,0.0004992347676306963,0.002797833876684308,0.0018083928152918816
1782846192701600300,4.774600341796875,0.001000974327325821,-0.0011202087625861168,0.000286129885353148
1782846192711605200,4.784605224609375,0.0017391284927725792,-0.0002261553891003132,0.0006369753973558545
1782846192721610200,4.7946103515625,-0.0005959310801699758,-0.00015638070181012154,0.00003243784885853529
1782846192731615200,4.804615234375,-0.00019281404092907906,0.0033915946260094643,-0.00294977193698287
1782846192741620200,4.8146201171875,0.0017502282280474901,0.0009127242956310511,0.002083602361381054
1782846192751625200,4.824625244140625,-0.0015998247545212507,0.0014153472147881985,-0.00044665951281785965
1782846192761630200,4.834630126953125,-0.000571045558899641,-0.0006739024538546801,0.00018930330406874418
1782846192771635200,4.84463525390625,-0.00017503276467323303,-0.00012831669300794601,0.00034262752160429955
1782846192781640200,4.85464013671875,-0.0008868958102539182,0.00020804069936275482,-0.00016390567179769278
1782846192791645200,4.864645263671875,0.0017312699928879738,0.001762416330166161,0.0013637099182233214
1782846192801650200,4.874650146484375,-0.0006810211343690753,-0.00028528831899166107,-0.0008685517823323607
1782846192811655200,4.8846552734375,-0.0011808046838268638,0.00005901185795664787,-0.00010545214172452688
1782846192821660200,4.89466015625,0.0018442801665514708,0.00011973199434578419,-0.0001792216207832098
1782846192831665200,4.9046650390625,-0.00024184980429708958,-0.00029270444065332413,-0.001461489824578166
1782846192841670400,4.91467041015625,-0.0017920758109539747,-0.0010232094209641218,0.001075437292456627
1782846192851675400,4.92467529296875,0.0001105812843888998,0.0017255793791264296,-0.0004411961417645216
1782846192861680400,4.934680419921875,-0.0015424428274855018,0.0021660663187503815,-0.0004105697153136134
1782846192871685400,4.944685302734375,0.0001849730033427477,0.0001062219962477684,0.001226570806466043
1782846192881690400,4.9546904296875,-0.0025085480883717537,0.001777089317329228,-0.0012704089749604464
1782846192891695400,4.9646953125,-0.0036046376917511225,-0.0034540630877017975,0.0037828763015568256
1782846192901700400,4.974700439453125,0.0006958348676562309,-0.0002044739667326212,-0.0031208363361656666
1782846192911705300,4.984705322265625,-0.0012433583615347743,-0.000014290213584899902,0.0007458876352757215
1782846192921710300,4.99471044921875,-0.002886794973164797,0.0014618998393416405,-0.0004567959113046527
1782846192931715300,5.00471533203125,0.00016112346202135086,0.0006840166170150042,0.00035244080936536193
1782846192941720300,5.01472021484375,-0.00037630251608788967,0.0021671310532838106,0.00122995232231915
1782846192951725300,5.024725341796875,0.000035343458876013756,-0.002457596594467759,-0.0024934743996709585
1782846192961730300,5.034730224609375,-0.0005963582079857588,-0.00014251074753701687,-0.0008297975873574615
1782846192971735300,5.0447353515625,-0.0017266038339585066,0.0011247009970247746,0.0014636865817010403
1782846192981740300,5.054740234375,-0.0010597483487799764,-0.0000904994085431099,0.0013172128237783909
1782846192991745300,5.064745361328125,-0.00009681633673608303,0.0011641450691968203,0.003627701895311475
1782846193001750300,5.074750244140625,-0.00032105459831655025,0.0024589737877249718,-0.0018139351159334183
1782846193011755300,5.08475537109375,-0.0027408520691096783,-0.0010990977752953768,-0.00231987820006907
1782846193021760300,5.09476025390625,-0.0028441825415939093,0.0019600752275437117,-0.0012879034038633108
1782846193031765200,5.10476513671875,-0.0017713854322209954,-0.0025040367618203163,-0.0014926795847713947
1782846193041770500,5.1147705078125,0.0003737907391041517,0.0018936413107439876,-0.0014572595246136189
1782846193051775500,5.124775390625,-0.0016576745547354221,-0.001415714155882597,0.0017546705203130841
1782846193061780500,5.134780517578125,-0.0012030729558318853,0.0005310566630214453,-0.0036134631372988224
1782846193071785500,5.144785400390625,-0.0009072680259123445,0.0013640249380841851,0.002915613353252411
1782846193081790500,5.15479052734375,0.0011833133175969124,0.0015166240045800805,0.001029296312481165
1782846193091795500,5.16479541015625,-0.0023499582894146442,-0.0005086187738925219,-0.0024522964376956224
1782846193101800400,5.174800537109375,-0.0012892212253063917,-0.0013784072361886501,0.0023030440788716078
1782846193111805400,5.184805419921875,-0.0003377299290150404,0.0005680685862898827,0.0022692792117595673
1782846193121810400,5.194810546875,0.0005485701840370893,0.0013742075534537435,-0.0017070865724235773
1782846193131815400,5.2048154296875,-0.00071783980820328,0.0011425763368606567,-0.0012412162031978369
1782846193141820400,5.2148203125,0.0007977650966495275,-0.0012486758641898632,-0.00018340861424803734
1782846193151825400,5.224825439453125,-0.0009802740532904863,-0.0021416903473436832,0.0017593435477465391
1782846193161830400,5.234830322265625,0.00007886509411036968,-0.0007464601658284664,-0.0004564065020531416
1782846193171835400,5.24483544921875,-0.00015804311260581017,0.0015662749065086246,0.00004455109592527151
1782846193181840400,5.25484033203125,-0.0006930720992386341,-0.00018715020269155502,-0.0012071345699951053
1782846193191845400,5.264845458984375,-0.0003112875856459141,0.0007118924986571074,0.0005008947919122875
1782846193201850400,5.274850341796875,-0.0013925310922786593,0.0005656848661601543,-0.000015225843526422977
1782846193211855400,5.28485546875,0.0010345287155359983,-0.0005019414238631725,0.0013513527810573578
1782846193221860400,5.2948603515625,0.001289926003664732,-0.002426075516268611,-0.001355750486254692
1782846193231865300,5.304865234375,-0.0012174197472631931,-0.0001228319015353918,-0.001919373869895935
1782846193241870300,5.314870361328125,-0.0012472470989450812,-0.001283437479287386,0.0015728292055428028
1782846193251875300,5.324875244140625,0.0003376167733222246,-0.00046955537982285023,0.002023284090682864
1782846193261880300,5.33488037109375,-0.0005412263562902808,-0.0005364005919545889,0.0025836131535470486
1782846193271885300,5.34488525390625,0.0006038167048245668,0.003128224052488804,0.00021694385213777423
1782846193281890300,5.354890380859375,0.0003058090806007385,-0.001538699259981513,0.0033962256275117397
1782846193291895300,5.364895263671875,-0.001955463085323572,-0.0008213247638195753,0.002354415599256754
1782846193301900300,5.374900390625,0.0007204811554402113,-0.002478343201801181,-0.000897570513188839
1782846193311905300,5.3849052734375,-0.0013095770264044404,0.0009315535426139832,0.000013192417100071907
1782846193321910300,5.39491015625,-0.0012653686571866274,-0.0019220237154513597,0.001236382289789617
1782846193331915300,5.404915283203125,-0.00009508966468274593,-0.0008323495276272297,-0.0004161560209468007
1782846193341920300,5.414920166015625,0.0023859110660851,-0.00051836296916008,0.0008632265380583704
1782846193351925200,5.42492529296875,-0.0020975687075406313,-0.0006409101188182831,-0.0008897481020539999
1782846193361930500,5.434930419921875,0.0006510799285024405,0.0006046504713594913,0.001927343662828207
1782846193371935500,5.444935546875,-0.0004195942310616374,-0.0005102085415273905,-0.0013229271862655878
1782846193381940500,5.4549404296875,0.0006770954933017492,0.0025614812038838863,0.0014827130362391472
1782846193391945500,5.464945556640625,0.0003315485082566738,-0.001512792892754078,-0.0009524712804704905
1782846193401950500,5.474950439453125,0.00004845438525080681,-0.0003457958810031414,-0.0014787118416279554
1782846193411955500,5.48495556640625,-0.0005701433401554823,0.0011440131347626448,0.0006513549014925957
1782846193421960400,5.49496044921875,-0.0004279306158423424,0.000035871751606464386,-0.0024874466471374035
1782846193431965400,5.50496533203125,0.0017372570000588894,-0.00028690649196505547,0.003820219077169895
1782846193441970400,5.514970458984375,0.0017308657988905907,0.00030325003899633884,-0.002111705718562007
1782846193451975400,5.524975341796875,0.0002966546453535557,-0.0006388518959283829,0.002355856355279684
1782846193461980400,5.53498046875,-0.00046527571976184845,-0.002798941917717457,0.002115639392286539
1782846193471985400,5.5449853515625,0.0006718295626342297,0.00006777746602892876,0.0018360883696004748
1782846193481990400,5.554990478515625,0.00039565982297062874,0.0012126704677939415,0.001110909623093903
1782846193491995400,5.564995361328125,0.0008941942360252142,0.0013683867873623967,-0.0018088213400915265
1782846193502000400,5.57500048828125,-0.0008656225400045514,-0.00016878987662494183,-0.0017512970371171832
1782846193512005400,5.58500537109375,0.0012584102805703878,0.0034025090280920267,0.0007890654960647225
1782846193522010400,5.59501025390625,-0.001986651448532939,-0.0013070250861346722,-0.0016336120897904038
1782846193532015400,5.605015380859375,0.0007411960978060961,-0.0014679443556815386,0.0010407848749309778
1782846193542020400,5.615020263671875,0.0013449345715343952,-0.0015571604017168283,0.003555341623723507
1782846193552025300,5.625025390625,0.001597556984052062,-0.000252158148214221,-0.0004053071606904268
1782846193562030300,5.6350302734375,0.001500351820141077,0.0012677080230787396,0.0017862081294879317
1782846193572035300,5.645035400390625,-0.0012843484291806817,0.000560712069272995,0.0010987009154632688
1782846193582040300,5.655040283203125,0.0014405979309231043,0.0004169011954218149,0.0014409171417355537
1782846193592045300,5.66504541015625,-0.00047359103336930275,-0.0013637244701385498,-0.0005064934957772493
1782846193602050300,5.67505029296875,-0.0010560243390500546,-0.002406618557870388,0.0014418751234188676
1782846193612055300,5.68505517578125,0.0002889630850404501,-0.0022991294972598553,-0.0014206033665686846
1782846193622060300,5.695060302734375,-0.0014719190075993538,-0.00027299649082124233,0.0026471088640391827
1782846193632065300,5.705065185546875,0.002976814517751336,0.00016549346037209034,-0.0015440532006323338
1782846193642070300,5.7150703125,-0.0006450844230130315,-0.0018236215692013502,0.0009563888306729496
1782846193652075300,5.7250751953125,0.00007639662362635136,-0.00014767772518098354,-0.0009200489148497581
1782846193662080300,5.735080322265625,0.0011480525135993958,-0.0014222667086869478,-0.0013285779859870672
1782846193672085200,5.745085205078125,-0.0004895327147096395,-0.00016965321265161037,-0.0014163653831928968
1782846193682090200,5.75509033203125,0.0007363203912973404,0.0008055963553488255,-0.0006176832830533385
1782846193692095200,5.76509521484375,-0.00001925579272210598,0.0008781165815889835,-0.003495924174785614
1782846193702100200,5.775100341796875,-0.0001542782410979271,-0.00014027627184987068,-0.001011993968859315
1782846193712105200,5.785105224609375,-0.000017999671399593353,0.0010874599684029818,0.0018331812461838126
1782846193722110200,5.795110107421875,0.00017694360576570034,0.0001657400280237198,0.0006001376896165311
1782846193732115200,5.805115234375,0.0010580634698271751,0.00034396606497466564,-0.0006406124448403716
1782846193742120200,5.8151201171875,0.00038375123403966427,0.0009863206651061773,0.0011365149402990937
1782846193752125200,5.825125244140625,0.0007742904126644135,-0.0008821033407002687,0.002559562213718891
1782846193762130400,5.83513037109375,0.001998279243707657,0.0020556296221911907,-0.0034903408959507942
1782846193772135400,5.845135498046875,-0.0003041245508939028,-0.0008687048684805632,-0.0009497380815446377
1782846193782140400,5.855140380859375,0.0010780561715364456,-0.0003989231772720814,0.0003871688386425376
1782846193792145400,5.8651455078125,0.0008441791869699955,0.0015435053501278162,-0.0006788538303226233
1782846193802150400,5.875150390625,0.002032481599599123,0.0007980866357684135,0.0013307675253599882
1782846193812155400,5.8851552734375,0.0013277295511215925,-0.0009221513755619526,0.0016527760308235884
1782846193822160400,5.895160400390625,-0.0009543331107124686,-0.00026275264099240303,0.00008310889825224876
1782846193832165400,5.905165283203125,0.0004924896638840437,-0.001420454354956746,0.0000025726621970534325
1782846193842170400,5.91517041015625,0.0003848979249596596,0.0022445875220000744,-0.0014552418142557144
1782846193852175400,5.92517529296875,-0.0011841175146400928,-0.0024227455724030733,0.002022319007664919
1782846193862180400,5.935180419921875,0.000028419774025678635,0.0011434934567660093,0.0017440186347812414
1782846193872185300,5.945185302734375,0.0008595150429755449,-0.0013636357616633177,0.0026244723703712225
1782846193882190600,5.955190673828125,0.00004192441701889038,0.00024411454796791077,0.0010036724852398038
1782846193892195600,5.965195556640625,0.0024189981631934643,-0.0008392015006393194,0.0009817209793254733
1782846193902200600,5.97520068359375,0.0013843600172549486,0.00029210932552814484,0.0024789501912891865
1782846193912205600,5.98520556640625,0.0009124993812292814,0.0016821251483634114,-0.00035251746885478497
1782846193922210600,5.99521044921875,0.0012139691971242428,0.0010126065462827682,0.0013529708376154304
1782846193932215600,6.005215576171875,-0.000298747094348073,-0.0008458592928946018,-0.0013160905800759792
1782846193942220500,6.015220458984375,0.0007047320250421762,-0.0006402633152902126,-0.0020452640019357204
1782846193952225500,6.0252255859375,-0.0003531465772539377,-0.0007568276487290859,-0.0037309546023607254
1782846193962230500,6.03523046875,-0.0018319998634979129,-0.0010636239312589169,-0.00040706293657422066
1782846193972235500,6.045235595703125,-0.0013348445063456893,-0.0009524624329060316,0.0001299594296142459
1782846193982240500,6.055240478515625,0.00009340886026620865,-0.00039852503687143326,0.0014178641140460968
1782846193992245500,6.06524560546875,0.0003165234811604023,-0.001897055422887206,-0.00012025085743516684
1782846194002250500,6.07525048828125,0.0023168236948549747,-0.000600362429395318,0.00003474508412182331
1782846194012255500,6.08525537109375,-0.0005943744909018278,-0.0019927946850657463,0.003032765816897154
1782846194022260500,6.095260498046875,0.00009458535350859165,-0.0009038280695676804,-0.001619243761524558
1782846194032265500,6.105265380859375,-0.0008450751192867756,0.00012841704301536083,0.0011833291500806808
1782846194042270500,6.1152705078125,-0.0006477348506450653,0.0009832917712628841,0.001978282816708088
1782846194052275500,6.125275390625,-0.0010908825788646936,0.0005076972302049398,-0.000027391710318624973
1782846194062280400,6.135280517578125,0.002367498353123665,0.0016161047387868166,0.000024806242436170578
1782846194072285400,6.145285400390625,0.00003985827788710594,0.0025383438915014267,-0.00037603103555738926
1782846194082290400,6.15529052734375,-0.0001979619264602661,0.000167597783729434,-0.0024359861854463816
1782846194092295400,6.16529541015625,-0.0001679188571870327,-0.000849967822432518,0.0015074306866154075
1782846194102300400,6.175300537109375,-0.0013556885533034801,0.0003487211652100086,-0.00023720611352473497
1782846194112305400,6.185305419921875,-0.0002383948303759098,-0.0014694479759782553,-0.00001721130684018135
1782846194122310400,6.195310302734375,-0.00003839144483208656,0.0007143442053347826,-0.0026212502270936966
1782846194132315400,6.2053154296875,-0.0012887699995189905,0.000737268477678299,-0.0009997303131967783
1782846194142320400,6.2153203125,0.00019008340314030647,0.0014853504253551364,-0.0011105176527053118
1782846194152325400,6.225325439453125,0.0004390999674797058,0.0009282203391194344,0.0002803037059493363
1782846194162330400,6.235330322265625,0.0023858705535531044,0.0014893484767526388,0.0007519494974985719
1782846194172335400,6.24533544921875,0.0015693418681621552,0.0022055325098335743,-0.0009440249996259809
1782846194182340400,6.25534033203125,-0.00004373490810394287,-0.00036921165883541107,0.00025945762172341347
1782846194192345300,6.265345458984375,-0.00005470705218613148,-0.00007123616524040699,-0.0025373268872499466
1782846194202350300,6.275350341796875,0.002224426018074155,0.0013460981426760554,-0.000146074453368783
1782846194212356400,6.2853564453125,0.0001222772989422083,0.0003673804458230734,0.00011482741683721542
1782846194222360300,6.2953603515625,-0.000673208967782557,0.000202530762180686,-0.0026247664354741573
1782846194232365300,6.305365234375,-0.0016007330268621445,0.0004952764138579369,0.0006506622303277254
1782846194242370300,6.315370361328125,0.0009540372993797064,-0.0022839982993900776,0.00041151035111397505
1782846194252375300,6.325375244140625,0.0001446420792490244,0.0004583662375807762,-0.00038328359369188547
1782846194262380300,6.33538037109375,-0.001206912100315094,-0.0008079668041318655,-0.002225658390671015
1782846194272385300,6.34538525390625,0.0006873814854770899,0.00013439031317830086,0.0004110736772418022
1782846194282390300,6.355390380859375,-0.0011680427705869079,-0.0003979757893830538,0.0003831104841083288
1782846194292395300,6.365395263671875,-0.0003857775591313839,-0.0021699476055800915,-0.000710131018422544
1782846194302400300,6.375400146484375,0.00015617581084370613,0.0000271601602435112,-0.0012358389794826508
1782846194312405200,6.3854052734375,-0.0012960487511008978,-0.0007351252716034651,0.0007672117208130658
1782846194322410200,6.39541015625,0.002204143675044179,0.0004337362479418516,-0.002153743291273713
1782846194332415200,6.405415283203125,-0.0015390156768262386,-0.002379421144723892,0.0019991714507341385
1782846194342420200,6.415420166015625,0.0008474430069327354,-0.0001524859108030796,-0.00008901313412934542
1782846194352425200,6.42542529296875,0.001763773150742054,0.00012036995030939579,0.0006925967172719538
1782846194362430200,6.43543017578125,-0.00021122721955180168,0.001510540023446083,0.001564781996421516
1782846194372436200,6.445436279296875,-0.0017880171071738005,0.00039811176247894764,0.0013508971314877272
1782846194382440400,6.4554404296875,0.0007696826942265034,-0.00004823412746191025,0.0010054850718006492
1782846194392445400,6.465445556640625,-0.00169354397803545,-0.0006440144497901201,-0.0005410650046542287
1782846194402450400,6.475450439453125,-0.00033559813164174557,-0.00033269100822508335,0.0017907987348735332
1782846194412455400,6.485455322265625,0.00026142969727516174,0.0034737528767436743,0.0011799467029049993
1782846194422460400,6.49546044921875,0.000022544292733073235,0.000016969861462712288,0.0006638260674662888
1782846194432466200,6.505466064453125,0.00030685216188430786,-0.00013195117935538292,-0.002302277833223343
1782846194442470400,6.515470458984375,0.0012767754960805178,0.002199379960075021,-0.0009110425598919392
1782846194452475400,6.525475341796875,0.0020817157346755266,0.0007503610104322433,0.0006592108984477818
1782846194462480400,6.53548046875,0.0004119137302041054,0.000033171847462654114,0.0016845278441905975
1782846194472486400,6.545486328125,-0.003018343122676015,0.0009681577794253826,-0.00013745040632784367
1782846194482491400,6.555491455078125,-0.0008121804567053914,0.000338852871209383,0.0011845426633954048
1782846194492495600,6.56549560546875,0.0007933150045573711,0.00036667054519057274,-0.0014342149952426553
1782846194502501400,6.57550146484375,-0.0004088359419256449,0.001485997112467885,-0.0021878895349800587
1782846194512505600,6.585505615234375,-0.0015606828965246677,0.00009852764196693897,0.0007099148351699114
1782846194522510600,6.595510498046875,0.0016678671818226576,-0.0015979057643562555,-0.00020275043789297342
1782846194532515600,6.605515625,0.001420724205672741,-0.0010724624153226614,-0.0004500962095335126
1782846194542520600,6.6155205078125,0.0006633212324231863,-0.0003102659247815609,0.0009331496548838913
1782846194552525600,6.625525634765625,-0.0010877616005018353,0.0008004794362932444,0.001659134402871132
1782846194562531600,6.635531494140625,-0.0007665843004360795,0.0005528056062757969,0.0032825972884893417
1782846194572536800,6.645536865234375,6.088521331548691e-7,0.0012089533265680075,0.0013293266529217362
1782846194582540500,6.65554052734375,0.001449634786695242,-0.0005042583215981722,0.0014584899181500077
1782846194592545500,6.665545654296875,0.00007343292236328125,-0.0005656485445797443,0.0002847560099326074
1782846194602551800,6.6755517578125,0.0010116645134985447,0.0007568772416561842,-0.0007227178430184722
1782846194612555500,6.685555419921875,-0.0005431897006928921,0.0008058939129114151,0.0014557286631315947
1782846194622560500,6.695560546875,0.0002562913578003645,-0.00205327570438385,0.0004115031915716827
1782846194632566800,6.70556689453125,-0.00032753939740359783,-0.0011642253957688808,0.0012906347401440144
1782846194642571800,6.71557177734375,-0.0006971861002966762,0.001119701424613595,0.00001791014801710844
1782846194652575500,6.725575439453125,0.00045602559112012386,0.00019278540275990963,0.00020057940855622292
1782846194662580500,6.73558056640625,0.00018997583538293839,0.00025084218941628933,0.0021540080197155476
1782846194672586800,6.745586669921875,-0.0020002657547593117,-0.0018997886218130589,0.0012569575337693095
1782846194682591700,6.755591796875,-0.0010617678053677082,-0.00030641956254839897,-0.0004248287295922637
1782846194692596700,6.7655966796875,-0.001839721342548728,-0.0012458870187401772,-0.00009936594869941473
1782846194702601700,6.775601806640625,0.000831961864605546,-0.0003225691616535187,0.0017272962722927332
1782846194712606700,6.785606689453125,-0.0009159804321825504,-0.000459419097751379,0.0017694210400804877
1782846194722610400,6.7956103515625,-0.002075254451483488,0.0014242345932871103,0.0034911546390503645
1782846194732616700,6.80561669921875,-0.00009469129145145416,-0.00201157433912158,-0.000003826804459095001
1782846194742620700,6.81562060546875,0.0023426334373652935,0.0023341719061136246,-0.00117295456584543
1782846194752625700,6.825625732421875,-0.00030482118017971516,-0.0010371953248977661,0.000750214618165046
1782846194762631700,6.835631591796875,0.0010038563050329685,0.0011636409908533096,-0.0005696479929611087
1782846194772636700,6.84563671875,-0.0003490124363452196,0.0007882693316787481,0.0007653938373550773
1782846194782640600,6.855640625,0.0018733954057097435,-0.0016309460625052452,0.003051717532798648
1782846194792645600,6.865645751953125,-0.002806807169690728,0.0008658641017973423,0.002463565208017826
1782846194802651600,6.875651611328125,0.0004614240024238825,0.00017903465777635574,0.003448135918006301
1782846194812656600,6.88565673828125,-0.000581835862249136,-0.0005454907659441233,-0.0003074000123888254
1782846194822661600,6.89566162109375,0.00003202282823622227,-0.0001833008136600256,0.0014076756779104471
1782846194832666600,6.90566650390625,0.0015583289787173271,0.0010871945414692163,0.0022931499406695366
1782846194842671600,6.915671630859375,0.0004299473948776722,0.003609474515542388,-0.00014870252925902605
1782846194852675600,6.925675537109375,0.00009246659465134144,-0.000941448612138629,-0.001538668293505907
1782846194862681600,6.935681640625,-0.000830851262435317,-0.00033691106364130974,0.0005154279060661793
1782846194872686600,6.9456865234375,0.0009529218077659607,0.0011586383916437626,-0.0005199859151616693
1782846194882690600,6.955690673828125,0.0002863325644284487,0.00012719607912003994,0.00023049279116094112
1782846194892696600,6.965696533203125,-0.0002458940725773573,-0.001100210938602686,-0.0006019958527758718
1782846194902701600,6.97570166015625,0.0004611751064658165,0.0003845011815428734,-0.00030132499523460865
1782846194912706600,6.98570654296875,-0.0006568280514329672,-0.00018374063074588776,0.001888628932647407
1782846194922711600,6.995711669921875,-0.0010677538812160492,-0.0006948013324290514,-0.0025601815432310104
1782846194932716500,7.005716552734375,-0.001501815509982407,-0.000257221981883049,0.00016498536569997668
1782846194942720800,7.015720703125,-0.0017343094805255532,0.00271459948271513,0.002236391883343458
1782846194952726500,7.0257265625,-0.0008600101573392749,-0.0013245220761746168,-0.000997944618575275
1782846194962731500,7.0357314453125,-0.0009492260869592428,-0.00031092274002730846,-0.0007041979115456343
1782846194972736500,7.045736572265625,0.0016232684720307589,0.0008720951154828072,0.002962865401059389
1782846194982741500,7.055741455078125,0.0016922445502132177,-0.001663500675931573,-0.00016581628005951643
1782846194992746500,7.06574658203125,0.0019931825809180737,0.0009572957642376423,0.0008160097640939057
1782846195002750700,7.075750732421875,-0.0028503085486590862,-0.0011098496615886688,0.0009941752068698406
1782846195012755700,7.085755615234375,-0.0018790821777656674,-0.0012096227146685123,-0.0006765341386198997
1782846195022761500,7.095761474609375,-0.0033089332282543182,0.0003725613933056593,0.0029118089005351067
1782846195032765700,7.105765625,-0.0018629012629389763,-0.0010813993867486715,0.00031634303741157055
1782846195042771500,7.115771484375,-0.000047690700739622116,0.0035325270146131516,-0.0019963460508733988
1782846195052776400,7.1257763671875,-0.0016847869846969843,-0.0020377375185489655,-0.0006521219620481133
1782846195062780700,7.13578076171875,-0.000437362352386117,-0.00012612040154635906,0.0007463039364665747
1782846195072786700,7.14578662109375,0.000014762161299586296,0.0012151573318988085,0.000828510383144021
1782846195082791700,7.155791748046875,-0.00037192879244685173,-0.0003113667480647564,-0.0015523555921390653
1782846195092796700,7.165796630859375,-0.0019296430982649326,-0.0003947948571294546,-0.0014659094158560038
1782846195102800600,7.175800537109375,0.002329284092411399,0.00013410882093012333,-0.002659271936863661
1782846195112805600,7.1858056640625,-0.00023292005062103271,0.00014403555542230606,0.00329802930355072
1782846195122811600,7.195811767578125,-0.0008691492257639766,0.0004934421740472317,0.0031909700483083725
1782846195132815600,7.205815673828125,-0.00046653044410049915,-0.0009407680481672287,-0.00025686423759907484
1782846195142820600,7.215820556640625,0.001140953740105033,-0.0012022904120385647,0.0021860534325242043
1782846195152826600,7.22582666015625,-0.0019836232531815767,-0.0001646154560148716,0.002192568499594927
1782846195162831600,7.23583154296875,-0.0002344590611755848,0.0006891940720379353,-0.0024969917722046375
1782846195172835600,7.245835693359375,0.0003188652917742729,-0.00007444201037287712,-0.0023879369255155325
1782846195182841600,7.255841552734375,0.0000834418460726738,-0.0003234476316720247,-0.0008081498090177774
1782846195192845600,7.265845458984375,0.0001007462851703167,-0.0011406540870666504,0.002293112687766552
1782846195202851600,7.2758515625,0.0007851787377148867,0.0005038480740040541,-0.0005511433118954301
1782846195212856600,7.285856689453125,0.0005404762923717499,0.0014483485138043761,0.0006819944828748703
1782846195222861600,7.295861572265625,0.00018947175703942776,0.0000991912093013525,0.00036348041612654924
1782846195232866600,7.305866455078125,0.001598613802343607,0.00048106303438544273,0.0007589109591208398
1782846195242870500,7.31587060546875,0.0007687730249017477,0.000672011636197567,-0.001252308371476829
1782846195252876500,7.32587646484375,0.002955358475446701,-0.001647422555834055,-0.0011555104283615947
1782846195262881500,7.335881591796875,0.0009380141273140907,-0.0012972168624401093,-0.000279064173810184
1782846195272886500,7.345886474609375,-0.0009297116193920374,-0.00014202226884663105,0.0029455209150910378
1782846195282891500,7.3558916015625,-0.0014375763712450862,-0.000673589063808322,0.0005462790722958744
1782846195292895500,7.3658955078125,-0.0007680492708459496,-0.000006803078576922417,-0.00005566747859120369
1782846195302900500,7.375900390625,-0.000617580721154809,-0.00007258309051394463,-0.002087126951664686
1782846195312906500,7.385906494140625,0.0005473622586578131,0.0003560560289770365,-0.0011925568105652928
1782846195322911500,7.395911376953125,-0.001523511833511293,-0.0010660719126462936,-0.0016226574080064893
1782846195332915500,7.40591552734375,0.0009367309976369143,0.0006512552499771118,0.002153271809220314
1782846195342921500,7.41592138671875,0.0003303291741758585,-0.0010150843299925327,0.00016335787950083613
1782846195352925400,7.425925537109375,-0.0019562304951250553,-0.0011181652080267668,0.0014468342997133732
1782846195362930400,7.435930419921875,-0.003079551737755537,-0.0038580254185944796,0.0001719790743663907
1782846195372935400,7.445935302734375,-0.001666101859882474,0.0012192076537758112,0.00012258323840796947
1782846195382940400,7.4559404296875,0.0011912037152796984,-0.0000764201395213604,-0.00005238642916083336
1782846195392946400,7.465946533203125,-0.0004210788756608963,-0.0019426941871643066,0.0025330507196485996
1782846195402951400,7.475951416015625,-0.00035476614721119404,-0.0003447975032031536,0.0005444681737571955
1782846195412955600,7.48595556640625,0.00031929113902151585,-0.00016369251534342766,-0.00002850918099284172
1782846195422961400,7.49596142578125,0.0012849534396082163,0.00070929154753685,-0.00027005793526768684
1782846195432965600,7.505965576171875,0.0016946087125688791,0.0006447741761803627,-0.00015557801816612482
1782846195442970600,7.515970703125,0.0010405362118035555,0.001361963339149952,-0.001072504324838519
1782846195452975600,7.5259755859375,-0.0019754734821617603,0.0007673949003219604,-0.002329857787117362
1782846195462980600,7.535980712890625,0.0004578570369631052,-0.0015205268282443285,0.0012563548516482115
1782846195472986600,7.545986572265625,-0.0010006105294451118,-0.0016494954470545053,0.001971189398318529
1782846195482990600,7.555990478515625,-0.0012568066595122218,-0.00040713069029152393,0.0021642684005200863
1782846195492995600,7.56599560546875,-0.0006848792545497417,-0.0002559926360845566,-0.0025720172561705112
1782846195503000600,7.57600048828125,0.0001694627571851015,0.0004745123442262411,-0.0014574844390153885
1782846195513005600,7.586005615234375,0.0006630311254411936,-0.0008812891319394112,-0.0005525994347408414
1782846195523010600,7.596010498046875,0.00046116369776427746,-0.0006509255617856979,0.000135561334900558
1782846195533015600,7.606015625,-0.000748802674934268,0.00009810389019548893,-0.001433906494639814
1782846195543020500,7.6160205078125,-0.0006012634839862585,0.0008946554735302925,-0.001541231875307858
1782846195553025500,7.626025634765625,0.00016254629008471966,-0.0015221615321934223,0.0025738063268363476
1782846195563030500,7.636030517578125,0.0001468334812670946,0.0004467132966965437,-0.0012962993932887912
1782846195573035500,7.646035400390625,-0.0008804599056020379,0.0009302629623562098,0.0017678504809737206
1782846195583040500,7.65604052734375,0.0018341003451496363,-0.0016143876127898693,0.0018842306453734636
1782846195593045500,7.66604541015625,0.00034687365405261517,0.0014467077562585473,-0.0033635946456342936
1782846195603050500,7.676050537109375,-0.0006984170759096742,0.00020540831610560417,0.00031716044759377837
1782846195613055500,7.686055419921875,0.00036218436434865,-0.0006516643334180117,-0.0010114784818142653
1782846195623060500,7.696060546875,0.0010660579428076744,0.0016751395305618644,-0.0013515641912817955
1782846195633065500,7.7060654296875,-0.000643610954284668,-0.0010222892742604017,0.0012028171913698316
1782846195643070500,7.716070556640625,0.0018981099128723145,-0.00045769941061735153,-0.00023209396749734879
1782846195653075500,7.726075439453125,-0.0005458106752485037,-0.0002090118359774351,-0.00215600966475904
1782846195663080400,7.73608056640625,0.0006749823223799467,-0.000630856491625309,-0.00034745701123028994
1782846195673085400,7.74608544921875,-0.0009086390491575003,0.0001738059800118208,-0.0008928414899855852
1782846195683090400,7.75609033203125,-0.0017190389335155487,-0.00010103220120072365,0.00039293267764151096
1782846195693095400,7.766095458984375,-0.0024257907643914223,-0.0015049956273287535,0.00027370237512513995
1782846195703100400,7.776100341796875,-0.0015450832433998585,-0.0006197607144713402,0.0018074167892336845
1782846195713105400,7.78610546875,-0.0002472919877618551,-0.0024641784839332104,-0.0014855285407975316
1782846195723110400,7.7961103515625,-0.001544784172438085,-0.0008593574166297913,0.0021451590582728386
1782846195733115400,7.806115478515625,0.0010696668177843094,0.0017512425547465682,-0.0004095877520740032
1782846195743120400,7.816120361328125,-0.0018587451195344329,-0.00011776387691497803,-0.0009531389223411679
1782846195753125400,7.82612548828125,0.0006914969999343157,0.001330220140516758,-0.0037948964163661003
1782846195763130400,7.83613037109375,0.0007242539431899786,-0.0011340028140693903,0.00023792835418134928
1782846195773135400,7.84613525390625,0.0009115661960095167,-0.001271875575184822,0.00014291697880253196
1782846195783140400,7.856140380859375,0.0007155574858188629,0.001268513617105782,-0.0012903964379802346
1782846195793145300,7.866145263671875,0.00010408763773739338,0.0011431541061028838,-0.0016380449524149299
1782846195803150300,7.876150390625,0.0002897100057452917,-0.0009042839519679546,-0.002013550605624914
1782846195813155300,7.8861552734375,0.00020582601428031921,-0.0013678781688213348,0.002572382567450404
1782846195823160300,7.896160400390625,-0.001332415733486414,-0.002350051887333393,-0.0005853275069966912
1782846195833165300,7.906165283203125,0.0009239078499376774,0.0022708021569997072,-0.002447404433041811
1782846195843170300,7.91617041015625,-0.0016140845837071538,-0.0025652318727225065,0.001474366639740765
1782846195853175300,7.92617529296875,-0.0009415127569809556,0.0009727089200168848,-0.00028174242470413446
1782846195863180300,7.93618017578125,0.001366649055853486,0.0006291612517088652,-0.0012849551858380437
1782846195873185300,7.946185302734375,-0.002558015985414386,0.0014273850247263908,0.00006082240724936128
1782846195883190300,7.956190185546875,0.0007722668815404177,-0.0001766369678080082,-0.0004851255798712373
1782846195893195300,7.9661953125,-0.0020260245073586702,0.0006620935164391994,0.00035531033063307405
1782846195903200500,7.976200439453125,-0.0019402706529945135,-0.0023163859732449055,-0.00017093028873205185
1782846195913205500,7.98620556640625,-0.0004948796704411507,0.0015778690576553345,-0.0015375771326944232
1782846195923210500,7.99621044921875,-0.0026752096600830555,-0.001335096312686801,-0.00041745160706341267
1782846195933215500,8.006215576171876,-0.00023056729696691036,-0.00017072539776563644,0.001883005490526557
1782846195943220500,8.016220458984375,0.003610776038840413,0.00016403407789766788,0.001356498571112752
1782846195953225500,8.0262255859375,-0.002061118371784687,-0.0018503465689718723,-0.001799189718440175
1782846195963230500,8.03623046875,-0.0005263388156890869,0.002473561791703105,-0.0008574959356337786
1782846195973235500,8.0462353515625,0.0019358827266842127,-0.0007696948014199734,0.0013685885351151228
1782846195983240400,8.056240478515624,-0.0004966487176716328,-0.0006112365517765284,0.0005651129176840186
1782846195993245400,8.066245361328125,-0.0018578616436570883,-0.0018982135225087404,0.0008473581401631236
1782846196003250400,8.07625048828125,0.0010700174607336521,0.0011188816279172897,0.0003549396642483771
1782846196013255400,8.08625537109375,0.00004630116745829582,0.0024788661394268274,-0.001375103136524558
1782846196023260400,8.096260498046876,0.0013523153029382229,0.0014298470923677087,-0.0008901415858417749
1782846196033265400,8.106265380859375,0.0005103519652038813,0.0008680087048560381,-0.0014907319564372301
1782846196043270400,8.1162705078125,0.00023870961740612984,0.0024395401123911142,0.0011916037183254957
1782846196053275400,8.126275390625,-0.0010434800060465932,-0.00021734111942350864,0.0030837978702038527
1782846196063280600,8.13628076171875,-0.00031057815067470074,-0.0005768679548054934,-0.0001215827651321888
1782846196073285600,8.14628564453125,0.0012044417671859264,0.001045007025822997,-0.001751583069562912
1782846196083290600,8.15629052734375,-0.0005407277494668961,-0.0004532872699201107,-0.00034330342896282673
1782846196093295600,8.166295654296874,-0.0019483224023133516,0.00025340914726257324,-0.0005510492483153939
1782846196103300600,8.176300537109375,0.0004605068825185299,0.0016225402941927314,-0.00021708884742110968
1782846196113305600,8.1863056640625,-0.0018115451093763113,-0.0008770620916038752,-0.000187456957064569
1782846196123310600,8.196310546875,0.0016558908391743898,0.000013499055057764053,0.00047513755271211267
1782846196133315600,8.206315673828126,0.000010212650522589684,-0.0012007772456854582,-0.0015619451878592372
1782846196143320600,8.216320556640625,-0.0008675652788951993,-0.0012290070299059153,-0.0016468999674543738
1782846196153325600,8.22632568359375,-0.002078549237921834,-0.002012025797739625,0.001485389657318592
1782846196163330600,8.23633056640625,-0.0016340676229447126,0.00035126321017742157,0.00008483324199914932
1782846196173335600,8.24633544921875,0.0006987820379436016,0.0005803892854601145,0.00005756376776844263
1782846196183340500,8.256340576171874,-0.00489385612308979,-0.0014332267455756664,-0.00038132513873279095
1782846196193345500,8.266345458984375,-0.0005795105826109648,0.0011066480074077845,-0.0028022821061313152
1782846196203350500,8.2763505859375,0.0016386364586651325,0.000548715703189373,-0.0015319540398195386
1782846196213355500,8.28635546875,0.0006640392821282148,0.000010351184755563736,0.002565333852544427
1782846196223360500,8.296360595703124,0.0020464863628149033,-0.00043173343874514103,0.000008432893082499504
1782846196233365500,8.306365478515625,0.0010749103967100382,-0.001884241821244359,0.0005141058936715126
1782846196243370500,8.31637060546875,0.0008911523036658764,0.0005743885412812233,0.0005007901345379651
1782846196253375500,8.32637548828125,-0.00026637944392859936,0.0007403625641018152,-0.0010603559203445911
1782846196263380500,8.33638037109375,0.0005562710575759411,0.0005715182051062584,-0.0002446298021823168
1782846196273385500,8.346385498046875,0.0005333740264177322,-0.0000021241139620542526,-0.001310347463004291
1782846196283390500,8.356390380859375,0.0006241877563297749,0.0002000096719712019,-0.001843246049247682
1782846196293395500,8.3663955078125,0.001100366935133934,0.0005857697688043118,-0.0010093204909935594
1782846196303400400,8.376400390625,-0.00029193353839218616,-0.00009786360897123814,0.0010777987772598863
1782846196313405400,8.386405517578124,-0.0005179012659937143,0.0005036131478846073,0.0022376556880772114
1782846196323410400,8.396410400390625,-0.0008715690346434712,-0.000013572629541158676,0.000422178884036839
1782846196333415400,8.40641552734375,0.00004759710282087326,-0.0006129271350800991,-0.00031860568560659885
1782846196343420400,8.41642041015625,0.001573055749759078,-0.0011647341307252645,0.0014697070000693202
1782846196353425400,8.42642529296875,-0.0007742989109829068,-0.00022903899662196636,-0.0012553546112030745
1782846196363430400,8.436430419921875,0.00007551582530140877,-0.00012517557479441166,-0.0010795858688652515
1782846196373435400,8.446435302734375,-0.0007671847706660628,-0.0003840194549411535,-0.0024887723848223686
1782846196383440400,8.4564404296875,-0.0010180545505136251,-0.00039680255576968193,-0.0005699648754671216
1782846196393445400,8.4664453125,0.0004424452781677246,-0.002483088057488203,0.000395650218706578
1782846196403450400,8.476450439453124,-0.00031442497856914997,0.0008232262916862965,-0.00022539892233908176
1782846196413455400,8.486455322265625,0.0003800403792411089,0.0019837887957692146,0.0007815209683030844
1782846196423460600,8.496460693359374,-0.0005912145134061575,-0.0005118595436215401,0.0017908590380102396
1782846196433465600,8.506465576171875,-0.0016443317290395498,0.0004555901978164911,-0.001146922237239778
1782846196443470600,8.516470703125,-0.0003886513877660036,-0.001285584643483162,0.0012161006452515721
1782846196453475600,8.5264755859375,-0.0003327892627567053,0.0015139530878514051,0.0031837006099522114
1782846196463480600,8.53648046875,0.000780944712460041,0.0016188817098736763,-0.0005860037636011839
1782846196473485600,8.546485595703125,0.0002205038908869028,-0.00016709393821656704,-0.0007183091947808862
1782846196483489800,8.55648974609375,-0.002855180762708187,0.0021517202258110046,-0.0006424090825021267
1782846196493494800,8.566494873046874,0.0002604967448860407,0.0009474609978497028,-0.0022141030058264732
1782846196503499800,8.576499755859375,0.003100225469097495,-0.0013311398215591908,0.001597679452970624
1782846196513504800,8.5865048828125,-0.0008241719333454967,0.00046600657515227795,-0.002624520566314459
1782846196523509800,8.596509765625,0.0009225953835994005,0.0025355492252856493,-0.0006231548031792045
1782846196533514800,8.6065146484375,-0.0004390489775687456,-0.0013422700576484203,0.0006258839857764542
1782846196543519700,8.616519775390625,-0.0012981847394257784,0.15257059037685394,0.038160212337970734
1782846196553524700,8.626524658203126,0.008754299953579903,-0.041045181453228,-0.006420664023607969
1782846196563529700,8.63652978515625,-0.004434207454323769,0.041170861572027206,0.002558449748903513
1782846196573534700,8.64653466796875,0.0022811139933764935,-0.02252195030450821,-0.0038742986507713795
1782846196583539700,8.656539794921875,0.00023420853540301323,0.010335063561797142,-0.0024790684692561626
1782846196593544700,8.666544677734375,-0.001035138382576406,-0.028402958065271378,-0.008360784500837326
1782846196603550000,8.676550048828124,-0.0037784604355692863,0.007434399798512459,-0.0034435237757861614
1782846196613555000,8.686554931640625,0.0036034141667187214,-0.003351648570969701,0.0003161915810778737
1782846196623560000,8.696559814453124,0.0016470556147396564,-0.00042350287549197674,0.002266158116981387
