time,seconds_elapsed,z,y,x
1782845375139332400,0.069332275390625,-1.0686492919921875,-0.2530059814453125,0.254608154296875
1782845375149336300,0.07933642578125,-1.072418212890625,-0.238311767578125,0.2298736572265625
1782845375159341300,0.08934130859375,-1.0631103515625,-0.229888916015625,0.2030792236328125
1782845375169345300,0.09934521484375,-1.044189453125,-0.23968505859375,0.1731414794921875
1782845375179350300,0.109350341796875,-1.0151519775390625,-0.254852294921875,0.140899658203125
1782845375189354500,0.1193544921875,-0.993438720703125,-0.261749267578125,0.1190032958984375
1782845375199359500,0.129359375,-0.980438232421875,-0.2667999267578125,0.109100341796875
1782845375209363200,0.13936328125,-0.979400634765625,-0.2715911865234375,0.1066131591796875
1782845375219367200,0.1493671875,-0.9929046630859375,-0.2710418701171875,0.107330322265625
1782845375229372200,0.1593720703125,-1.002960205078125,-0.2522125244140625,0.1188507080078125
1782845375239376400,0.16937646484375,-1.009246826171875,-0.2303924560546875,0.1321563720703125
1782845375249381400,0.17938134765625,-1.0203094482421875,-0.2180633544921875,0.132843017578125
1782845375259385300,0.18938525390625,-1.0361328125,-0.2126922607421875,0.1278533935546875
1782845375269390300,0.199390380859375,-1.04376220703125,-0.1839752197265625,0.1298980712890625
1782845375279394300,0.209394287109375,-1.0488739013671875,-0.1315765380859375,0.1301422119140625
1782845375289399300,0.2193994140625,-1.0462646484375,-0.0943145751953125,0.1192169189453125
1782845375299403300,0.2294033203125,-1.0363616943359375,-0.0653076171875,0.105377197265625
1782845375309408300,0.239408203125,-1.0267791748046875,-0.0416107177734375,0.10528564453125
1782845375319412200,0.249412109375,-1.017242431640625,-0.031890869140625,0.1109619140625
1782845375329417200,0.259417236328125,-1.0025787353515625,-0.02069091796875,0.1164398193359375
1782845375339421200,0.269421142578125,-0.982574462890625,-0.01593017578125,0.124053955078125
1782845375349426200,0.27942626953125,-0.9565887451171875,-0.018646240234375,0.129638671875
1782845375359430400,0.289430419921875,-0.92376708984375,-0.0167388916015625,0.1309661865234375
1782845375369435400,0.299435302734375,-0.897918701171875,-0.0181884765625,0.1203765869140625
1782845375379439400,0.309439453125,-0.8803253173828125,-0.02581787109375,0.0994110107421875
1782845375389443300,0.319443359375,-0.871063232421875,-0.04046630859375,0.0715484619140625
1782845375399448300,0.3294482421875,-0.8681793212890625,-0.06170654296875,0.0557861328125
1782845375409452300,0.339452392578125,-0.8693389892578125,-0.0777435302734375,0.048370361328125
1782845375419457300,0.349457275390625,-0.880767822265625,-0.0941619873046875,0.0497894287109375
1782845375429461200,0.359461181640625,-0.9005584716796875,-0.115997314453125,0.052154541015625
1782845375439466200,0.36946630859375,-0.9234771728515625,-0.137115478515625,0.056060791015625
1782845375449470200,0.37947021484375,-0.9510040283203125,-0.1520233154296875,0.06378173828125
1782845375459475200,0.38947509765625,-0.977691650390625,-0.159423828125,0.069854736328125
1782845375469479400,0.3994794921875,-1.004791259765625,-0.155181884765625,0.0751190185546875
1782845375479484400,0.409484375,-1.0132293701171875,-0.1603546142578125,0.072113037109375
1782845375489488400,0.41948828125,-1.0076446533203125,-0.16693115234375,0.070556640625
1782845375499493400,0.429493408203125,-0.998565673828125,-0.1667327880859375,0.0646820068359375
1782845375509497300,0.439497314453125,-0.990631103515625,-0.1620941162109375,0.0558929443359375
1782845375519502300,0.44950244140625,-0.98480224609375,-0.15679931640625,0.0471649169921875
1782845375529506300,0.45950634765625,-0.981048583984375,-0.1422576904296875,0.033355712890625
1782845375539511300,0.46951123046875,-0.97625732421875,-0.1215667724609375,0.01751708984375
1782845375549515300,0.479515380859375,-0.978759765625,-0.11602783203125,0.0013885498046875
1782845375559520300,0.489520263671875,-0.9724273681640625,-0.121612548828125,-0.0157012939453125
1782845375569524200,0.499524169921875,-0.9642333984375,-0.131256103515625,-0.01751708984375
1782845375579528400,0.509528564453125,-0.951507568359375,-0.144561767578125,-0.01263427734375
1782845375589533400,0.519533447265625,-0.93634033203125,-0.1480712890625,0.001068115234375
1782845375599537400,0.529537353515625,-0.917327880859375,-0.1556396484375,0.0185089111328125
1782845375609542400,0.53954248046875,-0.88671875,-0.17437744140625,0.0333709716796875
1782845375619546400,0.54954638671875,-0.845001220703125,-0.192718505859375,0.0399017333984375
1782845375629551400,0.55955126953125,-0.8009490966796875,-0.1985321044921875,0.037567138671875
1782845375639555300,0.569555419921875,-0.76959228515625,-0.210357666015625,0.0229034423828125
1782845375649560300,0.579560302734375,-0.765533447265625,-0.229217529296875,0.0119476318359375
1782845375659564300,0.589564208984375,-0.8058929443359375,-0.2364349365234375,0.01336669921875
1782845375669569300,0.5995693359375,-0.8756561279296875,-0.2408905029296875,0.022430419921875
1782845375679573200,0.6095732421875,-0.9600677490234375,-0.243377685546875,0.0363922119140625
1782845375689578200,0.619578125,-1.043914794921875,-0.23822021484375,0.0512237548828125
1782845375699583200,0.629583251953125,-1.11138916015625,-0.24298095703125,0.0595550537109375
1782845375709588200,0.639588134765625,-1.172943115234375,-0.24444580078125,0.0601654052734375
1782845375719592400,0.649592529296875,-1.2252349853515625,-0.2336273193359375,0.0537567138671875
1782845375729597400,0.659597412109375,-1.25164794921875,-0.2193756103515625,0.036407470703125
1782845375739601400,0.669601318359375,-1.241119384765625,-0.2094268798828125,0.01409912109375
1782845375749606400,0.6796064453125,-1.2000732421875,-0.205047607421875,-0.00341796875
1782845375759610400,0.6896103515625,-1.139984130859375,-0.2003173828125,-0.0080718994140625
1782845375769614300,0.6996142578125,-1.06787109375,-0.19232177734375,-0.0098876953125
1782845375779619300,0.709619384765625,-0.9931793212890625,-0.1870574951171875,-0.01080322265625
1782845375789623300,0.719623291015625,-0.9308013916015625,-0.1882171630859375,-0.0006103515625
1782845375799628300,0.729628173828125,-0.87518310546875,-0.19012451171875,0.016265869140625
1782845375809632300,0.73963232421875,-0.8312225341796875,-0.1931915283203125,0.031463623046875
1782845375819637200,0.74963720703125,-0.8035125732421875,-0.1957855224609375,0.040802001953125
1782845375829641200,0.75964111328125,-0.7880859375,-0.19464111328125,0.0501708984375
1782845375839646500,0.769646484375,-0.78643798828125,-0.194366455078125,0.0575103759765625
1782845375849650400,0.779650390625,-0.795166015625,-0.1911468505859375,0.066192626953125
1782845375859655400,0.789655517578125,-0.8146820068359375,-0.19488525390625,0.077911376953125
1782845375869659100,0.7996591796875,-0.8454742431640625,-0.201812744140625,0.0920257568359375
1782845375879664400,0.809664306640625,-0.8656005859375,-0.22406005859375,0.093231201171875
1782845375889668400,0.81966845703125,-0.878143310546875,-0.2415771484375,0.0914154052734375
1782845375899673300,0.82967333984375,-0.89105224609375,-0.237823486328125,0.0826568603515625
1782845375909677300,0.83967724609375,-0.90985107421875,-0.2312469482421875,0.0651702880859375
1782845375919682300,0.849682373046875,-0.940673828125,-0.235992431640625,0.042205810546875
1782845375929686300,0.859686279296875,-0.9868621826171875,-0.236572265625,0.025115966796875
1782845375939690200,0.869690185546875,-1.0347900390625,-0.229248046875,0.016387939453125
1782845375949695200,0.8796953125,-1.0767822265625,-0.2202301025390625,0.0082855224609375
1782845375959699500,0.889699462890625,-1.10797119140625,-0.2180938720703125,-0.0040740966796875
1782845375969704400,0.899704345703125,-1.1157989501953125,-0.22564697265625,-0.023040771484375
1782845375979708200,0.909708251953125,-1.0991058349609375,-0.23236083984375,-0.03094482421875
1782845375989713200,0.919713134765625,-1.0718841552734375,-0.2448272705078125,-0.0321197509765625
1782845375999717000,0.929717041015625,-1.049346923828125,-0.2551422119140625,-0.02276611328125
1782845376009722000,0.93972216796875,-1.0382843017578125,-0.26513671875,-0.0100860595703125
1782845376019726300,0.949726318359375,-1.046875,-0.26702880859375,0.003021240234375
1782845376029731300,0.9597314453125,-1.0576934814453125,-0.2638092041015625,0.0169525146484375
1782845376039735300,0.9697353515625,-1.0652313232421875,-0.2535400390625,0.02996826171875
1782845376049740300,0.979740234375,-1.060760498046875,-0.238983154296875,0.02789306640625
1782845376059744300,0.989744140625,-1.0475006103515625,-0.219940185546875,0.014617919921875
1782845376069749200,0.999749267578125,-1.0225372314453125,-0.198333740234375,0.001068115234375
1782845376079753500,1.00975341796875,-0.9825439453125,-0.1962127685546875,-0.005950927734375
1782845376089758500,1.019758544921875,-0.942413330078125,-0.2084503173828125,-0.0047607421875
1782845376099762200,1.02976220703125,-0.916748046875,-0.2125244140625,0.00701904296875
1782845376109767200,1.03976708984375,-0.9060821533203125,-0.2194366455078125,0.028228759765625
1782845376119771100,1.049771240234375,-0.9217681884765625,-0.2296142578125,0.045074462890625
1782845376129775400,1.059775390625,-0.9617767333984375,-0.23248291015625,0.0586700439453125
1782845376139780400,1.0697802734375,-1.01824951171875,-0.231719970703125,0.0660247802734375
1782845376149784300,1.079784423828125,-1.0714569091796875,-0.2269134521484375,0.0726318359375
1782845376159789300,1.089789306640625,-1.12255859375,-0.212005615234375,0.074554443359375
1782845376169793300,1.099793212890625,-1.1560516357421875,-0.1901702880859375,0.065032958984375
1782845376179798300,1.10979833984375,-1.1700592041015625,-0.181671142578125,0.044769287109375
1782845376189802500,1.119802490234375,-1.1771697998046875,-0.200042724609375,0.0181884765625
1782845376199807500,1.129807373046875,-1.158294677734375,-0.2098846435546875,-0.0055084228515625
1782845376209811200,1.139811279296875,-1.1197052001953125,-0.2135162353515625,-0.024139404296875
1782845376219816200,1.149816162109375,-1.067047119140625,-0.214324951171875,-0.0525054931640625
1782845376229820200,1.159820068359375,-0.99859619140625,-0.2107086181640625,-0.0825958251953125
1782845376239825200,1.1698251953125,-0.928314208984375,-0.201690673828125,-0.1003265380859375
1782845376249829400,1.179829345703125,-0.8631744384765625,-0.193695068359375,-0.098358154296875
1782845376259834400,1.18983447265625,-0.8064117431640625,-0.1926422119140625,-0.0954437255859375
1782845376269838300,1.19983837890625,-0.7683563232421875,-0.1857147216796875,-0.0915374755859375
1782845376279843300,1.20984326171875,-0.740509033203125,-0.174224853515625,-0.08624267578125
1782845376289847300,1.219847412109375,-0.722015380859375,-0.177825927734375,-0.0855712890625
1782845376299851500,1.2298515625,-0.712890625,-0.188507080078125,-0.07916259765625
1782845376309856500,1.2398564453125,-0.7197265625,-0.1968841552734375,-0.06396484375
1782845376319860200,1.249860107421875,-0.7502288818359375,-0.200714111328125,-0.0343170166015625
1782845376329865200,1.259865234375,-0.792572021484375,-0.19970703125,0.010223388671875
1782845376339869200,1.269869140625,-0.8463592529296875,-0.198822021484375,0.046478271484375
1782845376349874200,1.279874267578125,-0.9067840576171875,-0.1894989013671875,0.0746612548828125
1782845376359878400,1.28987841796875,-0.9693450927734375,-0.171051025390625,0.1040191650390625
1782845376369883400,1.29988330078125,-1.0307159423828125,-0.1575164794921875,0.13043212890625
1782845376379887400,1.309887451171875,-1.082550048828125,-0.1510467529296875,0.1465301513671875
1782845376389892400,1.319892333984375,-1.1240386962890625,-0.148773193359375,0.1603240966796875
1782845376399896300,1.329896240234375,-1.141448974609375,-0.1452789306640625,0.1770782470703125
1782845376409901300,1.3399013671875,-1.1299896240234375,-0.1458282470703125,0.1889801025390625
1782845376419905300,1.3499052734375,-1.1005706787109375,-0.1513671875,0.1948089599609375
1782845376429910500,1.35991064453125,-1.0586090087890625,-0.1590118408203125,0.198150634765625
1782845376439914200,1.369914306640625,-1.02197265625,-0.1690521240234375,0.19207763671875
1782845376449919200,1.379919189453125,-0.9940185546875,-0.17816162109375,0.1807708740234375
1782845376459923200,1.389923095703125,-0.96014404296875,-0.186065673828125,0.1641387939453125
1782845376469927400,1.399927490234375,-0.936126708984375,-0.1994781494140625,0.14764404296875
1782845376479932400,1.409932373046875,-0.9230804443359375,-0.2185211181640625,0.1304473876953125
1782845376489936400,1.419936279296875,-0.9199066162109375,-0.22930908203125,0.1192474365234375
1782845376499941400,1.42994140625,-0.924102783203125,-0.23382568359375,0.1091156005859375
1782845376509945300,1.4399453125,-0.930206298828125,-0.2387542724609375,0.0950775146484375
1782845376519950300,1.449950439453125,-0.9363861083984375,-0.243438720703125,0.08575439453125
1782845376529954300,1.459954345703125,-0.9384307861328125,-0.23406982421875,0.0731658935546875
1782845376539959300,1.469959228515625,-0.944061279296875,-0.2281646728515625,0.065277099609375
1782845376549963300,1.47996337890625,-0.9510955810546875,-0.234039306640625,0.052734375
1782845376559968300,1.48996826171875,-0.952880859375,-0.2305145263671875,0.0462799072265625
1782845376569972200,1.49997216796875,-0.9565887451171875,-0.2196807861328125,0.052215576171875
1782845376579977200,1.509977294921875,-0.9601287841796875,-0.2188873291015625,0.057037353515625
1782845376589981400,1.5199814453125,-0.962677001953125,-0.22222900390625,0.0616912841796875
1782845376599986400,1.529986328125,-0.97283935546875,-0.2137908935546875,0.072906494140625
1782845376609990400,1.539990478515625,-0.9875640869140625,-0.2118072509765625,0.07781982421875
1782845376619995400,1.549995361328125,-1.00628662109375,-0.22113037109375,0.075653076171875
1782845376629999400,1.559999267578125,-1.0182342529296875,-0.217529296875,0.074310302734375
1782845376640003300,1.57000341796875,-1.0167388916015625,-0.228546142578125,0.0704498291015625
1782845376650008300,1.58000830078125,-1.0193634033203125,-0.2379913330078125,0.0739898681640625
1782845376660012300,1.59001220703125,-1.025115966796875,-0.2427215576171875,0.0809173583984375
1782845376670017300,1.600017333984375,-1.028656005859375,-0.251007080078125,0.0927734375
1782845376680021200,1.610021240234375,-1.0180206298828125,-0.2568359375,0.0994415283203125
1782845376690026200,1.620026123046875,-0.9959869384765625,-0.257781982421875,0.0997772216796875
1782845376700029000,1.63002880859375,-0.9718475341796875,-0.25103759765625,0.0957489013671875
1782845376710034000,1.640033935546875,-0.9506378173828125,-0.2465057373046875,0.0949249267578125
1782845376720038000,1.650037841796875,-0.93896484375,-0.249542236328125,0.0929107666015625
1782845376730043000,1.66004296875,-0.9309844970703125,-0.2501678466796875,0.097015380859375
1782845376740047000,1.670047119140625,-0.928680419921875,-0.247344970703125,0.1051025390625
1782845376750052000,1.680052001953125,-0.9188690185546875,-0.2492828369140625,0.1021881103515625
1782845376760056000,1.69005615234375,-0.9154205322265625,-0.2513580322265625,0.1016387939453125
1782845376770061000,1.70006103515625,-0.9203948974609375,-0.2521209716796875,0.0988311767578125
1782845376780064800,1.710064697265625,-0.9227447509765625,-0.24737548828125,0.0941009521484375
1782845376790069800,1.72006982421875,-0.909454345703125,-0.2425079345703125,0.0899658203125
1782845376800074000,1.730073974609375,-0.88116455078125,-0.242523193359375,0.0904083251953125
1782845376810079000,1.740078857421875,-0.862335205078125,-0.2527008056640625,0.091705322265625
1782845376820083000,1.7500830078125,-0.848846435546875,-0.2634124755859375,0.0890045166015625
1782845376830087000,1.7600869140625,-0.856414794921875,-0.2667083740234375,0.08831787109375
1782845376840092000,1.770091796875,-0.879119873046875,-0.267425537109375,0.0855255126953125
1782845376850095900,1.780095947265625,-0.898529052734375,-0.265594482421875,0.0828399658203125
1782845376860100900,1.790100830078125,-0.918853759765625,-0.27020263671875,0.0712432861328125
1782845376870105000,1.80010498046875,-0.9349822998046875,-0.2741241455078125,0.0561065673828125
1782845376880110000,1.810110107421875,-0.9487762451171875,-0.2759552001953125,0.048492431640625
1782845376890113800,1.82011376953125,-0.96441650390625,-0.280548095703125,0.0460205078125
1782845376900118800,1.830118896484375,-0.9722442626953125,-0.2894744873046875,0.042449951171875
1782845376910122800,1.840122802734375,-0.9737091064453125,-0.2940673828125,0.041900634765625
1782845376920127700,1.850127685546875,-0.969085693359375,-0.301025390625,0.0441741943359375
1782845376930132000,1.860132080078125,-0.968780517578125,-0.30023193359375,0.051544189453125
1782845376940137000,1.870136962890625,-0.9639739990234375,-0.2949371337890625,0.058013916015625
1782845376950141000,1.880140869140625,-0.95635986328125,-0.291595458984375,0.0596771240234375
1782845376960146000,1.89014599609375,-0.9449920654296875,-0.2923126220703125,0.0621490478515625
1782845376970150000,1.90014990234375,-0.935760498046875,-0.2968902587890625,0.06195068359375
1782845376980155000,1.91015478515625,-0.923553466796875,-0.2952117919921875,0.0655670166015625
1782845376990159000,1.9201591796875,-0.9073944091796875,-0.2919769287109375,0.072540283203125
1782845377000164000,1.9301640625,-0.891143798828125,-0.29437255859375,0.0744171142578125
1782845377010167800,1.940167724609375,-0.89007568359375,-0.296722412109375,0.0776519775390625
1782845377020171800,1.950171875,-0.8889923095703125,-0.296234130859375,0.082000732421875
1782845377030176800,1.9601767578125,-0.8785858154296875,-0.299072265625,0.0831451416015625
1782845377040181000,1.970180908203125,-0.8663330078125,-0.303131103515625,0.080841064453125
1782845377050186000,1.98018603515625,-0.858551025390625,-0.3058624267578125,0.074615478515625
1782845377060190000,1.99018994140625,-0.85052490234375,-0.3089141845703125,0.0656585693359375
1782845377070195000,2.00019482421875,-0.8413238525390625,-0.31414794921875,0.0574798583984375
1782845377080199000,2.010198974609375,-0.8439483642578125,-0.3179473876953125,0.0508575439453125
1782845377090204000,2.020203857421875,-0.86090087890625,-0.3225860595703125,0.04541015625
1782845377100208000,2.0302080078125,-0.87725830078125,-0.3248138427734375,0.0447845458984375
1782845377110213000,2.040213134765625,-0.8916778564453125,-0.325347900390625,0.043670654296875
1782845377120216800,2.050216796875,-0.908843994140625,-0.330810546875,0.036529541015625
1782845377130221800,2.060221923828125,-0.911346435546875,-0.3474884033203125,0.0301513671875
1782845377140225800,2.070225830078125,-0.9155120849609375,-0.3578643798828125,0.0233917236328125
1782845377150230800,2.080230712890625,-0.9259490966796875,-0.3647003173828125,0.013275146484375
1782845377160235000,2.090235107421875,-0.941619873046875,-0.373382568359375,0.00421142578125
1782845377170240000,2.100239990234375,-0.9625244140625,-0.382781982421875,-0.000030517578125
1782845377180244000,2.110243896484375,-0.9847412109375,-0.3942413330078125,-0.0011749267578125
1782845377190249000,2.1202490234375,-1.011383056640625,-0.397552490234375,0.0039825439453125
1782845377200253000,2.1302529296875,-1.0399932861328125,-0.397125244140625,0.0085296630859375
1782845377210257000,2.1402568359375,-1.0620880126953125,-0.3850860595703125,0.007904052734375
1782845377220262000,2.150261962890625,-1.0790557861328125,-0.3780670166015625,0.005767822265625
1782845377230265900,2.160265869140625,-1.0838775634765625,-0.3678741455078125,0.010772705078125
1782845377240270800,2.170270751953125,-1.0769195556640625,-0.33544921875,0.0224761962890625
1782845377250274800,2.18027490234375,-1.0601348876953125,-0.2970123291015625,0.03118896484375
1782845377260279800,2.19027978515625,-1.0364532470703125,-0.26300048828125,0.0440826416015625
1782845377270284000,2.200283935546875,-1.0102996826171875,-0.2354278564453125,0.0623016357421875
1782845377280289000,2.2102890625,-0.98681640625,-0.21588134765625,0.0865936279296875
1782845377290293000,2.22029296875,-0.9730072021484375,-0.1914825439453125,0.114471435546875
1782845377300298000,2.230298095703125,-0.974212646484375,-0.1682586669921875,0.1374053955078125
1782845377310302000,2.240302001953125,-0.981201171875,-0.164703369140625,0.163970947265625
1782845377320307000,2.250306884765625,-0.99444580078125,-0.16888427734375,0.178924560546875
1782845377330311000,2.260310791015625,-1.015106201171875,-0.1696929931640625,0.1854248046875
1782845377340316000,2.27031591796875,-1.026458740234375,-0.1675567626953125,0.1900634765625
1782845377350319900,2.28031982421875,-1.0242919921875,-0.176666259765625,0.174835205078125
1782845377360324900,2.290324951171875,-1.02093505859375,-0.188201904296875,0.153106689453125
1782845377370328800,2.300328857421875,-1.0167388916015625,-0.1964263916015625,0.128631591796875
1782845377380333000,2.3103330078125,-1.0066375732421875,-0.2177734375,0.1019744873046875
1782845377390338000,2.320338134765625,-1.004608154296875,-0.2393341064453125,0.0871124267578125
1782845377400342000,2.330342041015625,-1.0114898681640625,-0.248504638671875,0.088897705078125
1782845377410347000,2.340346923828125,-1.017913818359375,-0.2476959228515625,0.100555419921875
1782845377420351000,2.35035107421875,-1.0163116455078125,-0.23760986328125,0.11114501953125
1782845377430356000,2.36035595703125,-1.009246826171875,-0.2218170166015625,0.11920166015625
1782845377440360000,2.37035986328125,-1.0035858154296875,-0.1940460205078125,0.1236572265625
1782845377450365000,2.380364990234375,-0.9938201904296875,-0.17242431640625,0.114654541015625
1782845377460369000,2.390368896484375,-0.9754638671875,-0.15997314453125,0.0965576171875
1782845377470374000,2.400373779296875,-0.9611663818359375,-0.1312408447265625,0.08624267578125
1782845377480377900,2.4103779296875,-0.9542236328125,-0.10992431640625,0.0818328857421875
1782845377490382800,2.4203828125,-0.9507598876953125,-0.09814453125,0.075714111328125
1782845377500387000,2.430386962890625,-0.941375732421875,-0.0890350341796875,0.075469970703125
1782845377510392000,2.44039208984375,-0.9383697509765625,-0.066253662109375,0.0816650390625
1782845377520396000,2.45039599609375,-0.9316253662109375,-0.05133056640625,0.0826416015625
1782845377530401000,2.460401123046875,-0.9138031005859375,-0.04083251953125,0.0814361572265625
1782845377540405000,2.470405029296875,-0.8946685791015625,-0.0394134521484375,0.066864013671875
1782845377550409000,2.480408935546875,-0.88677978515625,-0.04766845703125,0.0447235107421875
1782845377560414000,2.4904140625,-0.8877410888671875,-0.048370361328125,0.0262298583984375
1782845377570418000,2.50041796875,-0.886260986328125,-0.04620361328125,0.0175018310546875
1782845377580423000,2.5104228515625,-0.888427734375,-0.0437774658203125,0.0095672607421875
1782845377590427000,2.520427001953125,-0.8964691162109375,-0.0608978271484375,0.0023193359375
1782845377600431900,2.530431884765625,-0.91253662109375,-0.084381103515625,0.0009765625
1782845377610435800,2.540435791015625,-0.930633544921875,-0.1026611328125,0.005279541015625
1782845377620440800,2.55044091796875,-0.948394775390625,-0.1138763427734375,0.0164031982421875
1782845377630445000,2.560445068359375,-0.970947265625,-0.11883544921875,0.0217437744140625
1782845377640450000,2.570449951171875,-0.9900054931640625,-0.125274658203125,0.02020263671875
1782845377650454000,2.5804541015625,-1.0090484619140625,-0.12451171875,0.0262451171875
1782845377660459000,2.590458984375,-1.0278778076171875,-0.1189117431640625,0.026947021484375
1782845377670462700,2.600462646484375,-1.047760009765625,-0.1080169677734375,0.02691650390625
1782845377680468000,2.610468017578125,-1.0672149658203125,-0.106719970703125,0.0315704345703125
1782845377690472000,2.620471923828125,-1.0815887451171875,-0.106964111328125,0.036041259765625
1782845377700476400,2.630476318359375,-1.086639404296875,-0.102813720703125,0.04046630859375
1782845377710480400,2.64048046875,-1.07470703125,-0.1024932861328125,0.04388427734375
1782845377720485400,2.6504853515625,-1.0422821044921875,-0.1087646484375,0.045257568359375
1782845377730489600,2.660489501953125,-1.007110595703125,-0.1212310791015625,0.0477447509765625
1782845377740493600,2.67049365234375,-0.975311279296875,-0.1269683837890625,0.0464630126953125
1782845377750498600,2.68049853515625,-0.9483489990234375,-0.1256561279296875,0.04034423828125
1782845377760502300,2.690502197265625,-0.9303436279296875,-0.12469482421875,0.033203125
1782845377770507300,2.70050732421875,-0.9250335693359375,-0.1246795654296875,0.02569580078125
1782845377780511500,2.710511474609375,-0.9280548095703125,-0.1257781982421875,0.0159454345703125
1782845377790516500,2.7205166015625,-0.9379119873046875,-0.1244354248046875,0.011871337890625
1782845377800520400,2.7305205078125,-0.9445648193359375,-0.1219482421875,0.0131988525390625
1782845377810525400,2.740525390625,-0.947906494140625,-0.12646484375,0.0131072998046875
1782845377820529400,2.750529296875,-0.9571685791015625,-0.1284332275390625,0.0146484375
1782845377830534400,2.760534423828125,-0.960845947265625,-0.12994384765625,0.0182342529296875
1782845377840538600,2.77053857421875,-0.95623779296875,-0.1334991455078125,0.01580810546875
1782845377850543600,2.780543701171875,-0.9529571533203125,-0.1441497802734375,0.0131683349609375
1782845377860547600,2.790547607421875,-0.9599151611328125,-0.1522216796875,0.011932373046875
1782845377870552600,2.800552490234375,-0.9686737060546875,-0.163970947265625,0.0101318359375
1782845377880556300,2.810556396484375,-0.974639892578125,-0.1773681640625,0.0103912353515625
1782845377890560500,2.820560546875,-0.9733123779296875,-0.195526123046875,0.0098114013671875
1782845377900565500,2.8305654296875,-0.9784698486328125,-0.20172119140625,0.0080413818359375
1782845377910569500,2.840569580078125,-0.99139404296875,-0.1994781494140625,0.0125274658203125
1782845377920574500,2.850574462890625,-1.00689697265625,-0.205047607421875,0.01275634765625
1782845377930578400,2.860578369140625,-1.0128326416015625,-0.2127227783203125,0.011688232421875
1782845377940583400,2.87058349609375,-1.0139923095703125,-0.2163848876953125,0.0102081298828125
1782845377950587400,2.88058740234375,-1.0177764892578125,-0.2158355712890625,0.0076141357421875
1782845377960592400,2.89059228515625,-1.01324462890625,-0.2135467529296875,0.0074005126953125
1782845377970596400,2.900596435546875,-1.0050048828125,-0.21160888671875,0.004974365234375
1782845377980601300,2.910601318359375,-0.99835205078125,-0.2068328857421875,0.00616455078125
1782845377990605300,2.920605224609375,-0.9820556640625,-0.2016448974609375,0.00933837890625
1782845378000610300,2.9306103515625,-0.96478271484375,-0.201263427734375,0.011077880859375
1782845378010614300,2.9406142578125,-0.9482421875,-0.1986541748046875,0.01385498046875
1782845378020619500,2.95061962890625,-0.9458770751953125,-0.194854736328125,0.0166778564453125
1782845378030623500,2.96062353515625,-0.9430694580078125,-0.192047119140625,0.01953125
1782845378040628500,2.97062841796875,-0.9430389404296875,-0.1967315673828125,0.0176239013671875
1782845378050632400,2.980632568359375,-0.9376373291015625,-0.193145751953125,0.0221710205078125
1782845378060637400,2.990637451171875,-0.93609619140625,-0.188751220703125,0.0194549560546875
1782845378070641400,3.000641357421875,-0.9262542724609375,-0.1928558349609375,0.012725830078125
1782845378080645400,3.010645263671875,-0.9178619384765625,-0.1912994384765625,0.0081939697265625
1782845378090650400,3.020650390625,-0.9214630126953125,-0.1887664794921875,0.001983642578125
1782845378100654300,3.030654296875,-0.9272003173828125,-0.1853179931640625,-0.0016632080078125
1782845378110659300,3.040659423828125,-0.9384918212890625,-0.1842193603515625,-0.009552001953125
1782845378120663300,3.050663330078125,-0.9462432861328125,-0.1912841796875,-0.0158233642578125
1782845378130668300,3.060668212890625,-0.9570770263671875,-0.19561767578125,-0.0246734619140625
1782845378140672500,3.070672607421875,-0.9694976806640625,-0.1974945068359375,-0.02471923828125
1782845378150677500,3.080677490234375,-0.975311279296875,-0.1995849609375,-0.0284271240234375
1782845378160681500,3.090681396484375,-0.9745330810546875,-0.1984710693359375,-0.0340423583984375
1782845378170686500,3.1006865234375,-0.973663330078125,-0.1978912353515625,-0.0333099365234375
1782845378180690400,3.1106904296875,-0.9742279052734375,-0.2010040283203125,-0.030487060546875
1782845378190695400,3.1206953125,-0.970703125,-0.20587158203125,-0.027923583984375
1782845378200699400,3.130699462890625,-0.973388671875,-0.2105560302734375,-0.0205230712890625
1782845378210704400,3.140704345703125,-0.9730224609375,-0.2117462158203125,-0.014373779296875
1782845378220708400,3.150708251953125,-0.97625732421875,-0.2177276611328125,-0.004425048828125
1782845378230713300,3.16071337890625,-0.9914703369140625,-0.2291259765625,0.00396728515625
1782845378240717300,3.17071728515625,-1.00347900390625,-0.2347869873046875,0.006744384765625
1782845378250722300,3.180722412109375,-1.00970458984375,-0.2404327392578125,0.016021728515625
1782845378260726500,3.1907265625,-1.0121612548828125,-0.239501953125,0.0277557373046875
1782845378270730500,3.20073046875,-1.003173828125,-0.24066162109375,0.0354156494140625
1782845378280735500,3.210735595703125,-0.998779296875,-0.2509918212890625,0.037506103515625
1782845378290739500,3.220739501953125,-0.9946136474609375,-0.25372314453125,0.0344696044921875
1782845378300744400,3.230744384765625,-0.989105224609375,-0.2499542236328125,0.029876708984375
1782845378310748400,3.24074853515625,-0.9829864501953125,-0.24725341796875,0.023773193359375
1782845378320753400,3.25075341796875,-0.9781646728515625,-0.2428131103515625,0.0079803466796875
1782845378330757400,3.26075732421875,-0.976715087890625,-0.2360687255859375,-0.010955810546875
1782845378340762400,3.270762451171875,-0.9775848388671875,-0.21844482421875,-0.0243988037109375
1782845378350766300,3.280766357421875,-0.9745635986328125,-0.1958770751953125,-0.022796630859375
1782845378360771300,3.290771240234375,-0.964080810546875,-0.181610107421875,-0.023101806640625
1782845378370775600,3.300775634765625,-0.9590301513671875,-0.1747589111328125,-0.0157470703125
1782845378380780500,3.310780517578125,-0.9860382080078125,-0.1681671142578125,0.003814697265625
1782845378390784500,3.320784423828125,-1.0303497314453125,-0.156219482421875,0.0225982666015625
1782845378400789500,3.33078955078125,-1.08563232421875,-0.1515350341796875,0.045196533203125
1782845378410793500,3.34079345703125,-1.1296234130859375,-0.15460205078125,0.0713348388671875
1782845378420798500,3.350798583984375,-1.154327392578125,-0.1628265380859375,0.0841827392578125
1782845378430802400,3.360802490234375,-1.15557861328125,-0.1663818359375,0.084228515625
1782845378440806400,3.370806396484375,-1.1316070556640625,-0.1687774658203125,0.086517333984375
1782845378450811400,3.380811279296875,-1.0970611572265625,-0.174713134765625,0.0865020751953125
1782845378460815400,3.3908154296875,-1.06195068359375,-0.1864776611328125,0.0832672119140625
1782845378470820400,3.4008203125,-1.0309295654296875,-0.1973724365234375,0.080352783203125
1782845378480824600,3.410824462890625,-0.9986724853515625,-0.199371337890625,0.07379150390625
1782845378490829600,3.42082958984375,-0.956756591796875,-0.19512939453125,0.06805419921875
1782845378500833500,3.43083349609375,-0.927154541015625,-0.1905364990234375,0.06787109375
1782845378510838500,3.440838623046875,-0.90277099609375,-0.187164306640625,0.0701904296875
1782845378520842200,3.45084228515625,-0.888214111328125,-0.1746368408203125,0.0803680419921875
1782845378530847200,3.46084716796875,-0.8755340576171875,-0.1609649658203125,0.0948944091796875
1782845378540851500,3.4708515625,-0.867095947265625,-0.153045654296875,0.105255126953125
1782845378550856400,3.4808564453125,-0.87176513671875,-0.141845703125,0.103485107421875
1782845378560860400,3.4908603515625,-0.8823699951171875,-0.1353302001953125,0.102569580078125
1782845378570865400,3.500865478515625,-0.9012451171875,-0.13409423828125,0.1068267822265625
1782845378580869400,3.510869384765625,-0.9253082275390625,-0.1294708251953125,0.115966796875
1782845378590874400,3.520874267578125,-0.9487762451171875,-0.12554931640625,0.1248626708984375
1782845378600878600,3.530878662109375,-0.98931884765625,-0.1183929443359375,0.145263671875
1782845378610883600,3.540883544921875,-1.030029296875,-0.1148529052734375,0.1262359619140625
1782845378620887600,3.550887451171875,-1.0303497314453125,-0.13226318359375,0.1548004150390625
1782845378630891300,3.560891357421875,-1.089996337890625,-0.110626220703125,0.169830322265625
1782845378640896300,3.570896240234375,-1.1111907958984375,-0.1040191650390625,0.1713714599609375
1782845378650900500,3.580900390625,-1.1019134521484375,-0.12445068359375,0.19091796875
1782845378660905500,3.590905517578125,-1.077880859375,-0.1330718994140625,0.19921875
1782845378670909400,3.600909423828125,-1.037872314453125,-0.1470489501953125,0.207183837890625
1782845378680914400,3.61091455078125,-1.0048370361328125,-0.156036376953125,0.21697998046875
1782845378690918400,3.62091845703125,-0.9676513671875,-0.175567626953125,0.214447021484375
1782845378700923400,3.63092333984375,-0.948577880859375,-0.189300537109375,0.1977386474609375
1782845378710927400,3.64092724609375,-0.9524993896484375,-0.18756103515625,0.1884002685546875
1782845378720932600,3.6509326171875,-0.9541778564453125,-0.1954345703125,0.1835174560546875
1782845378730936600,3.6609365234375,-0.958648681640625,-0.2063751220703125,0.1652984619140625
1782845378740941600,3.670941650390625,-0.9667816162109375,-0.212493896484375,0.1536407470703125
1782845378750945500,3.680945556640625,-0.9745025634765625,-0.2102508544921875,0.1454925537109375
1782845378760950500,3.690950439453125,-0.9766693115234375,-0.2193145751953125,0.13604736328125
1782845378770954500,3.70095458984375,-0.981964111328125,-0.2256011962890625,0.1321563720703125
1782845378780959500,3.71095947265625,-0.9943084716796875,-0.2161102294921875,0.135528564453125
1782845378790963500,3.72096337890625,-0.9886474609375,-0.2003173828125,0.12799072265625
1782845378800968400,3.730968505859375,-0.972381591796875,-0.1985931396484375,0.1137237548828125
1782845378810972400,3.740972412109375,-0.956634521484375,-0.2015228271484375,0.099822998046875
1782845378820976400,3.750976318359375,-0.9442596435546875,-0.1992034912109375,0.097564697265625
1782845378830981400,3.7609814453125,-0.9390869140625,-0.20001220703125,0.1079254150390625
1782845378840985600,3.770985595703125,-0.9315948486328125,-0.198211669921875,0.115234375
1782845378850990600,3.780990478515625,-0.92413330078125,-0.1968841552734375,0.12384033203125
1782845378860994600,3.79099462890625,-0.916168212890625,-0.19830322265625,0.1336517333984375
1782845378870999600,3.80099951171875,-0.901580810546875,-0.2015838623046875,0.142333984375
1782845378881003300,3.811003173828125,-0.8915252685546875,-0.2047119140625,0.150238037109375
1782845378891008300,3.82100830078125,-0.88470458984375,-0.2082977294921875,0.1593475341796875
1782845378901012500,3.831012451171875,-0.8797760009765625,-0.2127227783203125,0.1680145263671875
1782845378911017500,3.841017578125,-0.878997802734375,-0.2142333984375,0.17156982421875
1782845378921021400,3.851021484375,-0.884521484375,-0.210906982421875,0.1768341064453125
1782845378931026400,3.8610263671875,-0.89495849609375,-0.20306396484375,0.178741455078125
1782845378941030400,3.871030517578125,-0.9037322998046875,-0.20489501953125,0.17938232421875
1782845378951035400,3.881035400390625,-0.9080352783203125,-0.211151123046875,0.172637939453125
1782845378961039600,3.89103955078125,-0.91778564453125,-0.22216796875,0.1680755615234375
1782845378971044600,3.901044677734375,-0.9276580810546875,-0.22674560546875,0.1641387939453125
1782845378981048600,3.911048583984375,-0.9378662109375,-0.2324066162109375,0.1569976806640625
1782845378991052300,3.92105224609375,-0.9340972900390625,-0.226959228515625,0.1555938720703125
1782845379001057300,3.931057373046875,-0.921661376953125,-0.2266998291015625,0.1524505615234375
1782845379011061500,3.9410615234375,-0.910980224609375,-0.23553466796875,0.1442718505859375
1782845379021066500,3.95106640625,-0.908203125,-0.2456817626953125,0.1385650634765625
1782845379031070500,3.961070556640625,-0.9076690673828125,-0.2496337890625,0.1341705322265625
1782845379041075500,3.971075439453125,-0.9130401611328125,-0.2527008056640625,0.1299285888671875
1782845379051079400,3.981079345703125,-0.9151458740234375,-0.25555419921875,0.1218414306640625
1782845379061084400,3.99108447265625,-0.9171142578125,-0.254608154296875,0.1152801513671875
1782845379071088600,4.001088623046875,-0.9174652099609375,-0.258026123046875,0.110443115234375
1782845379081093600,4.01109375,-0.923614501953125,-0.266021728515625,0.1026763916015625
1782845379091097300,4.021097412109375,-0.9273223876953125,-0.270782470703125,0.094757080078125
1782845379101102300,4.031102294921875,-0.931884765625,-0.2803955078125,0.0862274169921875
1782845379111106300,4.041106201171875,-0.934295654296875,-0.2872772216796875,0.08447265625
1782845379121111300,4.051111328125,-0.9351654052734375,-0.2891998291015625,0.08404541015625
1782845379131115500,4.061115478515625,-0.930389404296875,-0.2885284423828125,0.0854949951171875
1782845379141120500,4.07112060546875,-0.9181365966796875,-0.2841033935546875,0.0828399658203125
1782845379151124500,4.08112451171875,-0.9017181396484375,-0.28533935546875,0.080230712890625
1782845379161129500,4.09112939453125,-0.8883209228515625,-0.2886810302734375,0.078704833984375
1782845379171133400,4.101133544921875,-0.875152587890625,-0.2913360595703125,0.077178955078125
1782845379181137700,4.1111376953125,-0.865264892578125,-0.292999267578125,0.0779266357421875
1782845379191142700,4.121142578125,-0.8575897216796875,-0.30078125,0.07861328125
1782845379201146400,4.131146484375,-0.8551483154296875,-0.3047943115234375,0.0823822021484375
1782845379211151400,4.1411513671875,-0.863006591796875,-0.310089111328125,0.08734130859375
1782845379221155300,4.1511552734375,-0.8770599365234375,-0.31329345703125,0.0973663330078125
1782845379231160300,4.161160400390625,-0.8904571533203125,-0.3173675537109375,0.1071319580078125
1782845379241164500,4.17116455078125,-0.89630126953125,-0.3268585205078125,0.1094818115234375
1782845379251169500,4.18116943359375,-0.8980865478515625,-0.335693359375,0.1073760986328125
1782845379261173500,4.191173583984375,-0.9052734375,-0.340789794921875,0.1044769287109375
1782845379271178500,4.201178466796875,-0.91571044921875,-0.345733642578125,0.104461669921875
1782845379281182500,4.211182373046875,-0.929229736328125,-0.356475830078125,0.101348876953125
1782845379291187500,4.2211875,-0.9451904296875,-0.3662109375,0.097991943359375
1782845379301191700,4.231191650390625,-0.9629669189453125,-0.3647308349609375,0.101531982421875
1782845379311196700,4.24119677734375,-0.975433349609375,-0.3607177734375,0.104949951171875
1782845379321200400,4.251200439453125,-0.9904327392578125,-0.3627471923828125,0.1009521484375
1782845379331205400,4.261205322265625,-1.0140380859375,-0.3625335693359375,0.103485107421875
1782845379341209300,4.271209228515625,-1.037841796875,-0.3551788330078125,0.10394287109375
1782845379351214300,4.28121435546875,-1.048248291015625,-0.35546875,0.0969696044921875
1782845379361218600,4.291218505859375,-1.04119873046875,-0.360809326171875,0.0848846435546875
1782845379371222500,4.301222412109375,-1.0219268798828125,-0.3705291748046875,0.0775146484375
1782845379381227500,4.3112275390625,-1.0052642822265625,-0.37042236328125,0.0908355712890625
1782845379391231500,4.3212314453125,-0.992828369140625,-0.358306884765625,0.1152801513671875
1782845379401236500,4.331236572265625,-0.9721832275390625,-0.34075927734375,0.1341400146484375
1782845379411240700,4.34124072265625,-0.9548187255859375,-0.325775146484375,0.1471099853515625
1782845379421245700,4.35124560546875,-0.9361114501953125,-0.312591552734375,0.156280517578125
1782845379431249400,4.36124951171875,-0.9340057373046875,-0.3037261962890625,0.171661376953125
1782845379441254400,4.37125439453125,-0.9554901123046875,-0.2799530029296875,0.1986083984375
1782845379451258400,4.38125830078125,-0.9848480224609375,-0.2373504638671875,0.2301483154296875
1782845379461263400,4.391263427734375,-1.005096435546875,-0.2118682861328125,0.249420166015625
1782845379471267600,4.401267578125,-1.0182342529296875,-0.2039031982421875,0.2548980712890625
1782845379481272600,4.4112724609375,-1.0520782470703125,-0.1804046630859375,0.258514404296875
1782845379491276500,4.421276611328125,-1.0972442626953125,-0.152740478515625,0.2605133056640625
1782845379501281500,4.431281494140625,-1.12664794921875,-0.151397705078125,0.24810791015625
1782845379511285500,4.441285400390625,-1.1334686279296875,-0.1505584716796875,0.235565185546875
1782845379521290500,4.45129052734375,-1.1300048828125,-0.140869140625,0.22833251953125
1782845379531294500,4.46129443359375,-1.1078338623046875,-0.1536712646484375,0.208251953125
1782845379541298400,4.47129833984375,-1.0868682861328125,-0.174591064453125,0.1763153076171875
1782845379551303400,4.481303466796875,-1.062744140625,-0.19775390625,0.1429290771484375
1782845379561307400,4.491307373046875,-1.030914306640625,-0.22369384765625,0.11962890625
1782845379571312400,4.5013125,-0.9891815185546875,-0.2403717041015625,0.104583740234375
1782845379581316400,4.51131640625,-0.96636962890625,-0.2527618408203125,0.1004180908203125
1782845379591321300,4.5213212890625,-0.95440673828125,-0.2540130615234375,0.102294921875
1782845379601325600,4.53132568359375,-0.94232177734375,-0.2417755126953125,0.097564697265625
1782845379611330600,4.54133056640625,-0.93707275390625,-0.220703125,0.09210205078125
1782845379621334500,4.55133447265625,-0.92938232421875,-0.18023681640625,0.076202392578125
1782845379631339500,4.561339599609375,-0.92462158203125,-0.1516265869140625,0.048309326171875
1782845379641343200,4.57134326171875,-0.920501708984375,-0.1426239013671875,0.0313568115234375
1782845379651348500,4.581348388671875,-0.9094696044921875,-0.1287384033203125,0.04718017578125
1782845379661352400,4.5913525390625,-0.899322509765625,-0.10137939453125,0.0745086669921875
1782845379671357400,4.601357421875,-0.893402099609375,-0.0784759521484375,0.0929718017578125
1782845379681361400,4.611361328125,-0.8910064697265625,-0.0562591552734375,0.10137939453125
1782845379691366400,4.621366455078125,-0.888427734375,-0.03717041015625,0.0989990234375
1782845379701371600,4.63137158203125,-0.8895416259765625,-0.032562255859375,0.093963623046875
1782845379711375600,4.641375732421875,-0.891693115234375,-0.03363037109375,0.0853424072265625
1782845379721380600,4.651380615234375,-0.89202880859375,-0.0424041748046875,0.078369140625
1782845379731384800,4.661384765625,-0.883148193359375,-0.0523681640625,0.0733184814453125
1782845379741389800,4.671389892578125,-0.881011962890625,-0.0583343505859375,0.0738525390625
1782845379751393800,4.681393798828125,-0.88623046875,-0.068878173828125,0.0734710693359375
1782845379761398800,4.691398681640625,-0.8912811279296875,-0.0859832763671875,0.0793609619140625
1782845379771402500,4.701402587890625,-0.9034271240234375,-0.101226806640625,0.0847930908203125
1782845379781407500,4.711407470703125,-0.909515380859375,-0.1191253662109375,0.08770751953125
1782845379791411700,4.72141162109375,-0.908721923828125,-0.136688232421875,0.084320068359375
1782845379801416700,4.731416748046875,-0.91961669921875,-0.13934326171875,0.0764312744140625
1782845379811420700,4.741420654296875,-0.93994140625,-0.1301422119140625,0.067047119140625
1782845379821425700,4.75142578125,-0.9600372314453125,-0.1276397705078125,0.049896240234375
1782845379831429600,4.7614296875,-0.974609375,-0.1297760009765625,0.037078857421875
1782845379841434600,4.7714345703125,-0.9847564697265625,-0.126861572265625,0.0366058349609375
1782845379851438800,4.78143896484375,-0.9899749755859375,-0.13226318359375,0.0444793701171875
1782845379861442600,4.791442626953125,-0.99700927734375,-0.13470458984375,0.064361572265625
1782845379871447600,4.801447509765625,-1.0173492431640625,-0.1339874267578125,0.07794189453125
1782845379881451500,4.811451416015625,-1.034332275390625,-0.1446685791015625,0.082733154296875
1782845379891456500,4.82145654296875,-1.0448455810546875,-0.1474761962890625,0.084686279296875
1782845379901460700,4.831460693359375,-1.0654754638671875,-0.147186279296875,0.080474853515625
1782845379911465700,4.8414658203125,-1.074127197265625,-0.1455230712890625,0.0764617919921875
1782845379921469700,4.8514697265625,-1.0709381103515625,-0.15234375,0.066650390625
1782845379931474700,4.861474609375,-1.0556488037109375,-0.1552581787109375,0.0557861328125
1782845379941478700,4.871478759765625,-1.0346527099609375,-0.15625,0.0417633056640625
1782845379951483600,4.881483642578125,-1.0192718505859375,-0.158538818359375,0.02801513671875
1782845379961488000,4.89148779296875,-1.0113525390625,-0.1532745361328125,0.0167236328125
1782845379971492900,4.901492919921875,-1.00042724609375,-0.1472320556640625,0.0123291015625
1782845379981496600,4.91149658203125,-0.9831695556640625,-0.150421142578125,0.0134124755859375
1782845379991501600,4.92150146484375,-0.9626312255859375,-0.158538818359375,0.01177978515625
1782845380001505500,4.931505615234375,-0.930023193359375,-0.1674041748046875,0.0109405517578125
1782845380011510500,4.941510498046875,-0.905548095703125,-0.1724853515625,0.00579833984375
1782845380021514800,4.9515146484375,-0.895599365234375,-0.174163818359375,0.00042724609375
1782845380031519700,4.961519775390625,-0.888916015625,-0.174652099609375,-0.0016632080078125
1782845380041523700,4.971523681640625,-0.8878631591796875,-0.1790924072265625,-0.0041961669921875
1782845380051527700,4.981527587890625,-0.89190673828125,-0.188568115234375,-0.0121612548828125
1782845380061532700,4.99153271484375,-0.9041748046875,-0.199005126953125,-0.0158233642578125
1782845380071537000,5.001536865234375,-0.917999267578125,-0.20330810546875,-0.0150299072265625
1782845380081542000,5.0115419921875,-0.9394073486328125,-0.2039947509765625,-0.0075836181640625
1782845380091545600,5.021545654296875,-0.9594268798828125,-0.2042236328125,-0.0025177001953125
1782845380101550600,5.031550537109375,-0.9738311767578125,-0.209259033203125,0.0001220703125
1782845380111554600,5.041554443359375,-0.97479248046875,-0.2183074951171875,0.0012664794921875
1782845380121559600,5.0515595703125,-0.9731597900390625,-0.2257537841796875,0.0030364990234375
1782845380131563800,5.061563720703125,-0.9722137451171875,-0.2291717529296875,0.0113983154296875
1782845380141568800,5.07156884765625,-0.9790191650390625,-0.2269287109375,0.0213623046875
1782845380151572700,5.08157275390625,-0.9841766357421875,-0.224029541015625,0.030914306640625
1782845380161577700,5.09157763671875,-0.99029541015625,-0.2258758544921875,0.034576416015625
1782845380171581700,5.101581787109375,-0.9979248046875,-0.2246551513671875,0.0347747802734375
1782845380181586700,5.111586669921875,-1.00897216796875,-0.217803955078125,0.035675048828125
1782845380191591000,5.1215908203125,-1.01824951171875,-0.21673583984375,0.0345611572265625
1782845380201596000,5.131595947265625,-1.0267181396484375,-0.2173309326171875,0.03204345703125
1782845380211599600,5.141599609375,-1.0307769775390625,-0.2121124267578125,0.029296875
1782845380221603600,5.151603515625,-1.0309295654296875,-0.2164154052734375,0.0248870849609375
1782845380231608600,5.161608642578125,-1.029449462890625,-0.2186126708984375,0.0213775634765625
1782845380241612800,5.17161279296875,-1.020843505859375,-0.22119140625,0.0123748779296875
1782845380251617800,5.18161767578125,-1.0026397705078125,-0.2267303466796875,0.002960205078125
1782845380261621800,5.191621826171875,-0.9783172607421875,-0.2288818359375,-0.0029144287109375
1782845380271626800,5.201626708984375,-0.95928955078125,-0.229034423828125,-0.01641845703125
1782845380281630700,5.211630615234375,-0.9441375732421875,-0.2336578369140625,-0.026123046875
1782845380291635700,5.2216357421875,-0.931793212890625,-0.2416839599609375,-0.0323638916015625
1782845380301639700,5.2316396484375,-0.919097900390625,-0.2439727783203125,-0.0337677001953125
1782845380311644700,5.241644775390625,-0.915374755859375,-0.2417755126953125,-0.037750244140625
1782845380321648600,5.251648681640625,-0.919952392578125,-0.23370361328125,-0.0419464111328125
1782845380331653600,5.261653564453125,-0.9304962158203125,-0.2305145263671875,-0.0469512939453125
1782845380341657600,5.27165771484375,-0.9430999755859375,-0.2325286865234375,-0.0454864501953125
1782845380351662600,5.28166259765625,-0.956298828125,-0.2343902587890625,-0.0383758544921875
1782845380361666600,5.29166650390625,-0.96630859375,-0.24151611328125,-0.031585693359375
1782845380371670800,5.3016708984375,-0.971923828125,-0.2416229248046875,-0.0247802734375
1782845380381675800,5.31167578125,-0.9733428955078125,-0.2357330322265625,-0.0206756591796875
1782845380391679700,5.3216796875,-0.970916748046875,-0.244476318359375,-0.0141143798828125
1782845380401684700,5.331684814453125,-0.9733123779296875,-0.2542266845703125,-0.001373291015625
1782845380411688400,5.3416884765625,-0.9762115478515625,-0.256744384765625,0.0103759765625
1782845380421693400,5.351693359375,-0.9828948974609375,-0.2600250244140625,0.0153350830078125
1782845380431697700,5.36169775390625,-0.9885711669921875,-0.265106201171875,0.0161590576171875
1782845380441702700,5.37170263671875,-0.9927978515625,-0.2651824951171875,0.0158538818359375
1782845380451706600,5.38170654296875,-1.006622314453125,-0.26470947265625,0.0102691650390625
1782845380461711600,5.391711669921875,-1.0235595703125,-0.2718505859375,0.0029449462890625
1782845380471715600,5.401715576171875,-1.049774169921875,-0.273162841796875,-0.00262451171875
1782845380481720600,5.411720458984375,-1.075897216796875,-0.2745819091796875,-0.007415771484375
1782845380491724800,5.421724853515625,-1.0860443115234375,-0.2794342041015625,-0.007568359375
1782845380501729800,5.431729736328125,-1.077423095703125,-0.27886962890625,-0.00750732421875
1782845380511733800,5.441733642578125,-1.0527191162109375,-0.2697906494140625,-0.0098876953125
1782845380521738800,5.45173876953125,-1.020538330078125,-0.2463226318359375,-0.02081298828125
1782845380531742500,5.461742431640625,-0.985198974609375,-0.224151611328125,-0.0308685302734375
1782845380541746700,5.47174658203125,-0.9511260986328125,-0.211334228515625,-0.0416412353515625
1782845380551751700,5.481751708984375,-0.9188079833984375,-0.201385498046875,-0.0414276123046875
1782845380561755600,5.491755615234375,-0.908782958984375,-0.1944122314453125,-0.0271453857421875
1782845380571760600,5.5017607421875,-0.920257568359375,-0.1907501220703125,-0.002960205078125
1782845380581764600,5.5117646484375,-0.9546966552734375,-0.1888885498046875,0.0252685546875
1782845380591769600,5.52176953125,-1.0027618408203125,-0.17633056640625,0.05059814453125
1782845380601773800,5.53177392578125,-1.0472412109375,-0.1756439208984375,0.064453125
1782845380611778800,5.54177880859375,-1.0775146484375,-0.16796875,0.0782623291015625
1782845380621782800,5.55178271484375,-1.0897064208984375,-0.1649169921875,0.08831787109375
1782845380631787800,5.561787841796875,-1.083160400390625,-0.1646575927734375,0.0925140380859375
1782845380641791500,5.57179150390625,-1.070404052734375,-0.1620941162109375,0.0896453857421875
1782845380651796500,5.58179638671875,-1.0637359619140625,-0.1547088623046875,0.0822296142578125
1782845380661800700,5.59180078125,-1.0464324951171875,-0.1490325927734375,0.06671142578125
1782845380671805700,5.6018056640625,-1.0234375,-0.154144287109375,0.0423583984375
1782845380681809700,5.6118095703125,-1.00897216796875,-0.153076171875,0.0283355712890625
1782845380691814700,5.621814697265625,-0.9941253662109375,-0.1454620361328125,0.02947998046875
1782845380701818600,5.631818603515625,-0.9728240966796875,-0.14239501953125,0.030029296875
1782845380711822800,5.64182275390625,-0.9437103271484375,-0.139251708984375,0.0387725830078125
1782845380721826800,5.651826904296875,-0.9228973388671875,-0.1339569091796875,0.0500640869140625
1782845380731830800,5.661830810546875,-0.89654541015625,-0.1287689208984375,0.0534820556640625
1782845380741835800,5.671835693359375,-0.8664703369140625,-0.12713623046875,0.062469482421875
1782845380751840000,5.681840087890625,-0.8360443115234375,-0.1264495849609375,0.0615234375
1782845380761845000,5.691844970703125,-0.825286865234375,-0.1282501220703125,0.0630645751953125
1782845380771849000,5.701848876953125,-0.8253631591796875,-0.1372833251953125,0.0722198486328125
1782845380781854000,5.71185400390625,-0.81903076171875,-0.151336669921875,0.0810089111328125
1782845380791857700,5.721857666015625,-0.823394775390625,-0.165771484375,0.0919647216796875
1782845380801862700,5.731862548828125,-0.853057861328125,-0.180816650390625,0.108184814453125
1782845380811867000,5.741866943359375,-0.89532470703125,-0.1931915283203125,0.125030517578125
1782845380821871900,5.751871826171875,-0.93914794921875,-0.2066650390625,0.134979248046875
1782845380831875800,5.761875732421875,-0.9736328125,-0.2185211181640625,0.1376495361328125
1782845380841880800,5.771880859375,-1.00579833984375,-0.2289276123046875,0.1400909423828125
1782845380851884800,5.781884765625,-1.046173095703125,-0.2342376708984375,0.147552490234375
1782845380861889800,5.791889892578125,-1.07763671875,-0.2393646240234375,0.151611328125
1782845380871893800,5.801893798828125,-1.094696044921875,-0.2412872314453125,0.154296875
1782845380881899000,5.81189892578125,-1.1113128662109375,-0.24066162109375,0.1513824462890625
1782845380891902700,5.82190283203125,-1.1205291748046875,-0.2384033203125,0.146514892578125
1782845380901906700,5.83190673828125,-1.1103668212890625,-0.2339935302734375,0.13623046875
1782845380911911700,5.84191162109375,-1.0919036865234375,-0.22540283203125,0.1295166015625
1782845380921915600,5.85191552734375,-1.066497802734375,-0.217742919921875,0.120758056640625
1782845380931920600,5.861920654296875,-1.0307159423828125,-0.2018585205078125,0.108367919921875
1782845380941924900,5.8719248046875,-0.9963226318359375,-0.1886444091796875,0.0933837890625
1782845380951929900,5.881929931640625,-0.9677734375,-0.1728363037109375,0.082672119140625
1782845380961933800,5.891933837890625,-0.947235107421875,-0.1609344482421875,0.0781402587890625
1782845380971938800,5.901938720703125,-0.92974853515625,-0.1551666259765625,0.0773468017578125
1782845380981942800,5.91194287109375,-0.924285888671875,-0.1490631103515625,0.0746002197265625
1782845380991947800,5.92194775390625,-0.914337158203125,-0.14990234375,0.0721435546875
1782845381001951700,5.93195166015625,-0.9050445556640625,-0.1577301025390625,0.0740966796875
1782845381011956700,5.941956787109375,-0.89935302734375,-0.170196533203125,0.0838470458984375
1782845381021960700,5.951960693359375,-0.8916778564453125,-0.1753387451171875,0.0930023193359375
1782845381031965700,5.961965576171875,-0.891571044921875,-0.1819915771484375,0.10028076171875
1782845381041969700,5.9719697265625,-0.89166259765625,-0.1907196044921875,0.0995635986328125
1782845381051974700,5.981974609375,-0.900909423828125,-0.1969146728515625,0.097686767578125
1782845381061979000,5.991978759765625,-0.9101409912109375,-0.205963134765625,0.0987396240234375
1782845381071982800,6.00198291015625,-0.9139404296875,-0.2225799560546875,0.1083221435546875
1782845381081987800,6.01198779296875,-0.9107208251953125,-0.241302490234375,0.11297607421875
1782845381091991800,6.02199169921875,-0.910491943359375,-0.2484130859375,0.115081787109375
1782845381101996800,6.031996826171875,-0.90826416015625,-0.2486419677734375,0.125396728515625
1782845381112000800,6.042000732421875,-0.905853271484375,-0.239593505859375,0.137237548828125
1782845381122005800,6.052005859375,-0.905181884765625,-0.23236083984375,0.1434173583984375
1782845381132009700,6.062009765625,-0.9084625244140625,-0.2298431396484375,0.1481170654296875
1782845381142014700,6.0720146484375,-0.916595458984375,-0.2264251708984375,0.14862060546875
1782845381152018700,6.082018798828125,-0.926483154296875,-0.2245941162109375,0.1490325927734375
1782845381162023700,6.092023681640625,-0.9390411376953125,-0.2249603271484375,0.1445465087890625
1782845381172028000,6.10202783203125,-0.95684814453125,-0.2223052978515625,0.14202880859375
1782845381182033000,6.112032958984375,-0.96197509765625,-0.2221832275390625,0.1402130126953125
1782845381192036900,6.122036865234375,-0.95501708984375,-0.2284393310546875,0.136138916015625
1782845381202041900,6.132041748046875,-0.9423675537109375,-0.2283782958984375,0.130889892578125
1782845381212045800,6.1420458984375,-0.93621826171875,-0.2274169921875,0.1262054443359375
1782845381222050800,6.15205078125,-0.9375152587890625,-0.230804443359375,0.1165771484375
1782845381232054800,6.1620546875,-0.943572998046875,-0.2307281494140625,0.1114654541015625
1782845381242058800,6.172058837890625,-0.9485015869140625,-0.2266998291015625,0.1012420654296875
1782845381252063700,6.182063720703125,-0.9570465087890625,-0.22125244140625,0.089691162109375
1782845381262067700,6.192067626953125,-0.9682159423828125,-0.2172393798828125,0.078582763671875
1782845381272072700,6.20207275390625,-0.971710205078125,-0.2313079833984375,0.0682220458984375
1782845381282077000,6.212076904296875,-0.9638519287109375,-0.2507781982421875,0.0649871826171875
1782845381292082000,6.22208203125,-0.9531402587890625,-0.261627197265625,0.0696563720703125
1782845381302086000,6.2320859375,-0.943878173828125,-0.2675628662109375,0.0744171142578125
1782845381312091000,6.2420908203125,-0.9323883056640625,-0.27484130859375,0.0817718505859375
1782845381322094800,6.2520947265625,-0.9168548583984375,-0.290252685546875,0.0862274169921875
1782845381332099800,6.262099853515625,-0.900543212890625,-0.30615234375,0.0959014892578125
1782845381342103800,6.272103759765625,-0.8911895751953125,-0.3168487548828125,0.10479736328125
1782845381352108800,6.28210888671875,-0.881195068359375,-0.318359375,0.109344482421875
1782845381362112800,6.29211279296875,-0.876068115234375,-0.3101654052734375,0.11016845703125
1782845381372117800,6.30211767578125,-0.875244140625,-0.3033599853515625,0.1015167236328125
1782845381382121700,6.312121826171875,-0.8771820068359375,-0.2989349365234375,0.0906829833984375
1782845381392126000,6.3221259765625,-0.885406494140625,-0.295257568359375,0.0870361328125
1782845381402131000,6.332130859375,-0.89227294921875,-0.29168701171875,0.084686279296875
1782845381412135000,6.342135009765625,-0.8977813720703125,-0.2898101806640625,0.0794219970703125
1782845381422140000,6.352139892578125,-0.9014739990234375,-0.2938690185546875,0.0759124755859375
1782845381432143600,6.3621435546875,-0.9058380126953125,-0.30645751953125,0.067413330078125
1782845381442148600,6.372148681640625,-0.9105224609375,-0.3167724609375,0.0580291748046875
1782845381452152800,6.38215283203125,-0.9203643798828125,-0.322723388671875,0.0492095947265625
1782845381462157800,6.39215771484375,-0.9405364990234375,-0.3270263671875,0.04217529296875
1782845381472161800,6.402161865234375,-0.96820068359375,-0.3400421142578125,0.040618896484375
1782845381482166800,6.412166748046875,-0.9983367919921875,-0.3546142578125,0.037750244140625
1782845381492170800,6.422170654296875,-1.036651611328125,-0.376953125,0.0286712646484375
1782845381502175700,6.43217578125,-1.0641632080078125,-0.4146881103515625,0.018310546875
1782845381512180000,6.442179931640625,-1.0920257568359375,-0.437469482421875,0.0232391357421875
1782845381522185000,6.45218505859375,-1.1190643310546875,-0.4290008544921875,0.02972412109375
1782845381532189000,6.46218896484375,-1.1260986328125,-0.39892578125,0.035369873046875
1782845381542194000,6.47219384765625,-1.1112213134765625,-0.366668701171875,0.0230712890625
1782845381552197600,6.48219775390625,-1.084625244140625,-0.323333740234375,-0.0001220703125
1782845381562201900,6.492201904296875,-1.0539398193359375,-0.2596435546875,-0.0131378173828125
1782845381572206800,6.502206787109375,-1.0274505615234375,-0.214080810546875,-0.0093841552734375
1782845381582210800,6.5122109375,-1.0171966552734375,-0.2007904052734375,0.0143890380859375
1782845381592215800,6.5222158203125,-1.0252685546875,-0.1831817626953125,0.0660552978515625
1782845381602219800,6.5322197265625,-1.0573272705078125,-0.133636474609375,0.1321868896484375
1782845381612224800,6.542224853515625,-1.0931549072265625,-0.1232147216796875,0.1838531494140625
1782845381622228700,6.552228759765625,-1.1031341552734375,-0.1545562744140625,0.2177734375
1782845381632234000,6.56223388671875,-1.0896148681640625,-0.169097900390625,0.2449493408203125
1782845381642238000,6.572238037109375,-1.0628662109375,-0.1669769287109375,0.25958251953125
1782845381652243000,6.582242919921875,-1.0319366455078125,-0.1548614501953125,0.244293212890625
1782845381662246700,6.59224658203125,-1.0030975341796875,-0.14599609375,0.2069244384765625
1782845381672251600,6.602251708984375,-0.972564697265625,-0.1663665771484375,0.1676177978515625
1782845381682256000,6.612255859375,-0.9296722412109375,-0.190399169921875,0.146881103515625
1782845381692260900,6.6222607421875,-0.888031005859375,-0.2131195068359375,0.133209228515625
1782845381702264800,6.632264892578125,-0.874542236328125,-0.2100677490234375,0.1263580322265625
1782845381712270000,6.64227001953125,-0.87957763671875,-0.2093963623046875,0.1267547607421875
1782845381722273800,6.652273681640625,-0.8738250732421875,-0.2215576171875,0.12884521484375
1782845381732277800,6.66227783203125,-0.8745880126953125,-0.22332763671875,0.133758544921875
1782845381742282800,6.67228271484375,-0.878265380859375,-0.203826904296875,0.1324920654296875
1782845381752287000,6.682286865234375,-0.8800201416015625,-0.167572021484375,0.11932373046875
1782845381762292000,6.6922919921875,-0.8864288330078125,-0.1522674560546875,0.1051025390625
1782845381772296000,6.7022958984375,-0.880706787109375,-0.1468505859375,0.0964813232421875
1782845381782301000,6.712301025390625,-0.874359130859375,-0.130096435546875,0.09576416015625
1782845381792305000,6.722304931640625,-0.8789825439453125,-0.1103057861328125,0.0938720703125
1782845381802310000,6.732309814453125,-0.8894805908203125,-0.0899200439453125,0.1003265380859375
1782845381812314000,6.742314208984375,-0.902984619140625,-0.08624267578125,0.1089630126953125
1782845381822319000,6.752319091796875,-0.9151458740234375,-0.085205078125,0.11566162109375
1782845381832322800,6.76232275390625,-0.94097900390625,-0.080810546875,0.115997314453125
1782845381842327800,6.772327880859375,-0.968170166015625,-0.08111572265625,0.110565185546875
1782845381852331800,6.782331787109375,-0.987701416015625,-0.083465576171875,0.1066131591796875
1782845381862336800,6.792336669921875,-0.9891357421875,-0.0824432373046875,0.0992889404296875
1782845381872341000,6.802341064453125,-0.98101806640625,-0.084320068359375,0.0893402099609375
1782845381882346000,6.812345947265625,-0.9723968505859375,-0.0963134765625,0.0759124755859375
1782845381892350000,6.822349853515625,-0.959259033203125,-0.1134033203125,0.0623626708984375
1782845381902354000,6.83235400390625,-0.9423675537109375,-0.128265380859375,0.0526885986328125
1782845381912359000,6.84235888671875,-0.9388427734375,-0.1419525146484375,0.0486297607421875
1782845381922363100,6.852363037109375,-0.9524688720703125,-0.1566619873046875,0.04669189453125
1782845381932368100,6.8623681640625,-0.9710235595703125,-0.163330078125,0.0490264892578125
1782845381942371800,6.872371826171875,-0.981536865234375,-0.1701202392578125,0.0494384765625
1782845381952376800,6.882376953125,-0.9979095458984375,-0.17852783203125,0.049102783203125
1782845381962380800,6.892380859375,-1.011688232421875,-0.1790771484375,0.045501708984375
1782845381972385800,6.9023857421875,-1.012847900390625,-0.1784210205078125,0.0414886474609375
1782845381982390000,6.91239013671875,-1.003692626953125,-0.1696929931640625,0.0368194580078125
1782845381992395000,6.92239501953125,-1.001129150390625,-0.162445068359375,0.03472900390625
1782845382002399000,6.93239892578125,-0.9985198974609375,-0.1605224609375,0.03643798828125
1782845382012404000,6.942404052734375,-0.9892425537109375,-0.1513519287109375,0.0370635986328125
1782845382022408000,6.952407958984375,-0.969390869140625,-0.1448211669921875,0.0329437255859375
1782845382032413000,6.962412841796875,-0.9400177001953125,-0.143585205078125,0.0284576416015625
1782845382042417000,6.9724169921875,-0.9099578857421875,-0.149078369140625,0.0233001708984375
1782845382052422100,6.982422119140625,-0.90380859375,-0.1573028564453125,0.02972412109375
1782845382062425900,6.99242578125,-0.903961181640625,-0.157745361328125,0.0476531982421875
1782845382072429800,7.002429931640625,-0.8969268798828125,-0.155548095703125,0.0642547607421875
1782845382082434800,7.012434814453125,-0.89251708984375,-0.166351318359375,0.071014404296875
1782845382092439000,7.02243896484375,-0.907501220703125,-0.170135498046875,0.0841217041015625
1782845382102444000,7.032444091796875,-0.9328765869140625,-0.1704864501953125,0.0872039794921875
1782845382112448000,7.042447998046875,-0.9621429443359375,-0.1776885986328125,0.0865631103515625
1782845382122453000,7.052452880859375,-0.9928436279296875,-0.1898956298828125,0.0819549560546875
1782845382132457000,7.06245703125,-1.016326904296875,-0.1984710693359375,0.0717315673828125
1782845382142462000,7.0724619140625,-1.03515625,-0.213897705078125,0.0626983642578125
1782845382152466000,7.0824658203125,-1.050384521484375,-0.2294158935546875,0.051727294921875
1782845382162471000,7.092470947265625,-1.0718536376953125,-0.23583984375,0.0393524169921875
1782845382172475000,7.102474853515625,-1.088043212890625,-0.23773193359375,0.0242462158203125
1782845382182480000,7.11247998046875,-1.092987060546875,-0.2389373779296875,0.014434814453125
1782845382192483800,7.12248388671875,-1.0808563232421875,-0.237884521484375,0.0009765625
1782845382202488800,7.13248876953125,-1.0570831298828125,-0.233612060546875,-0.01141357421875
1782845382212493000,7.1424931640625,-1.0315093994140625,-0.2296905517578125,-0.016326904296875
1782845382222498000,7.152498046875,-1.0041046142578125,-0.221099853515625,-0.0125274658203125
1782845382232502000,7.162501953125,-0.9649658203125,-0.217254638671875,-0.002410888671875
1782845382242506000,7.172506103515625,-0.9219818115234375,-0.214874267578125,0.0101776123046875
1782845382252511000,7.182510986328125,-0.885009765625,-0.20989990234375,0.0223388671875
1782845382262515000,7.192514892578125,-0.8488006591796875,-0.20697021484375,0.0354156494140625
1782845382272520000,7.20252001953125,-0.8263397216796875,-0.2116851806640625,0.0524749755859375
1782845382282524000,7.21252392578125,-0.815521240234375,-0.21435546875,0.0688018798828125
1782845382292529000,7.22252880859375,-0.8169708251953125,-0.2215728759765625,0.080230712890625
1782845382302532900,7.232532958984375,-0.82769775390625,-0.2301177978515625,0.089996337890625
1782845382312537900,7.242537841796875,-0.843170166015625,-0.2390594482421875,0.1007232666015625
1782845382322542000,7.2525419921875,-0.8683319091796875,-0.2458038330078125,0.1053619384765625
1782845382332547000,7.262547119140625,-0.91082763671875,-0.2567138671875,0.0995635986328125
1782845382342551000,7.272551025390625,-0.9656524658203125,-0.27142333984375,0.095550537109375
1782845382352556000,7.28255615234375,-1.0124359130859375,-0.2834014892578125,0.0966796875
1782845382362560000,7.29256005859375,-1.045867919921875,-0.2938995361328125,0.0854339599609375
1782845382372565000,7.30256494140625,-1.072967529296875,-0.2934417724609375,0.074676513671875
1782845382382569000,7.31256884765625,-1.0915985107421875,-0.2840576171875,0.0616302490234375
1782845382392574000,7.322573974609375,-1.0982513427734375,-0.2728271484375,0.038818359375
1782845382402578000,7.332577880859375,-1.0952911376953125,-0.2583770751953125,0.017333984375
1782845382412582000,7.342581787109375,-1.08013916015625,-0.25140380859375,0.001220703125
1782845382422587000,7.3525869140625,-1.0556793212890625,-0.249267578125,-0.009124755859375
1782845382432590800,7.3625908203125,-1.0214691162109375,-0.2431488037109375,-0.0175628662109375
1782845382442595800,7.372595947265625,-0.9880523681640625,-0.240966796875,-0.0233612060546875
1782845382452600000,7.38260009765625,-0.9516754150390625,-0.2422637939453125,-0.02667236328125
1782845382462605000,7.39260498046875,-0.9207611083984375,-0.2409210205078125,-0.022003173828125
1782845382472609000,7.402609130859375,-0.90338134765625,-0.2414398193359375,-0.0158843994140625
1782845382482614000,7.412614013671875,-0.8824462890625,-0.25091552734375,-0.0121002197265625
1782845382492617700,7.42261767578125,-0.8721160888671875,-0.25732421875,-0.00506591796875
1782845382502622700,7.432622802734375,-0.875732421875,-0.266845703125,0.0009765625
1782845382512627000,7.442626953125,-0.8856353759765625,-0.2719573974609375,0.0046539306640625
1782845382522632000,7.4526318359375,-0.8999786376953125,-0.2773284912109375,0.009063720703125
1782845382532636000,7.462635986328125,-0.917938232421875,-0.284942626953125,0.009735107421875
1782845382542641000,7.472640869140625,-0.936767578125,-0.2909088134765625,0.0145111083984375
1782845382552644900,7.482644775390625,-0.9556121826171875,-0.2969970703125,0.0185699462890625
1782845382562649000,7.492649169921875,-0.972900390625,-0.3032073974609375,0.0240631103515625
1782845382572654000,7.502654052734375,-0.9867095947265625,-0.301544189453125,0.0275726318359375
1782845382582657800,7.51265771484375,-1.000396728515625,-0.2950439453125,0.030364990234375
1782845382592662800,7.522662841796875,-1.0020904541015625,-0.290924072265625,0.030426025390625
1782845382602666800,7.532666748046875,-0.99859619140625,-0.285552978515625,0.027801513671875
1782845382612671700,7.542671630859375,-1.00848388671875,-0.277008056640625,0.01953125
1782845382622676000,7.552676025390625,-1.00213623046875,-0.26751708984375,0.008636474609375
1782845382632681000,7.562680908203125,-0.9980316162109375,-0.2568359375,0.006256103515625
1782845382642685000,7.572684814453125,-0.99365234375,-0.2463531494140625,-0.0012359619140625
1782845382652690000,7.58268994140625,-0.9907379150390625,-0.2355804443359375,-0.0019989013671875
1782845382662694000,7.59269384765625,-0.99237060546875,-0.2253570556640625,0.0009002685546875
1782845382672699000,7.602698974609375,-0.997039794921875,-0.2161865234375,0.0088348388671875
1782845382682703000,7.612703125,-1.006072998046875,-0.210784912109375,0.0229949951171875
1782845382692708000,7.6227080078125,-1.02264404296875,-0.20758056640625,0.042633056640625
1782845382702711800,7.6327119140625,-1.046905517578125,-0.2082977294921875,0.0640716552734375
1782845382712717600,7.642717529296875,-1.0645294189453125,-0.217193603515625,0.0810394287109375
1782845382722721500,7.652721435546875,-1.066802978515625,-0.2243804931640625,0.09197998046875
1782845382732725500,7.6627255859375,-1.05291748046875,-0.2391357421875,0.0977020263671875
1782845382742730500,7.67273046875,-1.04107666015625,-0.2464447021484375,0.0991058349609375
1782845382752734700,7.682734619140625,-1.0352783203125,-0.2458038330078125,0.0902862548828125
1782845382762739700,7.69273974609375,-1.0362548828125,-0.24615478515625,0.07183837890625
1782845382772743400,7.702743408203125,-1.0278167724609375,-0.2414398193359375,0.043304443359375
1782845382782748400,7.71274853515625,-1.0113372802734375,-0.231292724609375,0.015228271484375
1782845382792752400,7.72275244140625,-0.9891815185546875,-0.216156005859375,-0.0110626220703125
1782845382802757400,7.73275732421875,-0.961029052734375,-0.20709228515625,-0.0349273681640625
1782845382812761600,7.74276171875,-0.936676025390625,-0.201171875,-0.0411529541015625
1782845382822766600,7.7527666015625,-0.9250640869140625,-0.2041473388671875,-0.039825439453125
1782845382832770600,7.7627705078125,-0.929168701171875,-0.2005462646484375,-0.0343475341796875
1782845382842775600,7.772775634765625,-0.9284820556640625,-0.1995849609375,-0.0257568359375
1782845382852779500,7.782779541015625,-0.933837890625,-0.19793701171875,-0.02105712890625
1782845382862784500,7.792784423828125,-0.9446563720703125,-0.1873626708984375,-0.0185394287109375
1782845382872788700,7.802788818359375,-0.9629669189453125,-0.174713134765625,-0.009857177734375
1782845382882793700,7.812793701171875,-0.982330322265625,-0.1666107177734375,-0.0020751953125
1782845382892797400,7.82279736328125,-0.98590087890625,-0.16571044921875,0.0098724365234375
1782845382902801400,7.832801513671875,-0.993682861328125,-0.167633056640625,0.0298614501953125
1782845382912806400,7.842806396484375,-0.99664306640625,-0.1695404052734375,0.06134033203125
1782845382922810600,7.852810546875,-0.9795684814453125,-0.167205810546875,0.09698486328125
1782845382932815600,7.862815673828125,-0.9446258544921875,-0.1819915771484375,0.12396240234375
1782845382942819600,7.872819580078125,-0.9148712158203125,-0.2089691162109375,0.146514892578125
1782845382952824600,7.882824462890625,-0.8922271728515625,-0.2335357666015625,0.1725311279296875
1782845382962828500,7.89282861328125,-0.89569091796875,-0.2525787353515625,0.1963653564453125
1782845382972833500,7.90283349609375,-0.8934326171875,-0.2598724365234375,0.2122650146484375
1782845382982837500,7.91283740234375,-0.872161865234375,-0.27093505859375,0.25640869140625
1782845382992842500,7.922842529296875,-0.8915557861328125,-0.28399658203125,0.260589599609375
1782845383002846500,7.932846435546875,-0.9180908203125,-0.29534912109375,0.258575439453125
1782845383012851500,7.9428515625,-0.94378662109375,-0.3049774169921875,0.259674072265625
1782845383022855400,7.95285546875,-0.968170166015625,-0.314849853515625,0.25555419921875
1782845383032860400,7.9628603515625,-0.9881591796875,-0.3075714111328125,0.251220703125
1782845383042864600,7.97286474609375,-1.013671875,-0.296539306640625,0.2437286376953125
1782845383052869600,7.98286962890625,-1.0402069091796875,-0.3008575439453125,0.22528076171875
1782845383062873600,7.99287353515625,-1.0589141845703125,-0.2867279052734375,0.200164794921875
1782845383072877600,8.002877685546874,-1.0560302734375,-0.2589874267578125,0.1744842529296875
1782845383082882600,8.012882568359375,-1.0412445068359375,-0.2393798828125,0.1455535888671875
1782845383092886500,8.022886474609376,-1.0186767578125,-0.2348785400390625,0.108917236328125
1782845383102891500,8.0328916015625,-0.98175048828125,-0.228851318359375,0.088104248046875
1782845383112895500,8.0428955078125,-0.9493865966796875,-0.2216033935546875,0.0718994140625
1782845383122900500,8.052900390625,-0.92041015625,-0.215545654296875,0.0608367919921875
1782845383132904400,8.062904541015625,-0.8937225341796875,-0.2130584716796875,0.0520477294921875
1782845383142909400,8.072909423828126,-0.8654632568359375,-0.2134246826171875,0.0436553955078125
1782845383152913700,8.08291357421875,-0.8540802001953125,-0.220794677734375,0.0396270751953125
1782845383162918700,8.092918701171875,-0.85736083984375,-0.2308197021484375,0.0438690185546875
1782845383172922600,8.102922607421876,-0.8612823486328125,-0.2368316650390625,0.0537567138671875
1782845383182927600,8.112927734375,-0.8653717041015625,-0.2455902099609375,0.06805419921875
1782845383192931600,8.122931640625,-0.87457275390625,-0.2570343017578125,0.079193115234375
1782845383202936600,8.1329365234375,-0.8935089111328125,-0.2646331787109375,0.089141845703125
1782845383212940500,8.1429404296875,-0.9243927001953125,-0.257720947265625,0.1006317138671875
1782845383222944500,8.152944580078126,-0.941864013671875,-0.254241943359375,0.106536865234375
1782845383232949500,8.162949462890625,-0.9442291259765625,-0.2598876953125,0.1031494140625
1782845383242953500,8.172953369140625,-0.942138671875,-0.26727294921875,0.0974884033203125
1782845383252958500,8.18295849609375,-0.94525146484375,-0.272705078125,0.0987548828125
1782845383262962700,8.192962646484375,-0.9445343017578125,-0.2716064453125,0.1043548583984375
1782845383272967700,8.2029677734375,-0.9388580322265625,-0.273773193359375,0.110626220703125
1782845383282971600,8.2129716796875,-0.94085693359375,-0.27874755859375,0.1151123046875
1782845383292976600,8.2229765625,-0.9477386474609375,-0.2784271240234375,0.1165771484375
1782845383302980600,8.232980712890624,-0.947021484375,-0.2625885009765625,0.119903564453125
1782845383312985600,8.242985595703125,-0.9367523193359375,-0.2539520263671875,0.115386962890625
1782845383322989600,8.252989501953126,-0.9210052490234375,-0.2562103271484375,0.1085052490234375
1782845383332994600,8.26299462890625,-0.8983001708984375,-0.2621612548828125,0.100830078125
1782845383342998500,8.27299853515625,-0.8739776611328125,-0.2681121826171875,0.091766357421875
1782845383353003500,8.28300341796875,-0.8535308837890625,-0.2769622802734375,0.0885467529296875
1782845383363007500,8.293007568359375,-0.846160888671875,-0.2727203369140625,0.0840301513671875
1782845383373012500,8.303012451171876,-0.8470306396484375,-0.2721710205078125,0.0756378173828125
1782845383383016700,8.3130166015625,-0.844512939453125,-0.287078857421875,0.0656890869140625
1782845383393020700,8.323020751953125,-0.84454345703125,-0.29876708984375,0.0606689453125
1782845383403025700,8.333025634765624,-0.8597412109375,-0.3034515380859375,0.0605316162109375
1782845383413029600,8.343029541015625,-0.88128662109375,-0.30096435546875,0.062469482421875
1782845383423034600,8.35303466796875,-0.909027099609375,-0.30413818359375,0.06036376953125
1782845383433038600,8.36303857421875,-0.9376678466796875,-0.306121826171875,0.0565032958984375
1782845383443043600,8.373043701171875,-0.954376220703125,-0.3083953857421875,0.0513763427734375
1782845383453047600,8.383047607421876,-0.96380615234375,-0.311126708984375,0.0466156005859375
1782845383463052500,8.393052490234375,-0.966156005859375,-0.312286376953125,0.0458221435546875
1782845383473056500,8.403056396484375,-0.9644927978515625,-0.312744140625,0.043548583984375
1782845383483061500,8.4130615234375,-0.9633941650390625,-0.310791015625,0.0431671142578125
1782845383493065500,8.4230654296875,-0.957061767578125,-0.3111419677734375,0.0488128662109375
1782845383503070700,8.43307080078125,-0.947540283203125,-0.3143463134765625,0.05810546875
1782845383513074700,8.44307470703125,-0.9383392333984375,-0.3157501220703125,0.0721435546875
1782845383523079700,8.45307958984375,-0.9371337890625,-0.3192138671875,0.08685302734375
1782845383533083400,8.46308349609375,-0.9391937255859375,-0.3235321044921875,0.0960845947265625
1782845383543088400,8.47308837890625,-0.9393463134765625,-0.326995849609375,0.105255126953125
1782845383553092400,8.48309228515625,-0.9354248046875,-0.3314971923828125,0.1103515625
1782845383563097600,8.49309765625,-0.9203948974609375,-0.3390045166015625,0.1085662841796875
1782845383573101600,8.5031015625,-0.9068145751953125,-0.3436737060546875,0.1013336181640625
1782845383583105500,8.51310546875,-0.901123046875,-0.3469696044921875,0.0925750732421875
1782845383593110500,8.523110595703125,-0.907989501953125,-0.351776123046875,0.08648681640625
1782845383603114500,8.533114501953126,-0.918670654296875,-0.35748291015625,0.0770416259765625
1782845383613119500,8.543119384765625,-0.92816162109375,-0.3620758056640625,0.0678558349609375
1782845383623123700,8.553123779296875,-0.9436798095703125,-0.362579345703125,0.0601959228515625
1782845383633128700,8.563128662109374,-0.9609527587890625,-0.363525390625,0.0589752197265625
1782845383643132400,8.57313232421875,-0.973052978515625,-0.375457763671875,0.0582733154296875
1782845383653137400,8.583137451171876,-0.9873504638671875,-0.3892822265625,0.0650482177734375
1782845383663141400,8.593141357421874,-1.0041961669921875,-0.4053497314453125,0.0656890869140625
1782845383673146400,8.603146484375,-1.0197601318359375,-0.4310760498046875,0.05426025390625
1782845383683150600,8.613150634765624,-1.0279693603515625,-0.44549560546875,0.0510711669921875
1782845383693155600,8.623155517578125,-1.0234527587890625,-0.442626953125,0.05303955078125
1782845383703159600,8.63315966796875,-1.009857177734375,-0.438018798828125,0.057373046875
1782845383713164000,8.6431640625,-1.005889892578125,-0.4280548095703125,0.059600830078125
1782845383723168300,8.653168212890625,-0.9909210205078125,-0.39898681640625,0.0754241943359375
1782845383733173200,8.66317333984375,-0.976318359375,-0.3643341064453125,0.080780029296875
1782845383743177000,8.673177001953125,-0.976959228515625,-0.330352783203125,0.079498291015625
1782845383753181000,8.683180908203125,-0.9758758544921875,-0.30291748046875,0.0979766845703125
1782845383763186000,8.69318603515625,-0.97381591796875,-0.2639923095703125,0.1296844482421875
1782845383773190100,8.703190185546875,-0.968994140625,-0.2330780029296875,0.1586151123046875
1782845383783195100,8.713195068359376,-0.9722747802734375,-0.23114013671875,0.17755126953125
1782845383793199000,8.72319921875,-1.050750732421875,-0.208770751953125,0.1874237060546875
1782845383803204000,8.7332041015625,-0.9812774658203125,-0.2142486572265625,0.2230682373046875
1782845383813208000,8.7432080078125,-1.0138702392578125,-0.197509765625,0.264556884765625
1782845383823213000,8.753213134765625,-1.09521484375,-0.2091064453125,0.2482757568359375
1782845383833217000,8.763217041015626,-1.12188720703125,-0.205810546875,0.211578369140625
1782845383843222000,8.773221923828125,-1.083648681640625,-0.194061279296875,0.174041748046875
1782845383853226000,8.78322607421875,-1.060791015625,-0.1959228515625,0.1371612548828125
1782845383863231000,8.79323095703125,-1.0484619140625,-0.1822662353515625,0.097137451171875
1782845383873235000,8.80323486328125,-1.010162353515625,-0.1657867431640625,0.063812255859375
1782845383883240000,8.813239990234376,-0.93707275390625,-0.1742706298828125,0.043975830078125
