time,seconds_elapsed,z,y,x
1782845375144334300,0.074334228515625,0.11124583333730698,-0.18732088804244995,-0.22806619107723236
1782845375154338300,0.08433837890625,0.19981218874454498,-0.18759945034980774,-0.09012722969055176
1782845375164343300,0.09434326171875,0.25614601373672485,-0.1843874156475067,0.026032665744423866
1782845375174347500,0.104347412109375,0.283892422914505,-0.1616983562707901,0.09970342367887497
1782845375184352500,0.1143525390625,0.2937101721763611,-0.11961135268211365,0.13354794681072235
1782845375194356200,0.124356201171875,0.27716368436813354,-0.08529705554246902,0.13372983038425446
1782845375204361200,0.134361328125,0.23180046677589417,-0.04778376594185829,0.08845316618680954
1782845375214365200,0.144365234375,0.1565411388874054,-0.025198297575116158,0.023377228528261185
1782845375224370200,0.1543701171875,0.08021813631057739,-0.024629712104797363,-0.07225955277681351
1782845375234374400,0.16437451171875,0.009618804790079594,-0.056963417679071426,-0.1691908836364746
1782845375244379400,0.17437939453125,-0.03556758165359497,-0.1035303846001625,-0.24421346187591553
1782845375254383400,0.18438330078125,-0.07137831300497055,-0.14808879792690277,-0.2788145840167999
1782845375264388400,0.194388427734375,-0.08428958058357239,-0.18324439227581024,-0.2701965868473053
1782845375274392300,0.204392333984375,-0.08728963136672974,-0.20592813193798065,-0.21872355043888092
1782845375284397300,0.214397216796875,-0.07528596371412277,-0.19404058158397675,-0.14386342465877533
1782845375294401300,0.2244013671875,-0.0453038327395916,-0.15583354234695435,-0.05991899222135544
1782845375304405200,0.2344052734375,-0.006885603070259094,-0.09934496134519577,0.024925855919718742
1782845375314410200,0.24441015625,0.03855537995696068,-0.032696958631277084,0.11886540055274963
1782845375324414200,0.254414306640625,0.07939308881759644,0.009213738143444061,0.19877780973911285
1782845375334419200,0.264419189453125,0.11128418147563934,0.02652748115360737,0.243539959192276
1782845375344423200,0.274423095703125,0.15291045606136322,0.026321351528167725,0.24432185292243958
1782845375354428400,0.284428466796875,0.20948344469070435,0.006520750001072884,0.21444545686244965
1782845375364432400,0.294432373046875,0.2619783580303192,-0.028973594307899475,0.17827600240707397
1782845375374437400,0.304437255859375,0.2813864052295685,-0.051416851580142975,0.11692874878644943
1782845375384441300,0.31444140625,0.271370530128479,-0.05902044475078583,0.040276315063238144
1782845375394446300,0.3244462890625,0.23795902729034424,-0.050083938986063004,-0.03756202384829521
1782845375404450300,0.3344501953125,0.1959676444530487,-0.027727501466870308,-0.11665524542331696
1782845375414455300,0.344455322265625,0.15258660912513733,-0.002944657113403082,-0.18712887167930603
1782845375424459300,0.354459228515625,0.1108412966132164,0.01864905096590519,-0.2425479292869568
1782845375434464300,0.36446435546875,0.07628651708364487,0.04206516221165657,-0.26630252599716187
1782845375444468200,0.37446826171875,0.054307445883750916,0.06510896235704422,-0.28089743852615356
1782845375454473200,0.38447314453125,0.055270712822675705,0.06685306876897812,-0.2713231146335602
1782845375464477200,0.394477294921875,0.0701892077922821,0.04114983230829239,-0.2345118373632431
1782845375474481400,0.4044814453125,0.0841609463095665,0.0070677632465958595,-0.1970483511686325
1782845375484486400,0.414486328125,0.11371937394142151,-0.020002469420433044,-0.1676585078239441
1782845375494490400,0.424490478515625,0.1471974402666092,-0.043042540550231934,-0.13690698146820068
1782845375504495400,0.434495361328125,0.17895004153251648,-0.05579109489917755,-0.11802277714014053
1782845375514499000,0.4444990234375,0.2087918221950531,-0.053336191922426224,-0.0886467769742012
1782845375524504000,0.454504150390625,0.22936394810676575,-0.038661375641822815,-0.056238505989313126
1782845375534508300,0.46450830078125,0.24208267033100128,-0.01010722853243351,-0.005017129238694906
1782845375544513300,0.47451318359375,0.24022698402404785,0.010408165864646435,0.06494997441768646
1782845375554517200,0.484517333984375,0.22509010136127472,0.03795909881591797,0.1391642838716507
1782845375564522200,0.494522216796875,0.20028649270534515,0.06240185722708702,0.21663963794708252
1782845375574526200,0.504526123046875,0.16626140475273132,0.08699002861976624,0.27751630544662476
1782845375584531200,0.51453125,0.14287114143371582,0.09077411144971848,0.32540205121040344
1782845375594535400,0.524535400390625,0.1507200002670288,0.08512048423290253,0.3402089774608612
1782845375604540400,0.53454052734375,0.18445533514022827,0.07783541083335876,0.3054935932159424
1782845375614544400,0.54454443359375,0.23098528385162354,0.09404847025871277,0.19552981853485107
1782845375624549400,0.55454931640625,0.27786198258399963,0.13785719871520996,0.0035214978270232677
1782845375634553000,0.564552978515625,0.3135800361633301,0.1719224900007248,-0.23970633745193481
1782845375644558000,0.57455810546875,0.3308122754096985,0.17547328770160675,-0.5043185353279114
1782845375654562300,0.584562255859375,0.32875683903694153,0.15849430859088898,-0.7310704588890076
1782845375664566300,0.594566162109375,0.3146972358226776,0.1211160346865654,-0.8723474144935608
1782845375674571300,0.6045712890625,0.28246498107910156,0.07250988483428955,-0.9059149622917175
1782845375684575200,0.6145751953125,0.25323039293289185,0.03702353313565254,-0.8608508110046387
1782845375694580200,0.624580322265625,0.2355310320854187,0.008349009789526463,-0.7539278268814087
1782845375704585200,0.634585205078125,0.21957309544086456,-0.02912592701613903,-0.5976482033729553
1782845375714590200,0.644590087890625,0.2033699005842209,-0.07376210391521454,-0.39999160170555115
1782845375724594400,0.654594482421875,0.17557048797607422,-0.12016049772500992,-0.16886039078235626
1782845375734599400,0.664599365234375,0.14549247920513153,-0.15460608899593353,0.0688677504658699
1782845375744603400,0.674603271484375,0.1176411435008049,-0.15722183883190155,0.27313512563705444
1782845375754608400,0.6846083984375,0.09614810347557068,-0.13027118146419525,0.43216338753700256
1782845375764612000,0.694612060546875,0.08015715330839157,-0.08436334878206253,0.5457461476325989
1782845375774617000,0.7046171875,0.0709223747253418,-0.041841454803943634,0.6101933121681213
1782845375784621300,0.714621337890625,0.07587851583957672,0.011713647283613682,0.6087040901184082
1782845375794626300,0.724626220703125,0.09023215621709824,0.05722600594162941,0.565753161907196
1782845375804630300,0.73463037109375,0.11713328212499619,0.08286558836698532,0.4811304211616516
1782845375814635300,0.74463525390625,0.14661873877048492,0.10303610563278198,0.3681279420852661
1782845375824639200,0.75463916015625,0.1801932007074356,0.12185027450323105,0.23962190747261047
1782845375834643500,0.7646435546875,0.22282774746418,0.13438470661640167,0.11322002857923508
1782845375844648400,0.7746484375,0.2725455164909363,0.13218280673027039,0.0006689860601909459
1782845375854652400,0.78465234375,0.3266236484050751,0.11374254524707794,-0.10389231145381927
1782845375864657400,0.794657470703125,0.39898255467414856,0.08360035717487335,-0.17991383373737335
1782845375874661000,0.8046611328125,0.46480444073677063,0.04318688437342644,-0.24787265062332153
1782845375884666000,0.814666015625,0.523772656917572,-0.013551228679716587,-0.3042198121547699
1782845375894670300,0.82467041015625,0.568072497844696,-0.07454374432563782,-0.34366416931152344
1782845375904675300,0.83467529296875,0.5904779434204102,-0.11436119675636292,-0.3783414363861084
1782845375914679300,0.84467919921875,0.5955826640129089,-0.12295335531234741,-0.400225430727005
1782845375924684300,0.854684326171875,0.5866576433181763,-0.11454042792320251,-0.3864917755126953
1782845375934688300,0.864688232421875,0.5712254047393799,-0.11391085386276245,-0.3357316553592682
1782845375944693200,0.874693359375,0.5436958074569702,-0.10971637815237045,-0.25323811173439026
1782845375954697500,0.884697509765625,0.5045118927955627,-0.09763973951339722,-0.15709561109542847
1782845375964702500,0.894702392578125,0.4454544484615326,-0.09002043306827545,-0.049908172339200974
1782845375974706400,0.90470654296875,0.38222113251686096,-0.07461857795715332,0.04174211993813515
1782845375984711400,0.91471142578125,0.3168320059776306,-0.048706021159887314,0.11618253588676453
1782845375994715100,0.924715087890625,0.2680679261684418,-0.019723637029528618,0.17592282593250275
1782845376004720000,0.93472021484375,0.23635022342205048,0.02136733941733837,0.22809894382953644
1782845376014724400,0.944724365234375,0.23127876222133636,0.07201773673295975,0.27879542112350464
1782845376024728300,0.954728271484375,0.2477208524942398,0.1148565411567688,0.33817699551582336
1782845376034733300,0.9647333984375,0.29202598333358765,0.14521710574626923,0.4029754102230072
1782845376044737300,0.9747373046875,0.3545950949192047,0.16910167038440704,0.47355955839157104
1782845376054742300,0.9847421875,0.4164440929889679,0.18542152643203735,0.535504937171936
1782845376064746500,0.99474658203125,0.47071024775505066,0.19630639255046844,0.5653457045555115
1782845376074751500,1.00475146484375,0.5022072196006775,0.20734094083309174,0.5360461473464966
1782845376084755500,1.01475537109375,0.5116973519325256,0.22726590931415558,0.4352438747882843
1782845376094760400,1.024760498046875,0.5069828033447266,0.23654410243034363,0.2832335829734802
1782845376104764200,1.03476416015625,0.495487779378891,0.23340582847595215,0.09330784529447556
1782845376114769200,1.04476904296875,0.48179513216018677,0.22668373584747314,-0.10394717007875443
1782845376124773400,1.0547734375,0.4790264964103699,0.21528062224388123,-0.27328479290008545
1782845376134778400,1.0647783203125,0.5002284646034241,0.19223575294017792,-0.3968629240989685
1782845376144782300,1.0747822265625,0.5271152257919312,0.12070111930370331,-0.44083890318870544
1782845376154787300,1.084787353515625,0.5565410256385803,0.03954501077532768,-0.4091393053531647
1782845376164791300,1.094791259765625,0.5854600071907043,-0.04560237377882004,-0.3263416290283203
1782845376174796300,1.10479638671875,0.6048582196235657,-0.10610593110322952,-0.21153515577316284
1782845376184800500,1.114800537109375,0.6152088642120361,-0.12918701767921448,-0.07116285711526871
1782845376194804200,1.12480419921875,0.6261498928070068,-0.1367807537317276,0.09742455929517746
1782845376204809200,1.134809326171875,0.6228667497634888,-0.1329902708530426,0.27186959981918335
1782845376214813200,1.144813232421875,0.6023311614990234,-0.11141867190599442,0.4332126975059509
1782845376224818200,1.154818115234375,0.5598042011260986,-0.0818605124950409,0.5664706230163574
1782845376234822400,1.164822509765625,0.4954526126384735,-0.07463002949953079,0.653396725654602
1782845376244827400,1.174827392578125,0.4245201349258423,-0.08589280396699905,0.6975793838500977
1782845376254831400,1.184831298828125,0.34072643518447876,-0.10551470518112183,0.6985740661621094
1782845376264836400,1.19483642578125,0.2559833228588104,-0.11643180251121521,0.6764698028564453
1782845376274840300,1.20484033203125,0.16763587296009064,-0.13647262752056122,0.627993106842041
1782845376284845300,1.21484521484375,0.0687100887298584,-0.14880412817001343,0.5426483750343323
1782845376294849300,1.224849365234375,-0.04247022792696953,-0.15409688651561737,0.4219387173652649
1782845376304854300,1.234854248046875,-0.1580897718667984,-0.1479732245206833,0.265359491109848
1782845376314858200,1.244858154296875,-0.2594270408153534,-0.12351155281066895,0.10340628027915955
1782845376324863200,1.25486328125,-0.3414739668369293,-0.08201630413532257,-0.05354684963822365
1782845376334867200,1.2648671875,-0.4064122140407562,-0.038410771638154984,-0.17738942801952362
1782845376344872200,1.2748720703125,-0.45183777809143066,0.01218422781676054,-0.26995211839675903
1782845376354876200,1.284876220703125,-0.4751875698566437,0.06046281009912491,-0.3059205114841461
1782845376364881200,1.294881103515625,-0.4752860963344574,0.09960062801837921,-0.29419195652008057
1782845376374885400,1.304885498046875,-0.4607263207435608,0.11753781139850616,-0.23905731737613678
1782845376384889300,1.314889404296875,-0.43033701181411743,0.11882012337446213,-0.146164670586586
1782845376394894300,1.324894287109375,-0.38855627179145813,0.09630230069160461,-0.033720411360263824
1782845376404898300,1.334898193359375,-0.3473806083202362,0.05221793055534363,0.0752958208322525
1782845376414903300,1.3449033203125,-0.3058968186378479,-0.003765976056456566,0.15957660973072052
1782845376424907300,1.3549072265625,-0.2604270577430725,-0.057364754378795624,0.20362795889377594
1782845376434912300,1.364912353515625,-0.22123996913433075,-0.09747888892889023,0.20890794694423676
1782845376444916200,1.374916259765625,-0.19116249680519104,-0.12202790379524231,0.19886915385723114
1782845376454921200,1.384921142578125,-0.16470852494239807,-0.12858380377292633,0.163613423705101
1782845376464925200,1.39492529296875,-0.15102973580360413,-0.12817314267158508,0.12786395847797394
1782845376474930200,1.40493017578125,-0.14678332209587097,-0.12484606355428696,0.09179063886404037
1782845376484934400,1.414934326171875,-0.1414676457643509,-0.1156187430024147,0.05800657719373703
1782845376494939400,1.424939453125,-0.1267845779657364,-0.10286778956651688,0.019060775637626648
1782845376504943400,1.434943359375,-0.11981348693370819,-0.08445283025503159,-0.014254836365580559
1782845376514948400,1.4449482421875,-0.1158837229013443,-0.06357737630605698,-0.045883335173130035
1782845376524952300,1.454952392578125,-0.11984970420598984,-0.04538532346487045,-0.08105650544166565
1782845376534957300,1.464957275390625,-0.13120169937610626,-0.03762460872530937,-0.11067990958690643
1782845376544961300,1.474961181640625,-0.16194894909858704,-0.025678997859358788,-0.1299566626548767
1782845376554965200,1.48496533203125,-0.18778960406780243,-0.014024739153683186,-0.15951429307460785
1782845376564970200,1.49497021484375,-0.21021422743797302,-0.010705641470849514,-0.177997425198555
1782845376574974200,1.50497412109375,-0.23541198670864105,-0.005188636481761932,-0.20229558646678925
1782845376584979200,1.514979248046875,-0.2637842297554016,-0.0011792477453127503,-0.22360433638095856
1782845376594983400,1.5249833984375,-0.28365862369537354,-0.006132194772362709,-0.2368309199810028
1782845376604988400,1.534988525390625,-0.3077889680862427,-0.016704678535461426,-0.23666048049926758
1782845376614992400,1.544992431640625,-0.33504217863082886,-0.019395802170038223,-0.20939449965953827
1782845376624997400,1.554997314453125,-0.35263022780418396,-0.02570403181016445,-0.1573704481124878
1782845376635001300,1.56500146484375,-0.3800394833087921,-0.02803642861545086,-0.10399963706731796
1782845376645006300,1.57500634765625,-0.4015146791934967,-0.023436617106199265,-0.03764777630567551
1782845376655010300,1.58501025390625,-0.42385566234588623,-0.036428313702344894,0.02027757465839386
1782845376665015300,1.595015380859375,-0.43690595030784607,-0.054665643721818924,0.08073266595602036
1782845376675019300,1.605019287109375,-0.4384218156337738,-0.06940597295761108,0.13634878396987915
1782845376685024300,1.615024169921875,-0.4276490807533264,-0.07043608278036118,0.17397232353687286
1782845376695028200,1.6250283203125,-0.4140874445438385,-0.060202088207006454,0.18839707970619202
1782845376705032000,1.635031982421875,-0.40251681208610535,-0.04598986357450485,0.1820523589849472
1782845376715036000,1.645035888671875,-0.3920460641384125,-0.02851313352584839,0.160289004445076
1782845376725039900,1.655039794921875,-0.36879533529281616,-0.004965197294950485,0.12447454780340195
1782845376735044900,1.665044921875,-0.33490103483200073,0.019393404945731163,0.0774732232093811
1782845376745049000,1.675049072265625,-0.30248263478279114,0.03984808176755905,0.026128806173801422
1782845376755054000,1.68505419921875,-0.27482330799102783,0.051410991698503494,-0.016144614666700363
1782845376765058000,1.69505810546875,-0.2526293098926544,0.04519091546535492,-0.022849388420581818
1782845376775063000,1.70506298828125,-0.2276581972837448,0.011187407188117504,0.01709749363362789
1782845376785066800,1.715066650390625,-0.20367802679538727,-0.01986345276236534,0.060683052986860275
1782845376795071700,1.72507177734375,-0.1720346063375473,-0.042928293347358704,0.0831417590379715
1782845376805076000,1.735075927734375,-0.14301706850528717,-0.04332270473241806,0.059956278651952744
1782845376815081000,1.7450810546875,-0.126907080411911,-0.04512167349457741,-0.0065532405860722065
1782845376825085000,1.7550849609375,-0.11626295745372772,-0.05008846893906593,-0.06956256926059723
1782845376835090000,1.76508984375,-0.11106686294078827,-0.05662892386317253,-0.12019458413124084
1782845376845094000,1.775093994140625,-0.10216471552848816,-0.06228281557559967,-0.15001186728477478
1782845376855099000,1.785098876953125,-0.0923544317483902,-0.06577368825674057,-0.1589267998933792
1782845376865103000,1.79510302734375,-0.09649164974689484,-0.06504744291305542,-0.14173848927021027
1782845376875108000,1.805108154296875,-0.10278204083442688,-0.05292979255318642,-0.11919935792684555
1782845376885111800,1.81511181640625,-0.11874768882989883,-0.040648095309734344,-0.08531036972999573
1782845376895117000,1.825116943359375,-0.1305079460144043,-0.023386282846331596,-0.05005118250846863
1782845376905120800,1.835120849609375,-0.15115942060947418,-0.009621202014386654,-0.023574568331241608
1782845376915125000,1.845125,-0.17138640582561493,0.000254331884207204,-0.0036794233601540327
1782845376925130000,1.8551298828125,-0.18923890590667725,-0.003853061469271779,0.013793842867016792
1782845376935134000,1.865134033203125,-0.2020319253206253,-0.01079752016812563,0.03353958576917648
1782845376945139000,1.875138916015625,-0.21355648338794708,-0.020121779292821884,0.06113073229789734
1782845376955143000,1.885142822265625,-0.22343388199806213,-0.02429948002099991,0.0754750519990921
1782845376965148000,1.89514794921875,-0.229384183883667,-0.01582610048353672,0.09757449477910995
1782845376975152000,1.905152099609375,-0.22567467391490936,-0.01594381220638752,0.10860849916934967
1782845376985157000,1.9151572265625,-0.21105417609214783,-0.01170699018985033,0.11603659391403198
1782845376995160800,1.925160888671875,-0.19329755008220673,-0.004494883120059967,0.11306290328502655
1782845377005165800,1.935165771484375,-0.16994749009609222,0.0049281795509159565,0.10495810955762863
1782845377015169800,1.945169677734375,-0.1422005444765091,0.007472563534975052,0.09980329126119614
1782845377025174800,1.9551748046875,-0.1077035591006279,0.006907174363732338,0.08315560966730118
1782845377035179000,1.965178955078125,-0.07523909211158752,0.009850500151515007,0.061525944620370865
1782845377045184000,1.97518408203125,-0.04167900234460831,0.005014466121792793,0.02640444226562977
1782845377055188000,1.98518798828125,-0.02353781647980213,-0.0033449302427470684,-0.007809187285602093
1782845377065193000,1.99519287109375,-0.010390589013695717,-0.013068131171166897,-0.050812046974897385
1782845377075197000,2.005197021484375,-0.004503671545535326,-0.022760439664125443,-0.09442850202322006
1782845377085202000,2.015201904296875,0.003926298581063747,-0.0341196209192276,-0.12410996109247208
1782845377095206100,2.0252060546875,0.017426393926143646,-0.047865260392427444,-0.1435007005929947
1782845377105209900,2.0352099609375,0.029807429760694504,-0.06837532669305801,-0.1518116295337677
1782845377115214800,2.04521484375,0.04247129335999489,-0.07573603838682175,-0.14404532313346863
1782845377125218800,2.05521875,0.04631396755576134,-0.08657989650964737,-0.13682948052883148
1782845377135223800,2.065223876953125,0.05169941484928131,-0.0876837819814682,-0.13538339734077454
1782845377145228000,2.07522802734375,0.050998736172914505,-0.08469757437705994,-0.13268880546092987
1782845377155233000,2.08523291015625,0.0446564182639122,-0.08525923639535904,-0.12371208518743515
1782845377165237000,2.095237060546875,0.026803916320204735,-0.09266282618045807,-0.11454548686742783
1782845377175242000,2.105241943359375,0.007708786055445671,-0.10738451033830643,-0.10495517402887344
1782845377185246000,2.115245849609375,-0.009446765296161175,-0.13482119143009186,-0.08401181548833847
1782845377195251000,2.1252509765625,-0.0255141481757164,-0.15819042921066284,-0.055174570530653
1782845377205255000,2.1352548828125,-0.04358183220028877,-0.18415358662605286,0.0002282329078298062
1782845377215260000,2.145260009765625,-0.07860000431537628,-0.18826711177825928,0.05426590144634247
1782845377225263900,2.155263916015625,-0.12541463971138,-0.17810103297233582,0.09543517231941223
1782845377235268900,2.165268798828125,-0.1801556497812271,-0.15762504935264587,0.10898081213235855
1782845377245272800,2.17527294921875,-0.23917530477046967,-0.11973891407251358,0.0857175663113594
1782845377255277800,2.18527783203125,-0.3097434639930725,-0.0810122936964035,0.036663204431533813
1782845377265281800,2.19528173828125,-0.36427488923072815,-0.023241139948368073,-0.06093472242355347
1782845377275286000,2.2052861328125,-0.4001127779483795,0.05066797137260437,-0.1908053755760193
1782845377285291000,2.215291015625,-0.40945568680763245,0.09004360437393188,-0.31093844771385193
1782845377295295000,2.225294921875,-0.40399619936943054,0.10680554062128067,-0.40389713644981384
1782845377305300000,2.235300048828125,-0.365744411945343,0.09417949616909027,-0.4610387086868286
1782845377315304000,2.245303955078125,-0.30540731549263,0.06592122465372086,-0.48634061217308044
1782845377325309000,2.255308837890625,-0.21488860249519348,0.01961285062134266,-0.4673674702644348
1782845377335313000,2.26531298828125,-0.10223449021577835,-0.03112223371863365,-0.4126378893852234
1782845377345318000,2.27531787109375,0.00558278476819396,-0.08956024050712585,-0.3239405155181885
1782845377355321900,2.28532177734375,0.08982975780963898,-0.12439119070768356,-0.2300792783498764
1782845377365326800,2.295326904296875,0.13112419843673706,-0.10768891125917435,-0.1494337022304535
1782845377375330800,2.305330810546875,0.12924666702747345,-0.06519338488578796,-0.09503037482500076
1782845377385335800,2.315335693359375,0.09813828766345978,-0.009856359101831913,-0.06904245167970657
1782845377395340000,2.325340087890625,0.062064435333013535,0.025844380259513855,-0.05577245354652405
1782845377405345000,2.335344970703125,0.030487336218357086,0.03537849709391594,-0.05729178339242935
1782845377415349000,2.345348876953125,0.00788695178925991,0.037813425064086914,-0.06760220974683762
1782845377425354000,2.35535400390625,0.0018013621447607875,0.00549223693087697,-0.07747481763362885
1782845377435357700,2.365357666015625,0.009533850476145744,-0.03351588174700737,-0.07215622067451477
1782845377445363000,2.375363037109375,0.02449309267103672,-0.06759608536958694,-0.04893345385789871
1782845377455367000,2.385366943359375,0.03949388116598129,-0.07851345092058182,-0.023257652297616005
1782845377465371000,2.395370849609375,0.05422009527683258,-0.0667545273900032,-0.0014229270163923502
1782845377475375900,2.4053759765625,0.06912846863269806,-0.04946555197238922,0.03075631521642208
1782845377485379800,2.4153798828125,0.07276394963264465,-0.0229180995374918,0.06119038537144661
1782845377495384800,2.425384765625,0.08955305069684982,-0.0004021373169962317,0.07944822311401367
1782845377505389000,2.43538916015625,0.11329220235347748,0.0018128136871382594,0.1016312837600708
1782845377515394000,2.44539404296875,0.1395680159330368,-0.010755974799394608,0.12273816764354706
1782845377525398000,2.45539794921875,0.17623628675937653,-0.037038978189229965,0.13839489221572876
1782845377535403000,2.465403076171875,0.19982975721359253,-0.06317950040102005,0.12467295676469803
1782845377545406700,2.47540673828125,0.20880886912345886,-0.0711444839835167,0.08340248465538025
1782845377555411700,2.48541162109375,0.20881526172161102,-0.059066250920295715,0.028983447700738907
1782845377565416000,2.495416015625,0.19852906465530396,-0.038300249725580215,-0.04152294248342514
1782845377575421000,2.5054208984375,0.18141479790210724,-0.003397128311917186,-0.11841026693582535
1782845377585425000,2.5154248046875,0.15313921868801117,0.026310699060559273,-0.19830377399921417
1782845377595430000,2.525429931640625,0.11366477608680725,0.032642897218465805,-0.24697595834732056
1782845377605433900,2.535433837890625,0.07732301950454712,0.02207547426223755,-0.27917197346687317
1782845377615438800,2.54543896484375,0.05350290611386299,0.0059907808899879456,-0.3082292079925537
1782845377625443000,2.555443115234375,0.03104287013411522,-0.016752082854509354,-0.34236106276512146
1782845377635447000,2.565447021484375,-0.0004316983977332711,-0.03953436017036438,-0.37107792496681213
1782845377645452000,2.5754521484375,-0.02382650226354599,-0.06949092447757721,-0.37660667300224304
1782845377655455700,2.585455810546875,-0.044666536152362823,-0.0824756994843483,-0.3515753448009491
1782845377665460700,2.595460693359375,-0.055921055376529694,-0.07442229986190796,-0.3115123510360718
1782845377675465000,2.60546484375,-0.059969060122966766,-0.044319529086351395,-0.25338032841682434
1782845377685470000,2.615469970703125,-0.05506458505988121,-0.017054617404937744,-0.18281055986881256
1782845377695474000,2.625473876953125,-0.04114184528589249,0.014854047447443008,-0.1022760346531868
1782845377705478400,2.635478515625,-0.027111245319247246,0.03411669284105301,-0.02847371995449066
1782845377715482400,2.645482421875,-0.007527158595621586,0.040710411965847015,0.032703086733818054
1782845377725487400,2.6554873046875,0.0209452286362648,0.043358657509088516,0.07663512229919434
1782845377735491600,2.66549169921875,0.045815691351890564,0.04229286313056946,0.08863319456577301
1782845377745496600,2.67549658203125,0.06623441725969315,0.038726091384887695,0.07179988920688629
1782845377755500300,2.685500244140625,0.07864900678396225,0.03122556395828724,0.04271230846643448
1782845377765505300,2.69550537109375,0.08658602088689804,0.027950407937169075,0.014218084514141083
1782845377775509200,2.70550927734375,0.08507281541824341,0.019781960174441338,0.003073554253205657
1782845377785514200,2.71551416015625,0.08344428986310959,0.01782400533556938,0.000592287047766149
1782845377795518500,2.7255185546875,0.08147887885570526,0.020108463242650032,-0.010671818628907204
1782845377805523500,2.7355234375,0.0814511850476265,0.023274695500731468,-0.030959779396653175
1782845377815527400,2.74552734375,0.09035839140415192,0.032831449061632156,-0.05319717526435852
1782845377825532400,2.755532470703125,0.1060555949807167,0.041308559477329254,-0.05739990994334221
1782845377835536400,2.765536376953125,0.12318052351474762,0.04866261035203934,-0.05227731913328171
1782845377845540600,2.77554052734375,0.13591602444648743,0.05229436233639717,-0.038667768239974976
1782845377855545600,2.785545654296875,0.14852316677570343,0.05809126794338226,-0.017047161236405373
1782845377865549300,2.79554931640625,0.15483112633228302,0.07522524893283844,-0.0056802560575306416
1782845377875554300,2.80555419921875,0.16871391236782074,0.09838222712278366,-0.011570103466510773
1782845377885558300,2.815558349609375,0.17900623381137848,0.11743634939193726,-0.033781398087739944
1782845377895563300,2.825563232421875,0.17995086312294006,0.13050422072410583,-0.05760550498962402
1782845377905567500,2.8355673828125,0.1816675364971161,0.12386708706617355,-0.06595291942358017
1782845377915572500,2.845572509765625,0.17392785847187042,0.11411885172128677,-0.05788913369178772
1782845377925576400,2.855576416015625,0.1593627631664276,0.10145844519138336,-0.04314134642481804
1782845377935581400,2.86558154296875,0.14034272730350494,0.09356243908405304,-0.017668742686510086
1782845377945585400,2.87558544921875,0.1203964501619339,0.0935848131775856,-0.001119060325436294
1782845377955590400,2.88559033203125,0.0989188551902771,0.09313047677278519,0.021860823035240173
1782845377965594600,2.8955947265625,0.08060190081596375,0.09222473204135895,0.045942191034555435
1782845377975599600,2.905599609375,0.07109335064888,0.0931834727525711,0.06141488999128342
1782845377985603300,2.915603271484375,0.062310777604579926,0.0971641018986702,0.07574562728404999
1782845377995608300,2.9256083984375,0.06162022054195404,0.10726786404848099,0.07422389835119247
1782845378005612300,2.9356123046875,0.07263505458831787,0.11370925605297089,0.06919611245393753
1782845378015616500,2.945616455078125,0.07748706638813019,0.12760935723781586,0.06244366988539696
1782845378025621500,2.95562158203125,0.09038049727678299,0.1354779303073883,0.0586119145154953
1782845378035625500,2.96562548828125,0.10187176614999771,0.14284610748291016,0.05086211487650871
1782845378045630500,2.97563037109375,0.12234988063573837,0.15026353299617767,0.04134397953748703
1782845378055634400,2.985634521484375,0.14238058030605316,0.15730786323547363,0.02731737494468689
1782845378065639400,2.995639404296875,0.15890762209892273,0.15293362736701965,-0.0017803232185542583
1782845378075643600,3.0056435546875,0.18192505836486816,0.14786243438720703,-0.036377713084220886
1782845378085648600,3.015648681640625,0.19801294803619385,0.13988998532295227,-0.07645589113235474
1782845378095652400,3.02565234375,0.21502256393432617,0.12259888648986816,-0.1118362545967102
1782845378105657300,3.0356572265625,0.21669049561023712,0.10772113502025604,-0.14417634904384613
1782845378115661300,3.045661376953125,0.20505142211914062,0.09749513119459152,-0.1629313975572586
1782845378125666300,3.055666259765625,0.18208858370780945,0.08828139305114746,-0.16889314353466034
1782845378135670500,3.06567041015625,0.1503482311964035,0.07946845889091492,-0.15970763564109802
1782845378145675500,3.075675537109375,0.11466559767723083,0.06183460354804993,-0.1399315446615219
1782845378155679500,3.085679443359375,0.0721072182059288,0.047634631395339966,-0.12072109431028366
1782845378165684500,3.0956845703125,0.027245203033089638,0.03970640152692795,-0.10032180696725845
1782845378175688400,3.1056884765625,-0.012832441367208958,0.028195684775710106,-0.07890919595956802
1782845378185692400,3.1156923828125,-0.05294311046600342,0.011516041122376919,-0.0702480673789978
1782845378195697700,3.12569775390625,-0.08924971520900726,-0.004316984210163355,-0.06316938251256943
1782845378205701400,3.135701416015625,-0.11591675132513046,-0.008793758228421211,-0.06429003924131393
1782845378215706400,3.145706298828125,-0.13154204189777374,0.000931307440623641,-0.055750880390405655
1782845378225710300,3.15571044921875,-0.13681671023368835,0.01956225000321865,-0.03569700941443443
1782845378235715300,3.16571533203125,-0.12486736476421356,0.036789704114198685,-0.006042446009814739
1782845378245719600,3.175719482421875,-0.09274511784315109,0.04590171203017235,0.03622405230998993
1782845378255724500,3.185724609375,-0.057672351598739624,0.07174742221832275,0.08182322978973389
1782845378265728500,3.195728515625,-0.014230335131287575,0.08159792423248291,0.1308664083480835
1782845378275733500,3.2057333984375,0.036505281925201416,0.07986181229352951,0.1712130308151245
1782845378285737500,3.215737548828125,0.09065879881381989,0.08531569689512253,0.20458802580833435
1782845378295742500,3.225742431640625,0.14266633987426758,0.08521716296672821,0.23046863079071045
1782845378305746400,3.235746337890625,0.18170508742332458,0.07919575273990631,0.24670672416687012
1782845378315751400,3.24575146484375,0.20480826497077942,0.06751832365989685,0.2632409632205963
1782845378325755400,3.25575537109375,0.20280849933624268,0.06051500886678696,0.26678723096847534
1782845378335760400,3.265760498046875,0.18536800146102905,0.06170011684298515,0.26894277334213257
1782845378345764400,3.275764404296875,0.162920743227005,0.06971436738967896,0.23873907327651978
1782845378355768300,3.285768310546875,0.12951511144638062,0.08555937558412552,0.15841494500637054
1782845378365773300,3.295773193359375,0.09419015049934387,0.09779313951730728,0.03555586189031601
1782845378375777500,3.305777587890625,0.06390654295682907,0.10866469144821167,-0.09316882491111755
1782845378385782500,3.315782470703125,0.04183293506503105,0.13194604218006134,-0.1938866525888443
1782845378395786500,3.325786376953125,0.03581898286938667,0.13602520525455475,-0.2436307668685913
1782845378405791500,3.33579150390625,0.024455808103084564,0.10869292169809341,-0.23162762820720673
1782845378415795200,3.345795166015625,0.013629792258143425,0.05925480276346207,-0.17736360430717468
1782845378425800400,3.355800537109375,-0.00038509309524670243,0.015110509470105171,-0.09950342029333115
1782845378435804400,3.365804443359375,-0.01576484739780426,-0.028439098969101906,-0.029076658189296722
1782845378445809400,3.375809326171875,-0.027937358245253563,-0.05698898434638977,0.026433471590280533
1782845378455813400,3.3858134765625,-0.031981900334358215,-0.07828575372695923,0.09298507124185562
1782845378465818400,3.395818359375,-0.02263527177274227,-0.09092511236667633,0.16789846122264862
1782845378475822300,3.405822265625,-0.014122476801276207,-0.09216587990522385,0.2281562089920044
1782845378485827300,3.415827392578125,0.00192226970102638,-0.09635689854621887,0.2532311975955963
1782845378495831600,3.42583154296875,0.01901124231517315,-0.07945594191551208,0.2589798867702484
1782845378505836500,3.43583642578125,0.03520619124174118,-0.06144951283931732,0.23835371434688568
1782845378515840500,3.445840576171875,0.062066301703453064,-0.03900811821222305,0.20340478420257568
1782845378525844200,3.45584423828125,0.08778178691864014,-0.02611469104886055,0.16082802414894104
1782845378535849200,3.46584912109375,0.10874325782060623,-0.022590264678001404,0.12578189373016357
1782845378545853400,3.475853515625,0.10928148031234741,-0.021710354834794998,0.09872923791408539
1782845378555858400,3.4858583984375,0.08949313312768936,-0.02003069967031479,0.08314495533704758
1782845378565862400,3.4958623046875,0.0581277497112751,-0.0012471582740545273,0.06584905087947845
1782845378575867400,3.505867431640625,0.02383316121995449,0.03226233273744583,0.04031679779291153
1782845378585871400,3.515871337890625,-0.011771438643336296,0.07459807395935059,0.005334577988833189
1782845378595876400,3.52587646484375,-0.029511285945773125,0.13011512160301208,-0.014769092202186584
1782845378605880600,3.535880615234375,-0.07851957529783249,0.18239617347717285,-0.008557002991437912
1782845378615885600,3.545885498046875,-0.09444181621074677,0.2150374799966812,-0.0009832390351220965
1782845378625889500,3.5558896484375,-0.10057640820741653,0.29220283031463623,0.04300898686051369
1782845378635894500,3.56589453125,-0.09885068237781525,0.3167017698287964,0.11739134043455124
1782845378645898200,3.575898193359375,-0.09327428787946701,0.2960534989833832,0.20178931951522827
1782845378655903200,3.5859033203125,-0.07606706768274307,0.2786625325679779,0.23712946474552155
1782845378665907500,3.595907470703125,-0.05769791826605797,0.25381603837013245,0.22258727252483368
1782845378675912400,3.605912353515625,-0.029194369912147522,0.2087196558713913,0.18530194461345673
1782845378685916400,3.61591650390625,-0.008954612538218498,0.14489513635635376,0.1293278932571411
1782845378695921400,3.62592138671875,0.010382333770394325,0.09574383497238159,0.06517740339040756
1782845378705925400,3.63592529296875,0.021754829213023186,0.0643552839756012,0.010753312148153782
1782845378715929600,3.6459296875,0.037930604070425034,0.042500853538513184,-0.018313227221369743
1782845378725934600,3.6559345703125,0.03833753615617752,0.02827531285583973,-0.042281411588191986
1782845378735938600,3.6659384765625,0.024114657193422318,0.016343286260962486,-0.041919220238924026
1782845378745943600,3.675943603515625,0.002493251347914338,0.00814847368746996,-0.03476756811141968
1782845378755947300,3.685947265625,-0.028329109773039818,-0.00152332813013345,-0.01811269111931324
1782845378765952500,3.695952392578125,-0.06033950671553612,-0.01019937451928854,0.015362444333732128
1782845378775956500,3.70595654296875,-0.0738648995757103,-0.02576528489589691,0.06178853288292885
1782845378785961500,3.71596142578125,-0.08832826465368271,-0.034918833523988724,0.10183528810739517
1782845378795965400,3.72596533203125,-0.10880797356367111,-0.02816053107380867,0.13017025589942932
1782845378805970400,3.735970458984375,-0.12837101519107819,-0.007360444404184818,0.15251098573207855
1782845378815974400,3.745974365234375,-0.154590904712677,0.017609354108572006,0.18526892364025116
1782845378825979400,3.7559794921875,-0.1705656200647354,0.03750103712081909,0.2151288241147995
1782845378835983600,3.765983642578125,-0.1810518056154251,0.060809288173913956,0.23538188636302948
1782845378845988600,3.775988525390625,-0.19016195833683014,0.08126556128263474,0.24543187022209167
1782845378855992600,3.78599267578125,-0.1982470452785492,0.09985628724098206,0.24474689364433289
1782845378865997600,3.79599755859375,-0.20160768926143646,0.10297165811061859,0.22638893127441406
1782845378876001300,3.806001220703125,-0.20608791708946228,0.10143794119358063,0.20082683861255646
1782845378886006300,3.81600634765625,-0.20537686347961426,0.09790073335170746,0.1584293246269226
1782845378896010500,3.826010498046875,-0.1992875337600708,0.0830400288105011,0.11907685548067093
1782845378906014500,3.836014404296875,-0.18789346516132355,0.06263116002082825,0.08154865354299545
1782845378916019500,3.84601953125,-0.16926546394824982,0.0454910509288311,0.05518362671136856
1782845378926023400,3.8560234375,-0.14925792813301086,0.023993216454982758,0.03822008892893791
1782845378936028400,3.8660283203125,-0.13397644460201263,0.0052229915745556355,0.03062155842781067
1782845378946032600,3.87603271484375,-0.11797883361577988,-0.0030983216129243374,0.018578743562102318
1782845378956037600,3.88603759765625,-0.10338657349348068,-0.0016069513512775302,0.009428123012185097
1782845378966041600,3.89604150390625,-0.0864238366484642,0.01047234795987606,-0.0007113303290680051
1782845378976046600,3.906046630859375,-0.07000038772821426,0.0221516415476799,-0.0004207794554531574
1782845378986050300,3.91605029296875,-0.05323445796966553,0.031374167650938034,0.0017238641157746315
1782845378996055300,3.92605517578125,-0.035951875150203705,0.03201119601726532,-0.00025779398856684566
1782845379006059500,3.9360595703125,-0.02273966744542122,0.027269704267382622,-0.007056844420731068
1782845379016064500,3.946064453125,-0.009493903256952763,0.03127856180071831,-0.028194885700941086
1782845379026068500,3.956068359375,0.003932956140488386,0.01690015383064747,-0.02929583750665188
1782845379036073500,3.966073486328125,0.020177440717816353,0.011446000076830387,-0.03653350844979286
1782845379046077400,3.976077392578125,0.03147909790277481,0.0013768542557954788,-0.025533055886626244
1782845379056082400,3.98608251953125,0.03948722034692764,-0.006961769424378872,-0.015740880742669106
1782845379066086700,3.996086669921875,0.03660887852311134,-0.015623700805008411,0.0032354744616895914
1782845379076090600,4.006090576171875,0.023123694583773613,-0.016020778566598892,0.029919283464550972
1782845379086095600,4.016095703125,0.006710366811603308,-0.022344186902046204,0.06169798597693443
1782845379096099300,4.026099365234375,-0.016933975741267204,-0.030417559668421745,0.09490440785884857
1782845379106104300,4.036104248046875,-0.042813245207071304,-0.040341563522815704,0.1360076367855072
1782845379116108500,4.046108642578125,-0.06871993839740753,-0.060857757925987244,0.16820605099201202
1782845379126113500,4.056113525390625,-0.09038369357585907,-0.0779627114534378,0.1886332929134369
1782845379136117500,4.066117431640625,-0.10999307781457901,-0.100438192486763,0.20387190580368042
1782845379146122500,4.07612255859375,-0.12851668894290924,-0.11505202203989029,0.20089980959892273
1782845379156126500,4.08612646484375,-0.14694418013095856,-0.12113761156797409,0.1832617074251175
1782845379166131500,4.09613134765625,-0.1651061326265335,-0.12075012177228928,0.15201643109321594
1782845379176135400,4.106135498046875,-0.18210801482200623,-0.1236652135848999,0.11220723390579224
1782845379186140400,4.116140380859375,-0.20720192790031433,-0.12501703202724457,0.06439976394176483
1782845379196144600,4.12614453125,-0.2366516888141632,-0.13266269862651825,0.0030429279431700706
1782845379206149600,4.136149658203125,-0.26092293858528137,-0.14354971051216125,-0.05453648045659065
1782845379216153300,4.1461533203125,-0.2766092121601105,-0.15763436257839203,-0.09217306971549988
1782845379226158300,4.156158447265625,-0.27705103158950806,-0.17635399103164673,-0.1166595071554184
1782845379236162300,4.166162353515625,-0.27363795042037964,-0.19109858572483063,-0.13612987101078033
1782845379246166500,4.17616650390625,-0.2731820046901703,-0.20127078890800476,-0.16207891702651978
1782845379256171500,4.186171630859375,-0.26600584387779236,-0.20720751583576202,-0.18608358502388
1782845379266175500,4.196175537109375,-0.25146737694740295,-0.21063153445720673,-0.20365992188453674
1782845379276180500,4.206180419921875,-0.24091461300849915,-0.20970448851585388,-0.20533718168735504
1782845379286184400,4.216184326171875,-0.23237039148807526,-0.20560322701931,-0.20467671751976013
1782845379296189400,4.226189453125,-0.2180926501750946,-0.19648084044456482,-0.1955559104681015
1782845379306193400,4.236193359375,-0.1976957619190216,-0.1840348094701767,-0.17650020122528076
1782845379316198700,4.24619873046875,-0.17684534192085266,-0.17549379169940948,-0.14222238957881927
1782845379326202400,4.256202392578125,-0.1564529836177826,-0.17177096009254456,-0.08583208173513412
1782845379336207400,4.266207275390625,-0.13564571738243103,-0.17417126893997192,-0.004070109222084284
1782845379346211300,4.27621142578125,-0.12286467105150223,-0.1759832799434662,0.10060516744852066
1782845379356216300,4.28621630859375,-0.13131967186927795,-0.1754320114850998,0.20211608707904816
1782845379366220500,4.296220458984375,-0.14583976566791534,-0.16681508719921112,0.29148536920547485
1782845379376225500,4.3062255859375,-0.1552726775407791,-0.15489929914474487,0.35877546668052673
1782845379386229500,4.3162294921875,-0.16094893217086792,-0.12244122475385666,0.40432751178741455
1782845379396234500,4.326234375,-0.1796560436487198,-0.09434647858142853,0.3962743580341339
1782845379406238500,4.336238525390625,-0.21257884800434113,-0.046721965074539185,0.33824995160102844
1782845379416243500,4.346243408203125,-0.2468518614768982,0.009677927009761333,0.21510538458824158
1782845379426247400,4.356247314453125,-0.2767349183559418,0.06822992116212845,0.043771181255578995
1782845379436251400,4.36625146484375,-0.2924007177352905,0.09383141994476318,-0.1356547623872757
1782845379446256400,4.37625634765625,-0.29045847058296204,0.09517072141170502,-0.3052155673503876
1782845379456260400,4.38626025390625,-0.2831568717956543,0.08045116811990738,-0.46975603699684143
1782845379466265300,4.396265380859375,-0.25330522656440735,0.014939268119633198,-0.5954577922821045
1782845379476269600,4.40626953125,-0.18108190596103668,-0.08489598333835602,-0.6366776823997498
1782845379486274600,4.416274658203125,-0.07641434669494629,-0.19528374075889587,-0.5847463011741638
1782845379496278500,4.426278564453125,-0.0038477350026369095,-0.26602768898010254,-0.4899739623069763
1782845379506283500,4.436283447265625,0.05374791845679283,-0.28982701897621155,-0.3795475959777832
1782845379516287500,4.44628759765625,0.1279209405183792,-0.28164181113243103,-0.24292822182178497
1782845379526292500,4.45629248046875,0.19776368141174316,-0.25484001636505127,-0.10572350025177002
1782845379536296400,4.46629638671875,0.25332626700401306,-0.19458971917629242,0.007960188202559948
1782845379546301400,4.476301513671875,0.2780281603336334,-0.12815611064434052,0.10818798840045929
1782845379556305400,4.486305419921875,0.2772313356399536,-0.08118193596601486,0.17355181276798248
1782845379566310400,4.496310302734375,0.267000287771225,-0.04253148287534714,0.18179376423358917
1782845379576314400,4.506314453125,0.24522094428539276,-0.018680477514863014,0.16160061955451965
1782845379586319400,4.5163193359375,0.23058713972568512,-0.014824486337602139,0.12820670008659363
1782845379596323600,4.526323486328125,0.21730941534042358,-0.022406239062547684,0.09803681820631027
1782845379606328600,4.53632861328125,0.21388138830661774,-0.025544242933392525,0.0725620836019516
1782845379616332500,4.54633251953125,0.18683646619319916,-0.03165939077734947,0.05092336982488632
1782845379626336500,4.55633642578125,0.13293302059173584,-0.03669383376836777,0.047274038195610046
1782845379636341500,4.566341552734375,0.07869161665439606,-0.018261561170220375,0.04284333810210228
1782845379646345500,4.576345458984375,0.06305167078971863,-0.0028067054226994514,0.05614183098077774
1782845379656350500,4.5863505859375,0.07313812524080276,-0.0022128205746412277,0.09087531268596649
1782845379666354400,4.5963544921875,0.0922606885433197,-0.024212129414081573,0.13356871902942657
1782845379676359400,4.606359375,0.12597736716270447,-0.042080074548721313,0.17843419313430786
1782845379686363400,4.61636328125,0.16069647669792175,-0.05829473212361336,0.2101963758468628
1782845379696368400,4.626368408203125,0.1810627281665802,-0.08438225835561752,0.22208473086357117
1782845379706373600,4.63637353515625,0.18323320150375366,-0.12240820378065109,0.22680065035820007
1782845379716378600,4.646378662109375,0.17252330482006073,-0.15071681141853333,0.22433988749980927
1782845379726382800,4.6563828125,0.15417945384979248,-0.16148929297924042,0.20206308364868164
1782845379736387800,4.666387939453125,0.13774268329143524,-0.15490436553955078,0.1625569611787796
1782845379746391800,4.676391845703125,0.12769298255443573,-0.15224891901016235,0.12607350945472717
1782845379756396800,4.686396728515625,0.1375000774860382,-0.15199725329875946,0.09049847722053528
1782845379766400500,4.696400390625,0.15595684945583344,-0.14685416221618652,0.062128085643053055
1782845379776405500,4.706405517578125,0.17529378831386566,-0.1477721482515335,0.03485358878970146
1782845379786409700,4.71640966796875,0.1941383183002472,-0.1492169201374054,-0.002424009144306183
1782845379796413700,4.72641357421875,0.2085513472557068,-0.1287422627210617,-0.05541026219725609
1782845379806418700,4.736418701171875,0.21900451183319092,-0.09760645031929016,-0.11174757033586502
1782845379816422700,4.746422607421875,0.19592610001564026,-0.07779838889837265,-0.16496604681015015
1782845379826427600,4.756427734375,0.15697257220745087,-0.05861004814505577,-0.21269762516021729
1782845379836431600,4.766431640625,0.11407411098480225,-0.04352137818932533,-0.27005118131637573
1782845379846436900,4.776436767578125,0.06508339196443558,-0.03308365121483803,-0.327187716960907
1782845379856440800,4.78644091796875,0.031153658404946327,-0.03110971674323082,-0.37731584906578064
1782845379866445800,4.79644580078125,0.009698433801531792,-0.02912406250834465,-0.399922639131546
1782845379876449500,4.806449462890625,-0.012142417021095753,-0.042278748005628586,-0.389354944229126
1782845379886454500,4.81645458984375,-0.011439075693488121,-0.060460414737463,-0.3526858687400818
1782845379896458800,4.826458740234375,0.006671750918030739,-0.07017828524112701,-0.29953157901763916
1782845379906463700,4.836463623046875,0.03629995137453079,-0.08909977972507477,-0.23791402578353882
1782845379916467700,4.8464677734375,0.06679713726043701,-0.10015083849430084,-0.18385958671569824
1782845379926472700,4.85647265625,0.10189387202262878,-0.09768261760473251,-0.14676228165626526
1782845379936476700,4.8664765625,0.13788330554962158,-0.0906047374010086,-0.1150062158703804
1782845379946481700,4.876481689453125,0.1671341359615326,-0.07855472713708878,-0.07692966610193253
1782845379956485600,4.886485595703125,0.1981905847787857,-0.0473206453025341,-0.03133741766214371
1782845379966489900,4.89648974609375,0.23324257135391235,-0.01631425879895687,0.013970676809549332
1782845379976494800,4.906494873046875,0.2590171694755554,0.013630591332912445,0.05014172941446304
1782845379986498600,4.91649853515625,0.27961301803588867,0.03961159288883209,0.061761900782585144
1782845379996503600,4.926503662109375,0.29719147086143494,0.061278536915779114,0.041605498641729355
1782845380006507500,4.936507568359375,0.30628135800361633,0.08012466132640839,0.007890413515269756
1782845380016512500,4.946512451171875,0.29816803336143494,0.07797762006521225,-0.025665681809186935
1782845380026516700,4.956516845703125,0.2884059548377991,0.061526212841272354,-0.05932271108031273
1782845380036521700,4.966521728515625,0.2677249312400818,0.043304864317178726,-0.09470893442630768
1782845380046525700,4.976525634765625,0.23812468349933624,0.03285541757941246,-0.13233967125415802
1782845380056530700,4.98653076171875,0.20008328557014465,0.0338895246386528,-0.16332101821899414
1782845380066534700,4.99653466796875,0.15746605396270752,0.036314599215984344,-0.19167622923851013
1782845380076539600,5.00653955078125,0.1211104467511177,0.03918974846601486,-0.20184284448623657
1782845380086543600,5.016543701171875,0.09373395144939423,0.03639662265777588,-0.1978270560503006
1782845380096548900,5.026548828125,0.0704968050122261,0.04187527671456337,-0.1817985624074936
1782845380106552600,5.036552490234375,0.051535896956920624,0.044774129986763,-0.17088626325130463
1782845380116557600,5.0465576171875,0.0403604730963707,0.05500306561589241,-0.1757151037454605
1782845380126561500,5.0565615234375,0.037702105939388275,0.0670141875743866,-0.19679854810237885
1782845380136565800,5.066565673828125,0.04784608632326126,0.06773217767477036,-0.2116754949092865
1782845380146570800,5.07657080078125,0.06480349600315094,0.05717647075653076,-0.20755106210708618
1782845380156574700,5.08657470703125,0.08784782886505127,0.05874161049723625,-0.2040862888097763
1782845380166579700,5.096579833984375,0.1152656078338623,0.06253980845212936,-0.1984555721282959
1782845380176583700,5.106583740234375,0.14199495315551758,0.07138603180646896,-0.19043944776058197
1782845380186588700,5.116588623046875,0.17386792600154877,0.07672380656003952,-0.1600266844034195
1782845380196592600,5.126592529296875,0.21178202331066132,0.0808064341545105,-0.11816711723804474
1782845380206597600,5.13659765625,0.24756132066249847,0.10027440637350082,-0.07436557859182358
1782845380216601600,5.1466015625,0.28630900382995605,0.12015970051288605,-0.0276769008487463
1782845380226606600,5.156606689453125,0.3338589370250702,0.1372113823890686,0.008990831673145294
1782845380236610600,5.166610595703125,0.3651430904865265,0.1431044340133667,0.039144206792116165
1782845380246615600,5.176615478515625,0.3840733766555786,0.14107243716716766,0.055690690875053406
1782845380256619800,5.186619873046875,0.39104658365249634,0.13254553079605103,0.06095682829618454
1782845380266624800,5.196624755859375,0.3812727928161621,0.1211748942732811,0.05817036330699921
1782845380276628700,5.206628662109375,0.3698081374168396,0.11456892639398575,0.05477270111441612
1782845380286633700,5.2166337890625,0.3566308319568634,0.09812843054533005,0.0444156676530838
1782845380296637700,5.2266376953125,0.3452602028846741,0.0875048115849495,0.03561205789446831
1782845380306641700,5.2366416015625,0.3252369463443756,0.08302298188209534,0.02636822499334812
1782845380316646700,5.246646728515625,0.2995121479034424,0.08441288769245148,0.014392254874110222
1782845380326650600,5.256650634765625,0.2677614092826843,0.10413865000009537,0.006332730874419212
1782845380336655600,5.266655517578125,0.23609162867069244,0.1224292442202568,0.008476043120026588
1782845380346659600,5.27665966796875,0.20907625555992126,0.14731808006763458,0.00983345601707697
1782845380356664600,5.28666455078125,0.18665190041065216,0.1665887087583542,0.006401706486940384
1782845380366668800,5.296668701171875,0.16597086191177368,0.18515227735042572,-0.005615008994936943
1782845380376673800,5.306673828125,0.14942650496959686,0.1841333508491516,-0.007468569092452526
1782845380386677800,5.316677734375,0.13456979393959045,0.1620059460401535,-0.005584915168583393
1782845380396682800,5.326682861328125,0.12566418945789337,0.12843173742294312,0.0024109596852213144
1782845380406686700,5.336686767578125,0.13221955299377441,0.0984213799238205,0.0079173119738698
1782845380416691700,5.346691650390625,0.1518169641494751,0.08475403487682343,0.008326106704771519
1782845380426695700,5.35669580078125,0.17147934436798096,0.07318073511123657,0.00814953912049532
1782845380436700700,5.36670068359375,0.19631917774677277,0.06816733628511429,0.020747622475028038
1782845380446704600,5.37670458984375,0.2258826643228531,0.08239766955375671,0.05004905164241791
1782845380456709600,5.386709716796875,0.24955230951309204,0.10287977755069733,0.09791670739650726
1782845380466713600,5.396713623046875,0.285684734582901,0.13080169260501862,0.1738993525505066
1782845380476717800,5.4067177734375,0.30567124485969543,0.1451747715473175,0.2653517723083496
1782845380486722800,5.416722900390625,0.3265584111213684,0.1515791416168213,0.3559786081314087
1782845380496726800,5.426726806640625,0.34188783168792725,0.14849252998828888,0.4334244132041931
1782845380506731800,5.436731689453125,0.35065630078315735,0.13546913862228394,0.4924509823322296
1782845380516735700,5.44673583984375,0.3584231436252594,0.11971654742956161,0.5235303044319153
1782845380526740700,5.45674072265625,0.35367417335510254,0.10164619982242584,0.5253173112869263
1782845380536744700,5.46674462890625,0.32653072476387024,0.09930607676506042,0.4868716597557068
1782845380546749700,5.476749755859375,0.28411081433296204,0.10008931905031204,0.38042882084846497
1782845380556753700,5.486753662109375,0.23774226009845734,0.11620703339576721,0.23190167546272278
1782845380566758700,5.496758544921875,0.20491106808185577,0.12712785601615906,0.05998077988624573
1782845380576762600,5.5067626953125,0.16594769060611725,0.12292219698429108,-0.08487414568662643
1782845380586767600,5.516767578125,0.14018826186656952,0.09574836492538452,-0.1755819469690323
1782845380596771800,5.526771728515625,0.11805234104394913,0.056477125734090805,-0.225235253572464
1782845380606776800,5.53677685546875,0.10597090423107147,0.011409248225390911,-0.23609429597854614
1782845380616780800,5.54678076171875,0.10288350284099579,-0.04474989324808121,-0.2185744196176529
1782845380626785800,5.556785888671875,0.11134010553359985,-0.1021367534995079,-0.1937156766653061
1782845380636789500,5.56678955078125,0.12827594578266144,-0.14094753563404083,-0.16368906199932098
1782845380646793700,5.576793701171875,0.14224502444267273,-0.16351276636123657,-0.11182639747858047
1782845380656798700,5.586798828125,0.15028829872608185,-0.1597057729959488,-0.04595097899436951
1782845380666802700,5.596802734375,0.15052399039268494,-0.14074033498764038,0.01799151673913002
1782845380676807700,5.6068076171875,0.14648930728435516,-0.10240280628204346,0.08065249770879745
1782845380686811600,5.616811767578125,0.13880795240402222,-0.05783214047551155,0.15176290273666382
1782845380696816600,5.626816650390625,0.12047234922647476,-0.030169885605573654,0.22944676876068115
1782845380706819800,5.63681982421875,0.09308839589357376,-0.021580658853054047,0.29416850209236145
1782845380716824800,5.646824951171875,0.06881501525640488,-0.003364904085174203,0.33439528942108154
1782845380726828800,5.656828857421875,0.035964660346508026,0.013277988880872726,0.3593621551990509
1782845380736833800,5.666833740234375,-0.00012836436508223414,0.019392605870962143,0.36202770471572876
1782845380746837800,5.676837646484375,-0.04297809302806854,0.03334197774529457,0.33758389949798584
1782845380756842800,5.6868427734375,-0.0912681296467781,0.05679696798324585,0.3000327944755554
1782845380766847000,5.696846923828125,-0.13331544399261475,0.07177592068910599,0.24910622835159302
1782845380776852000,5.70685205078125,-0.17440296709537506,0.07806523889303207,0.15884317457675934
1782845380786855700,5.716855712890625,-0.21084246039390564,0.09876572340726852,0.023262977600097656
1782845380796860700,5.726860595703125,-0.23664742708206177,0.10747452825307846,-0.10242197662591934
1782845380806864600,5.73686474609375,-0.24791792035102844,0.10449844598770142,-0.18312135338783264
1782845380816868900,5.746868896484375,-0.24639806151390076,0.10709689557552338,-0.23898407816886902
1782845380826873900,5.756873779296875,-0.23561012744903564,0.11056725680828094,-0.28073444962501526
1782845380836877800,5.7668779296875,-0.22502273321151733,0.10921623557806015,-0.30161523818969727
1782845380846882800,5.7768828125,-0.20177918672561646,0.1076098158955574,-0.2895367443561554
1782845380856886800,5.78688671875,-0.17895802855491638,0.10036575049161911,-0.25634175539016724
1782845380866891800,5.796891845703125,-0.14901211857795715,0.08016993850469589,-0.2181653529405594
1782845380876896000,5.80689599609375,-0.14580434560775757,0.0604684054851532,-0.16842229664325714
1782845380886901000,5.81690087890625,-0.14647120237350464,0.02979198470711708,-0.09406924247741699
1782845380896904700,5.82690478515625,-0.1558913290500641,-0.013836187310516834,-0.011796738021075726
1782845380906909700,5.83690966796875,-0.16931073367595673,-0.05395164713263512,0.06789728999137878
1782845380916913700,5.84691357421875,-0.19202589988708496,-0.09169689565896988,0.1328057199716568
1782845380926918700,5.856918701171875,-0.2104637622833252,-0.11681663244962692,0.169271320104599
1782845380936923000,5.8669228515625,-0.2407819777727127,-0.130048006772995,0.18521806597709656
1782845380946927900,5.876927978515625,-0.2625083327293396,-0.11988139897584915,0.18224596977233887
1782845380956931800,5.886931884765625,-0.27995574474334717,-0.11267302185297012,0.17743070423603058
1782845380966935800,5.896935791015625,-0.2955871820449829,-0.11069615185260773,0.17524611949920654
1782845380976940800,5.90694091796875,-0.3020586669445038,-0.09803309291601181,0.1713765412569046
1782845380986945000,5.916945068359375,-0.3157004415988922,-0.08244401216506958,0.1703064888715744
1782845380996950000,5.926949951171875,-0.33314254879951477,-0.06555557250976562,0.16882790625095367
1782845381006953700,5.93695361328125,-0.34208863973617554,-0.04031919315457344,0.16143523156642914
1782845381016958700,5.946958740234375,-0.3512856066226959,-0.02262594923377037,0.14706668257713318
1782845381026962700,5.956962646484375,-0.35919705033302307,-0.007619570009410381,0.13171595335006714
1782845381036967700,5.9669677734375,-0.3696267902851105,0.0014346449170261621,0.10843619704246521
1782845381046972000,5.976971923828125,-0.3811801075935364,0.008709069341421127,0.09359146654605865
1782845381056977000,5.986976806640625,-0.3986818790435791,0.00896766223013401,0.0766843929886818
1782845381066980900,5.99698095703125,-0.41814079880714417,0.006332198157906532,0.057066481560468674
1782845381076985900,6.00698583984375,-0.4380180835723877,-0.0002932140196207911,0.027597272768616676
1782845381086989800,6.01698974609375,-0.45222151279449463,0.002585130510851741,-0.00984251033514738
1782845381096994800,6.026994873046875,-0.4579728841781616,0.0007880293414928019,-0.04845781251788139
1782845381106999000,6.0369990234375,-0.44568026065826416,0.0013648699969053268,-0.07837630063295364
1782845381117004000,6.047004150390625,-0.4202481508255005,-0.004078631289303303,-0.09624797105789185
1782845381127007700,6.0570078125,-0.3879453241825104,-0.006208361126482487,-0.10855550318956375
1782845381137011700,6.06701171875,-0.3523138463497162,0.0033369408920407295,-0.11762143671512604
1782845381147016700,6.0770166015625,-0.31486979126930237,0.0062975771725177765,-0.12904293835163116
1782845381157021000,6.08702099609375,-0.2757197320461273,0.020927652716636658,-0.13395939767360687
1782845381167026000,6.09702587890625,-0.23295308649539948,0.030175212770700455,-0.12950313091278076
1782845381177030000,6.10702978515625,-0.18639543652534485,0.021633923053741455,-0.12063160538673401
1782845381187035000,6.117034912109375,-0.145437091588974,0.0006506102508865297,-0.11425121128559113
1782845381197038800,6.127038818359375,-0.10856375843286514,-0.014104899950325489,-0.11947313696146011
1782845381207043800,6.1370439453125,-0.07877843827009201,-0.020709006115794182,-0.13842551410198212
1782845381217047800,6.1470478515625,-0.0575098991394043,-0.0329158715903759,-0.16057530045509338
1782845381227052800,6.157052734375,-0.04486494138836861,-0.05356868728995323,-0.17123086750507355
1782845381237056800,6.167056884765625,-0.053640592843294144,-0.07137085497379303,-0.15543539822101593
1782845381247061800,6.177061767578125,-0.07763247936964035,-0.08640412986278534,-0.12289822846651077
1782845381257065700,6.187065673828125,-0.1107635349035263,-0.09235363453626633,-0.05270315706729889
1782845381267070700,6.19707080078125,-0.1405925303697586,-0.08804117888212204,0.01926104538142681
1782845381277074700,6.20707470703125,-0.16275855898857117,-0.06671378016471863,0.08054117858409882
1782845381287080000,6.217079833984375,-0.17825496196746826,-0.04123212397098541,0.1323939859867096
1782845381297084000,6.227083984375,-0.1882639229297638,-0.030521690845489502,0.18151547014713287
1782845381307088000,6.237087890625,-0.19156064093112946,-0.024402013048529625,0.2306467890739441
1782845381317092900,6.2470927734375,-0.1964171826839447,-0.024225445464253426,0.2570006251335144
1782845381327096600,6.2570966796875,-0.17796680331230164,-0.036081839352846146,0.26415228843688965
1782845381337101800,6.267101806640625,-0.14507170021533966,-0.035885028541088104,0.25639450550079346
1782845381347105800,6.277105712890625,-0.10709316283464432,-0.03260960802435875,0.24054309725761414
1782845381357110800,6.28711083984375,-0.07015671581029892,-0.03135978803038597,0.21250081062316895
1782845381367114800,6.29711474609375,-0.03504054248332977,-0.028665199875831604,0.18576347827911377
1782845381377119700,6.30711962890625,-0.0054570832289755344,-0.03293105214834213,0.1586330533027649
1782845381387123700,6.317123779296875,0.024771925061941147,-0.031789619475603104,0.1436501145362854
1782845381397128700,6.327128662109375,0.05862043797969818,-0.042924828827381134,0.13157160580158234
1782845381407133000,6.3371328125,0.09455420076847076,-0.049911368638277054,0.10907614976167679
1782845381417138000,6.347137939453125,0.12283377349376678,-0.047863662242889404,0.08185917884111404
1782845381427142000,6.357141845703125,0.152011901140213,-0.0483105406165123,0.04292669519782066
1782845381437147000,6.36714697265625,0.17209133505821228,-0.04824449494481087,-0.0019947076216340065
1782845381447150600,6.377150634765625,0.181394562125206,-0.06522427499294281,-0.046671364456415176
1782845381457155600,6.387155517578125,0.17753936350345612,-0.08436654508113861,-0.08145357668399811
1782845381467159800,6.397159912109375,0.1678510457277298,-0.11452364921569824,-0.08795382082462311
1782845381477164800,6.407164794921875,0.15396267175674438,-0.14077523350715637,-0.07081691175699234
1782845381487168800,6.417168701171875,0.12990207970142365,-0.15282149612903595,-0.02719513513147831
1782845381497172700,6.4271728515625,0.09824348241090775,-0.16294418275356293,0.028669195249676704
1782845381507177700,6.437177734375,0.07429660111665726,-0.14992718398571014,0.08457586914300919
1782845381517182000,6.447181884765625,0.08498653024435043,-0.126029834151268,0.16525553166866302
1782845381527187000,6.45718701171875,0.11649225652217865,-0.09936307370662689,0.2387436032295227
1782845381537191000,6.46719091796875,0.1337500810623169,-0.06625732034444809,0.28107374906539917
1782845381547196000,6.47719580078125,0.1005851998925209,0.0038224351592361927,0.2326798439025879
1782845381557199600,6.48719970703125,0.0004889564006589353,0.07475946098566055,0.10193914920091629
1782845381567204600,6.49720458984375,-0.16495992243289948,0.13649126887321472,-0.07360205054283142
1782845381577208800,6.507208740234375,-0.34148383140563965,0.17461921274662018,-0.27009060978889465
1782845381587213800,6.5172138671875,-0.48052161931991577,0.1495756357908249,-0.42818889021873474
1782845381597217800,6.5272177734375,-0.5471632480621338,0.07205981016159058,-0.4930501878261566
1782845381607222800,6.537222900390625,-0.5601797103881836,-0.039682965725660324,-0.4528127610683441
1782845381617226800,6.547226806640625,-0.5218221545219421,-0.11626508831977844,-0.3603565990924835
1782845381627231700,6.557231689453125,-0.42937853932380676,-0.1684872806072235,-0.24523106217384338
1782845381637236000,6.567236083984375,-0.3088931143283844,-0.19653676450252533,-0.13096706569194794
1782845381647239700,6.57723974609375,-0.17737451195716858,-0.23211073875427246,-0.016633305698633194
1782845381657245000,6.587244873046875,-0.06602802127599716,-0.2603812515735626,0.09364526718854904
1782845381667248600,6.59724853515625,0.01756514422595501,-0.24501268565654755,0.18502791225910187
1782845381677253600,6.607253662109375,0.0744531974196434,-0.21155139803886414,0.24397404491901398
1782845381687257900,6.6172578125,0.10610006749629974,-0.17739368975162506,0.279034823179245
1782845381697262800,6.627262939453125,0.10539007186889648,-0.13143818080425262,0.2988303601741791
1782845381707267000,6.63726708984375,0.0793430283665657,-0.08872267603874207,0.30104053020477295
1782845381717272000,6.64727197265625,0.05332287773489952,-0.07022728770971298,0.2616121768951416
1782845381727275800,6.65727587890625,0.03033154085278511,-0.05968250334262848,0.201457217335701
1782845381737280800,6.66728076171875,0.018729213625192642,-0.040646761655807495,0.13146960735321045
1782845381747285000,6.677284912109375,0.01429398451000452,-0.04127633199095726,0.07895447313785553
1782845381757290000,6.6872900390625,0.0011803129455074668,-0.049124933779239655,0.041907768696546555
1782845381767294000,6.6972939453125,-0.004299673717468977,-0.05776875838637352,-0.001910019083879888
1782845381777299000,6.707298828125,-0.007738879881799221,-0.06536436080932617,-0.0338708832859993
1782845381787303000,6.717302978515625,-0.014947790652513504,-0.08818711340427399,-0.045812495052814484
1782845381797308000,6.727307861328125,-0.019869579002261162,-0.10252770781517029,-0.04945117235183716
1782845381807312100,6.73731201171875,-0.015368836000561714,-0.11083250492811203,-0.048403751105070114
1782845381817315800,6.74731591796875,-0.004787564743310213,-0.113580621778965,-0.03888268396258354
1782845381827320800,6.75732080078125,0.0073290192522108555,-0.11274679005146027,-0.025731995701789856
1782845381837324800,6.76732470703125,0.01683703623712063,-0.11029455065727234,-0.0073234266601502895
1782845381847329800,6.777329833984375,0.02900049276649952,-0.11207859963178635,0.009753295220434666
1782845381857334000,6.787333984375,0.03142956271767616,-0.1081046313047409,0.023606792092323303
1782845381867339000,6.797339111328125,0.0368427038192749,-0.09208066016435623,0.028776520863175392
1782845381877343000,6.807343017578125,0.0409783273935318,-0.0744558572769165,0.026490462943911552
1782845381887348000,6.817347900390625,0.04782504588365555,-0.05999782308936119,0.025835059583187103
1782845381897352000,6.82735205078125,0.05421796441078186,-0.04863038659095764,0.003917776048183441
1782845381907357000,6.83735693359375,0.056163135915994644,-0.03638090938329697,-0.025484055280685425
1782845381917361000,6.84736083984375,0.05416123941540718,-0.023792413994669914,-0.06173180788755417
1782845381927366100,6.8573662109375,0.043601274490356445,-0.017716946080327034,-0.0869482159614563
1782845381937369900,6.867369873046875,0.03592044860124588,-0.02454422414302826,-0.10596584528684616
1782845381947374800,6.877374755859375,0.022485600784420967,-0.03413346782326698,-0.10032100975513458
1782845381957378800,6.88737890625,0.004319647327065468,-0.0396542027592659,-0.07506278902292252
1782845381967383800,6.8973837890625,-0.027906199917197227,-0.0461035780608654,-0.034385137259960175
1782845381977388000,6.907387939453125,-0.05100752413272858,-0.04121454805135727,-0.007932225242257118
1782845381987392000,6.91739208984375,-0.0789821669459343,-0.029926206916570663,0.02852431870996952
1782845381997397000,6.92739697265625,-0.09484449028968811,-0.02570163458585739,0.07959682494401932
1782845382007401000,6.93740087890625,-0.10570672154426575,-0.021884791553020477,0.11915302276611328
1782845382017406000,6.947406005859375,-0.11337929219007492,-0.00824008695781231,0.1439981907606125
1782845382027410000,6.957409912109375,-0.12604768574237823,0.005543369799852371,0.1370992660522461
1782845382037415000,6.967414794921875,-0.14823180437088013,0.019267171621322632,0.09755558520555496
1782845382047419000,6.9774189453125,-0.1733723133802414,0.02165069989860058,0.04387584328651428
1782845382057424000,6.987423828125,-0.17987282574176788,0.01617763750255108,-0.014426875859498978
1782845382067427800,6.997427734375,-0.17975245416164398,0.014020211063325405,-0.09539922326803207
1782845382077432800,7.007432861328125,-0.16310477256774902,0.011273959651589394,-0.1893044114112854
1782845382087436800,7.017436767578125,-0.1293681114912033,0.0021574266720563173,-0.2757554054260254
1782845382097441800,7.02744189453125,-0.08710107952356339,-0.005687979515641928,-0.35021740198135376
1782845382107446000,7.037446044921875,-0.037943918257951736,-0.019173162057995796,-0.3935707211494446
1782845382117451000,7.047450927734375,0.01381355058401823,-0.03676280751824379,-0.4028902053833008
1782845382127455000,7.057455078125,0.06607355922460556,-0.050817906856536865,-0.3907930552959442
1782845382137460000,7.0674599609375,0.11157473176717758,-0.05860445648431778,-0.37299835681915283
1782845382147464000,7.0774638671875,0.13857093453407288,-0.048757154494524,-0.3338751792907715
1782845382157468000,7.087468017578125,0.13594397902488708,-0.04688761383295059,-0.26303401589393616
1782845382167473000,7.097472900390625,0.1174030601978302,-0.04507559910416603,-0.15789242088794708
1782845382177476900,7.107476806640625,0.08266212046146393,-0.04652222990989685,-0.035047467797994614
1782845382187481900,7.11748193359375,0.0346706286072731,-0.03916657716035843,0.07830066233873367
1782845382197485800,7.12748583984375,-0.020558537915349007,-0.029325131326913834,0.17198854684829712
1782845382207490800,7.13749072265625,-0.07688279449939728,-0.014279070310294628,0.2399233877658844
1782845382217495000,7.1474951171875,-0.1280921846628189,0.008390555158257484,0.2840069532394409
1782845382227500000,7.1575,-0.17115657031536102,0.03647678345441818,0.2983528673648834
1782845382237504000,7.16750390625,-0.20491985976696014,0.07044007629156113,0.29718080163002014
1782845382247509000,7.177509033203125,-0.21851129829883575,0.10861888527870178,0.26631343364715576
1782845382257513000,7.187512939453125,-0.22247621417045593,0.1374894231557846,0.20855587720870972
1782845382267518000,7.19751806640625,-0.2139093577861786,0.16428375244140625,0.1248234212398529
1782845382277522000,7.20752197265625,-0.19212444126605988,0.17621365189552307,0.039443012326955795
1782845382287527000,7.21752685546875,-0.1604306846857071,0.1753867268562317,-0.04941655322909355
1782845382297531000,7.22753076171875,-0.11866805702447891,0.16630534827709198,-0.142914280295372
1782845382307536000,7.237535888671875,-0.067086361348629,0.1513197422027588,-0.2417822629213333
1782845382317539800,7.247539794921875,-0.01624581590294838,0.12489799410104752,-0.32101717591285706
1782845382327544000,7.2575439453125,0.024570323526859283,0.09813135862350464,-0.3639899492263794
1782845382337549000,7.267549072265625,0.06519871205091476,0.08248449116945267,-0.37037432193756104
1782845382347553000,7.277552978515625,0.11505202203989029,0.08247703313827515,-0.3598679006099701
1782845382357558000,7.28755810546875,0.16169115900993347,0.08338410407304764,-0.32940107583999634
1782845382367561700,7.297561767578125,0.2042497992515564,0.08568853884935379,-0.2792087495326996
1782845382377566700,7.307566650390625,0.23321807384490967,0.08431887626647949,-0.2019139528274536
1782845382387571000,7.317571044921875,0.24946574866771698,0.08147142082452774,-0.1122216135263443
1782845382397576000,7.327575927734375,0.2515174448490143,0.08749283105134964,-0.021630726754665375
1782845382407580000,7.337579833984375,0.2429780215024948,0.08899032324552536,0.05943935737013817
1782845382417585000,7.3475849609375,0.23599281907081604,0.09138371050357819,0.12498854100704193
1782845382427588900,7.3575888671875,0.22581875324249268,0.0971960574388504,0.15999792516231537
1782845382437593900,7.36759375,0.20949649810791016,0.10303903371095657,0.17791274189949036
1782845382447598000,7.37759814453125,0.1905992478132248,0.10663855820894241,0.18114688992500305
1782845382457603000,7.38760302734375,0.17266978323459625,0.1017596498131752,0.16507497429847717
1782845382467607000,7.39760693359375,0.15583939850330353,0.09208545088768005,0.14352281391620636
1782845382477610800,7.40761083984375,0.13724760711193085,0.07828228920698166,0.11550609022378922
1782845382487615700,7.41761572265625,0.12007101625204086,0.060085706412792206,0.08207249641418457
1782845382497620000,7.427619873046875,0.10062487423419952,0.046555519104003906,0.03754337877035141
1782845382507625000,7.437625,0.08793491870164871,0.026740534231066704,-0.001356614287942648
1782845382517629000,7.44762890625,0.07281721383333206,0.012387960217893124,-0.02420094422996044
1782845382527634000,7.457634033203125,0.058216433972120285,-0.0036759611684828997,-0.03514307364821434
1782845382537638000,7.467637939453125,0.0569961741566658,-0.01607563905417919,-0.03615960106253624
1782845382547643000,7.477642822265625,0.06150650233030319,-0.020181167870759964,-0.02340998500585556
1782845382557647000,7.487647216796875,0.07390511780977249,-0.00920495018362999,0.0054269894026219845
1782845382567652000,7.497652099609375,0.09521599858999252,-0.000050333743274677545,0.042551189661026
1782845382577656000,7.507656005859375,0.12553954124450684,0.018847724422812462,0.08212655782699585
1782845382587661000,7.5176611328125,0.1602000594139099,0.03475691378116608,0.1302616000175476
1782845382597664800,7.527664794921875,0.19113986194133759,0.043908603489398956,0.17357365787029266
1782845382607669800,7.537669677734375,0.21451176702976227,0.05283471941947937,0.2185792177915573
1782845382617674000,7.547674072265625,0.22428210079669952,0.0513225756585598,0.2571686804294586
1782845382627679000,7.557678955078125,0.22684380412101746,0.05711068958044052,0.28465330600738525
1782845382637683000,7.567682861328125,0.21784017980098724,0.06274647265672684,0.29729053378105164
1782845382647687000,7.57768701171875,0.19675859808921814,0.06957241892814636,0.2940361499786377
1782845382657692000,7.58769189453125,0.1692872941493988,0.08276492357254028,0.25878921151161194
1782845382667695900,7.59769580078125,0.14411082863807678,0.10953395068645477,0.19971178472042084
1782845382677701000,7.607701171875,0.12532463669776917,0.14312706887722015,0.11985024064779282
1782845382687705000,7.617705078125,0.124440997838974,0.1723960041999817,0.050575293600559235
1782845382697710000,7.6277099609375,0.14445412158966064,0.18715204298496246,-0.0001661812566453591
1782845382707714600,7.637714599609375,0.17471082508563995,0.1738298535346985,-0.027723772451281548
1782845382717719600,7.647719482421875,0.21396315097808838,0.13205043971538544,-0.04644632712006569
1782845382727723500,7.6577236328125,0.25150200724601746,0.06778623908758163,-0.07074687629938126
1782845382737728500,7.667728515625,0.2878815829753876,0.0046842340379953384,-0.09938544034957886
1782845382747732700,7.677732666015625,0.32257670164108276,-0.05060538649559021,-0.10360202193260193
1782845382757737700,7.68773779296875,0.3497809171676636,-0.09548284858465195,-0.07390804588794708
1782845382767741400,7.697741455078125,0.3675955832004547,-0.13641004264354706,-0.010407100431621075
1782845382777746400,7.707746337890625,0.3714126944541931,-0.1506664752960205,0.050865575671195984
1782845382787750400,7.71775048828125,0.36997485160827637,-0.14581365883350372,0.1001143530011177
1782845382797755400,7.72775537109375,0.36007189750671387,-0.13720206916332245,0.1360401213169098
1782845382807759600,7.737759521484375,0.34076690673828125,-0.13988199830055237,0.1477750837802887
1782845382817763600,7.747763671875,0.3178884983062744,-0.14339205622673035,0.14609169960021973
1782845382827768600,7.7577685546875,0.28618568181991577,-0.1482163667678833,0.14631913602352142
1782845382837772500,7.7677724609375,0.24754641950130463,-0.14327752590179443,0.14416569471359253
1782845382847777500,7.777777587890625,0.19848352670669556,-0.14556758105754852,0.1456109881401062
1782845382857781800,7.78778173828125,0.1256820261478424,-0.14534707367420197,0.16608378291130066
1782845382867786800,7.797786865234375,0.03647332265973091,-0.13701750338077545,0.2089739888906479
1782845382877790500,7.80779052734375,-0.07759679108858109,-0.11741238087415695,0.26557546854019165
1782845382887795500,7.81779541015625,-0.21101556718349457,-0.09736356884241104,0.32959121465682983
1782845382897799400,7.82779931640625,-0.34899768233299255,-0.0766092911362648,0.40146753191947937
1782845382907804400,7.837804443359375,-0.47057896852493286,-0.04346838220953941,0.49086347222328186
1782845382917808600,7.84780859375,-0.5624969005584717,-0.018743593245744705,0.5605503916740417
1782845382927813600,7.857813720703125,-0.6304035186767578,0.009295497089624405,0.5434321165084839
1782845382937817600,7.867817626953125,-0.6588908433914185,0.057973023504018784,0.47243866324424744
1782845382947822600,7.877822509765625,-0.6484211087226868,0.10454558581113815,0.3789001703262329
1782845382957826600,7.88782666015625,-0.596019983291626,0.12892389297485352,0.2862149775028229
1782845382967831600,7.89783154296875,-0.5197992324829102,0.13983166217803955,0.18197113275527954
1782845382977835800,7.907835693359375,-0.4074828326702118,0.12405163794755936,0.06250172853469849
1782845382987839500,7.917839599609375,-0.2896110415458679,0.11725152283906937,-0.05200061574578285
1782845382997844500,7.927844482421875,-0.1795327365398407,0.10425610095262527,-0.1497841626405716
1782845383007848400,7.937848388671875,-0.08353696763515472,0.09839927405118942,-0.25558754801750183
1782845383017853400,7.947853515625,-0.009867544285953045,0.0779922679066658,-0.34434592723846436
1782845383027857700,7.957857666015625,0.05580094829201698,0.06113552674651146,-0.40582022070884705
1782845383037862700,7.967862548828125,0.11685657501220703,0.035899143666028976,-0.43452057242393494
1782845383047866600,7.97786669921875,0.16431596875190735,0.0054155378602445126,-0.4062524437904358
1782845383057871600,7.98787158203125,0.1914527863264084,-0.017843978479504585,-0.34342366456985474
1782845383067875600,7.99787548828125,0.21594321727752686,-0.03422428295016289,-0.26796674728393555
1782845383077880600,8.007880615234376,0.21700555086135864,-0.0533234104514122,-0.18054553866386414
1782845383087884500,8.017884521484374,0.20311476290225983,-0.06093578785657883,-0.10359057039022446
1782845383097889500,8.0278896484375,0.18812809884548187,-0.057197242975234985,-0.0635632649064064
1782845383107893500,8.0378935546875,0.17863258719444275,-0.05047329515218735,-0.037273868918418884
1782845383117898500,8.0478984375,0.16071803867816925,-0.03952743485569954,-0.022169750183820724
1782845383127902500,8.05790234375,0.12819604575634003,-0.019357984885573387,-0.021626465022563934
1782845383137907500,8.067907470703124,0.09075547009706497,0.010418020188808441,-0.041486721485853195
1782845383147911400,8.077911376953125,0.04280232638120651,0.041078727692365646,-0.07548117637634277
1782845383157915600,8.08791552734375,-0.008489091880619526,0.07524628192186356,-0.10631765425205231
1782845383167920600,8.097920654296875,-0.047507598996162415,0.0920199379324913,-0.13373355567455292
1782845383177924600,8.107924560546875,-0.08498173952102661,0.09393395483493805,-0.15553180873394012
1782845383187929600,8.1179296875,-0.11100401729345322,0.08676818758249283,-0.17075735330581665
1782845383197933300,8.127933349609375,-0.1348012238740921,0.0750015377998352,-0.16906651854515076
1782845383207938600,8.1379384765625,-0.14711993932724,0.05386829003691673,-0.13206268846988678
1782845383217942500,8.147942626953125,-0.16075000166893005,0.03311134874820709,-0.08539213240146637
1782845383227947500,8.157947509765625,-0.17992529273033142,0.01780589483678341,-0.039441414177417755
1782845383237951500,8.167951416015624,-0.19169139862060547,0.012529107742011547,-0.010461695492267609
1782845383247956500,8.17795654296875,-0.19943082332611084,0.014275075867772102,0.010838532820343971
1782845383257960400,8.18796044921875,-0.1921241730451584,0.02484862506389618,0.029624737799167633
1782845383267965400,8.19796533203125,-0.17384636402130127,0.035530298948287964,0.04683834686875343
1782845383277969700,8.2079697265625,-0.14928989112377167,0.04296371340751648,0.0654812753200531
1782845383287974700,8.217974609375,-0.11195529997348785,0.04538851976394653,0.08204160630702972
1782845383297978600,8.227978515625,-0.07700449973344803,0.03245088458061218,0.11902492493391037
1782845383307983600,8.237983642578126,-0.049428801983594894,0.01266705896705389,0.15261536836624146
1782845383317987300,8.2479873046875,-0.02822444774210453,0.0024027039762586355,0.16656021773815155
1782845383327991600,8.257991455078125,-0.008957009762525558,-0.0025510420091450214,0.17475183308124542
1782845383337996500,8.26799658203125,0.002234392100945115,-0.00788588635623455,0.14751622080802917
1782845383348000500,8.27800048828125,0.011480621062219143,-0.013804495334625244,0.10172902792692184
1782845383358005500,8.288005615234376,0.017960092052817345,-0.013486780226230621,0.056901365518569946
1782845383368009500,8.298009521484374,0.01822534203529358,-0.008385228924453259,0.009163404814898968
1782845383378014500,8.308014404296875,0.0005821670056320727,-0.014064420014619827,-0.04002890735864639
1782845383388018700,8.318018798828126,-0.011122159659862518,-0.02328694611787796,-0.10023631900548935
1782845383398023700,8.328023681640625,-0.018865833058953285,-0.03183089941740036,-0.15257009863853455
1782845383408027600,8.338027587890625,-0.018636533990502357,-0.03201652318239212,-0.18501192331314087
1782845383418032600,8.34803271484375,-0.0279711801558733,-0.03832768276333809,-0.19223707914352417
1782845383428036400,8.358036376953125,-0.039272572845220566,-0.04706737771630287,-0.17179758846759796
1782845383438041300,8.368041259765626,-0.06076747551560402,-0.05987957864999771,-0.14207537472248077
1782845383448045600,8.378045654296875,-0.09097757935523987,-0.0794929638504982,-0.10517328977584839
1782845383458050600,8.388050537109375,-0.12404205650091171,-0.09404793381690979,-0.06906455755233765
1782845383468054500,8.398054443359374,-0.16042695939540863,-0.09314219653606415,-0.024296285584568977
1782845383478058500,8.40805859375,-0.19741374254226685,-0.0868438184261322,0.022177208214998245
1782845383488063500,8.4180634765625,-0.22857005894184113,-0.07794060558080673,0.06690207123756409
1782845383498067700,8.428067626953125,-0.25112542510032654,-0.06810395419597626,0.10116124153137207
1782845383508072700,8.43807275390625,-0.26509079337120056,-0.06772445142269135,0.11865634471178055
1782845383518076700,8.44807666015625,-0.2649536430835724,-0.06982115656137466,0.13245044648647308
1782845383528081700,8.45808154296875,-0.2521153390407562,-0.07270802557468414,0.13826945424079895
1782845383538085400,8.46808544921875,-0.22247008979320526,-0.07854567468166351,0.14697293937206268
1782845383548090400,8.47809033203125,-0.1769087314605713,-0.09067317843437195,0.14167112112045288
1782845383558094600,8.488094482421875,-0.13001446425914764,-0.0974716916680336,0.11940815299749374
1782845383568099600,8.498099609375,-0.07861598581075668,-0.10822367668151855,0.09206894040107727
1782845383578103600,8.508103515625,-0.03200347349047661,-0.1185828372836113,0.06054936349391937
1782845383588108500,8.518108642578126,0.0038802255876362324,-0.12628762423992157,0.032584041357040405
1782845383598112500,8.528112548828124,0.03280401974916458,-0.12229608744382858,0.01389823853969574
1782845383608117500,8.538117431640625,0.05638018622994423,-0.11387783288955688,0.00529702752828598
1782845383618121700,8.548121826171876,0.08527921140193939,-0.10756294429302216,0.014703844673931599
1782845383628126700,8.558126708984375,0.11885474622249603,-0.09748128056526184,0.05324750766158104
1782845383638130700,8.568130615234375,0.1583544909954071,-0.08376546949148178,0.09643279761075974
1782845383648134400,8.578134521484374,0.20276989042758942,-0.07900320738554001,0.1553616225719452
1782845383658139400,8.588139404296875,0.2406245917081833,-0.08385655283927917,0.21251918375492096
1782845383668143600,8.5981435546875,0.25767815113067627,-0.08615965396165848,0.2625754177570343
1782845383678148600,8.608148681640625,0.2535707652568817,-0.07948390394449234,0.2962188720703125
1782845383688152600,8.618152587890625,0.23469799757003784,-0.06109797582030296,0.3062342405319214
1782845383698157600,8.628157470703124,0.20687036216259003,-0.029394639655947685,0.28017494082450867
1782845383708161000,8.6381611328125,0.16432209312915802,-0.011924836784601212,0.22096887230873108
1782845383718166000,8.648166015625,0.11223333328962326,-0.011531753465533257,0.11104236543178558
1782845383728170200,8.658170166015625,0.03581978380680084,-0.02677195891737938,-0.015085475519299507
1782845383738175200,8.66817529296875,-0.05789738893508911,-0.03591325879096985,-0.14457236230373383
1782845383748179000,8.678178955078126,-0.1366071105003357,-0.03093874081969261,-0.2687113583087921
1782845383758184000,8.688183837890625,-0.15997502207756042,-0.01327186357229948,-0.37051573395729065
1782845383768188000,8.69818798828125,-0.13569338619709015,-0.00926247425377369,-0.43970388174057007
1782845383778193000,8.70819287109375,-0.08062906563282013,-0.028862008824944496,-0.4756549596786499
1782845383788197000,8.718197021484375,-0.05302673205733299,0.21704895794391632,-0.29296982288360596
1782845383798202000,8.7282021484375,-0.00008362325752386823,0.14603176712989807,-0.2811531126499176
1782845383808206000,8.7382060546875,0.13463105261325836,-0.03953888639807701,-0.29101213812828064
1782845383818210000,8.7482099609375,0.2882070243358612,-0.20245829224586487,-0.2655584514141083
1782845383828215000,8.758215087890624,0.40985649824142456,-0.3288268744945526,-0.18275544047355652
1782845383838219300,8.76821923828125,0.4810638427734375,-0.4453332722187042,-0.1296626478433609
1782845383848224300,8.778224365234376,0.4889715611934662,-0.5068600177764893,-0.04521062225103378
1782845383858228000,8.78822802734375,0.4091361165046692,-0.4959959089756012,0.13073164224624634
1782845383868233000,8.79823291015625,0.29894596338272095,-0.3823827803134918,0.30899351835250854
1782845383878237000,8.80823681640625,0.17333956062793732,-0.27892032265663147,0.38534051179885864
1782845383888242000,8.818241943359375,0.06321412324905396,-0.18710704147815704,0.39449724555015564
