time,seconds_elapsed,z,y,x
1782845826871304700,0.0653046875,-0.9765167236328125,-0.1414947509765625,0.14007568359375
1782845826881309700,0.075309814453125,-0.975677490234375,-0.14117431640625,0.138641357421875
1782845826891314700,0.085314697265625,-0.971221923828125,-0.1417999267578125,0.135833740234375
1782845826901319700,0.095319580078125,-0.967437744140625,-0.1411590576171875,0.1341094970703125
1782845826911324700,0.10532470703125,-0.9628753662109375,-0.1427154541015625,0.1309051513671875
1782845826921329700,0.11532958984375,-0.9549560546875,-0.143463134765625,0.1295623779296875
1782845826931334700,0.125334716796875,-0.9527740478515625,-0.1457061767578125,0.1307220458984375
1782845826941339600,0.135339599609375,-0.954833984375,-0.145843505859375,0.13031005859375
1782845826951344600,0.1453447265625,-0.9612884521484375,-0.1472320556640625,0.1329345703125
1782845826961349600,0.155349609375,-0.9698944091796875,-0.14654541015625,0.136260986328125
1782845826971354600,0.165354736328125,-0.9777984619140625,-0.1478729248046875,0.13885498046875
1782845826981359600,0.175359619140625,-0.9810638427734375,-0.1461029052734375,0.139984130859375
1782845826991364600,0.185364501953125,-0.9820098876953125,-0.1455230712890625,0.140869140625
1782845827001369600,0.19536962890625,-0.9795379638671875,-0.1462554931640625,0.139984130859375
1782845827011374600,0.20537451171875,-0.9733734130859375,-0.144683837890625,0.1389312744140625
1782845827021379600,0.215379638671875,-0.9722900390625,-0.144683837890625,0.1395416259765625
1782845827031384800,0.225384765625,-0.9716644287109375,-0.1421966552734375,0.139892578125
1782845827041389800,0.235389892578125,-0.9710540771484375,-0.1423797607421875,0.1389923095703125
1782845827051394800,0.245394775390625,-0.968597412109375,-0.1440277099609375,0.142730712890625
1782845827061399800,0.25539990234375,-0.965545654296875,-0.1449432373046875,0.1448974609375
1782845827071404800,0.26540478515625,-0.96502685546875,-0.1467437744140625,0.14630126953125
1782845827081409800,0.275409912109375,-0.9633026123046875,-0.14703369140625,0.14801025390625
1782845827091414800,0.285414794921875,-0.9647064208984375,-0.146453857421875,0.14947509765625
1782845827101418800,0.295418701171875,-0.96630859375,-0.146697998046875,0.1493988037109375
1782845827111423700,0.305423828125,-0.967498779296875,-0.1458892822265625,0.1501007080078125
1782845827121428700,0.3154287109375,-0.9659576416015625,-0.1461944580078125,0.1494293212890625
1782845827131432700,0.3254326171875,-0.9656524658203125,-0.1479034423828125,0.1488800048828125
1782845827141437700,0.335437744140625,-0.965789794921875,-0.148345947265625,0.14483642578125
1782845827151442700,0.345442626953125,-0.96710205078125,-0.1468658447265625,0.14373779296875
1782845827161447700,0.35544775390625,-0.9701385498046875,-0.14776611328125,0.1426544189453125
1782845827171452700,0.36545263671875,-0.9752349853515625,-0.1499481201171875,0.1413421630859375
1782845827181457700,0.375457763671875,-0.976409912109375,-0.1475067138671875,0.138763427734375
1782845827191462700,0.385462646484375,-0.9757080078125,-0.1455535888671875,0.1374969482421875
1782845827201467600,0.395467529296875,-0.975341796875,-0.1467437744140625,0.1335296630859375
1782845827211472600,0.40547265625,-0.974517822265625,-0.1494903564453125,0.130889892578125
1782845827221477600,0.4154775390625,-0.9721527099609375,-0.1501922607421875,0.12744140625
1782845827231482600,0.425482666015625,-0.9712677001953125,-0.1484222412109375,0.1292877197265625
1782845827241487600,0.435487548828125,-0.9694976806640625,-0.149658203125,0.1307525634765625
1782845827251492900,0.445492919921875,-0.9695587158203125,-0.149932861328125,0.1317596435546875
1782845827261497900,0.455497802734375,-0.9708099365234375,-0.14813232421875,0.1319122314453125
1782845827271502800,0.4655029296875,-0.9704437255859375,-0.147003173828125,0.1337127685546875
1782845827281507800,0.4755078125,-0.972137451171875,-0.1472930908203125,0.1342620849609375
1782845827291512800,0.485512939453125,-0.973358154296875,-0.1465606689453125,0.137115478515625
1782845827301517800,0.495517822265625,-0.97210693359375,-0.1453094482421875,0.138702392578125
1782845827311522800,0.505522705078125,-0.9699554443359375,-0.14642333984375,0.1400604248046875
1782845827321527800,0.51552783203125,-0.9671783447265625,-0.1467437744140625,0.1434783935546875
1782845827331532800,0.52553271484375,-0.963226318359375,-0.14752197265625,0.1461181640625
1782845827341537800,0.535537841796875,-0.9573516845703125,-0.146270751953125,0.146484375
1782845827351542800,0.545542724609375,-0.9591064453125,-0.146484375,0.1445159912109375
1782845827361547800,0.5555478515625,-0.964080810546875,-0.1453857421875,0.14239501953125
1782845827371552800,0.565552734375,-0.9690704345703125,-0.1457366943359375,0.1472015380859375
1782845827381557800,0.575557861328125,-0.9727325439453125,-0.1473236083984375,0.1492156982421875
1782845827391561700,0.585561767578125,-0.9730377197265625,-0.1496429443359375,0.1495513916015625
1782845827401566700,0.595566650390625,-0.97528076171875,-0.14678955078125,0.1459197998046875
1782845827411571700,0.60557177734375,-0.976104736328125,-0.1439971923828125,0.14312744140625
1782845827421576700,0.61557666015625,-0.97625732421875,-0.1446380615234375,0.1373748779296875
1782845827431581700,0.625581787109375,-0.974456787109375,-0.1463165283203125,0.135650634765625
1782845827441586700,0.635586669921875,-0.9715576171875,-0.14532470703125,0.1339111328125
1782845827451591700,0.645591796875,-0.9724273681640625,-0.1460113525390625,0.1353302001953125
1782845827461596700,0.6555966796875,-0.96868896484375,-0.1476898193359375,0.1352386474609375
1782845827471601700,0.6656015625,-0.9669036865234375,-0.1472930908203125,0.1344146728515625
1782845827481606700,0.675606689453125,-0.96453857421875,-0.1497039794921875,0.1372222900390625
1782845827491611600,0.685611572265625,-0.9612579345703125,-0.1507568359375,0.1374053955078125
1782845827501616600,0.69561669921875,-0.9619598388671875,-0.1514129638671875,0.140625
1782845827511621600,0.70562158203125,-0.963836669921875,-0.1511993408203125,0.1421966552734375
1782845827521626600,0.715626708984375,-0.968048095703125,-0.150390625,0.1438446044921875
1782845827531631600,0.725631591796875,-0.9741058349609375,-0.1517181396484375,0.1425018310546875
1782845827541636600,0.73563671875,-0.976593017578125,-0.1497802734375,0.1424102783203125
1782845827551641600,0.7456416015625,-0.97772216796875,-0.1497802734375,0.1405487060546875
1782845827561646600,0.755646484375,-0.98004150390625,-0.148651123046875,0.142974853515625
1782845827571651600,0.765651611328125,-0.9774627685546875,-0.147857666015625,0.1421051025390625
1782845827581656600,0.775656494140625,-0.9759979248046875,-0.1497802734375,0.1417083740234375
1782845827591661600,0.78566162109375,-0.972991943359375,-0.1516571044921875,0.14471435546875
1782845827601666800,0.795666748046875,-0.966217041015625,-0.15203857421875,0.1426849365234375
1782845827611671800,0.805671875,-0.965057373046875,-0.15155029296875,0.1421356201171875
1782845827621676800,0.8156767578125,-0.9641876220703125,-0.1484832763671875,0.1373138427734375
1782845827631681800,0.825681884765625,-0.9680023193359375,-0.14532470703125,0.13555908203125
1782845827641686800,0.835686767578125,-0.9678955078125,-0.1467132568359375,0.1370697021484375
1782845827651691800,0.84569189453125,-0.9672088623046875,-0.148162841796875,0.1390380859375
1782845827661696800,0.85569677734375,-0.9651336669921875,-0.1493377685546875,0.139862060546875
1782845827671701800,0.86570166015625,-0.9616851806640625,-0.1501617431640625,0.1433563232421875
1782845827681706800,0.875706787109375,-0.9602813720703125,-0.1525115966796875,0.1458740234375
1782845827691710700,0.885710693359375,-0.9646759033203125,-0.1520538330078125,0.1449737548828125
1782845827701715700,0.8957158203125,-0.9720458984375,-0.150848388671875,0.1440277099609375
1782845827711720700,0.905720703125,-0.9778594970703125,-0.1513824462890625,0.1427154541015625
1782845827721725700,0.9157255859375,-0.98406982421875,-0.1512603759765625,0.1423797607421875
1782845827731730700,0.925730712890625,-0.9862213134765625,-0.1495208740234375,0.1434478759765625
1782845827741735700,0.935735595703125,-0.9799957275390625,-0.149261474609375,0.143035888671875
1782845827751740700,0.94574072265625,-0.972991943359375,-0.149444580078125,0.144195556640625
1782845827761745700,0.95574560546875,-0.9668426513671875,-0.1477203369140625,0.1435089111328125
1782845827771750700,0.965750732421875,-0.9586181640625,-0.147369384765625,0.1416473388671875
1782845827781755600,0.975755615234375,-0.957000732421875,-0.151885986328125,0.1417236328125
1782845827791760600,0.9857607421875,-0.959075927734375,-0.1514434814453125,0.140899658203125
1782845827801765600,0.995765625,-0.9679107666015625,-0.1513214111328125,0.1397247314453125
1782845827811770600,1.0057705078125,-0.9763336181640625,-0.1480560302734375,0.138427734375
1782845827821775600,1.015775634765625,-0.9814300537109375,-0.146148681640625,0.14093017578125
1782845827831780600,1.025780517578125,-0.9837799072265625,-0.1491241455078125,0.140045166015625
1782845827841785600,1.03578564453125,-0.979736328125,-0.1508331298828125,0.14007568359375
1782845827851790600,1.04579052734375,-0.9736175537109375,-0.1516876220703125,0.13983154296875
1782845827861795600,1.055795654296875,-0.97088623046875,-0.150482177734375,0.1372833251953125
1782845827871800600,1.065800537109375,-0.970672607421875,-0.1500701904296875,0.1359405517578125
1782845827881805600,1.0758056640625,-0.9701690673828125,-0.1507415771484375,0.1372222900390625
1782845827891810600,1.085810546875,-0.968109130859375,-0.1482696533203125,0.13885498046875
1782845827901815600,1.095815673828125,-0.9691925048828125,-0.147735595703125,0.1376800537109375
1782845827911820500,1.105820556640625,-0.9723968505859375,-0.1453399658203125,0.13482666015625
1782845827921825500,1.115825439453125,-0.969879150390625,-0.1439056396484375,0.1397552490234375
1782845827931830500,1.12583056640625,-0.967529296875,-0.147308349609375,0.1410675048828125
1782845827941835500,1.13583544921875,-0.9650421142578125,-0.153228759765625,0.142486572265625
1782845827951840500,1.145840576171875,-0.9599609375,-0.155181884765625,0.143585205078125
1782845827961845800,1.155845703125,-0.95574951171875,-0.1541900634765625,0.1470489501953125
1782845827971850800,1.165850830078125,-0.9561767578125,-0.1539764404296875,0.1484375
1782845827981855700,1.175855712890625,-0.958984375,-0.1532440185546875,0.1489105224609375
1782845827991859700,1.185859619140625,-0.962249755859375,-0.154266357421875,0.150177001953125
1782845828001864700,1.19586474609375,-0.9668426513671875,-0.1506195068359375,0.1491546630859375
1782845828011869700,1.20586962890625,-0.96636962890625,-0.1501312255859375,0.1485443115234375
1782845828021874700,1.215874755859375,-0.96405029296875,-0.1508026123046875,0.1459503173828125
1782845828031879700,1.225879638671875,-0.958099365234375,-0.1511077880859375,0.1458587646484375
1782845828041884700,1.235884765625,-0.955322265625,-0.15045166015625,0.1456298828125
1782845828051889700,1.2458896484375,-0.9603118896484375,-0.1483306884765625,0.1440887451171875
1782845828061894700,1.255894775390625,-0.9698638916015625,-0.1495361328125,0.144500732421875
1782845828071899600,1.265899658203125,-0.9778594970703125,-0.1494903564453125,0.1466217041015625
1782845828081904600,1.275904541015625,-0.977996826171875,-0.152252197265625,0.1484527587890625
1782845828091909600,1.28590966796875,-0.976226806640625,-0.153656005859375,0.1462860107421875
1782845828101914600,1.29591455078125,-0.9697418212890625,-0.1527862548828125,0.1459197998046875
1782845828111919600,1.305919677734375,-0.9689178466796875,-0.15020751953125,0.1430206298828125
1782845828121924600,1.315924560546875,-0.9673614501953125,-0.1485137939453125,0.1405792236328125
1782845828131930000,1.32593017578125,-0.9665069580078125,-0.1481475830078125,0.137786865234375
1782845828141935000,1.33593505859375,-0.96697998046875,-0.1495208740234375,0.137237548828125
1782845828151940000,1.345940185546875,-0.9654541015625,-0.145721435546875,0.1335296630859375
1782845828161945300,1.3559453125,-0.9684906005859375,-0.145721435546875,0.1329193115234375
1782845828171950300,1.365950439453125,-0.972412109375,-0.145751953125,0.1330108642578125
1782845828181955300,1.375955322265625,-0.9744720458984375,-0.1454620361328125,0.13580322265625
1782845828191960300,1.385960205078125,-0.9756927490234375,-0.144287109375,0.1396026611328125
1782845828201965300,1.39596533203125,-0.97509765625,-0.1431884765625,0.1427001953125
1782845828211970300,1.40597021484375,-0.9753265380859375,-0.145263671875,0.1421051025390625
1782845828221975300,1.415975341796875,-0.9744873046875,-0.148956298828125,0.1458892822265625
1782845828231980300,1.425980224609375,-0.9727935791015625,-0.148345947265625,0.1442718505859375
1782845828241985300,1.4359853515625,-0.971527099609375,-0.1453704833984375,0.14263916015625
1782845828251990300,1.445990234375,-0.9717864990234375,-0.14483642578125,0.14117431640625
1782845828261995300,1.455995361328125,-0.9720306396484375,-0.1448974609375,0.1424560546875
1782845828272000300,1.466000244140625,-0.9728546142578125,-0.1444244384765625,0.143798828125
1782845828282005200,1.476005126953125,-0.9713592529296875,-0.146728515625,0.143402099609375
1782845828292010200,1.48601025390625,-0.971038818359375,-0.144805908203125,0.1451873779296875
1782845828302015200,1.49601513671875,-0.970977783203125,-0.1433563232421875,0.143798828125
1782845828312019200,1.506019287109375,-0.96856689453125,-0.1444854736328125,0.1456756591796875
1782845828322024200,1.516024169921875,-0.9653167724609375,-0.14404296875,0.1469268798828125
1782845828332029400,1.526029541015625,-0.9639434814453125,-0.1475677490234375,0.142822265625
1782845828342034400,1.536034423828125,-0.9644775390625,-0.148529052734375,0.1444244384765625
1782845828352039400,1.546039306640625,-0.9683074951171875,-0.1462860107421875,0.147979736328125
1782845828362044400,1.55604443359375,-0.9729461669921875,-0.1466064453125,0.1479949951171875
1782845828372049400,1.56604931640625,-0.9757232666015625,-0.147430419921875,0.1504364013671875
1782845828382054400,1.576054443359375,-0.9803924560546875,-0.1453704833984375,0.150421142578125
1782845828392059400,1.586059326171875,-0.9839935302734375,-0.142059326171875,0.1487274169921875
1782845828402064400,1.596064453125,-0.978271484375,-0.1426849365234375,0.149017333984375
1782845828412069400,1.6060693359375,-0.970184326171875,-0.1445159912109375,0.1463165283203125
1782845828422074400,1.616074462890625,-0.964141845703125,-0.144989013671875,0.1454315185546875
1782845828432079400,1.626079345703125,-0.9576568603515625,-0.146514892578125,0.147735595703125
1782845828442084400,1.63608447265625,-0.9564666748046875,-0.1456756591796875,0.145477294921875
1782845828452089300,1.64608935546875,-0.9585418701171875,-0.1439361572265625,0.144500732421875
1782845828462094300,1.65609423828125,-0.9607086181640625,-0.1430511474609375,0.1435699462890625
1782845828472099300,1.666099365234375,-0.965545654296875,-0.1427154541015625,0.1463775634765625
1782845828482104300,1.676104248046875,-0.968505859375,-0.142791748046875,0.1472015380859375
1782845828492109300,1.686109375,-0.9717254638671875,-0.1419525146484375,0.146820068359375
1782845828502114300,1.6961142578125,-0.9753875732421875,-0.1411285400390625,0.150146484375
1782845828512119300,1.706119384765625,-0.9794464111328125,-0.1452484130859375,0.1503143310546875
1782845828522124300,1.716124267578125,-0.977203369140625,-0.1469573974609375,0.150115966796875
1782845828532129300,1.72612939453125,-0.972747802734375,-0.1482696533203125,0.1514129638671875
1782845828542134300,1.73613427734375,-0.966644287109375,-0.146942138671875,0.149261474609375
1782845828552139300,1.74613916015625,-0.9625396728515625,-0.145721435546875,0.1482086181640625
1782845828562144300,1.756144287109375,-0.9646148681640625,-0.144317626953125,0.1470489501953125
1782845828572149200,1.766149169921875,-0.9702911376953125,-0.141937255859375,0.144500732421875
1782845828582154200,1.776154296875,-0.9718017578125,-0.1444244384765625,0.144561767578125
1782845828592159200,1.7861591796875,-0.974029541015625,-0.1422882080078125,0.1427154541015625
1782845828602164200,1.796164306640625,-0.975616455078125,-0.142791748046875,0.143951416015625
1782845828612169200,1.806169189453125,-0.97113037109375,-0.142852783203125,0.145477294921875
1782845828622174200,1.81617431640625,-0.968597412109375,-0.143646240234375,0.146820068359375
1782845828632179200,1.82617919921875,-0.9676513671875,-0.1432037353515625,0.145599365234375
1782845828642184200,1.83618408203125,-0.96435546875,-0.1434783935546875,0.1468048095703125
1782845828652188400,1.8461884765625,-0.960784912109375,-0.1449127197265625,0.1476287841796875
1782845828662193400,1.856193359375,-0.9620208740234375,-0.14556884765625,0.1443328857421875
1782845828672198400,1.866198486328125,-0.962890625,-0.143524169921875,0.145294189453125
1782845828682203400,1.876203369140625,-0.9668731689453125,-0.1414947509765625,0.1438140869140625
1782845828692208400,1.88620849609375,-0.9717864990234375,-0.1415863037109375,0.142822265625
1782845828702213400,1.89621337890625,-0.9726104736328125,-0.1389007568359375,0.14337158203125
1782845828712218400,1.90621826171875,-0.9755859375,-0.1406402587890625,0.144622802734375
1782845828722223400,1.916223388671875,-0.9749603271484375,-0.140594482421875,0.145263671875
1782845828732228400,1.926228271484375,-0.9751434326171875,-0.1439208984375,0.1486968994140625
1782845828742233300,1.9362333984375,-0.9738616943359375,-0.1474456787109375,0.1514434814453125
1782845828752238300,1.94623828125,-0.97540283203125,-0.1473541259765625,0.1509246826171875
1782845828762243300,1.956243408203125,-0.976287841796875,-0.14373779296875,0.1518707275390625
1782845828772248300,1.966248291015625,-0.9734954833984375,-0.1426544189453125,0.14794921875
1782845828782253300,1.97625341796875,-0.972381591796875,-0.1426544189453125,0.1461639404296875
1782845828792258300,1.98625830078125,-0.96917724609375,-0.1402130126953125,0.142578125
1782845828802263300,1.99626318359375,-0.966217041015625,-0.1389923095703125,0.139404296875
1782845828812268300,2.006268310546875,-0.964019775390625,-0.1404571533203125,0.13922119140625
1782845828822273300,2.016273193359375,-0.9649658203125,-0.140594482421875,0.1379852294921875
1782845828832278300,2.0262783203125,-0.967987060546875,-0.1422119140625,0.1387939453125
1782845828842283300,2.036283203125,-0.96820068359375,-0.1443023681640625,0.1415252685546875
1782845828852288300,2.046288330078125,-0.9676513671875,-0.14599609375,0.1435089111328125
1782845828862293200,2.056293212890625,-0.9647216796875,-0.1459197998046875,0.1457672119140625
1782845828872298200,2.06629833984375,-0.961639404296875,-0.1478424072265625,0.1454315185546875
1782845828882303200,2.07630322265625,-0.9640350341796875,-0.145904541015625,0.144622802734375
1782845828892308200,2.08630810546875,-0.9666290283203125,-0.141387939453125,0.14056396484375
1782845828902313200,2.096313232421875,-0.973602294921875,-0.1380767822265625,0.1397705078125
1782845828912318200,2.106318115234375,-0.979034423828125,-0.1375274658203125,0.1376800537109375
1782845828922323200,2.1163232421875,-0.981689453125,-0.136199951171875,0.1380767822265625
1782845828932328200,2.126328125,-0.9814300537109375,-0.136993408203125,0.1406707763671875
1782845828942333200,2.136333251953125,-0.980743408203125,-0.13922119140625,0.1390838623046875
1782845828952338200,2.146338134765625,-0.98211669921875,-0.1385955810546875,0.1505584716796875
1782845828962343200,2.15634326171875,-0.9765625,-0.14093017578125,0.1571044921875
1782845828972348200,2.16634814453125,-0.974761962890625,-0.1458587646484375,0.1566009521484375
1782845828982352400,2.176352294921875,-0.97265625,-0.1440277099609375,0.1542510986328125
1782845828992357400,2.186357421875,-0.967193603515625,-0.1421966552734375,0.15130615234375
1782845829002362400,2.1963623046875,-0.9642333984375,-0.1412811279296875,0.148773193359375
1782845829012367400,2.206367431640625,-0.960052490234375,-0.143310546875,0.1484832763671875
1782845829022372400,2.216372314453125,-0.958709716796875,-0.1451873779296875,0.145050048828125
1782845829032377300,2.22637744140625,-0.962554931640625,-0.1441650390625,0.1421356201171875
1782845829042382300,2.23638232421875,-0.9670867919921875,-0.1408538818359375,0.1431121826171875
1782845829052387300,2.24638720703125,-0.9676361083984375,-0.1418304443359375,0.14373779296875
1782845829062392300,2.256392333984375,-0.9705657958984375,-0.14154052734375,0.1414794921875
1782845829072397300,2.266397216796875,-0.969757080078125,-0.1392364501953125,0.139404296875
1782845829082402300,2.27640234375,-0.969146728515625,-0.1418304443359375,0.1403045654296875
1782845829092407300,2.2864072265625,-0.973297119140625,-0.142822265625,0.143035888671875
1782845829102412300,2.296412353515625,-0.9775848388671875,-0.1425323486328125,0.144927978515625
1782845829112417300,2.306417236328125,-0.979248046875,-0.145599365234375,0.146209716796875
1782845829122422300,2.31642236328125,-0.9791259765625,-0.142608642578125,0.1481475830078125
1782845829132427300,2.32642724609375,-0.98388671875,-0.1395721435546875,0.1479949951171875
1782845829142432300,2.336432373046875,-0.98406982421875,-0.1379547119140625,0.1456451416015625
1782845829152437200,2.346437255859375,-0.9817657470703125,-0.1389312744140625,0.14910888671875
1782845829162442200,2.356442138671875,-0.978363037109375,-0.141143798828125,0.151641845703125
1782845829172447200,2.366447265625,-0.9726104736328125,-0.142120361328125,0.1539306640625
1782845829182452200,2.3764521484375,-0.9660186767578125,-0.142425537109375,0.1573944091796875
1782845829192457200,2.386457275390625,-0.9615631103515625,-0.14385986328125,0.15679931640625
1782845829202462200,2.396462158203125,-0.958648681640625,-0.142578125,0.150299072265625
1782845829212467200,2.40646728515625,-0.9549713134765625,-0.1399993896484375,0.149749755859375
1782845829222472200,2.41647216796875,-0.9530029296875,-0.139617919921875,0.145751953125
1782845829232477200,2.426477294921875,-0.9550018310546875,-0.1399383544921875,0.1437225341796875
1782845829242482200,2.436482177734375,-0.956390380859375,-0.1387939453125,0.142608642578125
1782845829252487200,2.446487060546875,-0.9609832763671875,-0.14019775390625,0.1446075439453125
1782845829262492200,2.4564921875,-0.966552734375,-0.1405029296875,0.1461181640625
1782845829272497200,2.4664970703125,-0.970184326171875,-0.1415863037109375,0.1478118896484375
1782845829282502100,2.476502197265625,-0.97271728515625,-0.14422607421875,0.1490478515625
1782845829292507100,2.486507080078125,-0.9749603271484375,-0.1460723876953125,0.1513214111328125
1782845829302512000,2.49651220703125,-0.9716949462890625,-0.145111083984375,0.1518096923828125
1782845829312517000,2.50651708984375,-0.9746246337890625,-0.1448822021484375,0.152435302734375
1782845829322522000,2.516522216796875,-0.97515869140625,-0.1477203369140625,0.155364990234375
1782845829332526000,2.526526123046875,-0.9762115478515625,-0.1469879150390625,0.15338134765625
1782845829342531300,2.53653125,-0.9768524169921875,-0.141815185546875,0.1495208740234375
1782845829352536300,2.546536376953125,-0.97821044921875,-0.1388702392578125,0.144317626953125
1782845829362541300,2.556541259765625,-0.97698974609375,-0.1404266357421875,0.14404296875
1782845829372546300,2.56654638671875,-0.971588134765625,-0.141143798828125,0.141357421875
1782845829382551300,2.57655126953125,-0.9655914306640625,-0.1420440673828125,0.142303466796875
1782845829392556300,2.586556396484375,-0.9583587646484375,-0.1423492431640625,0.1432952880859375
1782845829402561300,2.596561279296875,-0.9553985595703125,-0.1450653076171875,0.1451873779296875
1782845829412566300,2.606566162109375,-0.9569854736328125,-0.1460113525390625,0.1471710205078125
1782845829422571300,2.6165712890625,-0.9564208984375,-0.1472625732421875,0.14971923828125
1782845829432576300,2.626576171875,-0.96160888671875,-0.1468353271484375,0.147918701171875
1782845829442581200,2.636581298828125,-0.964263916015625,-0.1483306884765625,0.1485748291015625
1782845829452586200,2.646586181640625,-0.9675445556640625,-0.1477813720703125,0.149322509765625
1782845829462591200,2.65659130859375,-0.971588134765625,-0.1471710205078125,0.148162841796875
1782845829472596200,2.66659619140625,-0.9722137451171875,-0.144927978515625,0.1449127197265625
1782845829482601200,2.676601318359375,-0.9736785888671875,-0.144439697265625,0.14141845703125
1782845829492606200,2.686606201171875,-0.97607421875,-0.1421051025390625,0.140716552734375
1782845829502611200,2.696611083984375,-0.976104736328125,-0.14019775390625,0.1441497802734375
1782845829512616200,2.7066162109375,-0.9775238037109375,-0.1422119140625,0.145416259765625
1782845829522621200,2.71662109375,-0.9763031005859375,-0.14178466796875,0.1461181640625
1782845829532626200,2.726626220703125,-0.972137451171875,-0.143310546875,0.1477813720703125
1782845829542631200,2.736631103515625,-0.965789794921875,-0.146087646484375,0.14739990234375
1782845829552636200,2.74663623046875,-0.9625091552734375,-0.1462860107421875,0.146728515625
1782845829562641200,2.75664111328125,-0.960235595703125,-0.1473236083984375,0.1452484130859375
1782845829572646100,2.766646240234375,-0.966522216796875,-0.147369384765625,0.14501953125
1782845829582651100,2.776651123046875,-0.973541259765625,-0.1454010009765625,0.146209716796875
1782845829592656100,2.78665625,-0.9784698486328125,-0.144744873046875,0.150665283203125
1782845829602661000,2.7966611328125,-0.9801483154296875,-0.1432037353515625,0.151611328125
1782845829612666000,2.806666015625,-0.979248046875,-0.1423492431640625,0.1516265869140625
1782845829622671000,2.816671142578125,-0.9729461669921875,-0.1403350830078125,0.14837646484375
1782845829632676000,2.826676025390625,-0.964935302734375,-0.141021728515625,0.1427154541015625
1782845829642681000,2.83668115234375,-0.9571990966796875,-0.1418609619140625,0.13836669921875
1782845829652686000,2.84668603515625,-0.952239990234375,-0.1435699462890625,0.1376190185546875
1782845829662691000,2.856691162109375,-0.9478607177734375,-0.1457061767578125,0.1376190185546875
1782845829672695000,2.866695068359375,-0.949920654296875,-0.144805908203125,0.1367034912109375
1782845829682700000,2.876699951171875,-0.95916748046875,-0.1404266357421875,0.1353912353515625
1782845829692705300,2.886705322265625,-0.9689483642578125,-0.1383819580078125,0.1368255615234375
1782845829702710300,2.896710205078125,-0.9808502197265625,-0.1371307373046875,0.1419830322265625
1782845829712715300,2.90671533203125,-0.990478515625,-0.1385955810546875,0.1500244140625
1782845829722720300,2.91672021484375,-0.99688720703125,-0.139801025390625,0.155609130859375
1782845829732725200,2.926725341796875,-0.9957275390625,-0.1419525146484375,0.1604461669921875
1782845829742730200,2.936730224609375,-0.989837646484375,-0.1425323486328125,0.1631011962890625
1782845829752735200,2.9467353515625,-0.980560302734375,-0.144287109375,0.164581298828125
1782845829762740200,2.956740234375,-0.968475341796875,-0.1457977294921875,0.1610870361328125
1782845829772745200,2.9667451171875,-0.9596405029296875,-0.14111328125,0.1547088623046875
1782845829782750200,2.976750244140625,-0.9535980224609375,-0.1381683349609375,0.1486663818359375
1782845829792755200,2.986755126953125,-0.948699951171875,-0.1360015869140625,0.143341064453125
1782845829802760200,2.99676025390625,-0.951324462890625,-0.134552001953125,0.1397857666015625
1782845829812765200,3.00676513671875,-0.95916748046875,-0.132080078125,0.13922119140625
1782845829822770200,3.016770263671875,-0.9701080322265625,-0.131591796875,0.1398468017578125
1782845829832775200,3.026775146484375,-0.9777984619140625,-0.134674072265625,0.140350341796875
1782845829842780200,3.0367802734375,-0.9790802001953125,-0.1363677978515625,0.14263916015625
1782845829852785200,3.04678515625,-0.9798583984375,-0.140960693359375,0.1450653076171875
1782845829862790100,3.0567900390625,-0.98046875,-0.1436004638671875,0.1476898193359375
1782845829872795100,3.066795166015625,-0.976776123046875,-0.1435546875,0.146209716796875
1782845829882800000,3.076800048828125,-0.97613525390625,-0.142974853515625,0.14459228515625
1782845829892805000,3.08680517578125,-0.97454833984375,-0.1411285400390625,0.1405029296875
1782845829902810000,3.09681005859375,-0.9771575927734375,-0.1382598876953125,0.138031005859375
1782845829912815000,3.106815185546875,-0.9785919189453125,-0.13714599609375,0.13671875
1782845829922820000,3.116820068359375,-0.980377197265625,-0.1365814208984375,0.1393890380859375
1782845829932825000,3.1268251953125,-0.9813079833984375,-0.1346282958984375,0.1405487060546875
1782845829942830000,3.136830078125,-0.9792022705078125,-0.1344451904296875,0.1426239013671875
1782845829952835000,3.1468349609375,-0.972808837890625,-0.1378936767578125,0.1439666748046875
1782845829962840000,3.156840087890625,-0.967071533203125,-0.138092041015625,0.145751953125
1782845829972845000,3.166844970703125,-0.959747314453125,-0.1400604248046875,0.149078369140625
1782845829982850000,3.17685009765625,-0.95404052734375,-0.1429901123046875,0.1510772705078125
1782845829992855000,3.18685498046875,-0.953125,-0.1450958251953125,0.148590087890625
1782845830002860000,3.196860107421875,-0.95562744140625,-0.1396331787109375,0.14739990234375
1782845830012865000,3.206864990234375,-0.9638519287109375,-0.1340789794921875,0.146026611328125
1782845830022870300,3.216870361328125,-0.968597412109375,-0.131072998046875,0.1445465087890625
1782845830032874000,3.2268740234375,-0.97137451171875,-0.13018798828125,0.1466217041015625
1782845830042879200,3.236879150390625,-0.9717559814453125,-0.132476806640625,0.14642333984375
1782845830052884200,3.24688427734375,-0.9708404541015625,-0.1324615478515625,0.1475372314453125
1782845830062889200,3.25688916015625,-0.970855712890625,-0.1369781494140625,0.1482696533203125
1782845830072894200,3.266894287109375,-0.96710205078125,-0.1396636962890625,0.1477508544921875
1782845830082899200,3.276899169921875,-0.9656524658203125,-0.1390838623046875,0.1506500244140625
1782845830092904200,3.286904296875,-0.9629364013671875,-0.1398162841796875,0.1498260498046875
1782845830102909200,3.2969091796875,-0.9635772705078125,-0.137176513671875,0.14617919921875
1782845830112914200,3.3069140625,-0.9685211181640625,-0.135650634765625,0.1450653076171875
1782845830122919200,3.316919189453125,-0.975616455078125,-0.1357269287109375,0.143280029296875
1782845830132924000,3.326923828125,-0.9828033447265625,-0.1340484619140625,0.146087646484375
1782845830142929000,3.336928955078125,-0.984039306640625,-0.1329345703125,0.1447906494140625
1782845830152934000,3.346933837890625,-0.9819183349609375,-0.135711669921875,0.144744873046875
1782845830162939000,3.35693896484375,-0.9756927490234375,-0.1395111083984375,0.146392822265625
1782845830172944000,3.36694384765625,-0.968505859375,-0.140533447265625,0.1467742919921875
1782845830182948900,3.376948974609375,-0.965423583984375,-0.1390380859375,0.14642333984375
1782845830192953900,3.386953857421875,-0.966064453125,-0.1389923095703125,0.1460113525390625
1782845830202958800,3.396958740234375,-0.9694366455078125,-0.136199951171875,0.1444854736328125
1782845830212963800,3.4069638671875,-0.9714202880859375,-0.136993408203125,0.1450042724609375
1782845830222968800,3.41696875,-0.9714508056640625,-0.139617919921875,0.14373779296875
1782845830232973800,3.426973876953125,-0.968994140625,-0.1392669677734375,0.1428375244140625
1782845830242978800,3.436978759765625,-0.969512939453125,-0.1381683349609375,0.1386566162109375
1782845830252983800,3.44698388671875,-0.969818115234375,-0.1383819580078125,0.1373443603515625
1782845830262988800,3.45698876953125,-0.97125244140625,-0.137847900390625,0.138336181640625
1782845830272993800,3.466993896484375,-0.9735107421875,-0.13787841796875,0.137908935546875
1782845830282998800,3.476998779296875,-0.972991943359375,-0.13787841796875,0.1388092041015625
1782845830293003800,3.487003662109375,-0.975341796875,-0.136810302734375,0.1417083740234375
1782845830303008800,3.4970087890625,-0.9756011962890625,-0.135894775390625,0.140350341796875
1782845830313013800,3.507013671875,-0.9738006591796875,-0.1375732421875,0.1439056396484375
1782845830323018800,3.517018798828125,-0.96917724609375,-0.1402587890625,0.1463165283203125
1782845830333023700,3.527023681640625,-0.9654998779296875,-0.1420135498046875,0.1457977294921875
1782845830343028700,3.53702880859375,-0.9669342041015625,-0.1405029296875,0.1445770263671875
1782845830353033700,3.54703369140625,-0.9696044921875,-0.1394195556640625,0.1455230712890625
1782845830363038700,3.557038818359375,-0.9741363525390625,-0.1387786865234375,0.1470489501953125
1782845830373043700,3.567043701171875,-0.9780426025390625,-0.134918212890625,0.1460113525390625
1782845830383048700,3.577048583984375,-0.978912353515625,-0.13421630859375,0.1448974609375
1782845830393053700,3.5870537109375,-0.9785614013671875,-0.1348419189453125,0.1455230712890625
1782845830403058000,3.597057861328125,-0.9772796630859375,-0.135162353515625,0.1460418701171875
1782845830413063000,3.60706298828125,-0.9737548828125,-0.136016845703125,0.14599609375
1782845830423068000,3.61706787109375,-0.9683380126953125,-0.1373291015625,0.1464691162109375
1782845830433073000,3.627072998046875,-0.9616851806640625,-0.1397552490234375,0.1454010009765625
1782845830443078000,3.637077880859375,-0.9630584716796875,-0.1362457275390625,0.1409759521484375
1782845830453083000,3.647082763671875,-0.9646759033203125,-0.136199951171875,0.1423797607421875
1782845830463087900,3.657087890625,-0.9695281982421875,-0.1378326416015625,0.1402435302734375
1782845830473092900,3.6670927734375,-0.9721221923828125,-0.139404296875,0.139923095703125
1782845830483097900,3.677097900390625,-0.9777374267578125,-0.13604736328125,0.1429443359375
1782845830493102800,3.687102783203125,-0.982086181640625,-0.1381378173828125,0.144256591796875
1782845830503107800,3.69710791015625,-0.9820404052734375,-0.1371307373046875,0.1449737548828125
1782845830513112800,3.70711279296875,-0.9794921875,-0.13671875,0.1448822021484375
1782845830523117800,3.717117919921875,-0.9771728515625,-0.139373779296875,0.144561767578125
1782845830533122800,3.727122802734375,-0.9720001220703125,-0.1414337158203125,0.1417236328125
1782845830543127800,3.7371279296875,-0.9658966064453125,-0.1415863037109375,0.1393890380859375
1782845830553132800,3.7471328125,-0.96038818359375,-0.1404876708984375,0.138397216796875
1782845830563137800,3.7571376953125,-0.95733642578125,-0.1386871337890625,0.1366119384765625
1782845830573142800,3.767142822265625,-0.961944580078125,-0.136138916015625,0.1352386474609375
1782845830583147800,3.777147705078125,-0.9629669189453125,-0.1339263916015625,0.139129638671875
1782845830593152800,3.78715283203125,-0.966461181640625,-0.1348419189453125,0.1421966552734375
1782845830603157800,3.79715771484375,-0.9737396240234375,-0.13690185546875,0.1441497802734375
1782845830613162800,3.807162841796875,-0.9790496826171875,-0.1390228271484375,0.1480712890625
1782845830623167700,3.817167724609375,-0.9813079833984375,-0.1426849365234375,0.152313232421875
1782845830633172700,3.8271728515625,-0.9854736328125,-0.143341064453125,0.15325927734375
1782845830643177700,3.837177734375,-0.9832916259765625,-0.14056396484375,0.15411376953125
1782845830653182700,3.8471826171875,-0.9813690185546875,-0.13970947265625,0.152130126953125
1782845830663187700,3.857187744140625,-0.9729156494140625,-0.138671875,0.1482391357421875
1782845830673192700,3.867192626953125,-0.96484375,-0.1358642578125,0.14434814453125
1782845830683197700,3.87719775390625,-0.96173095703125,-0.1343536376953125,0.142242431640625
1782845830693202700,3.88720263671875,-0.963104248046875,-0.1336517333984375,0.139190673828125
1782845830703208000,3.8972080078125,-0.964324951171875,-0.1338958740234375,0.1412811279296875
1782845830713213000,3.907212890625,-0.9661407470703125,-0.1370391845703125,0.1439361572265625
1782845830723218000,3.917218017578125,-0.9648590087890625,-0.136383056640625,0.14495849609375
1782845830733223000,3.927222900390625,-0.9642486572265625,-0.13995361328125,0.1464385986328125
1782845830743228000,3.937227783203125,-0.9630126953125,-0.1415252685546875,0.1474456787109375
1782845830753233000,3.94723291015625,-0.963287353515625,-0.1426544189453125,0.148101806640625
1782845830763236900,3.95723681640625,-0.9647064208984375,-0.1438140869140625,0.1483154296875
1782845830773241900,3.967241943359375,-0.9667510986328125,-0.1422271728515625,0.149688720703125
1782845830783246800,3.977246826171875,-0.96856689453125,-0.1389312744140625,0.1475677490234375
1782845830793251800,3.987251953125,-0.9754791259765625,-0.1367645263671875,0.1440582275390625
1782845830803256800,3.9972568359375,-0.9777069091796875,-0.134765625,0.14312744140625
1782845830813261800,4.00726171875,-0.9792327880859375,-0.1346893310546875,0.1416778564453125
1782845830823266800,4.017266845703125,-0.9743804931640625,-0.137298583984375,0.1399078369140625
1782845830833271800,4.027271728515625,-0.9709930419921875,-0.141021728515625,0.14013671875
1782845830843276800,4.03727685546875,-0.9716033935546875,-0.1423187255859375,0.141448974609375
1782845830853281800,4.04728173828125,-0.9688568115234375,-0.1420135498046875,0.1449127197265625
1782845830863286800,4.057286865234375,-0.9727630615234375,-0.144683837890625,0.15203857421875
1782845830873292000,4.0672919921875,-0.9761199951171875,-0.1470794677734375,0.1519775390625
1782845830883297000,4.077297119140625,-0.9755706787109375,-0.146453857421875,0.1470184326171875
1782845830893302000,4.087302001953125,-0.9754486083984375,-0.142425537109375,0.1416778564453125
1782845830903307000,4.09730712890625,-0.97174072265625,-0.136383056640625,0.1368865966796875
1782845830913312000,4.10731201171875,-0.9665374755859375,-0.1375579833984375,0.136016845703125
1782845830923317000,4.11731689453125,-0.96392822265625,-0.1395721435546875,0.13653564453125
1782845830933322000,4.127322021484375,-0.9647979736328125,-0.138458251953125,0.1390228271484375
1782845830943327000,4.137326904296875,-0.9631195068359375,-0.1384735107421875,0.139404296875
1782845830953332000,4.14733203125,-0.9586029052734375,-0.1409759521484375,0.142547607421875
1782845830963337000,4.1573369140625,-0.9628143310546875,-0.1436767578125,0.1449432373046875
1782845830973342000,4.167342041015625,-0.96893310546875,-0.1447601318359375,0.1449127197265625
1782845830983347000,4.177346923828125,-0.9770355224609375,-0.1438446044921875,0.1464691162109375
1782845830993352000,4.18735205078125,-0.982940673828125,-0.1429901123046875,0.1439666748046875
1782845831003357000,4.19735693359375,-0.9839324951171875,-0.143280029296875,0.1423187255859375
1782845831013362000,4.20736181640625,-0.9836883544921875,-0.14263916015625,0.1425628662109375
1782845831023367000,4.217366943359375,-0.98388671875,-0.1410369873046875,0.14251708984375
1782845831033372000,4.227371826171875,-0.9840545654296875,-0.1415557861328125,0.1435546875
1782845831043377000,4.237376953125,-0.984344482421875,-0.1414947509765625,0.1459503173828125
1782845831053382000,4.2473818359375,-0.9803466796875,-0.1390533447265625,0.1468963623046875
1782845831063387000,4.257386962890625,-0.9736175537109375,-0.1395263671875,0.14697265625
1782845831073391900,4.267391845703125,-0.965728759765625,-0.138580322265625,0.1458892822265625
1782845831083396900,4.27739697265625,-0.9560546875,-0.139617919921875,0.14862060546875
1782845831093401900,4.28740185546875,-0.9471893310546875,-0.1407012939453125,0.1489410400390625
1782845831103406800,4.29740673828125,-0.9449462890625,-0.1413421630859375,0.150665283203125
1782845831113411800,4.307411865234375,-0.9480438232421875,-0.1421356201171875,0.14990234375
1782845831123416000,4.317416015625,-0.95452880859375,-0.1397857666015625,0.1462860107421875
1782845831133421300,4.32742138671875,-0.9604949951171875,-0.1411590576171875,0.141998291015625
1782845831143426300,4.33742626953125,-0.9654388427734375,-0.141571044921875,0.1442413330078125
1782845831153431300,4.347431396484375,-0.965972900390625,-0.141204833984375,0.144927978515625
1782845831163436300,4.357436279296875,-0.9698028564453125,-0.14190673828125,0.142852783203125
1782845831173441500,4.367441650390625,-0.9745635986328125,-0.13995361328125,0.1397705078125
1782845831183446500,4.377446533203125,-0.9815826416015625,-0.1363525390625,0.138824462890625
1782845831193451500,4.387451416015625,-0.984588623046875,-0.136688232421875,0.1394500732421875
1782845831203456500,4.39745654296875,-0.9850616455078125,-0.13909912109375,0.14398193359375
1782845831213461500,4.40746142578125,-0.9828643798828125,-0.141754150390625,0.1459808349609375
1782845831223466500,4.417466552734375,-0.9809417724609375,-0.1450653076171875,0.14849853515625
1782845831233471500,4.427471435546875,-0.975067138671875,-0.146026611328125,0.1507415771484375
1782845831243476500,4.4374765625,-0.9683837890625,-0.147003173828125,0.152130126953125
1782845831253481500,4.4474814453125,-0.9662628173828125,-0.1461639404296875,0.1492156982421875
1782845831263486500,4.457486572265625,-0.9661407470703125,-0.14422607421875,0.1460723876953125
1782845831273491500,4.467491455078125,-0.9674072265625,-0.139739990234375,0.14453125
1782845831283496400,4.477496337890625,-0.9692535400390625,-0.13775634765625,0.1423492431640625
1782845831293501400,4.48750146484375,-0.9693756103515625,-0.1376190185546875,0.137969970703125
1782845831303506400,4.49750634765625,-0.967559814453125,-0.136199951171875,0.136566162109375
1782845831313511400,4.507511474609375,-0.9679107666015625,-0.1361541748046875,0.1362152099609375
1782845831323516400,4.517516357421875,-0.9639739990234375,-0.138092041015625,0.14093017578125
1782845831333521400,4.527521484375,-0.962982177734375,-0.1404571533203125,0.143218994140625
1782845831343526400,4.5375263671875,-0.9614715576171875,-0.1443023681640625,0.143768310546875
1782845831353531400,4.547531494140625,-0.9604644775390625,-0.148712158203125,0.1474456787109375
1782845831363536400,4.557536376953125,-0.9651336669921875,-0.147491455078125,0.148529052734375
1782845831373541400,4.567541259765625,-0.973175048828125,-0.1425323486328125,0.147216796875
1782845831383546400,4.57754638671875,-0.983489990234375,-0.139404296875,0.147125244140625
1782845831393551400,4.58755126953125,-0.990234375,-0.139556884765625,0.146026611328125
1782845831403556400,4.597556396484375,-0.99200439453125,-0.137481689453125,0.1433868408203125
1782845831413561300,4.607561279296875,-0.987091064453125,-0.136444091796875,0.143585205078125
1782845831423566300,4.61756640625,-0.9776458740234375,-0.1363525390625,0.1442108154296875
1782845831433571300,4.6275712890625,-0.9669342041015625,-0.13873291015625,0.1437225341796875
1782845831443576300,4.637576416015625,-0.9578094482421875,-0.1401824951171875,0.1469268798828125
1782845831453581300,4.647581298828125,-0.954803466796875,-0.1429595947265625,0.1498260498046875
1782845831463586300,4.65758642578125,-0.956573486328125,-0.14373779296875,0.149078369140625
1782845831473591300,4.66759130859375,-0.9611053466796875,-0.144866943359375,0.1511993408203125
1782845831483596300,4.67759619140625,-0.9702911376953125,-0.1437835693359375,0.15570068359375
1782845831493601300,4.687601318359375,-0.976348876953125,-0.142059326171875,0.1579437255859375
1782845831503605200,4.697605224609375,-0.980072021484375,-0.1397705078125,0.15521240234375
1782845831513610200,4.7076103515625,-0.9762725830078125,-0.13897705078125,0.1516876220703125
1782845831523615500,4.717615478515625,-0.97430419921875,-0.1395263671875,0.1458587646484375
1782845831533620500,4.727620361328125,-0.968994140625,-0.14056396484375,0.1402740478515625
1782845831543625500,4.73762548828125,-0.9624786376953125,-0.1419677734375,0.136932373046875
1782845831553630500,4.74763037109375,-0.96087646484375,-0.14556884765625,0.13580322265625
1782845831563635500,4.757635498046875,-0.956878662109375,-0.14453125,0.1370697021484375
1782845831573640400,4.767640380859375,-0.952728271484375,-0.142608642578125,0.1365966796875
1782845831583645400,4.7776455078125,-0.955780029296875,-0.1415252685546875,0.135589599609375
1782845831593650400,4.787650390625,-0.963165283203125,-0.140716552734375,0.13922119140625
1782845831603655400,4.797655517578125,-0.9687042236328125,-0.1425323486328125,0.1443328857421875
1782845831613660400,4.807660400390625,-0.97637939453125,-0.1430206298828125,0.1467132568359375
1782845831623665400,4.81766552734375,-0.989105224609375,-0.14031982421875,0.14532470703125
1782845831633670400,4.82767041015625,-0.9959716796875,-0.1348419189453125,0.14190673828125
1782845831643675400,4.83767529296875,-0.9934539794921875,-0.1340484619140625,0.1461181640625
1782845831653680400,4.847680419921875,-0.9896697998046875,-0.135467529296875,0.1457977294921875
1782845831663685400,4.857685302734375,-0.9804840087890625,-0.1359710693359375,0.1482696533203125
1782845831673690400,4.8676904296875,-0.969940185546875,-0.138336181640625,0.1521759033203125
1782845831683695400,4.8776953125,-0.9586944580078125,-0.1414642333984375,0.153045654296875
1782845831693700400,4.887700439453125,-0.951202392578125,-0.142578125,0.1526641845703125
1782845831703705300,4.897705322265625,-0.948211669921875,-0.1427001953125,0.149627685546875
1782845831713710300,4.90771044921875,-0.9449462890625,-0.1447906494140625,0.1467132568359375
1782845831723715300,4.91771533203125,-0.94775390625,-0.142364501953125,0.1442413330078125
1782845831733720300,4.92772021484375,-0.9546661376953125,-0.13861083984375,0.1438446044921875
1782845831743725300,4.937725341796875,-0.966644287109375,-0.1362457275390625,0.142181396484375
1782845831753730300,4.947730224609375,-0.9770355224609375,-0.1342620849609375,0.1426544189453125
1782845831763735300,4.9577353515625,-0.9816436767578125,-0.1343231201171875,0.1439971923828125
1782845831773740300,4.967740234375,-0.98382568359375,-0.1358184814453125,0.1449127197265625
1782845831783745300,4.977745361328125,-0.9818572998046875,-0.1400146484375,0.1486358642578125
1782845831793750300,4.987750244140625,-0.98028564453125,-0.140777587890625,0.14752197265625
1782845831803755300,4.99775537109375,-0.97674560546875,-0.143463134765625,0.148162841796875
1782845831813760300,5.00776025390625,-0.9715728759765625,-0.1467437744140625,0.1487579345703125
1782845831823765200,5.01776513671875,-0.9697723388671875,-0.1428375244140625,0.145782470703125
1782845831833770200,5.027770263671875,-0.9661712646484375,-0.140655517578125,0.141998291015625
1782845831843775200,5.037775146484375,-0.9641571044921875,-0.1381988525390625,0.14141845703125
1782845831853780200,5.0477802734375,-0.9668731689453125,-0.1377410888671875,0.1424713134765625
1782845831863784200,5.0577841796875,-0.9677886962890625,-0.1362457275390625,0.140777587890625
1782845831873789200,5.0677890625,-0.968597412109375,-0.1357574462890625,0.1436614990234375
1782845831883794400,5.07779443359375,-0.9669952392578125,-0.1366119384765625,0.1464080810546875
1782845831893799400,5.08779931640625,-0.968109130859375,-0.1397552490234375,0.14471435546875
1782845831903804400,5.097804443359375,-0.9721221923828125,-0.1425628662109375,0.146697998046875
1782845831913809400,5.107809326171875,-0.9710235595703125,-0.1433563232421875,0.147552490234375
1782845831923814400,5.117814453125,-0.9707183837890625,-0.1424407958984375,0.1471405029296875
1782845831933819400,5.1278193359375,-0.970916748046875,-0.140167236328125,0.143310546875
1782845831943824400,5.137824462890625,-0.970245361328125,-0.137451171875,0.141510009765625
1782845831953829400,5.147829345703125,-0.9700775146484375,-0.1374664306640625,0.1375274658203125
1782845831963834400,5.15783447265625,-0.96978759765625,-0.1348876953125,0.1327362060546875
1782845831973839400,5.16783935546875,-0.9694976806640625,-0.1326904296875,0.1331024169921875
1782845831983844400,5.17784423828125,-0.9691925048828125,-0.1328125,0.1337738037109375
1782845831993849300,5.187849365234375,-0.9711151123046875,-0.132843017578125,0.1328582763671875
1782845832003854300,5.197854248046875,-0.9750213623046875,-0.133514404296875,0.134429931640625
1782845832013859300,5.207859375,-0.9784698486328125,-0.13555908203125,0.1365509033203125
1782845832023864300,5.2178642578125,-0.982574462890625,-0.137664794921875,0.1429595947265625
1782845832033869300,5.227869384765625,-0.9860382080078125,-0.1411895751953125,0.1449432373046875
1782845832043874300,5.237874267578125,-0.987060546875,-0.140777587890625,0.144866943359375
1782845832053879300,5.24787939453125,-0.98797607421875,-0.13836669921875,0.144134521484375
1782845832063884300,5.25788427734375,-0.985748291015625,-0.1360321044921875,0.14324951171875
1782845832073889300,5.26788916015625,-0.9822998046875,-0.1341094970703125,0.1451568603515625
1782845832083894300,5.277894287109375,-0.9749908447265625,-0.13006591796875,0.14447021484375
1782845832093899300,5.287899169921875,-0.96734619140625,-0.1305999755859375,0.14678955078125
1782845832103904300,5.297904296875,-0.960601806640625,-0.1319580078125,0.1492919921875
1782845832113909200,5.3079091796875,-0.9578399658203125,-0.133148193359375,0.1529541015625
1782845832123914200,5.317914306640625,-0.956573486328125,-0.1329345703125,0.1576690673828125
1782845832133919200,5.327919189453125,-0.957489013671875,-0.136016845703125,0.1574554443359375
1782845832143924200,5.33792431640625,-0.9606475830078125,-0.136444091796875,0.1573333740234375
1782845832153929200,5.34792919921875,-0.9630279541015625,-0.135101318359375,0.157196044921875
1782845832163934500,5.3579345703125,-0.9665374755859375,-0.134490966796875,0.154144287109375
1782845832173939500,5.367939453125,-0.9670867919921875,-0.1347198486328125,0.1518402099609375
1782845832183944400,5.3779443359375,-0.966339111328125,-0.134246826171875,0.148773193359375
1782845832193949400,5.387949462890625,-0.968841552734375,-0.1320343017578125,0.1455535888671875
1782845832203954400,5.397954345703125,-0.964263916015625,-0.1340179443359375,0.1445770263671875
1782845832213959400,5.40795947265625,-0.96258544921875,-0.13427734375,0.1436309814453125
1782845832223963100,5.417963134765625,-0.9617919921875,-0.1381378173828125,0.1438140869140625
1782845832233968400,5.427968505859375,-0.962127685546875,-0.1390838623046875,0.144989013671875
1782845832243973400,5.437973388671875,-0.965972900390625,-0.1386871337890625,0.1440582275390625
1782845832253978400,5.447978271484375,-0.9720458984375,-0.1345977783203125,0.143585205078125
1782845832263983400,5.4579833984375,-0.9765777587890625,-0.1328582763671875,0.1425933837890625
1782845832273988400,5.46798828125,-0.9784698486328125,-0.1344451904296875,0.1428375244140625
1782845832283993300,5.477993408203125,-0.9823455810546875,-0.13458251953125,0.1399383544921875
1782845832293998300,5.487998291015625,-0.9847869873046875,-0.1342010498046875,0.1436767578125
1782845832304003300,5.49800341796875,-0.987335205078125,-0.1381378173828125,0.1475067138671875
1782845832314008300,5.50800830078125,-0.9864654541015625,-0.1405029296875,0.1512603759765625
1782845832324013300,5.518013427734375,-0.9827728271484375,-0.138702392578125,0.15460205078125
1782845832334018600,5.5280185546875,-0.9747161865234375,-0.136627197265625,0.15362548828125
1782845832344023600,5.5380234375,-0.9700775146484375,-0.1376190185546875,0.1482696533203125
1782845832354028500,5.548028564453125,-0.9699859619140625,-0.1326141357421875,0.1443023681640625
1782845832364033500,5.558033447265625,-0.971405029296875,-0.1292572021484375,0.1423492431640625
1782845832374038500,5.56803857421875,-0.9719390869140625,-0.1279296875,0.1404266357421875
1782845832384043500,5.57804345703125,-0.9704742431640625,-0.131561279296875,0.14068603515625
1782845832394048500,5.588048583984375,-0.96722412109375,-0.1329803466796875,0.14190673828125
1782845832404053500,5.598053466796875,-0.966064453125,-0.1301727294921875,0.141021728515625
1782845832414058500,5.60805859375,-0.9640960693359375,-0.1328887939453125,0.142425537109375
1782845832424063500,5.6180634765625,-0.965179443359375,-0.135009765625,0.1466522216796875
1782845832434068500,5.628068359375,-0.972869873046875,-0.1373291015625,0.1497802734375
1782845832444073500,5.638073486328125,-0.974517822265625,-0.1400146484375,0.1542205810546875
1782845832454078500,5.648078369140625,-0.9759674072265625,-0.14031982421875,0.158660888671875
1782845832464083500,5.65808349609375,-0.9749908447265625,-0.1398162841796875,0.154571533203125
1782845832474088400,5.66808837890625,-0.9693145751953125,-0.136688232421875,0.1525115966796875
1782845832484093400,5.678093505859375,-0.9623870849609375,-0.1339111328125,0.149810791015625
1782845832494098400,5.688098388671875,-0.9628143310546875,-0.1321868896484375,0.1443023681640625
1782845832504103400,5.698103515625,-0.9647979736328125,-0.1318206787109375,0.1454620361328125
1782845832514108400,5.7081083984375,-0.966552734375,-0.1320648193359375,0.14794921875
1782845832524113400,5.718113525390625,-0.969879150390625,-0.132110595703125,0.1503143310546875
1782845832534118400,5.728118408203125,-0.9715423583984375,-0.132843017578125,0.1510772705078125
1782845832544123400,5.738123291015625,-0.9700775146484375,-0.1345977783203125,0.154083251953125
1782845832554128400,5.74812841796875,-0.9716033935546875,-0.1370391845703125,0.1527252197265625
1782845832564133400,5.75813330078125,-0.972076416015625,-0.1370086669921875,0.1540069580078125
1782845832574138400,5.768138427734375,-0.971343994140625,-0.1402587890625,0.1530303955078125
1782845832584143400,5.778143310546875,-0.9717864990234375,-0.142578125,0.151336669921875
1782845832594148400,5.7881484375,-0.9713287353515625,-0.1413421630859375,0.1471710205078125
1782845832604152300,5.79815234375,-0.9715118408203125,-0.1383056640625,0.1442413330078125
1782845832614157300,5.8081572265625,-0.9766845703125,-0.13555908203125,0.143096923828125
1782845832624162600,5.81816259765625,-0.9807281494140625,-0.1351470947265625,0.1414947509765625
1782845832634167600,5.82816748046875,-0.9848785400390625,-0.13446044921875,0.1410369873046875
1782845832644172500,5.838172607421875,-0.9852294921875,-0.13311767578125,0.1450653076171875
1782845832654177500,5.848177490234375,-0.9827880859375,-0.1378936767578125,0.14813232421875
1782845832664182500,5.8581826171875,-0.97802734375,-0.14007568359375,0.15191650390625
1782845832674187500,5.8681875,-0.9722442626953125,-0.1415557861328125,0.1498870849609375
1782845832684192500,5.878192626953125,-0.9640350341796875,-0.1449737548828125,0.147247314453125
1782845832694197500,5.888197509765625,-0.95782470703125,-0.14056396484375,0.14404296875
1782845832704202500,5.898202392578125,-0.958984375,-0.1383514404296875,0.1435546875
1782845832714207500,5.90820751953125,-0.9592132568359375,-0.136749267578125,0.143035888671875
1782845832724212500,5.91821240234375,-0.9624481201171875,-0.136322021484375,0.1462554931640625
1782845832734217500,5.928217529296875,-0.9677886962890625,-0.1365814208984375,0.148284912109375
1782845832744222500,5.938222412109375,-0.968048095703125,-0.1357574462890625,0.147735595703125
1782845832754227500,5.9482275390625,-0.9660491943359375,-0.1371917724609375,0.1503753662109375
1782845832764232400,5.958232421875,-0.9606475830078125,-0.1392822265625,0.1506500244140625
1782845832774237400,5.968237548828125,-0.9569549560546875,-0.1407928466796875,0.15020751953125
1782845832784242400,5.978242431640625,-0.9530181884765625,-0.1412200927734375,0.149871826171875
1782845832794247400,5.988247314453125,-0.9576568603515625,-0.1414947509765625,0.149200439453125
1782845832804252400,5.99825244140625,-0.96502685546875,-0.1418914794921875,0.145904541015625
1782845832814257400,6.00825732421875,-0.9741058349609375,-0.1405029296875,0.147125244140625
1782845832824262400,6.018262451171875,-0.98193359375,-0.138214111328125,0.1474609375
1782845832834267400,6.028267333984375,-0.9865875244140625,-0.1383209228515625,0.1479034423828125
1782845832844272400,6.0382724609375,-0.9860992431640625,-0.13641357421875,0.1458587646484375
1782845832854277400,6.04827734375,-0.9826507568359375,-0.1383209228515625,0.144989013671875
1782845832864282400,6.058282470703125,-0.9784088134765625,-0.1361083984375,0.1468658447265625
1782845832874287400,6.068287353515625,-0.9713287353515625,-0.1385955810546875,0.1465911865234375
1782845832884292400,6.078292236328125,-0.9697265625,-0.14007568359375,0.141204833984375
1782845832894297300,6.08829736328125,-0.9684600830078125,-0.13751220703125,0.1402435302734375
1782845832904302300,6.09830224609375,-0.9706878662109375,-0.1372833251953125,0.1448516845703125
1782845832914307300,6.108307373046875,-0.973663330078125,-0.1363677978515625,0.1449432373046875
1782845832924312300,6.118312255859375,-0.9716796875,-0.135955810546875,0.14691162109375
1782845832934317300,6.1283173828125,-0.96783447265625,-0.1348114013671875,0.1491851806640625
1782845832944322300,6.138322265625,-0.9622039794921875,-0.1402587890625,0.150054931640625
1782845832954326300,6.148326171875,-0.9592437744140625,-0.1422576904296875,0.1501922607421875
1782845832964331300,6.158331298828125,-0.9579620361328125,-0.142578125,0.1515350341796875
1782845832974336500,6.16833642578125,-0.9612579345703125,-0.1430816650390625,0.1512298583984375
1782845832984341500,6.178341552734375,-0.9639434814453125,-0.1402740478515625,0.1528472900390625
1782845832994346500,6.188346435546875,-0.9675140380859375,-0.139892578125,0.148101806640625
1782845833004351500,6.1983515625,-0.9680328369140625,-0.1380157470703125,0.1480255126953125
1782845833014356500,6.2083564453125,-0.968536376953125,-0.1361236572265625,0.1438751220703125
1782845833024361500,6.218361572265625,-0.969451904296875,-0.1361846923828125,0.1450347900390625
1782845833034366500,6.228366455078125,-0.972198486328125,-0.1345672607421875,0.1435089111328125
1782845833044371500,6.238371337890625,-0.977264404296875,-0.13623046875,0.1444854736328125
1782845833054376400,6.24837646484375,-0.97674560546875,-0.1395416259765625,0.145751953125
1782845833064381400,6.25838134765625,-0.972930908203125,-0.14093017578125,0.1479339599609375
1782845833074386400,6.268386474609375,-0.9719085693359375,-0.1441650390625,0.1490936279296875
1782845833084391400,6.278391357421875,-0.9686126708984375,-0.144195556640625,0.1478424072265625
1782845833094396400,6.288396484375,-0.968780517578125,-0.141998291015625,0.1474456787109375
1782845833104401400,6.2984013671875,-0.9723968505859375,-0.14007568359375,0.1479949951171875
1782845833114406400,6.308406494140625,-0.975616455078125,-0.138336181640625,0.1477508544921875
1782845833124411400,6.318411376953125,-0.9767913818359375,-0.1376953125,0.1475067138671875
1782845833134416100,6.328416015625,-0.9763031005859375,-0.1381988525390625,0.14447021484375
1782845833144421000,6.338421142578125,-0.97222900390625,-0.1375274658203125,0.1426849365234375
1782845833154426000,6.348426025390625,-0.970123291015625,-0.1382598876953125,0.1407318115234375
1782845833164431000,6.35843115234375,-0.9679718017578125,-0.139251708984375,0.141357421875
1782845833174436000,6.36843603515625,-0.964996337890625,-0.141326904296875,0.1425323486328125
1782845833184441000,6.378441162109375,-0.9633026123046875,-0.14508056640625,0.1445159912109375
1782845833194446000,6.388446044921875,-0.962432861328125,-0.145599365234375,0.144989013671875
1782845833204451000,6.398451171875,-0.9636383056640625,-0.1422576904296875,0.147430419921875
1782845833214456000,6.4084560546875,-0.96990966796875,-0.141143798828125,0.1455841064453125
1782845833224461000,6.4184609375,-0.9776153564453125,-0.140960693359375,0.145843505859375
1782845833234466000,6.428466064453125,-0.982025146484375,-0.1388092041015625,0.1438140869140625
1782845833244471000,6.438470947265625,-0.9835662841796875,-0.1361236572265625,0.148468017578125
1782845833254476000,6.44847607421875,-0.9824981689453125,-0.1385650634765625,0.14788818359375
1782845833264481000,6.45848095703125,-0.97686767578125,-0.139556884765625,0.15081787109375
1782845833274486000,6.468486083984375,-0.9718475341796875,-0.14141845703125,0.1503753662109375
1782845833284491000,6.478490966796875,-0.9661102294921875,-0.14166259765625,0.1473846435546875
1782845833294496000,6.48849609375,-0.96807861328125,-0.141815185546875,0.1456146240234375
1782845833304501000,6.4985009765625,-0.9713897705078125,-0.1407012939453125,0.14337158203125
1782845833314505200,6.508505126953125,-0.9749603271484375,-0.139434814453125,0.14593505859375
1782845833324510200,6.51851025390625,-0.972076416015625,-0.140960693359375,0.1528167724609375
1782845833334515200,6.52851513671875,-0.970550537109375,-0.14337158203125,0.1524810791015625
1782845833344520200,6.538520263671875,-0.965911865234375,-0.14105224609375,0.1505126953125
1782845833354525200,6.548525146484375,-0.96282958984375,-0.141143798828125,0.1488494873046875
1782845833364530200,6.5585302734375,-0.96063232421875,-0.142578125,0.150115966796875
1782845833374535200,6.56853515625,-0.9595947265625,-0.142913818359375,0.1493682861328125
1782845833384540200,6.5785400390625,-0.9602508544921875,-0.1404266357421875,0.1485443115234375
1782845833394545200,6.588545166015625,-0.960723876953125,-0.1395263671875,0.146209716796875
1782845833404550100,6.598550048828125,-0.9618988037109375,-0.13824462890625,0.1444244384765625
1782845833414555100,6.60855517578125,-0.960205078125,-0.139404296875,0.1438446044921875
1782845833424560000,6.61856005859375,-0.9632110595703125,-0.14117431640625,0.145416259765625
1782845833434565000,6.628565185546875,-0.96453857421875,-0.1417083740234375,0.1490020751953125
1782845833444570000,6.638570068359375,-0.9670257568359375,-0.1424407958984375,0.1484222412109375
1782845833454575000,6.6485751953125,-0.97052001953125,-0.1431121826171875,0.147857666015625
1782845833464580000,6.658580078125,-0.9751434326171875,-0.142425537109375,0.1494293212890625
1782845833474585000,6.668585205078125,-0.98046875,-0.1401824951171875,0.1505126953125
1782845833484590000,6.678590087890625,-0.9836578369140625,-0.139984130859375,0.1493988037109375
1782845833494595000,6.688594970703125,-0.988311767578125,-0.1414337158203125,0.151275634765625
1782845833504600000,6.69860009765625,-0.9872589111328125,-0.141326904296875,0.151611328125
1782845833514605000,6.70860498046875,-0.981658935546875,-0.1424560546875,0.151336669921875
1782845833524610000,6.718610107421875,-0.9748382568359375,-0.140838623046875,0.1506805419921875
1782845833534615000,6.728614990234375,-0.9677734375,-0.14044189453125,0.1480560302734375
1782845833544620000,6.7386201171875,-0.9614105224609375,-0.139984130859375,0.145416259765625
1782845833554625000,6.748625,-0.95623779296875,-0.1412200927734375,0.1450042724609375
1782845833564630000,6.758630126953125,-0.9547882080078125,-0.1419525146484375,0.1443939208984375
1782845833574635000,6.768635009765625,-0.957916259765625,-0.1395263671875,0.143096923828125
1782845833584640000,6.778639892578125,-0.9612274169921875,-0.1388092041015625,0.1445770263671875
1782845833594645000,6.78864501953125,-0.9645843505859375,-0.1395416259765625,0.144683837890625
1782845833604650000,6.79864990234375,-0.9649810791015625,-0.142059326171875,0.14599609375
1782845833614655000,6.808655029296875,-0.9704437255859375,-0.1436309814453125,0.1461944580078125
1782845833624660000,6.818659912109375,-0.9745330810546875,-0.144317626953125,0.14593505859375
1782845833634665000,6.8286650390625,-0.9766845703125,-0.144256591796875,0.1456146240234375
1782845833644670000,6.838669921875,-0.979278564453125,-0.1450653076171875,0.146636962890625
1782845833654675000,6.848675048828125,-0.9795989990234375,-0.1432342529296875,0.1456146240234375
1782845833664680000,6.858679931640625,-0.9775390625,-0.1424560546875,0.1453399658203125
1782845833674684200,6.86868408203125,-0.976776123046875,-0.14044189453125,0.146514892578125
1782845833684689200,6.878689208984375,-0.974365234375,-0.1402587890625,0.14837646484375
1782845833694694100,6.888694091796875,-0.9655914306640625,-0.141693115234375,0.1504669189453125
1782845833704699100,6.89869921875,-0.9623565673828125,-0.14251708984375,0.15264892578125
1782845833714704100,6.9087041015625,-0.95892333984375,-0.1448974609375,0.153106689453125
1782845833724709000,6.918709228515625,-0.96014404296875,-0.144287109375,0.1506500244140625
1782845833734714000,6.928714111328125,-0.96539306640625,-0.1428680419921875,0.1513519287109375
1782845833744719000,6.938718994140625,-0.9708099365234375,-0.141510009765625,0.147705078125
1782845833754724000,6.94872412109375,-0.9744110107421875,-0.1386871337890625,0.1451873779296875
1782845833764729000,6.95872900390625,-0.9754791259765625,-0.138275146484375,0.1434783935546875
1782845833774734000,6.968734130859375,-0.9719085693359375,-0.13922119140625,0.1424713134765625
1782845833784739000,6.978739013671875,-0.9680023193359375,-0.1436614990234375,0.1457672119140625
1782845833794744000,6.988744140625,-0.9618377685546875,-0.1462249755859375,0.1480255126953125
1782845833804749000,6.9987490234375,-0.9586029052734375,-0.1483917236328125,0.148162841796875
1782845833814754000,7.008754150390625,-0.95623779296875,-0.1490020751953125,0.1494140625
1782845833824759000,7.018759033203125,-0.95703125,-0.1456451416015625,0.1446685791015625
1782845833834764000,7.028763916015625,-0.9650726318359375,-0.14453125,0.1438446044921875
1782845833844769000,7.03876904296875,-0.9749603271484375,-0.14166259765625,0.141448974609375
1782845833854774000,7.04877392578125,-0.984771728515625,-0.13720703125,0.14202880859375
1782845833864779000,7.058779052734375,-0.9901885986328125,-0.1359710693359375,0.143096923828125
1782845833874784000,7.068783935546875,-0.98992919921875,-0.1378631591796875,0.1446990966796875
1782845833884789000,7.0787890625,-0.9872283935546875,-0.1404571533203125,0.145477294921875
1782845833894794000,7.0887939453125,-0.9784698486328125,-0.14385986328125,0.146087646484375
1782845833904799000,7.098799072265625,-0.973052978515625,-0.1439361572265625,0.146728515625
1782845833914804000,7.108803955078125,-0.9686126708984375,-0.1448516845703125,0.1521453857421875
1782845833924809200,7.118809326171875,-0.9651641845703125,-0.147308349609375,0.1553497314453125
1782845833934814200,7.128814208984375,-0.9648895263671875,-0.146209716796875,0.1535186767578125
1782845833944819200,7.138819091796875,-0.963134765625,-0.142913818359375,0.151611328125
1782845833954824200,7.14882421875,-0.9622344970703125,-0.14111328125,0.1511688232421875
1782845833964829200,7.1588291015625,-0.961029052734375,-0.1391754150390625,0.1470184326171875
1782845833974834200,7.168834228515625,-0.9609832763671875,-0.1402587890625,0.144012451171875
1782845833984839200,7.178839111328125,-0.9601593017578125,-0.142120361328125,0.1453094482421875
1782845833994844200,7.18884423828125,-0.9638671875,-0.144378662109375,0.147613525390625
1782845834004848000,7.19884814453125,-0.968994140625,-0.143402099609375,0.146575927734375
1782845834014853000,7.20885302734375,-0.9727325439453125,-0.1414642333984375,0.14697265625
1782845834024858000,7.218858154296875,-0.972320556640625,-0.1436614990234375,0.1489715576171875
1782845834034863000,7.228863037109375,-0.9718170166015625,-0.146240234375,0.1479949951171875
1782845834044868000,7.2388681640625,-0.9698333740234375,-0.1461029052734375,0.145294189453125
1782845834054873000,7.248873046875,-0.968841552734375,-0.1439208984375,0.14593505859375
1782845834064878000,7.258878173828125,-0.9682769775390625,-0.1439056396484375,0.1480865478515625
1782845834074883000,7.268883056640625,-0.967132568359375,-0.145904541015625,0.147552490234375
1782845834084888000,7.27888818359375,-0.97021484375,-0.1439361572265625,0.146240234375
1782845834094893300,7.288893310546875,-0.97442626953125,-0.1393890380859375,0.146087646484375
1782845834104898300,7.298898193359375,-0.9762725830078125,-0.1404876708984375,0.145904541015625
1782845834114903300,7.3089033203125,-0.9783935546875,-0.14007568359375,0.14996337890625
1782845834124908300,7.318908203125,-0.97705078125,-0.142303466796875,0.1531524658203125
1782845834134913300,7.328913330078125,-0.971160888671875,-0.1458282470703125,0.1529083251953125
1782845834144918300,7.338918212890625,-0.9669952392578125,-0.145355224609375,0.1507720947265625
1782845834154923300,7.34892333984375,-0.96044921875,-0.146331787109375,0.1507110595703125
1782845834164928300,7.35892822265625,-0.9571380615234375,-0.1435546875,0.1491241455078125
1782845834174933200,7.368933349609375,-0.9578399658203125,-0.1428985595703125,0.1443023681640625
1782845834184938200,7.378938232421875,-0.961883544921875,-0.1427154541015625,0.142486572265625
1782845834194943500,7.388943603515625,-0.9682159423828125,-0.14117431640625,0.1425018310546875
1782845834204948500,7.398948486328125,-0.9720001220703125,-0.1406097412109375,0.1449432373046875
1782845834214953500,7.408953369140625,-0.9698944091796875,-0.145050048828125,0.1476898193359375
1782845834224958500,7.41895849609375,-0.969818115234375,-0.14697265625,0.14813232421875
1782845834234963500,7.42896337890625,-0.968963623046875,-0.1473541259765625,0.14703369140625
1782845834244968400,7.438968505859375,-0.9700469970703125,-0.146331787109375,0.1468505859375
1782845834254973400,7.448973388671875,-0.9737396240234375,-0.1451263427734375,0.147705078125
1782845834264978400,7.458978515625,-0.9744873046875,-0.1449737548828125,0.1436614990234375
1782845834274983400,7.4689833984375,-0.97882080078125,-0.14312744140625,0.142120361328125
1782845834284988400,7.478988525390625,-0.98077392578125,-0.141448974609375,0.1413116455078125
1782845834294993400,7.488993408203125,-0.98126220703125,-0.143890380859375,0.1438446044921875
1782845834304998400,7.498998291015625,-0.9782867431640625,-0.144775390625,0.14385986328125
1782845834315003400,7.50900341796875,-0.974884033203125,-0.1461181640625,0.1463623046875
1782845834325008400,7.51900830078125,-0.9694061279296875,-0.1459197998046875,0.1470794677734375
1782845834335012000,7.52901220703125,-0.9673919677734375,-0.1461639404296875,0.14776611328125
1782845834345017000,7.53901708984375,-0.96282958984375,-0.1445770263671875,0.1466064453125
1782845834355022000,7.54902197265625,-0.963287353515625,-0.144866943359375,0.1466064453125
1782845834365027300,7.55902734375,-0.9609527587890625,-0.14459228515625,0.14410400390625
1782845834375032300,7.5690322265625,-0.960418701171875,-0.1442718505859375,0.142181396484375
1782845834385037300,7.579037353515625,-0.961273193359375,-0.1448211669921875,0.1417999267578125
1782845834395042300,7.589042236328125,-0.9638671875,-0.14495849609375,0.143218994140625
1782845834405047300,7.59904736328125,-0.9678192138671875,-0.147369384765625,0.1436309814453125
1782845834415052300,7.60905224609375,-0.9695587158203125,-0.145477294921875,0.1417999267578125
1782845834425057500,7.6190576171875,-0.9725494384765625,-0.14337158203125,0.145751953125
1782845834435062500,7.6290625,-0.9752349853515625,-0.1447906494140625,0.1465301513671875
1782845834445067500,7.639067626953125,-0.9767303466796875,-0.1463165283203125,0.148529052734375
1782845834455072500,7.649072509765625,-0.976287841796875,-0.1460723876953125,0.149444580078125
1782845834465077500,7.659077392578125,-0.9759521484375,-0.1466217041015625,0.1491546630859375
1782845834475082500,7.66908251953125,-0.9731597900390625,-0.1441802978515625,0.148956298828125
1782845834485087500,7.67908740234375,-0.97271728515625,-0.1422271728515625,0.1461639404296875
1782845834495092500,7.689092529296875,-0.9702301025390625,-0.142852783203125,0.143890380859375
1782845834505097500,7.699097412109375,-0.969879150390625,-0.143768310546875,0.14239501953125
1782845834515102500,7.7091025390625,-0.9701690673828125,-0.1434326171875,0.144775390625
1782845834525107500,7.719107421875,-0.9715728759765625,-0.142242431640625,0.1492462158203125
1782845834535112400,7.729112548828125,-0.971160888671875,-0.1448974609375,0.1521148681640625
1782845834545117400,7.739117431640625,-0.9665069580078125,-0.145965576171875,0.155303955078125
1782845834555122400,7.749122314453125,-0.96173095703125,-0.1476898193359375,0.1547088623046875
1782845834565127400,7.75912744140625,-0.9616851806640625,-0.1468353271484375,0.1542205810546875
1782845834575132400,7.76913232421875,-0.9625396728515625,-0.14544677734375,0.150604248046875
1782845834585137400,7.779137451171875,-0.9640655517578125,-0.143585205078125,0.1466064453125
1782845834595142400,7.789142333984375,-0.9663848876953125,-0.141021728515625,0.14422607421875
1782845834605147400,7.7991474609375,-0.9666595458984375,-0.1403961181640625,0.1399688720703125
1782845834615152400,7.80915234375,-0.967742919921875,-0.1378173828125,0.1403350830078125
1782845834625157400,7.819157470703125,-0.967193603515625,-0.135589599609375,0.14111328125
1782845834635162400,7.829162353515625,-0.9639129638671875,-0.140472412109375,0.143280029296875
1782845834645166300,7.839166259765625,-0.96234130859375,-0.14605712890625,0.144287109375
1782845834655171300,7.84917138671875,-0.9623870849609375,-0.1481475830078125,0.148284912109375
1782845834665176300,7.85917626953125,-0.9714202880859375,-0.1459808349609375,0.148193359375
1782845834675181300,7.869181396484375,-0.9794158935546875,-0.1446075439453125,0.1450958251953125
1782845834685186300,7.879186279296875,-0.9805908203125,-0.142425537109375,0.143798828125
1782845834695191300,7.88919140625,-0.983978271484375,-0.1416778564453125,0.1437835693359375
1782845834705196300,7.8991962890625,-0.9823760986328125,-0.1437225341796875,0.1426544189453125
1782845834715201300,7.909201171875,-0.9777679443359375,-0.1422271728515625,0.1459808349609375
1782845834725206300,7.919206298828125,-0.9722747802734375,-0.1425323486328125,0.147308349609375
1782845834735211300,7.929211181640625,-0.966339111328125,-0.1423492431640625,0.14910888671875
1782845834745216300,7.93921630859375,-0.9636383056640625,-0.14447021484375,0.149322509765625
1782845834755221200,7.94922119140625,-0.9618377685546875,-0.1450347900390625,0.146514892578125
1782845834765226200,7.959226318359375,-0.961883544921875,-0.14434814453125,0.144927978515625
1782845834775231500,7.9692314453125,-0.9619598388671875,-0.1448974609375,0.14300537109375
1782845834785236500,7.979236572265625,-0.9626922607421875,-0.145294189453125,0.14013671875
1782845834795241500,7.989241455078125,-0.9647369384765625,-0.146331787109375,0.1420135498046875
1782845834805246500,7.99924658203125,-0.968353271484375,-0.1449737548828125,0.143463134765625
1782845834815251500,8.00925146484375,-0.972991943359375,-0.1446075439453125,0.145538330078125
1782845834825256400,8.01925634765625,-0.972503662109375,-0.1418304443359375,0.147613525390625
1782845834835261400,8.029261474609376,-0.973968505859375,-0.143798828125,0.1473236083984375
1782845834845266400,8.039266357421875,-0.975494384765625,-0.143646240234375,0.146240234375
1782845834855271400,8.049271484375,-0.9770050048828125,-0.143402099609375,0.146331787109375
1782845834865276400,8.0592763671875,-0.9803924560546875,-0.1427154541015625,0.1457977294921875
1782845834875281400,8.069281494140625,-0.9776153564453125,-0.1439666748046875,0.1463775634765625
1782845834885286400,8.079286376953124,-0.9727935791015625,-0.1438140869140625,0.1459808349609375
1782845834895291400,8.08929150390625,-0.9665069580078125,-0.1450653076171875,0.1468658447265625
1782845834905296400,8.09929638671875,-0.96185302734375,-0.149139404296875,0.1455230712890625
1782845834915301400,8.10930126953125,-0.959869384765625,-0.147979736328125,0.1493988037109375
1782845834925306400,8.119306396484374,-0.9576263427734375,-0.1476898193359375,0.1508026123046875
1782845834935311400,8.129311279296875,-0.9621429443359375,-0.146514892578125,0.1492462158203125
1782845834945316400,8.13931640625,-0.9693145751953125,-0.147003173828125,0.147003173828125
1782845834955320300,8.1493203125,-0.9730224609375,-0.1451568603515625,0.1468353271484375
1782845834965325300,8.1593251953125,-0.9794158935546875,-0.145050048828125,0.1472625732421875
1782845834975330300,8.169330322265624,-0.9831695556640625,-0.1447296142578125,0.1461334228515625
1782845834985335300,8.179335205078125,-0.97991943359375,-0.1448211669921875,0.1434326171875
1782845834995340300,8.18934033203125,-0.9739227294921875,-0.145294189453125,0.139923095703125
1782845835005345300,8.19934521484375,-0.967041015625,-0.1464385986328125,0.13641357421875
1782845835015350300,8.209350341796876,-0.9606781005859375,-0.146697998046875,0.136627197265625
1782845835025355300,8.219355224609375,-0.961181640625,-0.1460113525390625,0.1383056640625
1782845835035360300,8.2293603515625,-0.96270751953125,-0.146453857421875,0.13934326171875
1782845835045365200,8.239365234375,-0.969207763671875,-0.1444091796875,0.1385345458984375
1782845835055370200,8.249370361328126,-0.975128173828125,-0.144927978515625,0.1414794921875
1782845835065375200,8.259375244140625,-0.981964111328125,-0.14666748046875,0.145751953125
1782845835075380200,8.269380126953125,-0.9846649169921875,-0.145050048828125,0.150909423828125
1782845835085385200,8.27938525390625,-0.982330322265625,-0.14703369140625,0.154815673828125
1782845835095390200,8.28939013671875,-0.9782562255859375,-0.14764404296875,0.1549530029296875
1782845835105395200,8.299395263671874,-0.9715423583984375,-0.1472320556640625,0.1508331298828125
1782845835115400200,8.309400146484375,-0.9661865234375,-0.144439697265625,0.1472015380859375
1782845835125405200,8.3194052734375,-0.9647369384765625,-0.143798828125,0.1492919921875
1782845835135410200,8.32941015625,-0.964996337890625,-0.14373779296875,0.1504669189453125
1782845835145415200,8.339415283203126,-0.9643096923828125,-0.142822265625,0.1549224853515625
1782845835155420200,8.349420166015625,-0.9620208740234375,-0.14483642578125,0.1545257568359375
1782845835165425200,8.359425048828125,-0.9603271484375,-0.14508056640625,0.1551055908203125
1782845835175430100,8.36943017578125,-0.955291748046875,-0.1468658447265625,0.153778076171875
1782845835185435100,8.37943505859375,-0.9546356201171875,-0.1492462158203125,0.1513824462890625
1782845835195440000,8.389440185546874,-0.9569854736328125,-0.1495819091796875,0.15093994140625
1782845835205445000,8.399445068359375,-0.962188720703125,-0.14764404296875,0.1509857177734375
1782845835215450000,8.4094501953125,-0.9694671630859375,-0.1456298828125,0.1476898193359375
1782845835225455000,8.419455078125,-0.973907470703125,-0.1439361572265625,0.1446075439453125
1782845835235460000,8.429460205078126,-0.9733734130859375,-0.144927978515625,0.14154052734375
1782845835245465000,8.439465087890625,-0.9735107421875,-0.1457061767578125,0.1385498046875
1782845835255470000,8.449469970703126,-0.979217529296875,-0.1425933837890625,0.1341705322265625
1782845835265474000,8.45947412109375,-0.9473114013671875,-0.1473388671875,0.14044189453125
1782845835275479000,8.46947900390625,-0.948211669921875,-0.160003662109375,0.1483917236328125
1782845835285484000,8.479484130859374,-0.9556121826171875,-0.1567840576171875,0.16119384765625
1782845835295489000,8.489489013671875,-0.98516845703125,-0.15411376953125,0.1611480712890625
1782845835305494000,8.499493896484376,-1.003570556640625,-0.1497802734375,0.1511993408203125
1782845835315499000,8.5094990234375,-0.996795654296875,-0.1419219970703125,0.1473236083984375
1782845835325504000,8.51950390625,-0.99005126953125,-0.149200439453125,0.1434173583984375
1782845835335509000,8.529509033203125,-0.9750823974609375,-0.154449462890625,0.1478118896484375
