time,seconds_elapsed,z,y,x
1782846960691705900,0.083705810546875,-8.066741100370884,0.23687281962037085,3.548561665138602
1782846960701710800,0.0937109375,-11.643110225367545,-0.4370967012792825,4.701817508271336
1782846960711715800,0.1037158203125,-14.546629188883303,-2.867556546513736,3.3546056117028
1782846960721720800,0.113720947265625,-15.709177761018275,-5.378470569166541,0.49034313829839227
1782846960731726800,0.123726806640625,-15.401160444116591,-6.112904203379154,-1.1337011017046867
1782846960741731800,0.13373193359375,-14.886082093012332,-3.4686490472510454,-0.18398769019432365
1782846960751736800,0.14373681640625,-14.64361773699522,-0.10012786905094981,1.0413177823659032
1782846960761741800,0.153741943359375,-14.139369407463073,2.049575737303495,1.6653467028588056
1782846960771746800,0.163746826171875,-13.437106104493141,2.2144947890862823,2.0759471730090677
1782846960781751800,0.173751708984375,-11.81688390699625,0.5719682591922581,2.0286106906861066
1782846960791756800,0.1837568359375,-9.01735781739652,-2.033359200387448,1.1282715509366243
1782846960801763000,0.19376318359375,-5.274173159345984,-4.91852432269752,0.22906185360848902
1782846960811768000,0.20376806640625,-1.3043705337077378,-6.805265705537796,0.3631190994638949
1782846960821773000,0.21377294921875,1.882013185274601,-5.950552079474925,0.1574267963312566
1782846960831778000,0.223778076171875,2.617459211400151,-4.708628941851854,-0.9512276885308325
1782846960841783000,0.233782958984375,1.5393436571866272,-3.448960888701677,-2.347326219473779
1782846960851788000,0.2437880859375,0.16101999851763246,-1.845376083881408,-3.448024484634399
1782846960861793000,0.25379296875,-0.6738128690332174,-0.74185267829746,-4.073609621593356
1782846960871799000,0.263799072265625,-0.7892378220677375,0.19635332383587956,-3.633696693849563
1782846960881804000,0.273803955078125,-0.5981108545780182,1.1636669086404143,-2.1780679694429037
1782846960891809000,0.28380908203125,-0.6411269894838333,1.795018646302074,-1.447624866171181
1782846960901814000,0.29381396484375,0.7518377734780312,1.8849379866801201,-0.8505226041138172
1782846960911819000,0.303819091796875,2.381554360029101,1.6661049738802014,-0.2347222174577415
1782846960921824000,0.313823974609375,3.5772312947839495,1.5468886657387018,0.18245792334377764
1782846960931829000,0.3238291015625,4.489219298207759,1.5584696518085897,0.09670417821258306
1782846960941835000,0.3338349609375,5.223631305110454,1.586352807251364,0.04842391223348677
1782846960951840000,0.343840087890625,5.925452125009894,1.4783523051291703,0.09802132522575557
1782846960961845000,0.353844970703125,6.459732020190358,1.4191926985435186,-0.368341948678717
1782846960971850000,0.36385009765625,6.6362658141821615,1.5201397750228642,-0.8810665031984448
1782846960981855700,0.373855712890625,6.067783205148578,1.5389783310055731,-0.7743623975623398
1782846960991860700,0.38386083984375,5.608807265016436,1.3974708422094582,-0.06354688175916672
1782846961001866500,0.393866455078125,5.560359752711653,1.271941551528871,1.0092756075475364
1782846961011871500,0.40387158203125,5.575947782465815,1.0938397045027464,2.2218480744585394
1782846961021876500,0.41387646484375,5.655178555569052,0.8817791815124452,2.9607594386070963
1782846961031881500,0.423881591796875,5.571307847705483,0.7647962584462016,2.8835288994103667
1782846961041886500,0.433886474609375,5.032162392315268,0.9357575130026787,2.1554496026605365
1782846961051891500,0.443891357421875,4.3036318446666,1.1919107871543615,1.3411822610154747
1782846961061896400,0.453896484375,3.545680556744337,1.4008493787318468,0.589798295719549
1782846961071902500,0.46390234375,2.7256442763090134,1.4083629692323505,-0.2514212041284889
1782846961081907500,0.473907470703125,1.8495383181273937,1.35446055252254,-1.1384487346231937
1782846961091912400,0.483912353515625,0.9412240347802638,1.0923346337020396,-2.1308426924094555
1782846961101917400,0.49391748046875,-0.33616204589009285,0.8589240833647549,-2.8569755312666296
1782846961111922400,0.50392236328125,-2.470485273891687,0.5184949546147137,-3.2804955426141618
1782846961121927400,0.513927490234375,-4.673299854317307,-0.09371201065927744,-3.2005732801154254
1782846961131932400,0.523932373046875,-7.1563950189352035,-1.0305285311955958,-2.885838053135574
1782846961141938700,0.533938720703125,-9.603765374699234,-1.7275038838252423,-1.9348826056748627
1782846961151943700,0.543943603515625,-11.913884145545959,-2.7438854509204624,0.20362324177362023
1782846961161948700,0.55394873046875,-14.100131622052192,-4.11095764773488,3.0764211230069396
1782846961171953700,0.56395361328125,-15.58596756093502,-4.860011051191389,6.252230841004848
1782846961181958700,0.573958740234375,-16.252213794106243,-5.108364757508039,8.498203010633587
1782846961191963600,0.583963623046875,-17.15365059289932,-5.4223097108930345,8.20943926025629
1782846961201968600,0.59396875,-18.482909484148024,-4.926381465938687,5.770425229427218
1782846961211974700,0.603974609375,-19.758689298665523,-4.230284284383059,2.949016393843293
1782846961221979600,0.613979736328125,-20.311251869511604,-4.0128853960394855,0.6133990976680069
1782846961231984600,0.623984619140625,-19.66895349816084,-3.4916578746557234,-0.5585953482042998
1782846961241989600,0.63398974609375,-17.958527882647513,-2.5314701962083577,-0.8762155560359358
1782846961251994600,0.64399462890625,-15.407050086677074,-1.3637810463145374,-0.8954594048839062
1782846961261999600,0.65399951171875,-12.680982616519927,-0.1775349338583648,-0.9503161997091024
1782846961272005600,0.664005615234375,-9.906375279599427,0.869569103758782,-0.904033171961829
1782846961282010600,0.6740107421875,-6.9970870850324625,1.7468711398571728,-0.6983297629132866
1782846961292015600,0.684015625,-3.6837908043175935,2.3846777527466414,-0.534053319882974
1782846961302020600,0.6940205078125,-0.3299111688017845,2.742727805317938,-0.4248874272432178
1782846961312025600,0.704025634765625,2.7481062834858894,2.8006200223162767,-0.31604521359987553
1782846961322030600,0.714030517578125,5.509910252934694,2.772431746447086,-0.3340597033159807
1782846961332035600,0.72403564453125,7.890251730042696,2.937899079762399,-0.4503809110704809
1782846961342041600,0.73404150390625,9.844183319580555,3.265298850265145,-0.6875607508134096
1782846961352046600,0.744046630859375,11.16000639067292,3.5995951022833585,-0.9832545927148312
1782846961362051600,0.754051513671875,11.795039154934882,4.044015570579469,-1.2067751057438552
1782846961372056600,0.764056640625,11.962542085731029,4.50467873314619,-1.3703534104421733
1782846961382061600,0.7740615234375,11.87484743566513,5.031978267920017,-1.5231550311908124
1782846961392066600,0.784066650390625,11.8126472923398,5.236313092029095,-1.66502112416625
1782846961402071600,0.794071533203125,11.869916409003734,5.254768786174059,-1.684723311240971
1782846961412077600,0.80407763671875,11.886095974910258,5.311622892296314,-1.6725544422805307
1782846961422082600,0.81408251953125,11.933774256408213,5.130695831781625,-1.5475655420869587
1782846961432087600,0.824087646484375,12.250631882369518,4.7166743011415,-1.2743974202483892
1782846961442092500,0.834092529296875,12.764220871698855,4.344150609798729,-0.9756237325102091
1782846961452097500,0.84409765625,13.059676813191174,4.190259440247714,-0.5367689355172217
1782846961462102500,0.8541025390625,13.171793956851959,4.173412350343168,-0.08322240002267062
1782846961472107800,0.864107666015625,13.17171679996252,3.916922976104915,0.2155666679477319
1782846961482113500,0.874113525390625,12.986320485079288,3.7198227794244882,0.31906200413778424
1782846961492118500,0.884118408203125,12.674702513337134,3.6749914117902516,0.29536102975048123
1782846961502123500,0.89412353515625,12.143846747386455,3.7034921146094795,0.08541238434761762
1782846961512128500,0.90412841796875,11.433701751255988,3.7662776566073295,-0.0947548342430964
1782846961522133500,0.914133544921875,10.772803893375396,3.943094651454687,-0.1400951012475416
1782846961532138500,0.924138427734375,10.158621024918556,4.093769489307701,-0.20172478774115443
1782846961542144500,0.93414453125,9.611411505538225,4.144790651492774,-0.23339093232136218
1782846961552149500,0.9441494140625,9.011815965360402,4.18014867286086,-0.02936378592196852
1782846961562154500,0.954154541015625,8.598625624847411,4.129093023884296,0.12874788740091025
1782846961572159500,0.964159423828125,7.836872606554627,4.076823322942853,0.26219850913267584
1782846961582164500,0.97416455078125,6.61131666636467,4.139635752947628,0.19001776413880286
1782846961592169500,0.98416943359375,5.475702278384566,3.7899464092254638,-0.31280809484217315
1782846961602174500,0.994174560546875,4.206512948173284,2.76857302519232,-0.8797373004212975
1782846961612180500,1.004180419921875,3.0697552353769537,1.9797367696627974,-1.2443532873794436
1782846961622185500,1.014185546875,1.5873650530338286,1.5099413293525576,-1.23273153090775
1782846961632190500,1.0241904296875,-0.48184711263179775,0.5685635653153062,-1.3238193305432795
1782846961642195500,1.034195556640625,-3.084343148177862,-0.9096282885551452,-1.4792814026728272
1782846961652200400,1.044200439453125,-6.599496464711427,-2.308640807248652,-1.2131043087653814
1782846961662205400,1.054205322265625,-10.069714076453447,-2.5182380819305776,0.03628660745508969
1782846961672210400,1.06421044921875,-12.677360918891429,-1.4485145084872841,2.672761996427178
1782846961682216700,1.074216796875,-14.662646262592077,-0.46867082019448275,4.897224637298286
1782846961692221700,1.0842216796875,-15.640012454855441,-0.3611968261644244,5.6300651571005575
1782846961702226700,1.094226806640625,-16.024071393430233,-1.4865046319246291,5.08519898597598
1782846961712231700,1.104231689453125,-16.53837116137743,-3.2289865969121454,3.919647432632744
1782846961722236700,1.114236572265625,-16.631141799533367,-4.261163991293311,3.017865473663807
1782846961732241700,1.12424169921875,-15.625298869848251,-4.660847784501314,2.7229323870018125
1782846961742247700,1.13424755859375,-14.254001164293289,-4.941013217881322,3.0827012261897324
1782846961752252700,1.144252685546875,-12.664746936511992,-5.086158770918846,3.195941820922494
1782846961762257700,1.154257568359375,-10.825831719207763,-5.278305144584179,3.193327839031815
1782846961772262700,1.1642626953125,-9.088563104954362,-5.486649788856506,3.1564377857908603
1782846961782267600,1.174267578125,-7.32814859291315,-5.286428245285153,3.270612738764286
1782846961792272600,1.184272705078125,-5.598257229429483,-4.539882732996344,3.4600048452854155
1782846961802277600,1.194277587890625,-4.109842964491248,-3.3677468328267333,3.56474386139363
1782846961812283400,1.204283447265625,-2.8569360760390756,-2.1144702342793344,3.1171362874940036
1782846961822288600,1.21428857421875,-1.686334545829892,-0.9750795426309108,2.072641409461945
1782846961832293600,1.224293701171875,-0.654219695290923,0.2460112348437309,0.8163003818426281
1782846961842298600,1.234298583984375,0.48427463203966614,1.3029273491621016,-0.39644064656831324
1782846961852303600,1.2443037109375,1.845503363522887,1.879528967243433,-1.5928700801908968
1782846961862308600,1.25430859375,3.18160759062171,2.4282903922408816,-2.419621640355885
1782846961872314400,1.264314453125,4.405881089785695,2.879578115957975,-3.0685341691493986
1782846961882319600,1.274319580078125,5.345048192036152,3.1320734521239992,-3.5447616883337494
1782846961892324600,1.28432470703125,6.154309395956993,3.420480351887643,-3.5898800562158226
1782846961902329600,1.29432958984375,6.920438729637861,3.396979649312794,-3.312192703387141
1782846961912334600,1.30433447265625,7.7911366912961,3.2459353936254978,-2.7556241117700933
1782846961922339600,1.314339599609375,8.563485922405123,3.100082276840508,-2.269728892791271
1782846961932344600,1.324344482421875,9.07146291707158,2.96523775306493,-1.9672551814913748
1782846961942350600,1.3343505859375,9.305103330641984,2.6152956036254764,-1.739278785032034
1782846961952355600,1.34435546875,9.189970054030418,2.279594745506346,-1.7348606763288377
1782846961962360600,1.354360595703125,8.683589388644695,2.1655431266516447,-1.8252789061397312
1782846961972365600,1.364365478515625,8.087627236533164,2.1618448566555974,-1.8142755738273262
1782846961982370300,1.374370361328125,7.586307361668348,2.0623171454548834,-1.4508587335258722
1782846961992375300,1.384375244140625,7.018376541298627,2.353346210415661,-0.9594256080336868
1782846962002380300,1.39438037109375,6.3238984853774305,2.514141752527654,-0.4781229775421321
1782846962012386600,1.404386474609375,5.432642888858914,2.300581711694598,0.09695201549381018
1782846962022391600,1.4143916015625,4.4364749654918905,2.73802415767163,0.26295681668668985
1782846962032396500,1.424396484375,3.8126585917711258,3.4511940545812245,0.5470011373266578
1782846962042401500,1.434401611328125,2.9385756638497114,3.7742207245662804,0.9458295558143407
1782846962052406500,1.444406494140625,2.2504513608694077,3.704719026055932,1.0567843046322465
1782846962062411500,1.45441162109375,1.7222785503923892,3.216340758089721,0.9949404273986816
1782846962072417500,1.46441748046875,1.1157254461616277,2.3464979519560933,0.49726197777613995
1782846962082422500,1.474422607421875,0.6262398014754057,1.4801014868840574,-0.03979534622840583
1782846962092427500,1.484427490234375,0.0034229601860046384,0.5771709424018859,-0.24954160092696545
1782846962102432500,1.4944326171875,-0.9005991789251565,-0.705389179905504,-0.2960731966078281
1782846962112437500,1.5044375,-2.651425193887949,-2.2828464407786724,-0.024656594611704347
1782846962122442500,1.5144423828125,-5.045099615299701,-4.09314726575613,0.18412761012166737
1782846962132447500,1.524447509765625,-7.665186252593994,-5.558069011425972,0.14129311539307235
1782846962142453500,1.53445361328125,-10.73648404123783,-6.080837917032838,1.3121328382723032
1782846962152458500,1.54445849609375,-14.36386556059122,-6.025817456078529,3.539206976816058
1782846962162463500,1.55446337890625,-16.96817945921421,-5.502201578253508,5.957503213787079
1782846962172468500,1.564468505859375,-18.961894777607917,-5.0860985651642086,7.562682740452885
1782846962182473500,1.574473388671875,-21.262736601543427,-5.083461786919832,7.306597270840406
1782846962192478500,1.584478515625,-23.57215920681953,-4.915215344280004,5.310927311247587
1782846962202484500,1.594484375,-24.0637958920598,-4.717436517685652,3.3072941176906228
1782846962212489500,1.604489501953125,-22.378752555084226,-4.440495891571045,2.579693252107501
1782846962222494500,1.614494384765625,-19.26823568572998,-3.8703421344548463,2.5350077226847407
1782846962232499500,1.62449951171875,-15.483394490689038,-3.2765053039342162,2.422334552576393
1782846962242504400,1.63450439453125,-11.629634657722711,-2.7781331729590892,2.0722103245683012
1782846962252509400,1.644509521484375,-8.210196800625324,-2.0763696362048387,1.8338452205635607
1782846962262514400,1.654514404296875,-5.232224945932626,-1.207555880858004,1.7508455964460967
1782846962272520400,1.6645205078125,-2.55069395211637,-0.18191168763786553,1.4673203312441705
1782846962282525400,1.674525390625,-0.23214345301091668,0.8743447937279939,0.9179590406574308
1782846962292530400,1.684530517578125,1.8023574647575615,1.7671370982944965,0.12816782249063252
1782846962302535400,1.694535400390625,3.690173198831081,2.492017014481127,-0.6911493498899042
1782846962312540400,1.70454052734375,5.332203908032178,3.1963369577199217,-1.3401130243487656
1782846962322545400,1.71454541015625,6.865231806200742,3.675957041952014,-1.9634499439895152
1782846962332551400,1.724551513671875,8.242827150595188,3.903524565349519,-2.4049203303083777
1782846962342556400,1.734556396484375,9.298421660920978,4.226138562880457,-2.594654674395919
1782846962352561400,1.7445615234375,10.165880786788463,4.351116941680014,-2.595590493941307
1782846962362566400,1.75456640625,10.718626897507905,4.433923819704353,-2.1518995089635253
1782846962372571400,1.7645712890625,11.085188757836818,4.818065468126535,-1.6034505109161137
1782846962382576400,1.774576416015625,11.245167722868919,5.064504572993517,-1.5261189955629408
1782846962392581400,1.784581298828125,11.365665741384028,5.228026909720898,-1.3414622470006345
1782846962402587400,1.79458740234375,11.564188079822063,5.292106875443459,-1.1638619928210974
1782846962412592400,1.80459228515625,11.737839011853932,5.1233068905740975,-1.064095066037029
1782846962422597400,1.814597412109375,11.961740121698378,4.893744686228037,-0.9476857781402767
1782846962432602400,1.824602294921875,12.221698048830032,4.607732864907383,-0.8359563916880637
1782846962442607400,1.834607421875,12.375232075506448,4.289848233985901,-0.6981585710648447
1782846962452612400,1.8446123046875,12.442604068511724,4.014780708266795,-0.4626952529162168
1782846962462618400,1.854618408203125,12.349402053201198,3.741367379495501,-0.33069618169963355
1782846962472623400,1.864623291015625,11.985025135695933,3.4731437283217903,-0.2464541563056409
1782846962482628400,1.87462841796875,11.452537384629249,3.326262729793787,-0.17795703172795474
1782846962492633300,1.88463330078125,10.77348661494255,3.248696675032377,-0.1464274826068431
1782846962502638300,1.894638427734375,10.000867919242381,3.2999025461345908,-0.047571094796434045
1782846962512643300,1.904643310546875,9.30736659939885,3.395729941512644,0.07169131750911474
1782846962522648300,1.9146484375,8.777423856639862,3.4991610898926853,0.17136011768095194
1782846962532654600,1.924654541015625,8.241317330554127,3.484414771659672,0.28309235367737706
1782846962542659600,1.93465966796875,7.795345248901843,3.321972631384432,0.3698238212669268
1782846962552664600,1.94466455078125,7.324268536609411,3.181666335071623,0.43815267660561946
1782846962562669600,1.954669677734375,6.780093854880333,3.056934624509513,0.4966094321515411
1782846962572674600,1.964674560546875,5.991997604063153,2.5899539493590593,0.21126447724178432
1782846962582679600,1.974679443359375,4.812869068527221,1.867412120731175,-0.25369393483344466
1782846962592685600,1.984685546875,3.4343343974560496,1.0922738434255121,-1.0326824943590909
1782846962602690600,1.994690673828125,1.6596996368825434,0.331441447108984,-1.800696545808017
1782846962612695600,2.004695556640625,-0.42841713573932644,-0.6052946286022662,-2.2316695035099983
1782846962622700500,2.014700439453125,-3.2439743226855993,-1.636671227994561,-2.469561144784093
1782846962632705500,2.02470556640625,-6.403014692190289,-2.0019056391119956,-1.879859660502523
1782846962642710500,2.03471044921875,-9.274886471554636,-1.2509659835174678,0.10300269383490085
1782846962652716300,2.04471630859375,-11.152163275957108,-0.2212920963898301,2.335343812996149
1782846962662721300,2.05472119140625,-12.909298035675286,-0.474160942043364,4.631197911646962
1782846962672726300,2.064726318359375,-14.341789337861536,-3.4715462299972772,5.349849454838037
1782846962682731300,2.074731201171875,-13.460129252684116,-8.629256909954547,4.430312351208925
1782846962692736500,2.084736572265625,-11.399297961872815,-11.776904947829246,4.217350568529963
1782846962702741500,2.094741455078125,-13.321181385242939,-10.071785622030497,5.006247614336013
1782846962712746500,2.10474658203125,-16.924513335967063,-5.906396711406112,4.783291676387191
1782846962722752300,2.114752197265625,-18.45515170865059,-3.3569182725593447,4.197658610588312
1782846962732757200,2.12475732421875,-17.962916472995282,-1.506536781606078,4.359026984152198
1782846962742762500,2.134762451171875,-15.862276903408764,-0.07391863816976547,4.120938943523169
1782846962752767500,2.144767578125,-12.540098812580109,-0.008629588918387889,2.862407200926542
1782846962762772500,2.1547724609375,-8.2921514457345,-1.0130348870158195,1.3899458535321056
1782846962772777500,2.164777587890625,-4.077857926687598,-2.23037040361017,0.3138743723668158
1782846962782783500,2.174783447265625,-0.5746335328787565,-2.977338525225222,-0.06849076790213585
1782846962792788500,2.18478857421875,2.1250603096157312,-2.838341850206256,-0.12560644757002593
1782846962802793500,2.19479345703125,3.751187347242236,-2.328627948744595,-0.5420170653037727
1782846962812798500,2.204798583984375,4.371102037349343,-1.4786574255555867,-1.217807079628855
1782846962822803500,2.214803466796875,4.533100525510311,-0.49857174520045516,-2.012699128066003
1782846962832808400,2.224808349609375,4.706152907127142,0.44108986256867644,-2.5875515643924474
1782846962842813400,2.2348134765625,4.860536244109273,1.3174261223748325,-3.024749972480535
1782846962852819500,2.2448193359375,4.765280803400278,2.2051547138109804,-3.387173417830467
1782846962862824400,2.254824462890625,4.686612924876809,2.905209400820732,-3.479442536205053
1782846962872829400,2.264829345703125,4.575015421175957,3.488915590210259,-3.4255779672876
1782846962882834400,2.27483447265625,4.590378994524479,3.9527021454945204,-3.245879279524088
1782846962892839400,2.28483935546875,4.87113537953496,4.177119972689449,-2.948174097800255
1782846962902844400,2.294844482421875,5.173609090834856,4.151013471530377,-2.4456581450186667
1782846962912850400,2.304850341796875,5.532373429155349,3.96851813878566,-1.9864581868723035
1782846962922855400,2.31485546875,5.854967552942037,3.6739708365708585,-1.6359133953645824
1782846962932860400,2.3248603515625,6.068667586767673,3.358519862537086,-1.4114676572494207
1782846962942865400,2.334865478515625,6.344178472340107,3.134413293248415,-1.2554302694499493
1782846962952870400,2.344870361328125,6.721148329436779,2.984948123446107,-1.1436963529530912
1782846962962875400,2.35487548828125,6.930936158254743,2.8615117133915424,-0.9636402300540358
1782846962972880400,2.36488037109375,6.7909805750757455,2.750382411724329,-0.6327864466398954
1782846962982886700,2.37488671875,6.326984176433086,2.687475873695314,-0.3203592774067074
1782846962992891600,2.3848916015625,5.721908743539452,2.788902404254675,0.19363741594068704
1782846963002896600,2.394896728515625,5.317892474085093,2.9383550068363546,0.8555800336338579
1782846963012901600,2.404901611328125,5.129200624787807,2.9730609940364956,1.4576489781878887
1782846963022906600,2.41490673828125,4.940638539350033,2.800552510038018,1.8911840414628385
1782846963032911600,2.42491162109375,4.805379589554668,2.662014100180566,2.0142938499115406
1782846963042917400,2.43491748046875,4.503945742696524,2.369055236200988,1.851400604867935
1782846963052922400,2.44492236328125,3.912534093496203,2.021509918770194,1.5036390143379568
1782846963062927400,2.45492724609375,3.175851803573966,1.8355255748659371,1.04284155786708
1782846963072932600,2.4649326171875,2.348214400485158,1.633424208897352,0.5256820165745913
1782846963082937600,2.4749375,1.3384534205734728,1.355050042848289,0.09391893140822648
1782846963092942600,2.484942626953125,0.02197919209599495,0.9019383185744285,-0.35374987115934486
1782846963102948600,2.494948486328125,-1.4527414785325525,0.3089361853122711,-0.8260235381513833
1782846963112953600,2.50495361328125,-3.053913523122668,-0.3859098271384835,-1.1056186242975294
1782846963122958600,2.51495849609375,-4.646051781907677,-1.3117349249958992,-1.1970885551184416
1782846963132963600,2.524963623046875,-6.520348693716525,-2.5112448620423673,-1.3395444306805728
1782846963142968600,2.534968505859375,-8.729028366783261,-3.806223005765676,-1.1675094094127416
1782846963152973600,2.5449736328125,-11.132167951154708,-4.957565124231577,-0.5191092140555381
1782846963162978600,2.554978515625,-13.371919054311514,-5.828651208424568,0.7280949327103793
1782846963172984600,2.564984619140625,-15.409585742634533,-6.32636049157679,2.2883555595889686
1782846963182989600,2.574989501953125,-17.477894237458706,-6.588934738686681,3.769069040891528
1782846963192994600,2.58499462890625,-19.509943670421837,-6.725498925861716,4.463162481409311
1782846963202999600,2.59499951171875,-21.424607079410553,-6.639168549886345,4.235872605909407
1782846963213004500,2.605004638671875,-22.771972120714185,-6.576780775034427,3.1538609210401773
1782846963223009500,2.615009521484375,-22.369449304687976,-6.306874285340308,2.40072419379279
1782846963233015600,2.625015625,-20.335142448186872,-5.7151581002354614,2.250713226675987
1782846963243020500,2.6350205078125,-17.17374177929163,-5.116783041763306,2.312293484537303
1782846963253025500,2.645025634765625,-13.787552696323393,-4.394106773100793,2.1345552831918
1782846963263030500,2.655030517578125,-10.718838494431973,-3.466609358116984,1.3375520878195761
1782846963273035500,2.665035400390625,-8.423554889145493,-2.2809870766475795,0.6061167586401105
1782846963283040500,2.67504052734375,-6.637862143462896,-0.5624430366083979,0.36000257487855847
1782846963293045500,2.68504541015625,-4.977249483388662,0.9181091166526079,0.7419890180282295
1782846963303051500,2.695051513671875,-2.9815596500515937,1.8417796668246387,1.2051712507437915
1782846963313056500,2.705056396484375,-0.584614244145155,2.365515956158936,1.2526514523863792
1782846963323061500,2.7150615234375,2.082383781927824,2.7036726829975843,0.9042167118351906
1782846963333066500,2.72506640625,4.561947849810124,3.11878405470103,0.2868972258530557
1782846963343071500,2.735071533203125,6.581395575353503,3.5231875699073076,-0.40141909256801006
1782846963353076500,2.745076416015625,8.612657072809338,4.1162461095318195,-0.9491007595047354
1782846963363082800,2.755082763671875,10.260323157548903,4.799158523082733,-1.2101505004610866
1782846963373087700,2.765087646484375,11.474050128257273,5.412445904004573,-1.2920900210663675
1782846963383092700,2.7750927734375,12.273386150491238,5.885052894604206,-1.227012714869529
1782846963393097700,2.78509765625,12.924609002053737,6.14946487853527,-1.001698377226293
1782846963403102700,2.795102783203125,13.481726167464256,6.051672612825036,-0.9844213714718818
1782846963413107700,2.805107666015625,13.710412173497676,5.8345034415841095,-1.1951348637674004
1782846963423113500,2.815113525390625,13.607816891419887,5.70744007320404,-1.6071172167301178
1782846963433118500,2.825118408203125,13.37723937255144,5.659831934332847,-1.7956141279771922
1782846963443123500,2.83512353515625,13.186399989831447,5.619717366087436,-1.7100411462403833
1782846963453128700,2.845128662109375,12.852272080117464,5.43246460968256,-1.4750214071407912
1782846963463133700,2.8551337890625,12.424681458330154,5.262480383464694,-1.042120403985679
1782846963473138700,2.865138671875,12.126950557643175,5.010310041469335,-0.5673254383550956
1782846963483143700,2.875143798828125,11.76436461520791,4.761573765575886,0.05628916571587324
1782846963493149400,2.8851494140625,11.347999151790141,4.579200305645168,0.8255300555460154
1782846963503154400,2.895154541015625,10.929098032414913,4.5150160027652975,1.4551095228381454
1782846963513159400,2.905159423828125,10.53101992083788,4.386455673825741,1.8318860493198037
1782846963523164400,2.915164306640625,10.093189644587039,4.208021014648676,1.918824620321393
1782846963533169400,2.92516943359375,9.534953119757771,4.0581995787546035,1.7105746685951948
1782846963543174400,2.93517431640625,9.041751084896921,3.7912452168643473,1.291957042336464
1782846963553180400,2.945180419921875,8.725289764776825,3.52081441103518,0.8554585992112755
1782846963563185400,2.955185302734375,8.400736908137798,3.321860987703502,0.4888003658358007
1782846963573190700,2.965190673828125,8.082074278581143,3.172414814862609,0.08900416176188737
1782846963583195600,2.975195556640625,7.757562338474393,3.106178547888994,-0.23231592350099234
1782846963593200600,2.98520068359375,7.467491012629866,2.7428818268358706,-0.46435668332241475
1782846963603205600,2.99520556640625,6.993487014713883,2.030717015315592,-0.8140348480634391
1782846963613211600,3.005211669921875,6.08603782376349,1.3553040176093578,-1.306496147559583
1782846963623216600,3.015216552734375,4.5450370470196,0.6163251411825418,-1.9906607531286775
1782846963633221600,3.0252216796875,2.415333295512199,-0.6272209214672446,-2.7508979600310326
1782846963643226600,3.0352265625,-0.14863456419706345,-2.2846759942933916,-3.663634735995531
1782846963653231600,3.045231689453125,-4.045799239125848,-3.832691033713519,-4.371492205710709
1782846963663236600,3.055236572265625,-7.9109134097993365,-4.259438190414011,-3.49882586658895
1782846963673241600,3.06524169921875,-10.502261443865299,-2.750805605572462,-0.41386268681660293
1782846963683247600,3.07524755859375,-12.888258754777908,-0.6493319232493638,3.6574265290051695
1782846963693252600,3.085252685546875,-15.529424420458078,0.49792774820849295,6.646037266612052
1782846963703257600,3.095257568359375,-17.697891910123825,-0.4101841444343328,6.625880613768101
1782846963713262600,3.1052626953125,-18.813762902235982,-2.98874634668529,4.178428132678568
1782846963723267600,3.115267578125,-18.847224442332983,-4.603328492468595,2.660794495257735
1782846963733272600,3.1252724609375,-17.805277933609485,-4.542718540944159,3.4007536148935555
1782846963743278600,3.135278564453125,-16.299357822597027,-3.9170951178014275,4.91859797245562
1782846963753283600,3.14528369140625,-14.76835003207922,-3.455195983698964,5.823644193917513
1782846963763288600,3.15528857421875,-12.930896119499206,-2.8490029449522494,5.796837435534596
1782846963773293600,3.16529345703125,-10.843076283997297,-2.3536460701450705,4.606096203616262
1782846963783298600,3.175298583984375,-8.556737032666803,-2.173022230360657,2.817169882839918
1782846963793303600,3.185303466796875,-6.068277126145363,-2.057803613553196,1.1914017416536806
1782846963803309600,3.1953095703125,-3.6007378425776957,-1.9244586806856094,-0.21491817744374275
1782846963813314600,3.205314453125,-1.576618033570051,-1.7504916684418916,-1.3188459260448813
1782846963823319600,3.215319580078125,-0.03804419171214103,-1.2703368928112089,-2.0432696228966116
1782846963833324500,3.225324462890625,1.0763456219315528,-0.6822820066928863,-2.481542089956999
1782846963843329800,3.235329833984375,1.726154515042901,-0.06720423522293567,-2.8263977299124
1782846963853334800,3.245334716796875,2.002667271134257,0.5179426544941962,-3.103160661372542
1782846963863339800,3.25533984375,2.2921154966443775,1.0389638396508991,-3.229140033908188
1782846963873345500,3.265345458984375,2.6752549822866913,1.3880933575332164,-3.087273064149916
1782846963883350500,3.2753505859375,3.0210154621273277,1.5845450271770358,-2.72665725274384
1782846963893355500,3.28535546875,3.4344244138270614,1.7248254583962261,-2.4595190587192772
1782846963903360500,3.295360595703125,3.903147840991616,1.7416121964156626,-2.3588860166251657
1782846963913365500,3.305365478515625,4.229922465333343,1.767896976751089,-2.287528753376007
1782846963923370500,3.31537060546875,4.584617946779727,1.7652508461564778,-1.9990642782062291
1782846963933376500,3.32537646484375,4.9280233879268165,1.7341864303290844,-1.5574194121032952
1782846963943381500,3.335381591796875,5.168073668539524,1.7725570775166153,-1.0026436952523887
1782846963953386500,3.345386474609375,5.343358339253068,1.8490254001691937,-0.46059828063696623
1782846963963391500,3.3553916015625,5.522832862871885,1.899505002823472,-0.06993994379714132
1782846963973396500,3.365396484375,5.695529855179786,1.9048177222788332,0.18168094762191175
1782846963983401200,3.375401123046875,5.862070078423619,1.9569705188423394,0.40585605210214853
1782846963993406200,3.38540625,5.974925473231077,2.0454759007692336,0.5576578481584787
1782846964003412200,3.395412109375,6.067808339589834,2.1731107854269442,0.5835442037608474
1782846964013417200,3.405417236328125,6.079399408662319,2.3670718072988093,0.5104061945747583
1782846964023422200,3.415422119140625,6.031127252924442,2.4701655404180287,0.4110751019246876
1782846964033427200,3.42542724609375,6.0287248679578305,2.529865683621168,0.31661767972558735
1782846964043432200,3.43543212890625,6.04066138946712,2.6574071909070014,0.24815913359262048
1782846964053437200,3.445437255859375,5.875211299547552,2.8291736243665215,0.30763876591287553
1782846964063443500,3.455443359375,5.4928141567051405,2.811923798879981,0.37988764423951504
1782846964073448400,3.465448486328125,5.068234991693497,2.4940739470109343,0.33230332463532686
1782846964083453400,3.475453369140625,4.792271686178445,2.0587603297561405,0.23568287918344138
1782846964093458400,3.48545849609375,4.357268742308021,1.6826204937428235,0.09777253809645771
1782846964103463400,3.49546337890625,3.8163539391577244,1.1663918035596608,-0.11397241613864897
1782846964113468400,3.505468505859375,3.1791245416343212,0.6958766706727445,-0.30598230394273995
1782846964123473400,3.515473388671875,2.155878057205677,0.2973429242826998,-0.372231868789345
1782846964133479400,3.5254794921875,0.5282224948376417,-0.03711801677793264,-0.4562789561331272
1782846964143484400,3.535484375,-2.364815991196036,-0.46077670594379305,-0.765299604858458
1782846964153489400,3.545489501953125,-6.162803083536028,-0.8268085510492325,-0.8846230266362428
1782846964163494400,3.555494384765625,-9.879266323399543,-1.3808499622762203,-0.7413153565503656
1782846964173499400,3.56549951171875,-12.73528470007181,-2.1843036489620804,-0.12550181815177203
1782846964183504400,3.57550439453125,-14.498397949677704,-3.3108921421825883,1.1756371862888335
1782846964193510400,3.585510498046875,-15.337459248578547,-4.735986319854855,2.6435569447308778
1782846964203515400,3.595515380859375,-15.505502277600764,-6.0303510078549385,3.9325323409080504
1782846964213520400,3.605520263671875,-15.475107139337062,-7.022573408466577,5.091609437540173
1782846964223525400,3.615525390625,-15.804789175558088,-7.788820815569162,5.530174457806348
1782846964233530400,3.6255302734375,-16.438209828448294,-7.855411887329816,4.917272861331701
1782846964243535400,3.635535400390625,-16.663033313834667,-7.357638891291618,3.464085977119207
1782846964253540400,3.645540283203125,-16.157843904060126,-6.549838992094993,2.088040930906683
1782846964263546000,3.655546142578125,-15.330477719128131,-5.802104562282562,1.2734713914446532
1782846964273551000,3.665551025390625,-14.450360771739483,-4.764499589894712,0.8879593314521014
1782846964283556000,3.67555615234375,-13.287524614834785,-3.1492703783795237,0.9801549461990594
1782846964293561300,3.685561279296875,-11.295813037478924,-1.4204749934390186,1.3561502591751515
1782846964303566300,3.69556640625,-8.986384586983919,-0.06891922244727611,1.7031864580400287
1782846964313571300,3.7055712890625,-6.374994466364384,0.8796963838890194,1.9156626491591333
1782846964323577300,3.715577392578125,-3.4661218668609854,1.5538286941349506,2.0096051075734196
1782846964333582300,3.725582275390625,-0.6137105747699737,1.9488047480434179,1.8448009143419564
1782846964343587300,3.73558740234375,2.002557965540886,2.0336457622438666,1.4013219646796584
1782846964353592300,3.74559228515625,5.061226574236154,2.1682269589081407,0.40608657292239364
1782846964363597300,3.755597412109375,7.567064316537976,2.4028043610677123,-0.6105423199974
1782846964373602300,3.765602294921875,8.743654858028888,2.5519781467080116,-1.206868629246205
1782846964383607300,3.775607177734375,9.549062893652916,2.7119655873075126,-1.8020502985045312
1782846964393613300,3.78561328125,10.325422529447078,2.9904183715507386,-2.2598785299062727
1782846964403618300,3.795618408203125,10.783009645569324,3.354011737462878,-2.530689567224681
1782846964413623300,3.805623291015625,10.721510928511618,3.509681607124209,-2.8336589530870318
1782846964423628300,3.815628173828125,10.33996543406248,3.566011104850471,-2.913814439819753
1782846964433633300,3.82563330078125,10.343580117428303,3.5975153733998533,-2.944287027233839
1782846964443638300,3.83563818359375,10.605034420597553,3.725975456835329,-2.9369878101363778
1782846964453644300,3.845644287109375,10.821244391417503,3.8748084662139415,-2.7318454690366982
1782846964463649300,3.855649169921875,11.004679050838947,3.8838665096774694,-2.408113427261263
1782846964473654300,3.865654296875,11.140205127137898,3.843411749692261,-1.906325934884697
1782846964483659300,3.8756591796875,11.355371141862868,3.8404198743999003,-1.2133256964311003
1782846964493664300,3.885664306640625,11.556783356523512,3.8574317994773386,-0.5212507561288774
1782846964503669200,3.895669189453125,11.554663880151509,3.7475939989253875,-0.025319296304136513
1782846964513675300,3.90567529296875,11.341141540980338,3.5242613366186615,0.3886730082415044
1782846964523680300,3.91568017578125,11.341777500796317,3.2214670150622724,0.5749417220450938
1782846964533685200,3.925685302734375,11.308050587761402,2.972157030934095,0.7637076594918966
1782846964543690200,3.935690185546875,11.38209548265934,2.763153338231146,0.8036105577480047
1782846964553695500,3.945695556640625,11.273023698043822,2.8343939893633125,0.8818867335401475
1782846964563700500,3.955700439453125,10.781007073575257,3.113798959764838,0.980422364963591
1782846964573705500,3.96570556640625,10.062572388005256,3.2221272325366734,0.8056213861137628
1782846964583711500,3.97571142578125,9.444846147853136,3.2599627499341963,0.4015557610923424
1782846964593716500,3.985716552734375,8.95063230560124,3.3305992976933716,0.004628171257302165
1782846964603721500,3.995721435546875,8.391526012200117,3.4650437162354586,-0.16751235621161759
1782846964613726500,4.0057265625,7.559630367144941,3.547842995475232,-0.1909265860794112
1782846964623731500,4.0157314453125,6.802472859948873,3.6485476415008304,-0.27031214788556096
1782846964633736400,4.025736328125,5.968423836252093,3.3952444960832593,-0.48020595782864833
1782846964643742200,4.0357421875,4.580121804404259,2.687430573248863,-0.5279929238654673
1782846964653747200,4.045747314453125,2.728777313637733,1.967937610797584,-0.2621421027703211
1782846964663752200,4.055752197265625,0.7569342198342085,0.968758815176785,0.19009247334282844
1782846964673757400,4.06575732421875,-1.5959534331589935,-0.40823768654167647,0.3130830393260345
1782846964683762400,4.075762451171875,-5.058559985375404,-2.324305409370363,0.019029256249219178
1782846964693767400,4.085767333984375,-8.430119654488562,-3.554229189381003,-0.3986192327164113
1782846964703772400,4.0957724609375,-10.5376951608181,-3.4802009533569214,0.6663277009095996
1782846964713778200,4.105778076171875,-12.289044322872162,-2.9902222644567487,2.4426203847579657
1782846964723783200,4.115783203125,-13.276313484990595,-3.296742620798945,3.0472566955819724
1782846964733788200,4.1257880859375,-14.22423263349533,-4.159847058588266,2.980555441445112
1782846964743793200,4.135793212890625,-17.00607868949771,-3.9093905347734688,3.3532106502130627
1782846964753798100,4.145798095703125,-20.552430277371407,-2.133988735350221,3.9129941122233864
1782846964763803100,4.15580322265625,-21.72850702412128,-0.36934418452382084,4.097443209384381
1782846964773809400,4.165809326171875,-20.80840877947807,0.9185874016888439,4.199084551738203
1782846964783814400,4.175814453125,-18.305696475720403,0.9747678463332354,3.712147714751959
1782846964793819400,4.1858193359375,-14.529844058299064,0.048242345121502876,2.664315947382152
1782846964803824400,4.195824462890625,-10.212073213642835,-1.7330134410269558,1.1119579833868891
1782846964813829400,4.205829345703125,-6.146546360740065,-3.7688837474524974,-0.2764452438130975
1782846964823834400,4.21583447265625,-2.9930916824132203,-4.604284770280122,-1.0236917439781128
1782846964833839400,4.22583935546875,-1.0372913763940335,-3.930462841157615,-1.5162769621148704
1782846964843845400,4.235845458984375,-0.0794815329939127,-2.455041913305223,-1.9707550063058732
1782846964853850400,4.245850341796875,0.3201905697762966,-1.1342840161591767,-2.4676465433344243
1782846964863855400,4.25585546875,0.6170680685043335,-0.2230316335335374,-2.8677982463151217
1782846964873860400,4.2658603515625,0.9070295042335986,0.5989110650449991,-2.7138468710094688
1782846964883865300,4.275865234375,1.5431109007656574,1.37271926279068,-2.3463310709565874
1782846964893870300,4.285870361328125,2.354617253264785,1.8671528852730988,-2.0228679092504085
1782846964903876400,4.29587646484375,3.1771804218292234,2.1890311158753932,-1.5287871918588876
1782846964913881300,4.30588134765625,4.0824779877036805,2.2391649738319215,-1.1217764167636632
1782846964923886300,4.31588623046875,4.989610952311754,2.0481014269672335,-0.9150039171788841
1782846964933891300,4.325891357421875,5.810228832027316,1.856479953958839,-0.7540338222175836
1782846964943896300,4.335896240234375,6.603679887875914,1.7233071627877652,-0.7035594071950763
1782846964953901300,4.3459013671875,7.39070237198174,1.6594424472510814,-0.8531866356912999
1782846964963906300,4.35590625,8.022892606294155,1.797250204746425,-1.0595439786039291
1782846964973912300,4.365912353515625,8.40867646896541,1.9767942864701151,-1.295587800054252
1782846964983917800,4.375917724609375,8.474103757643698,2.084610518066585,-1.5480997950941324
1782846964993922800,4.3859228515625,7.672402759844064,2.0683941272810102,-2.151603156365454
1782846965003927800,4.395927734375,6.537903639629483,2.200898371540755,-2.705264336103201
1782846965013932800,4.405932861328125,5.57685203782916,2.479652330687642,-2.7531390169560908
1782846965023938000,4.41593798828125,5.053180045902729,2.5343840378284455,-2.084004076606035
1782846965033943800,4.42594384765625,4.87305494942069,2.334680819042772,-1.4561886963769792
1782846965043948800,4.43594873046875,4.623255428209901,2.1472028755798935,-0.7725523524656891
1782846965053953800,4.445953857421875,4.153865646091103,2.1714067579880356,0.17443112262412905
1782846965063958800,4.455958740234375,3.537196806037426,2.373683626653999,1.1844718693252652
1782846965073963800,4.4659638671875,2.738151291182637,2.554394267939031,1.747365060853958
1782846965083968800,4.47596875,2.015560654976964,2.5027625726401803,1.9525737451881169
1782846965093974800,4.485974853515625,1.604507326492667,2.260271328616142,1.9892514708526432
1782846965103979800,4.495979736328125,1.4390782793611288,1.9422836757116018,1.879536273767054
1782846965113984800,4.50598486328125,1.4290619122594594,1.515845000438392,1.59674370675385
1782846965123989800,4.51598974609375,1.3909043233007192,0.7755567949786781,1.2678570586942135
1782846965133994800,4.525994873046875,1.03403383590281,-0.13790084260627627,0.9085079792883246
1782846965143999700,4.535999755859375,0.38648821154832835,-1.078843430096656,0.37577655565887685
1782846965154004700,4.546004638671875,-0.8952595714628696,-2.012293908265978,-0.32498401459790766
1782846965164010800,4.5560107421875,-2.2656232110381125,-2.8710855974227187,-0.7859787472065538
1782846965174015700,4.566015625,-3.7889866242825985,-3.6295509723469612,-0.6602762188509106
1782846965184020700,4.576020751953125,-5.836810549482703,-4.23655708104223,-0.02787935605049133
1782846965194025700,4.586025634765625,-8.378404080298543,-4.433407979136705,0.8974990209527313
1782846965204030700,4.59603076171875,-11.276177778160571,-4.151313623520732,2.1223013662964103
1782846965214035700,4.60603564453125,-14.043060073786974,-3.813064249962568,3.379025182688236
1782846965224042000,4.6160419921875,-15.90732600544691,-3.716559978236258,4.024084835445881
1782846965234047000,4.626046875,-16.672011570060253,-4.130847174075246,3.747570910310745
1782846965244052000,4.636052001953125,-16.837992405855655,-4.406694159734249,2.8869562435105443
1782846965254057000,4.646056884765625,-16.392986538887023,-4.757429505378008,1.7267964662082493
1782846965264062000,4.65606201171875,-15.145890382540225,-5.210709864217042,0.530111085063219
1782846965274067000,4.66606689453125,-13.649144927108287,-5.221999319994449,-0.10220131432414055
1782846965284072000,4.676072021484375,-12.036399933624267,-4.691908985458314,-0.24911416929513214
1782846965294078000,4.686077880859375,-10.516149683964251,-3.898878493109345,-0.11967311199828981
1782846965304083000,4.6960830078125,-9.168922005304694,-2.681532162860036,0.5208787079460918
1782846965314088000,4.706087890625,-7.797780951616168,-1.294955639630556,1.4313519228927791
1782846965324093000,4.716093017578125,-6.355460913854837,0.021597060910612344,2.3267209460794924
1782846965334098000,4.726097900390625,-4.77863069883883,1.098528373775631,2.787142993366718
1782846965344103000,4.73610302734375,-2.8581968897551295,1.6164020546868443,2.5631214720129964
1782846965354109000,4.74610888671875,-0.9027005351185798,1.5453095798537133,1.931105132962763
1782846965364114000,4.756114013671875,1.1641864024698734,1.3443158828660844,1.0816310880538076
1782846965374119000,4.766118896484375,3.5984605452954765,1.1427461395561695,0.14744973832666874
1782846965384124000,4.7761240234375,5.581474436932802,1.1673116948835551,-0.42309192212857305
1782846965394129000,4.78612890625,6.671127284204959,1.4381540041230618,-0.6130263918980956
1782846965404134000,4.7961337890625,7.677467642018199,1.8026786595359443,-0.8164696009296923
1782846965414139000,4.806138916015625,8.728261474063991,2.2440140212982893,-1.0982718417312949
1782846965424144600,4.81614453125,9.336805459851027,2.883229916463792,-1.5127096250221133
1782846965434149600,4.826149658203125,9.841316824233532,3.3125556914806364,-1.9751792524889111
1782846965444154600,4.836154541015625,10.08141854277253,3.5249370439231393,-2.156496042973548
1782846965454159600,4.84615966796875,10.40900915967226,3.791968854963779,-2.355250874993205
1782846965464164600,4.85616455078125,10.890830553340912,4.001010833850502,-2.7476804592892528
1782846965474169900,4.866169921875,11.204461618471145,4.035668597994745,-3.1300746795222163
1782846965484176000,4.87617578125,11.449479166102408,3.902537892399728,-3.245401725140214
1782846965494180900,4.886180908203125,11.619070009088516,3.7681782295316455,-3.0425100855767724
1782846965504185900,4.896185791015625,11.714805342268942,3.6397856583744286,-2.529837626570463
1782846965514190800,4.90619091796875,11.735322060596943,3.4786768125295637,-1.9689516101457178
1782846965524195800,4.91619580078125,11.516190649372339,3.398960593996942,-1.3749790244162081
1782846965534200800,4.926200927734375,11.103654973375797,3.2785052455797787,-0.8906516392759978
1782846965544205800,4.936205810546875,10.711721355903148,3.092573508645594,-0.5658238381531089
1782846965554211800,4.9462119140625,10.369965435528755,2.9464921360626817,-0.2807910179324448
1782846965564216800,4.956216796875,10.068953028953075,2.85581817792505,0.019042407991737127
1782846965574221800,4.966221923828125,9.863860664474963,2.8141528731063006,0.036233489028364416
1782846965584226800,4.976226806640625,9.61640156891048,2.8333471106588837,-0.06341134574599563
1782846965594231800,4.986231689453125,9.138477767202257,2.969035976304114,-0.13421674726605415
1782846965604236800,4.99623681640625,8.573312904414534,3.089637455193698,-0.11283376749753951
1782846965614242800,5.006242919921875,7.745260490784049,3.0812425518140194,0.13117869474440813
1782846965624247800,5.016247802734375,6.391882472801208,2.4018743867412207,0.7148851033296436
1782846965634252800,5.026252685546875,5.2867853881597515,1.559092898273468,0.051314592173695564
1782846965644257800,5.0362578125,4.179492254778743,0.8996347178071736,-1.4080275997981428
1782846965654262800,5.0462626953125,2.36999368609488,0.17053367679417133,-1.9399135855793952
1782846965664267800,5.056267822265625,0.29675591817498204,-0.7791063041538,-2.4515749678470193
1782846965674272800,5.066272705078125,-2.2112246813744307,-1.3422846692994237,-2.05963769711256
1782846965684278800,5.07627880859375,-5.530573101735115,-2.1363915587082505,-0.6388435547217727
1782846965694283800,5.08628369140625,-7.716464019888639,-2.630370715421438,2.3081575537763537
1782846965704288800,5.096288818359375,-8.426127954503894,-2.320665883824229,3.5873137128591535
1782846965714293800,5.106293701171875,-9.8184725397408,-1.739825020737946,3.781445415122807
1782846965724298800,5.116298828125,-11.344667377018927,-1.3907187376007437,3.3989141245067116
1782846965734303700,5.1263037109375,-13.05615916045904,-2.1728093182623387,2.74170810688138
1782846965744310000,5.13631005859375,-14.796820924282073,-3.372643372696638,2.4634523065149785
1782846965754315000,5.14631494140625,-16.09011535270214,-3.6291008904919027,3.40266617051661
1782846965764320000,5.156320068359375,-16.024312216448784,-2.922363364717364,4.032103598989546
1782846965774325000,5.166324951171875,-15.090547850024699,-1.9537090328283606,3.5721208199024197
1782846965784330000,5.176330078125,-13.724310934990644,-1.4354805471301078,3.5843259292200207
1782846965794335000,5.1863349609375,-11.293460921394825,-1.6789818449795244,3.532037815839052
1782846965804340000,5.196340087890625,-8.680935074743628,-2.238161495877802,2.3817395073376595
1782846965814345700,5.206345703125,-5.464964026749134,-3.0368969218701123,1.340913088685274
1782846965824350700,5.216350830078125,-2.876477227333188,-3.614834756991267,0.45342488187626
1782846965834355700,5.226355712890625,-0.6556202097386121,-3.463312654659152,-0.45250703637897965
1782846965844360700,5.236360595703125,0.9716296944379806,-2.7574963353827595,-0.9559411269187926
1782846965854366000,5.246365966796875,1.8108990831315517,-1.8088403970360756,-1.0351664931945501
1782846965864371000,5.256370849609375,2.032697667738795,-0.8779352194353938,-1.011399248638004
1782846965874376700,5.266376708984375,2.0837299358397723,-0.056811874415725466,-1.0175757453158498
1782846965884381700,5.276381591796875,1.7423089465081691,0.9740145437479019,-0.9764363640673458
1782846965894386700,5.28638671875,1.4297393731296062,1.6871743576548992,-0.8966245762057602
1782846965904391700,5.2963916015625,1.9401193372845649,1.8679962042294442,-1.105091677813977
1782846965914396700,5.306396728515625,2.8479905530393124,2.041642313955724,-1.2939143138840794
1782846965924401700,5.316401611328125,3.72464070110023,2.1556141455724833,-1.484762756693363
1782846965934406700,5.32640673828125,4.6493490698874,2.168912164693326,-1.4710310223303735
1782846965944412700,5.33641259765625,5.452015113326907,2.0545685771547255,-1.215086860884726
1782846965954417700,5.346417724609375,6.022758068507909,2.0360507775589824,-1.0516302828699349
1782846965964423000,5.3564228515625,6.2817556261748075,2.114596491007507,-0.9691531482566147
1782846965974428000,5.366427978515625,6.151857911151647,2.010147251626104,-0.938029403457418
1782846965984432000,5.37643212890625,5.8153714556127785,1.9219952131815254,-0.9316969855654984
1782846965994437000,5.38643701171875,5.473748221707344,1.852790305660665,-0.8241071100708097
1782846966004443100,5.396443115234375,5.340442159545422,1.6172499036878347,-0.598538140079379
1782846966014448000,5.4064482421875,5.354579405969381,1.3573916375383734,-0.32554142928496
1782846966024453000,5.416453125,5.393088292583823,1.2188324771538377,-0.04013955655619502
1782846966034458000,5.4264580078125,5.464245649346709,1.1699354675158857,0.26218670909702774
1782846966044463000,5.436463134765625,5.252697240597009,1.2775339647084474,0.5252589688569307
1782846966054468000,5.446468017578125,4.767196866154671,1.5842168181359766,0.7964157508730888
1782846966064473000,5.45647314453125,4.199319237276912,1.8921794822409748,1.0441640386424957
1782846966074479000,5.46647900390625,3.734745331007242,2.1359845853425563,1.0160461976610125
1782846966084484000,5.476484130859375,3.0246973655104634,2.4413329752959307,0.8491789344199001
1782846966094489000,5.486489013671875,2.370864623710513,2.6560730196937916,0.6161059454739093
1782846966104494000,5.496494140625,1.878907620474696,2.6556933727264402,0.45108533301278947
1782846966114499000,5.5064990234375,1.5612795946627855,2.33301522391811,0.22842545540109274
1782846966124504000,5.516504150390625,1.343432962551713,1.8626269322812556,0.040308191121369595
1782846966134510000,5.526510009765625,0.7897808429032563,1.223178251273185,-0.06663249974958599
1782846966144515000,5.53651513671875,-0.11061784501373767,0.23483283822536466,-0.13720672286227345
1782846966154520300,5.546520263671875,-1.3251923724621533,-0.9672482644833624,-0.2511594113871455
1782846966164525300,5.556525390625,-3.2129479007810353,-2.010317055235058,-0.33737595172449947
1782846966174530300,5.5665302734375,-5.704632030045985,-3.087161128208041,-0.18948796811103819
1782846966184535300,5.576535400390625,-8.618276081734896,-3.8710663570761676,0.3573918809235096
1782846966194540300,5.586540283203125,-11.409710634815692,-4.018253645074367,1.1240652583532034
1782846966204546300,5.59654638671875,-13.790240327972173,-3.7614959752887485,2.063044729077071
1782846966214551300,5.60655126953125,-15.579727205240726,-3.6283921577006577,2.9175135865986346
1782846966224556300,5.616556396484375,-16.596825688433647,-3.8324043257266283,3.1802704967990514
1782846966234561300,5.626561279296875,-17.37616872395277,-4.460974615976214,3.7379917655825614
1782846966244566300,5.636566162109375,-17.805129465049504,-4.89329957280904,3.518485091304779
1782846966254571300,5.6465712890625,-17.145399481904505,-4.807291560655832,2.6170930084362625
1782846966264577000,5.656576904296875,-15.769771638190745,-5.067096343052387,1.4815135456390678
1782846966274582300,5.666582275390625,-13.846528616905212,-5.448892012870312,0.4536671661995351
1782846966284587300,5.676587158203125,-11.649175224494934,-5.40424623093605,-0.13965163179636
1782846966294592300,5.68659228515625,-9.59388929285109,-4.8602363843798635,-0.03771744397580623
1782846966304597200,5.69659716796875,-7.857379388010502,-3.97987598362416,0.6324994463920592
1782846966314602200,5.706602294921875,-6.625069297385215,-2.8019316894367337,1.6234069650128482
1782846966324607200,5.716607177734375,-5.349634935304522,-1.4959297551348805,2.489702600058913
1782846966334613000,5.726613037109375,-3.7750732497423884,-0.1418295603573322,3.0239567762762305
1782846966344618000,5.736617919921875,-1.985138628706336,1.151706275603175,3.0881115608006713
1782846966354623000,5.746623046875,0.0937941359847784,2.12537887404561,2.4032848380610345
1782846966364628000,5.7566279296875,2.0618501124650237,2.846013992269337,1.2453035738416016
1782846966374633000,5.766633056640625,3.8064071301609275,3.3625054250419137,0.027085136932879686
1782846966384638000,5.776637939453125,5.223271824148297,3.537213464911282,-1.0122072040200232
1782846966394643000,5.786642822265625,6.363961031174659,3.3076994836211204,-1.8713333858281374
1782846966404649200,5.796649169921875,7.586612482094765,3.0752842279314994,-2.2118808071956035
1782846966414654200,5.806654296875,8.492712012001872,2.940189528787136,-2.2859949679374694
1782846966424659200,5.8166591796875,9.233016584074496,2.960670883540809,-2.0971168022878466
1782846966434664200,5.826664306640625,10.211314504230021,2.9956796530798075,-1.9497788537725804
1782846966444669200,5.836669189453125,10.959757374572753,3.100900022964179,-1.8950323874540627
1782846966454674200,5.846674072265625,11.269974831867218,3.3908801633939145,-2.1660500532604754
1782846966464680200,5.85668017578125,11.255282289648056,3.4059415389254686,-2.677262230455875
1782846966474685200,5.866685302734375,11.327180820167063,3.237343798629939,-2.8104963964253664
1782846966484690200,5.876690185546875,11.500044985735416,3.325062998615205,-2.5044889580413696
1782846966494695200,5.886695068359375,11.42435407719612,3.409609413783252,-1.9426969326876102
1782846966504700200,5.8967001953125,11.187620373785496,3.5404333037406204,-1.3950661191552876
1782846966514705200,5.906705078125,11.051157893419266,3.5867324058398604,-0.9657450203135609
1782846966524710100,5.916710205078125,10.963011992454527,3.6255499200120567,-0.736131816432625
1782846966534716200,5.926716064453125,10.821455988341569,3.683843995809555,-0.6557442745096981
1782846966544721200,5.93672119140625,10.527360813808441,3.824852595172822,-0.6581731090918183
1782846966554726100,5.94672607421875,9.971798476624489,3.8889527269005773,-0.6866288037255406
1782846966564731100,5.956731201171875,9.441055523398518,3.792918410773575,-0.6738434103019535
1782846966574736100,5.966736083984375,9.147322752436995,3.7763743954688307,-0.5813710244402289
1782846966584741000,5.9767412109375,9.049667264848948,3.791648536968231,-0.536221457702294
1782846966594747100,5.9867470703125,9.068753658112882,3.643789633318782,-0.5522895991235971
1782846966604752100,5.996752197265625,9.046002312600612,3.660338617059588,-0.5458867463439703
1782846966614757000,6.006757080078125,9.033483607289195,3.6331703318879005,-0.5905181344266981
1782846966624762000,6.01676220703125,9.024514118891954,3.4734035483017562,-0.7449699335351586
1782846966634767000,6.02676708984375,8.546436003404855,3.170074096955359,-0.9301564050599932
1782846966644772000,6.036772216796875,7.667121604570746,2.6527336461380124,-0.877398482210189
1782846966654778400,6.0467783203125,6.216710614812373,1.7188561747282742,-0.6154980427086353
1782846966664783400,6.056783447265625,4.617373968955874,0.7947542474016547,-0.41981823422014714
1782846966674788400,6.066788330078125,2.5858634651750325,-0.11172288364619017,-0.4367939920056611
1782846966684793300,6.07679345703125,0.1499263575732708,-1.155745906382799,-0.5557281952701508
1782846966694798300,6.08679833984375,-2.8012270482987165,-1.9835367464676499,-0.47200347174853086
1782846966704803300,6.09680322265625,-5.5900897050648926,-2.1080916391581295,0.5300621313549578
1782846966714808300,6.106808349609375,-7.85734431669712,-1.7569892137676477,1.9324099319510162
1782846966724814000,6.11681396484375,-10.095628269910812,-1.6315002550974487,2.8542472753465176
1782846966734819000,6.126819091796875,-11.457882252788544,-2.39634627096951,2.993043751618266
1782846966744824000,6.136823974609375,-12.682965314769744,-4.482329830954969,3.215327489393949
1782846966754829000,6.1468291015625,-13.295167823064327,-6.330797597241402,2.9949981005564332
1782846966764834000,6.156833984375,-14.326142855918407,-6.789533883398771,2.9499551359981298
1782846966774839000,6.166839111328125,-16.650720944750308,-5.209188938260078,3.2262416821181774
1782846966784845000,6.176844970703125,-17.618941707527636,-2.6555627320840953,2.642871885076165
1782846966794850000,6.18685009765625,-16.889918992447853,-0.7421510767221451,1.7903050617836416
1782846966804855000,6.19685498046875,-15.145661249959469,-0.09541589196771383,1.1776694227688014
1782846966814860000,6.206860107421875,-12.821670021104811,-0.40957945653945205,0.9489283255472779
1782846966824865000,6.216864990234375,-10.028508790361881,-1.698859973143041,0.8500671154312789
1782846966834870000,6.2268701171875,-7.101426580429076,-3.4091800824552774,0.7483012699149548
1782846966844875000,6.236875,-4.5962031706333155,-4.713728018556535,0.865951936174929
1782846966854881000,6.246881103515625,-2.6264684472858906,-5.015700502336025,1.0095590275987982
1782846966864886000,6.256885986328125,-1.3660562977701425,-4.10295612758696,1.2212196645513176
1782846966874891000,6.26689111328125,-0.718504828196764,-2.6686893401607867,1.4389080373607575
1782846966884896000,6.27689599609375,-0.3606540975898504,-1.5747332427367566,1.4104634486429393
1782846966894901000,6.28690087890625,0.014936287847161292,-0.543721969525516,0.9931759019441903
1782846966904906200,6.29690625,0.538953147688508,0.37468876042217014,0.33229221871942277
1782846966914912300,6.306912353515625,1.1822931370466947,1.207800503268838,-0.4735546467132866
1782846966924917200,6.316917236328125,1.9191905310243367,1.9779764819920063,-1.126177428201586
1782846966934922200,6.326922119140625,2.76278245909214,2.51163181553334,-1.505251710231602
1782846966944927200,6.33692724609375,3.7386288944423196,2.6980545508548617,-1.7053285846352577
1782846966954932200,6.34693212890625,4.7584120866745705,2.7109555334821342,-1.8986828727856278
1782846966964937200,6.356937255859375,5.597876121157407,2.6643074718147512,-2.035054606128484
1782846966974942200,6.366942138671875,6.152615451520681,2.457849956463277,-1.9878626468427478
1782846966984949800,6.37694970703125,6.564376636013388,2.1969413044780493,-1.7885168631926178
1782846966994954800,6.386954833984375,6.931682008185982,1.9326853878915309,-1.5633658994175492
1782846967004959700,6.396959716796875,7.225754386365414,1.7306071105375884,-1.526378669412434
1782846967014964700,6.40696484375,7.358543146654963,1.5690645494505762,-1.7200938998296855
1782846967024969700,6.4169697265625,7.362582777434587,1.5620087857201694,-1.941477912286669
1782846967034974700,6.426974609375,7.453716754299402,1.5861635682895778,-1.9258812608346343
1782846967044980700,6.436980712890625,7.306089905840158,1.6282082278147338,-1.8135740014292299
1782846967054985700,6.44698583984375,6.862933466130495,1.6499918973386287,-1.682085948474705
1782846967064990700,6.45699072265625,6.4782210320830345,1.9035899340495466,-1.3433600434459745
1782846967074995700,6.46699560546875,6.026921617928147,2.4126550162136553,-0.8073083162873983
1782846967085000700,6.477000732421875,5.393173048257827,2.83341929911226,-0.23094328344091772
1782846967095005700,6.487005615234375,4.517699542760849,3.227974497260153,0.15191680073812602
1782846967105010700,6.4970107421875,3.6457688244372606,3.5793270980194207,0.2714782690554857
1782846967115017000,6.507016845703125,2.8039836535304783,3.578198678511381,-0.08031608412191271
1782846967125022000,6.51702197265625,2.135959304770827,3.4752883391350506,-0.5131672567859292
1782846967135027000,6.52702685546875,1.8810586610287428,3.238594675473869,-0.7630263992294669
1782846967145032000,6.537031982421875,1.399468738028407,2.722845000979304,-0.6111931851215661
1782846967155037000,6.547036865234375,0.8597124572634697,2.0472329735696313,-0.40817543496042485
1782846967165042000,6.5570419921875,0.19907178901433945,1.1874763849034904,-0.42300650886744257
1782846967175048000,6.5670478515625,-0.7665607108354568,0.1685973019041121,-0.37943610107973214
1782846967185053000,6.577052978515625,-1.7443313922464847,-0.9004305443599819,-0.07495528774112463
1782846967195058000,6.587057861328125,-2.887220739665627,-2.0151476902619003,0.35509923994168635
1782846967205063000,6.59706298828125,-4.292015641152858,-3.169174810028076,0.7050529336884618
1782846967215068000,6.60706787109375,-6.361425959739089,-4.043067768335342,0.923526757787168
1782846967225073000,6.617072998046875,-9.064892306509613,-4.667626192595065,0.7894932581335306
1782846967235079000,6.627078857421875,-11.21780508416891,-5.015573076564073,0.9139740626744925
1782846967245084000,6.637083984375,-12.804251268792152,-5.114226927539706,1.7737107775963843
1782846967255089000,6.6470888671875,-14.474599725461005,-5.07529718516469,2.9555443343073127
1782846967265094000,6.657093994140625,-16.296391958528755,-4.815993922549485,4.070569230984151
1782846967275099000,6.667098876953125,-17.67494241169095,-4.8267134694844485,4.5481218612924215
1782846967285103900,6.677103759765625,-18.398555961203574,-5.0881578357815735,4.258837009650469
1782846967295108900,6.68710888671875,-18.223019361555576,-5.0435330966353416,3.5440941643357275
1782846967305114600,6.697114501953125,-17.210419358825682,-4.770732639065384,3.0525027795419093
1782846967315119600,6.70711962890625,-15.673180564963817,-4.470993613426387,2.7231854849800468
1782846967325124900,6.717124755859375,-13.890849404668808,-3.99123382846266,2.3118752591252325
1782846967335129900,6.7271298828125,-11.896484097933769,-3.2102634840026494,2.112272139713168
1782846967345134800,6.737134765625,-9.594238836941122,-2.251541786454618,2.12613071532622
1782846967355139800,6.747139892578125,-6.968354327023029,-1.2939312650188803,2.3646162308402356
1782846967365145900,6.757145751953125,-4.0999633755117655,-0.18594050476253032,2.8041847290605304
1782846967375150800,6.76715087890625,-1.3698667959690094,0.686253248411417,2.9466207308784127
1782846967385155800,6.77715576171875,1.1316045678168534,1.186997661475837,2.049022633465379
1782846967395160800,6.787160888671875,3.3140029676795004,1.8562071283668278,0.5942396391678602
1782846967405165800,6.797165771484375,4.968703773361444,2.664079216016829,-0.5479536157459021
1782846967415170800,6.8071708984375,6.179011291015148,3.039120735399425,-1.3079428392365573
1782846967425176800,6.8171767578125,7.172852232739329,3.1954774182811376,-1.8842678323335944
1782846967435181800,6.827181884765625,8.055135418251156,3.5341771659553047,-2.095526902747899
1782846967445186800,6.837186767578125,8.76108939243257,3.6905379404902456,-1.8986384491220116
1782846967455191800,6.84719189453125,9.441676870167255,3.739862820151448,-1.5260048676639795
1782846967465196800,6.85719677734375,10.03589714704752,3.766336693318188,-1.1179979211382567
1782846967475201800,6.867201904296875,10.524686041641235,3.8112671374127265,-0.9221555424991995
1782846967485207800,6.877207763671875,11.024873113083839,3.787077868051827,-0.9373318496473133
1782846967495212800,6.887212890625,11.190602604466676,3.673858316107094,-1.0827711979996413
1782846967505217800,6.8972177734375,11.133287895095348,3.5884874328136442,-1.1481624655164777
1782846967515222800,6.907222900390625,11.150748732984065,3.498363802035153,-1.0810099604807792
1782846967525227800,6.917227783203125,11.149217285633087,3.4558901034429668,-0.824987180840969
1782846967535232800,6.927232666015625,11.044774914383888,3.423912079901993,-0.4631305025283247
1782846967545237800,6.93723779296875,10.898200205326079,3.439666406133771,-0.09203684398867189
1782846967555243800,6.947243896484375,10.774968962454794,3.4739956689760088,0.22613398346304892
1782846967565248800,6.957248779296875,10.605544123685359,3.5929534723117946,0.3470245814923197
1782846967575253800,6.967253662109375,10.462881035113334,3.599250818890333,0.23846681081354618
1782846967585258800,6.9772587890625,10.260862086731194,3.6166131648406386,0.1782834872033447
1782846967595263700,6.987263671875,10.144845013022422,3.654174833732843,0.057536097037047144
1782846967605268700,6.997268798828125,10.002289476478099,3.6728038386180994,-0.13305040690042078
1782846967615275000,7.00727490234375,9.739138306263088,3.677202365837991,-0.40523594744242725
1782846967625280000,7.017280029296875,9.429032492649554,3.710884270687401,-0.6725638918854295
1782846967635285000,7.027284912109375,9.13138810120225,3.787457807280123,-0.657669105092436
1782846967645290000,7.0372900390625,8.897658840304613,3.727550158806145,-0.3445706855341792
1782846967655295000,7.047294921875,8.744947235926984,3.2334450376257298,-0.10486731866300106
1782846967665300000,7.057300048828125,8.44249047576189,2.0236291028812525,0.018538842383772135
1782846967675305700,7.0673056640625,7.383373636528849,0.6514563680574298,-0.0152077251996845
1782846967685310700,7.077310791015625,5.913713171899318,-0.5134449046835303,0.16329415399469435
1782846967695315700,7.087315673828125,3.4017052165299653,-1.6191797027066348,-0.2439331864606589
1782846967705321000,7.097321044921875,-0.28693478138446804,-2.4484397385612127,-1.5815166192665695
1782846967715326000,7.107325927734375,-4.2013013510048385,-3.2937945846483108,-2.41268424230814
1782846967725331000,7.1173310546875,-7.761078822162747,-3.463421960252523,-1.9155733634404837
1782846967735336000,7.1273359375,-10.281281774425507,-2.7830487097904086,-0.5653016409099102
1782846967745341700,7.137341796875,-12.265158420372009,-2.019029207870364,0.9594070494636893
1782846967755346700,7.1473466796875,-14.56577111172676,-1.756718287871778,1.8765376764729618
1782846967765351700,7.1573515625,-16.28494818897247,-2.9183702034279704,1.2109773797392844
1782846967775356700,7.167356689453125,-16.70551519573331,-5.145727981218696,0.16970394797176122
1782846967785361700,7.177361572265625,-16.919844175112246,-6.124621529179811,0.038698892761208116
1782846967795366700,7.18736669921875,-16.609152086043355,-5.108812501275539,0.9711407418772577
1782846967805372700,7.19737255859375,-15.139742381304501,-3.013549656291306,2.1653829676538705
1782846967815377700,7.207377685546875,-13.184571605360507,-1.4517217800959943,2.5762413580879566
1782846967825382700,7.217382568359375,-10.991097100210188,-0.9793877612188457,2.224647203657776
1782846967835387600,7.2273876953125,-8.528820267215371,-1.4426669515028596,1.3559561979077757
1782846967845392600,7.237392578125,-6.009247429549694,-2.595143042434752,0.29087990228105337
1782846967855398000,7.24739794921875,-3.6437978166252374,-3.558931083461642,-0.5180309903647751
1782846967865404000,7.25740380859375,-2.080815509697795,-3.6229745165660976,-1.0721557690262793
1782846967875409000,7.267408935546875,-0.6478355472117662,-3.1045544538185,-1.1092618031054735
1782846967885414000,7.277413818359375,0.4489268398046493,-2.3248016684547066,-0.8662921279147267
1782846967895419000,7.2874189453125,0.9616501522153615,-1.4712223071187733,-0.5496114659555256
1782846967905424000,7.297423828125,1.311233405214548,-0.756397921000421,-0.560921270401217
1782846967915428900,7.307428955078125,1.5509697975724934,0.010763970598578452,-0.12435315957330166
1782846967925435000,7.317434814453125,2.0255390281558037,0.7666215011119842,0.5813382912144065
1782846967935440000,7.32743994140625,2.677747383624315,1.378675833107531,0.8783260453838855
1782846967945444900,7.33744482421875,3.482683710083365,1.837428193616867,0.6060190704192966
1782846967955449900,7.347449951171875,4.1271752075642345,2.0060744492292404,0.12325824047606437
1782846967965454800,7.357454833984375,4.651556224542856,2.084187031957507,-0.24213121507260946
1782846967975459800,7.3674599609375,5.195214773443341,2.2700506720915437,-0.5682770034588873
1782846967985463800,7.3774638671875,5.555164522156119,2.3310516687601806,-0.668729574419558
1782846967995470000,7.387469970703125,5.64430878650844,2.2357997351825234,-0.5477528690094128
1782846968005475000,7.39747509765625,5.602781428855657,2.0817484066337344,-0.31873609665166586
1782846968015480000,7.40747998046875,5.557723558989167,1.8444672984734176,-0.29290106937773525
1782846968025485000,7.417485107421875,5.515035340863466,1.782818651551008,-0.3834690463902429
1782846968035490000,7.427489990234375,5.504481213623285,1.4686159240126608,-0.28408457958512007
1782846968045495000,7.4374951171875,5.516498983675241,1.2171528535038232,0.0743137019019574
1782846968055501000,7.4475009765625,5.622477478450536,0.8379147592142224,0.2792901118502021
1782846968065506000,7.457506103515625,5.833332059717178,0.7005661436632276,0.33259690075442194
1782846968075511000,7.467510986328125,5.977462298232316,0.7841700172841548,0.3363045231007039
1782846968085516000,7.47751611328125,6.018036300683021,0.9066691464886069,0.22387539088129996
1782846968095521000,7.48752099609375,5.882824112638831,1.2886758287087081,0.10191760201193392
1782846968105526000,7.497526123046875,5.401495470923185,1.8078963941842316,0.03528130287006497
1782846968115532000,7.507531982421875,4.731467965647578,2.2900269999325276,0.05449154170937836
1782846968125537000,7.517537109375,4.15321858035922,2.8334175455465913,0.09202383837662637
1782846968135542000,7.5275419921875,3.58353419432044,3.3129628109768032,0.08865165852978825
1782846968145547000,7.537547119140625,3.00721022413671,3.4958149943351744,0.027046120096743106
1782846968155552000,7.547552001953125,2.575197694253921,3.4075103956773876,0.08338752745650709
1782846968165557000,7.557556884765625,2.390307575327158,2.7512384440317748,-0.14975458120293914
1782846968175562800,7.567562744140625,2.1114286746263504,1.5819327988520264,-0.7144151477303355
1782846968185567700,7.577567626953125,1.5425602811455725,0.34919951437860725,-1.1801651120420544
1782846968195572700,7.58757275390625,0.759492087623477,-1.0346844087660312,-1.4409452422767877
1782846968205577700,7.59757763671875,-0.2247054119646549,-2.20419463660717,-1.1519355543144048
1782846968215582700,7.607582763671875,-1.566265566381812,-3.1880548670649524,-0.4883612437661737
1782846968225588000,7.617587890625,-3.171783531221747,-3.694246147358417,0.5128879283878952
1782846968235593000,7.627593017578125,-5.430861850661039,-3.820602536512911,1.2972706385746597
1782846968245599000,7.637598876953125,-8.269897528350352,-3.540079960258305,1.493230140787363
1782846968255604000,7.64760400390625,-11.62626079737544,-3.2649379079982634,1.2466884523287414
1782846968265609000,7.65760888671875,-14.7167987085402,-3.1755136576607823,0.8055839767128229
1782846968275614000,7.667614013671875,-16.627471002066134,-3.345045171675086,0.7104066427413374
1782846968285619000,7.677618896484375,-17.446928605830667,-3.7482580157920715,0.9327137613926082
1782846968295624000,7.6876240234375,-17.658048560035226,-4.19822325873375,1.266653235862404
1782846968305630000,7.6976298828125,-17.276121957314015,-4.775839606815576,1.4799243767514825
1782846968315635000,7.707635009765625,-16.55200454993248,-5.290251602965593,1.5220190128982065
1782846968325640000,7.717639892578125,-15.671581313073634,-5.605008457255363,1.3292216279782354
1782846968335645000,7.72764501953125,-14.38805307638645,-5.91790536289215,0.969318202625215
1782846968345650000,7.73764990234375,-12.874592632997036,-5.921750347882509,0.8404512919545173
1782846968355655000,7.747655029296875,-11.29633910717964,-5.232962612557411,0.9505591416195034
1782846968365660000,7.757659912109375,-9.905116219449043,-3.9942131365343925,1.0573689726524054
1782846968375666000,7.767666015625,-8.39858528306186,-2.3856489358663557,1.183620586258173
1782846968385671000,7.7776708984375,-7.062661673226952,-0.8815566248029469,1.4510574709683657
1782846968395676000,7.787676025390625,-5.495432230249047,0.16500468423962592,1.411474963773042
1782846968405681000,7.797680908203125,-3.363278747501969,1.0177738982364535,1.1033005566135048
1782846968415686000,7.807685791015625,-1.0998147603243589,1.5949965708255767,0.9056221216537058
1782846968425691000,7.81769091796875,1.2541834842592476,1.9468357860580086,0.7518132235586643
1782846968435697000,7.82769677734375,3.4453795230835675,2.1281907165959475,0.6790609988197683
1782846968445702000,7.837701904296875,5.19769665338695,2.1424957208022475,0.5300695840090512
1782846968455707000,7.847706787109375,6.43096828252077,2.199162487658858,0.06708981506302952
1782846968465711900,7.8577119140625,7.221290977215767,2.4989360000893472,-0.510147178312391
1782846968475716900,7.867716796875,7.927028678297996,2.883078817555308,-0.9888795199245214
1782846968485722000,7.87772216796875,8.684994579267501,3.387266649071872,-1.3087789977997542
1782846968495727000,7.88772705078125,9.572154430904984,3.558720655581355,-1.470318636277318
1782846968505733000,7.897733154296875,10.336614954590797,3.7589503824591635,-1.4731250720001756
1782846968515738000,7.907738037109375,10.990624806523323,3.7857732151940464,-1.6196398675642907
1782846968525743000,7.9177431640625,11.528723967730999,3.810025905179977,-1.785672579677403
1782846968535748000,7.927748046875,11.85407118961811,3.7496684671118854,-1.8282067762851715
1782846968545753000,7.937753173828125,12.178441090905666,3.460583521956205,-1.8341105935014783
1782846968555758000,7.947758056640625,12.46448506093025,3.0908228655859826,-1.8062348907127976
1782846968565763800,7.957763916015625,12.648354604637623,2.9023689166978,-1.7078795842923222
1782846968575768800,7.967768798828125,12.507092030513286,2.796765100453794,-1.4217268931962548
1782846968585773800,7.97777392578125,11.992906828856468,2.7967557481035588,-1.2914607832521199
1782846968595778800,7.98777880859375,11.223783574056625,2.921888732942939,-1.2448267501100898
1782846968605784000,7.9977841796875,10.45468370013237,3.0982129758372903,-1.1481111737206577
1782846968615789000,8.0077890625,9.816168354451655,3.2496172970086334,-1.1767150446534156
1782846968625794800,8.017794921875,9.12208075915277,3.296588307020068,-1.1927874969236552
1782846968635799800,8.0277998046875,8.494562023782729,3.373459657515585,-1.0994641933210194
1782846968645804800,8.0378046875,8.004262724626065,3.433682947809994,-1.0019086589761077
1782846968655809800,8.047809814453124,7.695154689878225,3.430215856221318,-0.9012326545231044
1782846968665814800,8.057814697265625,7.465033098083734,3.3693054604455828,-0.8939816604815423
1782846968675819800,8.06781982421875,7.115570256593823,3.1383290053874253,-0.9765610133603214
1782846968685824800,8.07782470703125,6.589996814960241,2.7776532804876566,-1.008368794900924
1782846968695831000,8.0878310546875,6.007367607152462,2.1412886831000444,-1.2088469435818492
1782846968705836000,8.0978359375,5.323647092089057,1.5291189080312848,-1.2366156788647173
1782846968715841000,8.107841064453124,4.283405633717775,0.9054176851227879,-1.0583749348245561
1782846968725846000,8.117845947265625,2.7206162190139294,-0.01582183851003647,-0.8886110733591019
1782846968735851000,8.12785107421875,0.8788234004467725,-1.1469158264562487,-0.6136003923937678
1782846968745856000,8.13785595703125,-1.1460206311821937,-2.2698718083932996,0.011125351256877183
1782846968755862000,8.147862060546874,-3.1578169651895758,-2.7361528108417987,0.8809097052015363
1782846968765867000,8.157866943359375,-4.849748308113217,-2.1269933235049248,1.8755599174819886
1782846968775872000,8.1678720703125,-6.178310449269413,-0.8836889606565237,2.5582874759852885
1782846968785877000,8.177876953125,-7.493971607798337,0.20734598862379788,2.91341901076138
1782846968795882000,8.187882080078126,-8.930092790919542,0.3591059913650155,3.109534288057685
1782846968805887000,8.197886962890625,-10.317277801436186,-1.189484217594564,2.999029840290546
1782846968815893000,8.20789306640625,-11.29357899481654,-3.1802313338324426,2.2468314168065784
1782846968825898000,8.21789794921875,-11.902294245517254,-4.430260328760743,1.2950744437046349
1782846968835903000,8.227903076171875,-12.09450842372179,-4.622233391685784,1.1530093210257588
1782846968845908000,8.237907958984374,-11.93441606144309,-3.508907700142264,2.213763406071812
1782846968855913000,8.247912841796875,-11.442897449624537,-2.2112375408560037,2.942949056628346
1782846968865918000,8.25791796875,-10.977007784581184,-1.2621179305203258,2.9761712350115177
1782846968875923000,8.2679228515625,-9.524410682955384,-0.5590456492550671,2.6347709962069987
1782846968885929000,8.277928955078124,-7.948478878083825,-0.6736620623856783,2.0841366169445217
1782846968895934000,8.287933837890625,-7.217558220428228,-2.2954082545794545,1.6318395700544117
1782846968905939000,8.29793896484375,-6.033697395673394,-3.313335443681478,0.7760569995857775
