time,seconds_elapsed,z,y,x
1782846025221236000,0.064236083984375,-0.9723663330078125,-0.1462860107421875,0.0832061767578125
1782846025231241000,0.074240966796875,-0.9777679443359375,-0.14453125,0.08660888671875
1782846025241246000,0.084245849609375,-0.9836883544921875,-0.1418914794921875,0.091583251953125
1782846025251252000,0.094251953125,-0.985687255859375,-0.143798828125,0.0928802490234375
1782846025261257000,0.104257080078125,-0.986328125,-0.144287109375,0.0930938720703125
1782846025271262000,0.114261962890625,-0.988433837890625,-0.1419830322265625,0.094329833984375
1782846025281268200,0.124268310546875,-0.9836273193359375,-0.1441802978515625,0.0929412841796875
1782846025291273200,0.134273193359375,-0.9777984619140625,-0.1438140869140625,0.0902862548828125
1782846025301278200,0.1442783203125,-0.976654052734375,-0.1416015625,0.0920562744140625
1782846025311283200,0.154283203125,-0.9695892333984375,-0.142242431640625,0.0929412841796875
1782846025321288400,0.164288330078125,-0.9667205810546875,-0.140045166015625,0.093109130859375
1782846025331293400,0.17429345703125,-0.9696502685546875,-0.1384429931640625,0.09503173828125
1782846025341298400,0.18429833984375,-0.9752349853515625,-0.1393585205078125,0.0959930419921875
1782846025351304400,0.194304443359375,-0.981292724609375,-0.1384124755859375,0.0968475341796875
1782846025361309400,0.204309326171875,-0.9910125732421875,-0.139862060546875,0.096893310546875
1782846025371314400,0.214314453125,-0.996978759765625,-0.140777587890625,0.09356689453125
1782846025381320400,0.224320556640625,-0.9977264404296875,-0.141937255859375,0.08990478515625
1782846025391325400,0.234325439453125,-0.9926605224609375,-0.14447021484375,0.0875244140625
1782846025401330400,0.244330322265625,-0.9860687255859375,-0.144989013671875,0.086090087890625
1782846025411335400,0.25433544921875,-0.9774169921875,-0.1439666748046875,0.084075927734375
1782846025421341400,0.264341552734375,-0.9706573486328125,-0.1432037353515625,0.085662841796875
1782846025431346400,0.274346435546875,-0.966796875,-0.1431884765625,0.0850067138671875
1782846025441351400,0.284351318359375,-0.968414306640625,-0.142333984375,0.0877838134765625
1782846025451357400,0.294357421875,-0.969940185546875,-0.1438751220703125,0.0910797119140625
1782846025461362400,0.304362548828125,-0.972320556640625,-0.1431427001953125,0.08978271484375
1782846025471367400,0.314367431640625,-0.973388671875,-0.143646240234375,0.089263916015625
1782846025481373200,0.324373291015625,-0.9718780517578125,-0.143463134765625,0.0902557373046875
1782846025491378400,0.33437841796875,-0.9695892333984375,-0.1434173583984375,0.092193603515625
1782846025501383400,0.344383544921875,-0.9715576171875,-0.1439361572265625,0.094970703125
1782846025511388400,0.354388427734375,-0.975341796875,-0.1443939208984375,0.097808837890625
1782846025521394400,0.36439453125,-0.979705810546875,-0.1448211669921875,0.0935211181640625
1782846025531399400,0.3743994140625,-0.985015869140625,-0.1452178955078125,0.0938262939453125
1782846025541404400,0.384404296875,-0.9864959716796875,-0.14532470703125,0.0913238525390625
1782846025551410400,0.394410400390625,-0.986572265625,-0.1434326171875,0.08795166015625
1782846025561415400,0.40441552734375,-0.9822540283203125,-0.14483642578125,0.0881195068359375
1782846025571420400,0.41442041015625,-0.976165771484375,-0.1458282470703125,0.090301513671875
1782846025581426400,0.424426513671875,-0.9721221923828125,-0.143890380859375,0.090850830078125
1782846025591431400,0.434431396484375,-0.9709930419921875,-0.142608642578125,0.0869140625
1782846025601436400,0.4444365234375,-0.9684906005859375,-0.144012451171875,0.087890625
1782846025611441400,0.45444140625,-0.9675750732421875,-0.1452178955078125,0.088653564453125
1782846025621447400,0.464447509765625,-0.9657745361328125,-0.144622802734375,0.0847930908203125
1782846025631452400,0.474452392578125,-0.9703826904296875,-0.14544677734375,0.0844573974609375
1782846025641457400,0.48445751953125,-0.9795074462890625,-0.14691162109375,0.084716796875
1782846025651463400,0.49446337890625,-0.981109619140625,-0.144561767578125,0.0863037109375
1782846025661468400,0.504468505859375,-0.978515625,-0.1429443359375,0.08514404296875
1782846025671473400,0.514473388671875,-0.9809112548828125,-0.143157958984375,0.085052490234375
1782846025681478400,0.524478515625,-0.98394775390625,-0.14263916015625,0.08880615234375
1782846025691484400,0.534484375,-0.9803466796875,-0.14117431640625,0.0921630859375
1782846025701489400,0.544489501953125,-0.977081298828125,-0.141326904296875,0.093170166015625
1782846025711494400,0.554494384765625,-0.97296142578125,-0.1407928466796875,0.091644287109375
1782846025721500400,0.56450048828125,-0.969207763671875,-0.1392974853515625,0.090850830078125
1782846025731505400,0.57450537109375,-0.967315673828125,-0.1419677734375,0.09161376953125
1782846025741510400,0.584510498046875,-0.9686279296875,-0.14154052734375,0.0920562744140625
1782846025751516400,0.594516357421875,-0.9728546142578125,-0.1407318115234375,0.09295654296875
1782846025761521400,0.604521484375,-0.97723388671875,-0.1423797607421875,0.097076416015625
1782846025771526400,0.6145263671875,-0.981903076171875,-0.1419525146484375,0.098419189453125
1782846025781531400,0.624531494140625,-0.9839630126953125,-0.1416168212890625,0.096527099609375
1782846025791537400,0.634537353515625,-0.983062744140625,-0.141693115234375,0.0923919677734375
1782846025801542400,0.64454248046875,-0.9813079833984375,-0.1422576904296875,0.089263916015625
1782846025811547400,0.65454736328125,-0.978515625,-0.1436614990234375,0.088226318359375
1782846025821553400,0.664553466796875,-0.97821044921875,-0.1446533203125,0.08892822265625
1782846025831558400,0.674558349609375,-0.9742889404296875,-0.144927978515625,0.091583251953125
1782846025841563400,0.6845634765625,-0.966339111328125,-0.14483642578125,0.0946197509765625
1782846025851569400,0.6945693359375,-0.9610595703125,-0.1448822021484375,0.0928192138671875
1782846025861574400,0.704574462890625,-0.9630889892578125,-0.1438140869140625,0.093505859375
1782846025871579400,0.714579345703125,-0.9707489013671875,-0.1447601318359375,0.0941619873046875
1782846025881584400,0.72458447265625,-0.978851318359375,-0.144012451171875,0.0965423583984375
1782846025891590400,0.73459033203125,-0.9830474853515625,-0.1450958251953125,0.0940093994140625
1782846025901595400,0.744595458984375,-0.985687255859375,-0.1427764892578125,0.0927734375
1782846025911600400,0.754600341796875,-0.9857940673828125,-0.144195556640625,0.094573974609375
1782846025921606400,0.7646064453125,-0.9816436767578125,-0.14398193359375,0.0934906005859375
1782846025931611400,0.774611328125,-0.9822235107421875,-0.1416473388671875,0.091278076171875
1782846025941616400,0.784616455078125,-0.9798736572265625,-0.141387939453125,0.089813232421875
1782846025951621400,0.794621337890625,-0.978973388671875,-0.142120361328125,0.0884246826171875
1782846025961627400,0.80462744140625,-0.9781951904296875,-0.14398193359375,0.0908355712890625
1782846025971632400,0.81463232421875,-0.97918701171875,-0.1464385986328125,0.0922088623046875
1782846025981637400,0.824637451171875,-0.9788970947265625,-0.14910888671875,0.094146728515625
1782846025991643400,0.834643310546875,-0.9738311767578125,-0.1472320556640625,0.0930023193359375
1782846026001648400,0.8446484375,-0.9697418212890625,-0.148101806640625,0.09490966796875
1782846026011653400,0.8546533203125,-0.9730377197265625,-0.148773193359375,0.0956268310546875
1782846026021659400,0.864659423828125,-0.976165771484375,-0.147216796875,0.09454345703125
1782846026031664400,0.874664306640625,-0.97784423828125,-0.145782470703125,0.09051513671875
1782846026041669400,0.88466943359375,-0.975799560546875,-0.1464080810546875,0.0904083251953125
1782846026051674400,0.89467431640625,-0.9766693115234375,-0.1444854736328125,0.0909423828125
1782846026061680400,0.904680419921875,-0.97845458984375,-0.1456756591796875,0.09033203125
1782846026071685400,0.914685302734375,-0.9764556884765625,-0.1453704833984375,0.0902862548828125
1782846026081690400,0.9246904296875,-0.974884033203125,-0.1436309814453125,0.092803955078125
1782846026091696400,0.9346962890625,-0.9728240966796875,-0.1422882080078125,0.0935516357421875
1782846026101701400,0.944701416015625,-0.972503662109375,-0.14154052734375,0.093963623046875
1782846026111706400,0.954706298828125,-0.9688568115234375,-0.142608642578125,0.09246826171875
1782846026121712400,0.96471240234375,-0.9647064208984375,-0.1425018310546875,0.0928955078125
1782846026131717400,0.97471728515625,-0.9662017822265625,-0.142822265625,0.094573974609375
1782846026141722400,0.984722412109375,-0.968963623046875,-0.1455078125,0.0974884033203125
1782846026151727400,0.994727294921875,-0.9736328125,-0.14569091796875,0.0958099365234375
1782846026161733400,1.0047333984375,-0.98016357421875,-0.1454315185546875,0.0948638916015625
1782846026171738400,1.01473828125,-0.985931396484375,-0.1431121826171875,0.0962982177734375
1782846026181743400,1.024743408203125,-0.987213134765625,-0.1426239013671875,0.0950775146484375
1782846026191749400,1.034749267578125,-0.9828643798828125,-0.1429901123046875,0.092437744140625
1782846026201754400,1.04475439453125,-0.977142333984375,-0.1421661376953125,0.09051513671875
1782846026211759400,1.05475927734375,-0.9746551513671875,-0.142242431640625,0.0886688232421875
1782846026221764400,1.064764404296875,-0.973602294921875,-0.14202880859375,0.086669921875
1782846026231770600,1.0747705078125,-0.9674530029296875,-0.1450042724609375,0.083587646484375
1782846026241775600,1.084775634765625,-0.9632110595703125,-0.144378662109375,0.08538818359375
1782846026251780600,1.094780517578125,-0.96527099609375,-0.14447021484375,0.0876007080078125
1782846026261786400,1.104786376953125,-0.96881103515625,-0.1430511474609375,0.088531494140625
1782846026271791400,1.114791259765625,-0.974395751953125,-0.1444244384765625,0.0909576416015625
1782846026281796400,1.12479638671875,-0.9818572998046875,-0.1430816650390625,0.0915069580078125
1782846026291802400,1.13480224609375,-0.9862060546875,-0.1450042724609375,0.0908660888671875
1782846026301807400,1.144807373046875,-0.981781005859375,-0.145660400390625,0.09234619140625
1782846026311812400,1.154812255859375,-0.9829864501953125,-0.1455841064453125,0.0919189453125
1782846026321816800,1.16481689453125,-0.9801025390625,-0.1443939208984375,0.0919036865234375
1782846026331822800,1.17482275390625,-0.979888916015625,-0.1466522216796875,0.0937347412109375
1782846026341827800,1.184827880859375,-0.979095458984375,-0.143798828125,0.0946197509765625
1782846026351832800,1.194832763671875,-0.977325439453125,-0.1425628662109375,0.0947265625
1782846026361838800,1.2048388671875,-0.9735870361328125,-0.14190673828125,0.0940399169921875
1782846026371843800,1.21484375,-0.9677886962890625,-0.142364501953125,0.09381103515625
1782846026381848800,1.224848876953125,-0.966522216796875,-0.1418914794921875,0.09844970703125
1782846026391855000,1.234855224609375,-0.968505859375,-0.1431427001953125,0.1002349853515625
1782846026401860000,1.244860107421875,-0.9739990234375,-0.1423797607421875,0.1002044677734375
1782846026411865000,1.254864990234375,-0.9786376953125,-0.1418304443359375,0.0976409912109375
1782846026421870000,1.2648701171875,-0.9861907958984375,-0.1453857421875,0.09857177734375
1782846026431875800,1.274875732421875,-0.988494873046875,-0.1422576904296875,0.0975494384765625
1782846026441880800,1.284880859375,-0.98736572265625,-0.140716552734375,0.0955810546875
1782846026451885800,1.2948857421875,-0.9856414794921875,-0.141143798828125,0.093536376953125
1782846026461891800,1.304891845703125,-0.9789886474609375,-0.1450653076171875,0.0914764404296875
1782846026471896800,1.314896728515625,-0.974639892578125,-0.1459503173828125,0.0885467529296875
1782846026481901800,1.32490185546875,-0.971649169921875,-0.146453857421875,0.0866851806640625
1782846026491907800,1.334907958984375,-0.9730682373046875,-0.1449737548828125,0.083709716796875
1782846026501912800,1.344912841796875,-0.97442626953125,-0.1427154541015625,0.0840911865234375
1782846026511917800,1.354917724609375,-0.977081298828125,-0.14288330078125,0.085662841796875
1782846026521922800,1.3649228515625,-0.9810333251953125,-0.1432342529296875,0.090118408203125
1782846026531929000,1.37492919921875,-0.985076904296875,-0.140594482421875,0.090118408203125
1782846026541934000,1.38493408203125,-0.983184814453125,-0.140045166015625,0.0915069580078125
1782846026551939000,1.39493896484375,-0.97784423828125,-0.139984130859375,0.0956268310546875
1782846026561945000,1.404945068359375,-0.9755096435546875,-0.139495849609375,0.09381103515625
1782846026571950000,1.4149501953125,-0.97271728515625,-0.1399383544921875,0.089691162109375
1782846026581955000,1.424955078125,-0.9694671630859375,-0.1424102783203125,0.09039306640625
1782846026591960000,1.4349599609375,-0.9636688232421875,-0.1415557861328125,0.08929443359375
1782846026601965800,1.4449658203125,-0.96295166015625,-0.1425933837890625,0.0920562744140625
1782846026611970800,1.454970703125,-0.96673583984375,-0.14288330078125,0.0944976806640625
1782846026621975800,1.464975830078125,-0.9738311767578125,-0.1424713134765625,0.09814453125
1782846026631981800,1.47498193359375,-0.982086181640625,-0.140106201171875,0.101531982421875
1782846026641986800,1.48498681640625,-0.9886322021484375,-0.13897705078125,0.099273681640625
1782846026651991800,1.49499169921875,-0.9892730712890625,-0.1375732421875,0.09686279296875
1782846026661997800,1.504997802734375,-0.9881439208984375,-0.140716552734375,0.09185791015625
1782846026672003000,1.515003173828125,-0.9829559326171875,-0.1406097412109375,0.08648681640625
1782846026682008000,1.525008056640625,-0.97589111328125,-0.1399383544921875,0.080810546875
1782846026692013000,1.535012939453125,-0.969879150390625,-0.140594482421875,0.0804443359375
1782846026702019000,1.54501904296875,-0.9632568359375,-0.1452178955078125,0.082977294921875
1782846026712024000,1.555024169921875,-0.9668426513671875,-0.144866943359375,0.0864410400390625
1782846026722029000,1.565029052734375,-0.9738311767578125,-0.1448822021484375,0.0878753662109375
1782846026732034800,1.575034912109375,-0.9791717529296875,-0.14239501953125,0.0892791748046875
1782846026742039800,1.585039794921875,-0.981597900390625,-0.1426544189453125,0.091827392578125
1782846026752044800,1.595044921875,-0.98101806640625,-0.1426239013671875,0.0926055908203125
1782846026762050800,1.60505078125,-0.983917236328125,-0.1428070068359375,0.0897979736328125
1782846026772055800,1.615055908203125,-0.9852447509765625,-0.1408233642578125,0.0898284912109375
1782846026782060800,1.625060791015625,-0.9802703857421875,-0.1400299072265625,0.0927581787109375
1782846026792065800,1.635065673828125,-0.974517822265625,-0.1413116455078125,0.0911712646484375
1782846026802071800,1.64507177734375,-0.9705047607421875,-0.1423492431640625,0.0898284912109375
1782846026812076800,1.655076904296875,-0.9669952392578125,-0.142822265625,0.0869598388671875
1782846026822081800,1.665081787109375,-0.9688873291015625,-0.1438446044921875,0.0870513916015625
1782846026832088000,1.675088134765625,-0.9756317138671875,-0.1430816650390625,0.0899200439453125
1782846026842093000,1.685093017578125,-0.9816436767578125,-0.143524169921875,0.0910797119140625
1782846026852098000,1.69509814453125,-0.986053466796875,-0.144378662109375,0.0914459228515625
1782846026862104000,1.70510400390625,-0.9850616455078125,-0.1451416015625,0.091644287109375
1782846026872109000,1.715109130859375,-0.982635498046875,-0.1446990966796875,0.0912322998046875
1782846026882114000,1.725114013671875,-0.9794464111328125,-0.1455230712890625,0.08953857421875
1782846026892119000,1.735119140625,-0.9730682373046875,-0.1458892822265625,0.0868072509765625
1782846026902124800,1.745124755859375,-0.9666748046875,-0.1455535888671875,0.087890625
1782846026912129800,1.7551298828125,-0.967132568359375,-0.145294189453125,0.08642578125
1782846026922134800,1.765134765625,-0.968902587890625,-0.144927978515625,0.0862884521484375
1782846026932140800,1.775140869140625,-0.97015380859375,-0.1450958251953125,0.088165283203125
1782846026942145800,1.785145751953125,-0.974884033203125,-0.1441192626953125,0.0892181396484375
1782846026952150800,1.79515087890625,-0.9852447509765625,-0.143524169921875,0.0872650146484375
1782846026962155800,1.80515576171875,-0.9931182861328125,-0.14385986328125,0.0888519287109375
1782846026972162000,1.815162109375,-0.9937896728515625,-0.14068603515625,0.090240478515625
1782846026982167000,1.8251669921875,-0.9898529052734375,-0.1403961181640625,0.0900421142578125
1782846026992172000,1.835172119140625,-0.9817962646484375,-0.141632080078125,0.0897979736328125
1782846027002178000,1.845177978515625,-0.9784698486328125,-0.1405487060546875,0.0867462158203125
1782846027012183000,1.85518310546875,-0.97174072265625,-0.1424560546875,0.088714599609375
1782846027022188000,1.86518798828125,-0.9641571044921875,-0.142547607421875,0.0882568359375
1782846027032193800,1.87519384765625,-0.956573486328125,-0.14251708984375,0.08837890625
1782846027042198800,1.88519873046875,-0.956024169921875,-0.1419219970703125,0.0923614501953125
1782846027052203800,1.895203857421875,-0.958770751953125,-0.14312744140625,0.095184326171875
1782846027062208800,1.905208740234375,-0.9689178466796875,-0.1424102783203125,0.09619140625
1782846027072214800,1.91521484375,-0.9813690185546875,-0.1412353515625,0.0969390869140625
1782846027082219800,1.9252197265625,-0.9914398193359375,-0.141387939453125,0.094268798828125
1782846027092224800,1.935224853515625,-0.995819091796875,-0.1421356201171875,0.096405029296875
1782846027102231000,1.94523095703125,-0.9952850341796875,-0.1440277099609375,0.0955047607421875
1782846027112236000,1.955236083984375,-0.9952392578125,-0.1455535888671875,0.093902587890625
1782846027122241000,1.965240966796875,-0.9849853515625,-0.1426239013671875,0.090240478515625
1782846027132247000,1.9752470703125,-0.97259521484375,-0.1418914794921875,0.0863800048828125
1782846027142252000,1.985251953125,-0.9651031494140625,-0.1461639404296875,0.0849609375
1782846027152257000,1.995257080078125,-0.9615325927734375,-0.1481170654296875,0.0835723876953125
1782846027162262000,2.005261962890625,-0.9648590087890625,-0.1475982666015625,0.0827178955078125
1782846027172268000,2.01526806640625,-0.972503662109375,-0.145294189453125,0.085479736328125
1782846027182273000,2.02527294921875,-0.9759368896484375,-0.1447601318359375,0.083465576171875
1782846027192278000,2.035278076171875,-0.9786834716796875,-0.1445465087890625,0.085418701171875
1782846027202283800,2.04528369140625,-0.9775238037109375,-0.1452484130859375,0.08734130859375
1782846027212288800,2.055288818359375,-0.979461669921875,-0.14556884765625,0.0857391357421875
1782846027222293800,2.065293701171875,-0.9794464111328125,-0.14459228515625,0.0855255126953125
1782846027232298800,2.075298828125,-0.9741363525390625,-0.1458282470703125,0.083953857421875
1782846027242304800,2.0853046875,-0.9670562744140625,-0.14556884765625,0.0861358642578125
1782846027252309800,2.095309814453125,-0.9646453857421875,-0.1455230712890625,0.0825653076171875
1782846027262314800,2.105314697265625,-0.9677276611328125,-0.1434326171875,0.082977294921875
1782846027272321000,2.115321044921875,-0.972900390625,-0.14300537109375,0.087890625
1782846027282326000,2.125325927734375,-0.9808349609375,-0.1431732177734375,0.0919036865234375
1782846027292331000,2.1353310546875,-0.9866943359375,-0.1415252685546875,0.093994140625
1782846027302337000,2.1453369140625,-0.990081787109375,-0.1427154541015625,0.0951385498046875
1782846027312342000,2.155342041015625,-0.990631103515625,-0.143157958984375,0.095733642578125
1782846027322347800,2.16534765625,-0.9871978759765625,-0.1432952880859375,0.095855712890625
1782846027332352800,2.175352783203125,-0.9752960205078125,-0.146697998046875,0.09246826171875
1782846027342358800,2.18535888671875,-0.96771240234375,-0.1453399658203125,0.0896759033203125
1782846027352363800,2.19536376953125,-0.965972900390625,-0.1432037353515625,0.0865478515625
1782846027362368800,2.20536865234375,-0.9716796875,-0.143157958984375,0.0892486572265625
1782846027372374800,2.215374755859375,-0.97607421875,-0.1415557861328125,0.08984375
1782846027382379800,2.2253798828125,-0.9793853759765625,-0.140380859375,0.0905303955078125
1782846027392384800,2.235384765625,-0.982421875,-0.1402130126953125,0.089996337890625
1782846027402390800,2.245390869140625,-0.984954833984375,-0.141754150390625,0.0865936279296875
1782846027412395800,2.255395751953125,-0.986236572265625,-0.1429595947265625,0.085235595703125
1782846027422400800,2.26540087890625,-0.982940673828125,-0.1437835693359375,0.0825653076171875
1782846027432405800,2.27540576171875,-0.980926513671875,-0.1430511474609375,0.0799560546875
1782846027442411800,2.285411865234375,-0.9778900146484375,-0.144805908203125,0.081573486328125
1782846027452417000,2.2954169921875,-0.97332763671875,-0.1473846435546875,0.083099365234375
1782846027462422000,2.305422119140625,-0.9670562744140625,-0.149383544921875,0.0845184326171875
1782846027472427800,2.315427734375,-0.966033935546875,-0.1468505859375,0.084869384765625
1782846027482432800,2.325432861328125,-0.971832275390625,-0.1437835693359375,0.087158203125
1782846027492437800,2.335437744140625,-0.9843597412109375,-0.1424407958984375,0.090545654296875
1782846027502442800,2.34544287109375,-0.984954833984375,-0.13946533203125,0.091705322265625
1782846027512448800,2.35544873046875,-0.98187255859375,-0.1373291015625,0.093536376953125
1782846027522453800,2.365453857421875,-0.9799957275390625,-0.136444091796875,0.095458984375
1782846027532458800,2.375458740234375,-0.9764404296875,-0.1371917724609375,0.0985260009765625
1782846027542464800,2.38546484375,-0.9768829345703125,-0.137939453125,0.0968170166015625
1782846027552469800,2.3954697265625,-0.9750823974609375,-0.1385040283203125,0.0954742431640625
1782846027562474800,2.405474853515625,-0.9753875732421875,-0.1431121826171875,0.09405517578125
1782846027572480800,2.415480712890625,-0.9729156494140625,-0.1432952880859375,0.0946807861328125
1782846027582485800,2.42548583984375,-0.9686737060546875,-0.1450958251953125,0.0928955078125
1782846027592490800,2.43549072265625,-0.9715728759765625,-0.1457672119140625,0.092987060546875
1782846027602495700,2.445495849609375,-0.975250244140625,-0.1462860107421875,0.09320068359375
1782846027612501800,2.455501708984375,-0.9727630615234375,-0.14599609375,0.091156005859375
1782846027622506800,2.4655068359375,-0.97552490234375,-0.1478118896484375,0.087890625
1782846027632511700,2.47551171875,-0.9775390625,-0.1458587646484375,0.0869903564453125
1782846027642517800,2.485517822265625,-0.9757232666015625,-0.1461334228515625,0.0851898193359375
1782846027652522800,2.495522705078125,-0.9727020263671875,-0.1469268798828125,0.086761474609375
1782846027662527700,2.50552783203125,-0.9698944091796875,-0.149505615234375,0.088409423828125
1782846027672533800,2.51553369140625,-0.9676361083984375,-0.1504364013671875,0.0907745361328125
1782846027682538800,2.525538818359375,-0.968597412109375,-0.1515655517578125,0.0918426513671875
1782846027692543700,2.535543701171875,-0.97161865234375,-0.1519775390625,0.0927581787109375
1782846027702548700,2.545548828125,-0.976654052734375,-0.1485137939453125,0.0900726318359375
1782846027712554800,2.5555546875,-0.981964111328125,-0.147918701171875,0.0880889892578125
1782846027722559700,2.565559814453125,-0.9813690185546875,-0.14739990234375,0.08880615234375
1782846027732564700,2.575564697265625,-0.9832000732421875,-0.1463775634765625,0.087677001953125
1782846027742570800,2.58557080078125,-0.98187255859375,-0.1479644775390625,0.087890625
1782846027752576000,2.595575927734375,-0.9800872802734375,-0.14996337890625,0.086151123046875
1782846027762581000,2.6055810546875,-0.97113037109375,-0.152618408203125,0.08685302734375
1782846027772586000,2.6155859375,-0.9673919677734375,-0.1516571044921875,0.0845947265625
1782846027782591700,2.625591796875,-0.96710205078125,-0.150482177734375,0.08331298828125
1782846027792596700,2.6355966796875,-0.970916748046875,-0.1516571044921875,0.0848236083984375
1782846027802601700,2.645601806640625,-0.97381591796875,-0.1484375,0.08642578125
1782846027812607700,2.655607666015625,-0.98077392578125,-0.1477813720703125,0.0859832763671875
1782846027822612700,2.66561279296875,-0.9877166748046875,-0.14703369140625,0.0841827392578125
1782846027832617700,2.67561767578125,-0.99078369140625,-0.1475067138671875,0.0874481201171875
1782846027842623700,2.685623779296875,-0.9888153076171875,-0.1491851806640625,0.087432861328125
1782846027852628700,2.695628662109375,-0.981842041015625,-0.1479644775390625,0.085479736328125
1782846027862633700,2.7056337890625,-0.9734954833984375,-0.1479034423828125,0.08441162109375
1782846027872638700,2.715638671875,-0.9672698974609375,-0.1475830078125,0.080841064453125
1782846027882645000,2.72564501953125,-0.9658050537109375,-0.14617919921875,0.083740234375
1782846027892650000,2.73564990234375,-0.9660797119140625,-0.14666748046875,0.08258056640625
1782846027902655000,2.745655029296875,-0.969635009765625,-0.1460418701171875,0.0821380615234375
1782846027912660700,2.75566064453125,-0.975830078125,-0.1466522216796875,0.0860748291015625
1782846027922665700,2.765665771484375,-0.97821044921875,-0.1456146240234375,0.087677001953125
1782846027932670700,2.775670654296875,-0.9813690185546875,-0.1440582275390625,0.084503173828125
1782846027942675700,2.78567578125,-0.9800262451171875,-0.142791748046875,0.0833282470703125
1782846027952681700,2.795681640625,-0.978851318359375,-0.1441650390625,0.0841522216796875
1782846027962686700,2.805686767578125,-0.97637939453125,-0.1454620361328125,0.0815277099609375
1782846027972691700,2.815691650390625,-0.977508544921875,-0.1451416015625,0.0815887451171875
1782846027982697700,2.82569775390625,-0.9808197021484375,-0.1441497802734375,0.080291748046875
1782846027992702700,2.83570263671875,-0.9770965576171875,-0.1431732177734375,0.0849151611328125
1782846028002707700,2.845707763671875,-0.9705657958984375,-0.1438751220703125,0.0871124267578125
1782846028012713700,2.855713623046875,-0.965362548828125,-0.1445465087890625,0.0893707275390625
1782846028022718700,2.86571875,-0.9643707275390625,-0.1439666748046875,0.0924530029296875
1782846028032724000,2.875723876953125,-0.9631805419921875,-0.1415252685546875,0.09429931640625
1782846028042729000,2.88572900390625,-0.966949462890625,-0.140228271484375,0.0944671630859375
1782846028052735000,2.89573486328125,-0.9732208251953125,-0.1412506103515625,0.093719482421875
1782846028062740000,2.905739990234375,-0.979156494140625,-0.14129638671875,0.089752197265625
1782846028072745000,2.915744873046875,-0.9832763671875,-0.14300537109375,0.0897979736328125
1782846028082750700,2.925750732421875,-0.983642578125,-0.146697998046875,0.0890655517578125
1782846028092755700,2.935755615234375,-0.983062744140625,-0.1493377685546875,0.0853271484375
1782846028102760700,2.9457607421875,-0.9790496826171875,-0.1489410400390625,0.08282470703125
1782846028112765700,2.955765625,-0.98046875,-0.1493988037109375,0.083831787109375
1782846028122771700,2.965771728515625,-0.97589111328125,-0.1490936279296875,0.084381103515625
1782846028132776700,2.975776611328125,-0.971221923828125,-0.1496734619140625,0.08062744140625
1782846028142781700,2.98578173828125,-0.96856689453125,-0.14801025390625,0.0811767578125
1782846028152787700,2.99578759765625,-0.9652099609375,-0.14849853515625,0.084686279296875
1782846028162792700,3.005792724609375,-0.9680633544921875,-0.1486968994140625,0.087799072265625
1782846028172797700,3.015797607421875,-0.9720611572265625,-0.1458740234375,0.0877685546875
1782846028182804000,3.025803955078125,-0.9786376953125,-0.1443939208984375,0.0862884521484375
1782846028192809000,3.03580908203125,-0.987579345703125,-0.1448516845703125,0.0851287841796875
1782846028202814000,3.04581396484375,-0.992828369140625,-0.14453125,0.088348388671875
1782846028212819000,3.05581884765625,-0.99578857421875,-0.1460113525390625,0.0878448486328125
1782846028222824700,3.06582470703125,-0.994110107421875,-0.1439056396484375,0.08795166015625
1782846028232829700,3.07582958984375,-0.99267578125,-0.14471435546875,0.0883941650390625
1782846028242834700,3.085834716796875,-0.986236572265625,-0.1432952880859375,0.0889129638671875
1782846028252840700,3.0958408203125,-0.9786224365234375,-0.1419830322265625,0.0873260498046875
1782846028262845700,3.105845703125,-0.9748382568359375,-0.141693115234375,0.0859222412109375
1782846028272850700,3.1158505859375,-0.96832275390625,-0.1435089111328125,0.0872650146484375
1782846028282855700,3.125855712890625,-0.960723876953125,-0.14239501953125,0.0883026123046875
1782846028292861700,3.13586181640625,-0.9604034423828125,-0.1429443359375,0.085479736328125
1782846028302866700,3.14586669921875,-0.96563720703125,-0.141754150390625,0.0865936279296875
1782846028312871700,3.15587158203125,-0.9757843017578125,-0.1416473388671875,0.0886688232421875
1782846028322878000,3.1658779296875,-0.9856414794921875,-0.1440277099609375,0.0906524658203125
1782846028332883000,3.175883056640625,-0.987945556640625,-0.141876220703125,0.09381103515625
1782846028342888000,3.185887939453125,-0.9901123046875,-0.1412506103515625,0.0967864990234375
1782846028352893000,3.195892822265625,-0.99346923828125,-0.1411895751953125,0.097808837890625
1782846028362899000,3.20589892578125,-0.9865264892578125,-0.140472412109375,0.093505859375
1782846028372904000,3.215904052734375,-0.97528076171875,-0.1414031982421875,0.0906829833984375
1782846028382909000,3.225908935546875,-0.9649505615234375,-0.1406707763671875,0.087860107421875
1782846028392914700,3.235914794921875,-0.9609527587890625,-0.1430816650390625,0.085113525390625
1782846028402919700,3.245919677734375,-0.962799072265625,-0.1417236328125,0.085784912109375
1782846028412924700,3.255924560546875,-0.9644317626953125,-0.139007568359375,0.0840606689453125
1782846028422930700,3.2659306640625,-0.9659271240234375,-0.1385498046875,0.083343505859375
1782846028432935700,3.275935791015625,-0.9715118408203125,-0.1404876708984375,0.086883544921875
1782846028442940700,3.285940673828125,-0.9738922119140625,-0.1407012939453125,0.0902862548828125
1782846028452945700,3.295945556640625,-0.9756927490234375,-0.142120361328125,0.0932159423828125
1782846028462952000,3.305951904296875,-0.98052978515625,-0.141937255859375,0.092803955078125
1782846028472957000,3.31595703125,-0.98370361328125,-0.141845703125,0.089569091796875
1782846028482962000,3.3259619140625,-0.98516845703125,-0.1414337158203125,0.08807373046875
1782846028492968000,3.335968017578125,-0.98052978515625,-0.1438140869140625,0.086578369140625
1782846028502973000,3.345972900390625,-0.980987548828125,-0.144989013671875,0.0828399658203125
1782846028512978000,3.35597802734375,-0.9838409423828125,-0.1446075439453125,0.0830535888671875
1782846028522983700,3.365983642578125,-0.98553466796875,-0.1422119140625,0.087158203125
1782846028532988700,3.37598876953125,-0.9844207763671875,-0.140380859375,0.0887298583984375
1782846028542993700,3.38599365234375,-0.97998046875,-0.141754150390625,0.087158203125
1782846028552998700,3.39599853515625,-0.976837158203125,-0.143035888671875,0.0867767333984375
1782846028563004700,3.406004638671875,-0.970672607421875,-0.1427154541015625,0.089599609375
1782846028573009700,3.416009765625,-0.970489501953125,-0.1430511474609375,0.0906524658203125
1782846028583014700,3.4260146484375,-0.973968505859375,-0.1450958251953125,0.0888519287109375
1782846028593020700,3.436020751953125,-0.9751434326171875,-0.1446685791015625,0.0901031494140625
1782846028603025700,3.446025634765625,-0.9787750244140625,-0.1481170654296875,0.0883026123046875
1782846028613030700,3.45603076171875,-0.9807586669921875,-0.1474151611328125,0.0865325927734375
1782846028623035600,3.46603564453125,-0.982696533203125,-0.1453399658203125,0.08599853515625
1782846028633042000,3.4760419921875,-0.979522705078125,-0.1450042724609375,0.0851898193359375
1782846028643047000,3.486046875,-0.9784698486328125,-0.1435089111328125,0.0830841064453125
1782846028653052000,3.496052001953125,-0.977783203125,-0.1437225341796875,0.08343505859375
1782846028663058000,3.506057861328125,-0.9759979248046875,-0.1455078125,0.0876922607421875
1782846028673063000,3.51606298828125,-0.9766387939453125,-0.145355224609375,0.0876617431640625
1782846028683068000,3.52606787109375,-0.973846435546875,-0.1455230712890625,0.0849151611328125
1782846028693073000,3.536072998046875,-0.97021484375,-0.144805908203125,0.082000732421875
1782846028703078700,3.54607861328125,-0.9681549072265625,-0.14447021484375,0.0813446044921875
1782846028713083600,3.556083740234375,-0.969482421875,-0.1450042724609375,0.0808868408203125
1782846028723088600,3.566088623046875,-0.97344970703125,-0.146514892578125,0.0818328857421875
1782846028733094700,3.5760947265625,-0.978363037109375,-0.144500732421875,0.0804290771484375
1782846028743099600,3.586099609375,-0.985565185546875,-0.14208984375,0.0812835693359375
1782846028753104600,3.596104736328125,-0.985809326171875,-0.1415557861328125,0.0819091796875
1782846028763109600,3.606109619140625,-0.980377197265625,-0.142059326171875,0.0839385986328125
1782846028773116000,3.616115966796875,-0.9792633056640625,-0.1441192626953125,0.087249755859375
1782846028783121000,3.626120849609375,-0.9772491455078125,-0.143890380859375,0.08636474609375
1782846028793126000,3.6361259765625,-0.974761962890625,-0.1446075439453125,0.0862884521484375
1782846028803132000,3.6461318359375,-0.9694976806640625,-0.1459197998046875,0.0862884521484375
1782846028813137000,3.656136962890625,-0.96514892578125,-0.14447021484375,0.0869598388671875
1782846028823142000,3.666141845703125,-0.968994140625,-0.142730712890625,0.08428955078125
1782846028833147000,3.67614697265625,-0.97662353515625,-0.1437835693359375,0.086669921875
1782846028843152600,3.686152587890625,-0.9847259521484375,-0.141387939453125,0.089935302734375
1782846028853157600,3.69615771484375,-0.983917236328125,-0.14031982421875,0.090240478515625
1782846028863163000,3.706162841796875,-0.981536865234375,-0.14056396484375,0.0918731689453125
1782846028873168600,3.716168701171875,-0.9794921875,-0.137298583984375,0.094085693359375
1782846028883173600,3.726173583984375,-0.9848480224609375,-0.1360321044921875,0.09466552734375
1782846028893178600,3.7361787109375,-0.98382568359375,-0.13458251953125,0.090850830078125
1782846028903183600,3.74618359375,-0.9769287109375,-0.1360626220703125,0.090484619140625
1782846028913190000,3.75618994140625,-0.9765167236328125,-0.13970947265625,0.0915069580078125
1782846028923195000,3.76619482421875,-0.9712371826171875,-0.14227294921875,0.09478759765625
1782846028933200000,3.776199951171875,-0.9672088623046875,-0.1431427001953125,0.0972747802734375
1782846028943206000,3.786205810546875,-0.9633636474609375,-0.143951416015625,0.0951385498046875
1782846028953211000,3.7962109375,-0.9635467529296875,-0.1434478759765625,0.0929412841796875
1782846028963216000,3.8062158203125,-0.9697723388671875,-0.1426849365234375,0.091796875
1782846028973222000,3.816221923828125,-0.9801025390625,-0.1448822021484375,0.089752197265625
1782846028983227000,3.826226806640625,-0.9860687255859375,-0.14556884765625,0.0890655517578125
1782846028993232000,3.83623193359375,-0.9915618896484375,-0.1429595947265625,0.0870208740234375
1782846029003236900,3.84623681640625,-0.9904937744140625,-0.1429595947265625,0.08538818359375
1782846029013242600,3.85624267578125,-0.9826812744140625,-0.142486572265625,0.0859527587890625
1782846029023247600,3.86624755859375,-0.979705810546875,-0.14013671875,0.0836334228515625
1782846029033252600,3.876252685546875,-0.9757080078125,-0.1408233642578125,0.0854034423828125
1782846029043259000,3.8862587890625,-0.968109130859375,-0.1422882080078125,0.0874786376953125
1782846029053264000,3.896263916015625,-0.96685791015625,-0.140655517578125,0.08868408203125
1782846029063268900,3.906268798828125,-0.9688873291015625,-0.1378173828125,0.093353271484375
1782846029073273900,3.91627392578125,-0.976104736328125,-0.1382598876953125,0.09271240234375
1782846029083280000,3.92627978515625,-0.9815521240234375,-0.13543701171875,0.09228515625
1782846029093284900,3.936284912109375,-0.98492431640625,-0.136444091796875,0.093902587890625
1782846029103289900,3.946289794921875,-0.9848785400390625,-0.1361083984375,0.0950469970703125
1782846029113296000,3.9562958984375,-0.983428955078125,-0.1383514404296875,0.097381591796875
1782846029123300900,3.96630078125,-0.976898193359375,-0.1399688720703125,0.095855712890625
1782846029133305900,3.976305908203125,-0.9688720703125,-0.139373779296875,0.0963592529296875
1782846029143310800,3.986310791015625,-0.9602813720703125,-0.1434173583984375,0.0965118408203125
1782846029153316900,3.99631689453125,-0.9547882080078125,-0.1443328857421875,0.09521484375
1782846029163321900,4.00632177734375,-0.9581756591796875,-0.144989013671875,0.09466552734375
1782846029173326800,4.016326904296875,-0.9657745361328125,-0.143890380859375,0.0919342041015625
1782846029183332600,4.02633251953125,-0.9736175537109375,-0.1434326171875,0.091583251953125
1782846029193337600,4.036337646484375,-0.980682373046875,-0.1431121826171875,0.0938262939453125
1782846029203342600,4.046342529296875,-0.9884185791015625,-0.1444549560546875,0.090972900390625
1782846029213347600,4.05634765625,-0.995025634765625,-0.1438446044921875,0.0885009765625
1782846029223353900,4.066353759765625,-0.9981842041015625,-0.1447296142578125,0.08026123046875
1782846029233358800,4.07635888671875,-0.98236083984375,-0.1454925537109375,0.0870513916015625
1782846029243363800,4.08636376953125,-0.9675445556640625,-0.1480865478515625,0.08544921875
1782846029253369900,4.096369873046875,-0.9668426513671875,-0.1449737548828125,0.0866546630859375
1782846029263374800,4.106374755859375,-0.97210693359375,-0.1444854736328125,0.0823516845703125
1782846029273379800,4.1163798828125,-0.977813720703125,-0.145050048828125,0.0870361328125
1782846029283384800,4.126384765625,-0.9775238037109375,-0.14532470703125,0.0910797119140625
1782846029293390800,4.136390869140625,-0.98419189453125,-0.1441650390625,0.0922088623046875
1782846029303395800,4.146395751953125,-0.9871673583984375,-0.1451873779296875,0.0925750732421875
1782846029313400800,4.15640087890625,-0.9847564697265625,-0.1426544189453125,0.0940093994140625
1782846029323406600,4.166406494140625,-0.9808197021484375,-0.143524169921875,0.092803955078125
1782846029333411600,4.17641162109375,-0.9730224609375,-0.1424560546875,0.0911865234375
1782846029343416600,4.18641650390625,-0.969390869140625,-0.1438140869140625,0.092010498046875
1782846029353421600,4.196421630859375,-0.9676666259765625,-0.144287109375,0.091766357421875
1782846029363427800,4.206427734375,-0.9696197509765625,-0.1450653076171875,0.0893402099609375
1782846029373432800,4.216432861328125,-0.9725189208984375,-0.1470947265625,0.08642578125
1782846029383437800,4.226437744140625,-0.97711181640625,-0.147796630859375,0.0853118896484375
1782846029393443800,4.23644384765625,-0.9815216064453125,-0.1466522216796875,0.0871429443359375
1782846029403448800,4.24644873046875,-0.9865264892578125,-0.145416259765625,0.0881805419921875
1782846029413453800,4.256453857421875,-0.985626220703125,-0.145172119140625,0.0864410400390625
1782846029423459800,4.2664599609375,-0.9859161376953125,-0.1441802978515625,0.085845947265625
1782846029433464800,4.27646484375,-0.9846343994140625,-0.1415863037109375,0.086578369140625
1782846029443469800,4.2864697265625,-0.9824981689453125,-0.1414031982421875,0.086944580078125
1782846029453474800,4.296474853515625,-0.9751434326171875,-0.142578125,0.0887298583984375
1782846029463480800,4.306480712890625,-0.96881103515625,-0.144195556640625,0.0904388427734375
1782846029473485800,4.31648583984375,-0.961822509765625,-0.1421356201171875,0.09197998046875
1782846029483490800,4.32649072265625,-0.9606781005859375,-0.1429901123046875,0.0930328369140625
1782846029493495800,4.336495849609375,-0.96392822265625,-0.1431884765625,0.09246826171875
1782846029503501800,4.346501708984375,-0.972503662109375,-0.1440887451171875,0.095367431640625
1782846029513506800,4.3565068359375,-0.9789581298828125,-0.1450653076171875,0.095184326171875
1782846029523511800,4.36651171875,-0.9883575439453125,-0.1441192626953125,0.095672607421875
1782846029533517800,4.376517822265625,-0.99530029296875,-0.142608642578125,0.0948638916015625
1782846029543522800,4.386522705078125,-0.9936981201171875,-0.1441497802734375,0.092376708984375
1782846029553527800,4.39652783203125,-0.9870452880859375,-0.14141845703125,0.0883941650390625
1782846029563532800,4.40653271484375,-0.9783172607421875,-0.1433563232421875,0.0853118896484375
1782846029573538800,4.416538818359375,-0.971771240234375,-0.14202880859375,0.0823822021484375
1782846029583543800,4.426543701171875,-0.964324951171875,-0.139984130859375,0.084930419921875
1782846029593548800,4.436548828125,-0.957977294921875,-0.14019775390625,0.092315673828125
1782846029603554800,4.446554931640625,-0.96380615234375,-0.1408233642578125,0.0817108154296875
1782846029613559800,4.456559814453125,-0.9740142822265625,-0.1391143798828125,0.0882415771484375
1782846029623564800,4.466564697265625,-0.9700164794921875,-0.1383209228515625,0.0998382568359375
1782846029633569800,4.47656982421875,-0.9740447998046875,-0.1396026611328125,0.1008148193359375
1782846029643575600,4.486575439453125,-0.9806365966796875,-0.13775634765625,0.0952301025390625
1782846029653580800,4.496580810546875,-0.983551025390625,-0.135589599609375,0.094696044921875
1782846029663585800,4.506585693359375,-0.9846649169921875,-0.137298583984375,0.0974884033203125
1782846029673591800,4.516591796875,-0.98394775390625,-0.1380157470703125,0.09423828125
1782846029683596800,4.5265966796875,-0.9781646728515625,-0.140106201171875,0.09637451171875
1782846029693601800,4.536601806640625,-0.97088623046875,-0.140472412109375,0.097900390625
1782846029703606800,4.546606689453125,-0.972412109375,-0.1392822265625,0.0990142822265625
1782846029713612800,4.55661279296875,-0.9789276123046875,-0.140289306640625,0.0994415283203125
1782846029723617800,4.56661767578125,-0.981964111328125,-0.13836669921875,0.099822998046875
1782846029733622800,4.576622802734375,-0.9832000732421875,-0.136016845703125,0.1016693115234375
1782846029743628800,4.58662890625,-0.9811859130859375,-0.1374969482421875,0.1012725830078125
1782846029753633800,4.5966337890625,-0.9776763916015625,-0.1370849609375,0.0978546142578125
1782846029763638800,4.606638671875,-0.97393798828125,-0.138214111328125,0.0969696044921875
1782846029773643800,4.616643798828125,-0.9693450927734375,-0.14013671875,0.0955810546875
1782846029783649800,4.62664990234375,-0.9648284912109375,-0.140380859375,0.0921783447265625
1782846029793654800,4.63665478515625,-0.9642791748046875,-0.1431427001953125,0.0912017822265625
1782846029803659800,4.64665966796875,-0.96575927734375,-0.1442108154296875,0.09185791015625
1782846029813665800,4.656665771484375,-0.96923828125,-0.1435089111328125,0.0942535400390625
1782846029823670800,4.6666708984375,-0.972869873046875,-0.144866943359375,0.0948486328125
1782846029833675800,4.67667578125,-0.975860595703125,-0.144317626953125,0.096038818359375
1782846029843680800,4.6866806640625,-0.9818267822265625,-0.1454925537109375,0.098602294921875
1782846029853686800,4.696686767578125,-0.9864044189453125,-0.1460723876953125,0.098297119140625
1782846029863691800,4.70669189453125,-0.98431396484375,-0.14691162109375,0.0990753173828125
1782846029873696800,4.71669677734375,-0.9858245849609375,-0.1466217041015625,0.09552001953125
1782846029883702800,4.726702880859375,-0.984375,-0.1439208984375,0.09454345703125
1782846029893707800,4.736707763671875,-0.97967529296875,-0.143951416015625,0.091064453125
1782846029903712800,4.746712646484375,-0.9708404541015625,-0.1427764892578125,0.089569091796875
1782846029913717800,4.7567177734375,-0.9690399169921875,-0.1427001953125,0.0923309326171875
1782846029923723800,4.766723876953125,-0.9699554443359375,-0.1441802978515625,0.0953826904296875
1782846029933728800,4.776728759765625,-0.976318359375,-0.145965576171875,0.0982513427734375
1782846029943733800,4.786733642578125,-0.979827880859375,-0.1441192626953125,0.1000213623046875
1782846029953739800,4.79673974609375,-0.9816741943359375,-0.14654541015625,0.0959320068359375
1782846029963744800,4.806744873046875,-0.982940673828125,-0.1483001708984375,0.093780517578125
1782846029973749800,4.816749755859375,-0.983367919921875,-0.1485748291015625,0.094085693359375
1782846029983754800,4.826754638671875,-0.981658935546875,-0.14886474609375,0.094329833984375
1782846029993760800,4.8367607421875,-0.978485107421875,-0.1499481201171875,0.0920867919921875
1782846030003765800,4.846765869140625,-0.9796295166015625,-0.1497802734375,0.0907135009765625
1782846030013770800,4.856770751953125,-0.9763336181640625,-0.1488037109375,0.088958740234375
1782846030023776800,4.86677685546875,-0.973724365234375,-0.1495513916015625,0.0893096923828125
1782846030033781800,4.87678173828125,-0.97021484375,-0.1477508544921875,0.0918121337890625
1782846030043786800,4.886786865234375,-0.96905517578125,-0.146087646484375,0.091888427734375
1782846030053791700,4.896791748046875,-0.9709930419921875,-0.145843505859375,0.0906829833984375
1782846030063797800,4.9067978515625,-0.9764556884765625,-0.14617919921875,0.09234619140625
1782846030073802800,4.916802734375,-0.979400634765625,-0.142120361328125,0.0936431884765625
1782846030083807700,4.926807861328125,-0.984344482421875,-0.1405181884765625,0.0947113037109375
1782846030093814000,4.93681396484375,-0.9833984375,-0.1386871337890625,0.094024658203125
1782846030103819000,4.946819091796875,-0.978729248046875,-0.14202880859375,0.093048095703125
1782846030113824000,4.956823974609375,-0.9739990234375,-0.1433868408203125,0.0959625244140625
1782846030123829000,4.9668291015625,-0.9681549072265625,-0.1461334228515625,0.0948638916015625
1782846030133834800,4.976834716796875,-0.968719482421875,-0.1475677490234375,0.09326171875
1782846030143839700,4.98683984375,-0.9720916748046875,-0.14495849609375,0.1051177978515625
1782846030153844700,4.9968447265625,-0.9737701416015625,-0.1469268798828125,0.10455322265625
1782846030163850800,5.006850830078125,-0.9742431640625,-0.1465911865234375,0.095458984375
1782846030173855700,5.016855712890625,-0.97796630859375,-0.145233154296875,0.097412109375
1782846030183860700,5.02686083984375,-0.9774169921875,-0.1467437744140625,0.099609375
1782846030193865700,5.03686572265625,-0.979705810546875,-0.1490631103515625,0.098724365234375
1782846030203871700,5.046871826171875,-0.9769439697265625,-0.148406982421875,0.0935516357421875
1782846030213876700,5.056876708984375,-0.97174072265625,-0.146392822265625,0.089813232421875
1782846030223881700,5.0668818359375,-0.96929931640625,-0.1448211669921875,0.089874267578125
1782846030233886700,5.07688671875,-0.9662933349609375,-0.1447296142578125,0.0935516357421875
1782846030243892700,5.086892822265625,-0.965545654296875,-0.14263916015625,0.095001220703125
1782846030253898000,5.09689794921875,-0.967041015625,-0.1421356201171875,0.0963592529296875
1782846030263903000,5.106903076171875,-0.9680328369140625,-0.1419677734375,0.09564208984375
1782846030273908700,5.11690869140625,-0.975860595703125,-0.1449432373046875,0.0949249267578125
1782846030283913700,5.126913818359375,-0.98101806640625,-0.146697998046875,0.100250244140625
1782846030293919000,5.1369189453125,-0.9821624755859375,-0.145294189453125,0.0997161865234375
1782846030303924000,5.146924072265625,-0.985595703125,-0.146697998046875,0.1002960205078125
1782846030313929700,5.1569296875,-0.980072021484375,-0.14593505859375,0.0997772216796875
1782846030323936000,5.16693603515625,-0.974853515625,-0.14508056640625,0.098602294921875
1782846030333941000,5.17694091796875,-0.97247314453125,-0.1466827392578125,0.0976104736328125
1782846030343947000,5.186947021484375,-0.973663330078125,-0.1444549560546875,0.09954833984375
1782846030353952000,5.196951904296875,-0.971435546875,-0.1455230712890625,0.0996551513671875
1782846030363957000,5.20695703125,-0.97119140625,-0.148529052734375,0.098907470703125
1782846030373962000,5.2169619140625,-0.9709930419921875,-0.1486968994140625,0.0998382568359375
1782846030383968000,5.226968017578125,-0.9720458984375,-0.1483306884765625,0.0981903076171875
1782846030393973000,5.236972900390625,-0.9736785888671875,-0.1484375,0.0958099365234375
1782846030403978000,5.24697802734375,-0.9706268310546875,-0.148529052734375,0.09405517578125
1782846030413984000,5.25698388671875,-0.9674835205078125,-0.1473846435546875,0.0922393798828125
1782846030423989000,5.266989013671875,-0.9664306640625,-0.1463775634765625,0.089691162109375
1782846030433994000,5.276993896484375,-0.9710235595703125,-0.1481781005859375,0.0908203125
1782846030443999000,5.2869990234375,-0.97308349609375,-0.149444580078125,0.090576171875
1782846030454005000,5.2970048828125,-0.975921630859375,-0.150299072265625,0.092742919921875
1782846030464010000,5.307010009765625,-0.9809417724609375,-0.14984130859375,0.09429931640625
1782846030474015000,5.317014892578125,-0.9857635498046875,-0.1490631103515625,0.0947723388671875
1782846030484021000,5.32702099609375,-0.9879608154296875,-0.1494293212890625,0.0968017578125
1782846030494026000,5.33702587890625,-0.988800048828125,-0.14959716796875,0.0967254638671875
1782846030504031000,5.347031005859375,-0.9873809814453125,-0.147613525390625,0.0976104736328125
1782846030514036000,5.357035888671875,-0.984771728515625,-0.145843505859375,0.09356689453125
1782846030524042200,5.367042236328125,-0.97784423828125,-0.145965576171875,0.091796875
1782846030534047200,5.377047119140625,-0.9706573486328125,-0.149017333984375,0.0891265869140625
1782846030544052200,5.38705224609375,-0.9652252197265625,-0.1496429443359375,0.091064453125
1782846030554057200,5.39705712890625,-0.9632110595703125,-0.14862060546875,0.0936126708984375
1782846030564063000,5.40706298828125,-0.9615020751953125,-0.1472625732421875,0.094390869140625
1782846030574068000,5.41706787109375,-0.9630126953125,-0.146636962890625,0.0983123779296875
1782846030584073000,5.427072998046875,-0.97119140625,-0.1448211669921875,0.0999298095703125
1782846030594079000,5.437078857421875,-0.9841156005859375,-0.1447296142578125,0.0992279052734375
1782846030604084000,5.447083984375,-0.9956817626953125,-0.146331787109375,0.1015625
1782846030614089000,5.4570888671875,-0.996429443359375,-0.146636962890625,0.1017913818359375
1782846030624094000,5.467093994140625,-0.9910430908203125,-0.1473388671875,0.099517822265625
1782846030634100000,5.477099853515625,-0.984344482421875,-0.149688720703125,0.0957489013671875
1782846030644105000,5.48710498046875,-0.9756011962890625,-0.1523284912109375,0.0953369140625
1782846030654110000,5.49710986328125,-0.9669036865234375,-0.1524505615234375,0.094482421875
1782846030664116200,5.5071162109375,-0.9616241455078125,-0.14990234375,0.090240478515625
1782846030674121200,5.517121337890625,-0.96185302734375,-0.148590087890625,0.0897674560546875
1782846030684126200,5.527126220703125,-0.9634552001953125,-0.149627685546875,0.0880889892578125
1782846030694131200,5.537131103515625,-0.9718017578125,-0.147552490234375,0.092132568359375
1782846030704137000,5.547136962890625,-0.9783935546875,-0.144775390625,0.094451904296875
1782846030714142200,5.55714208984375,-0.9873504638671875,-0.1444244384765625,0.0949249267578125
1782846030724147200,5.567147216796875,-0.987152099609375,-0.1417694091796875,0.09375
1782846030734153000,5.577153076171875,-0.98028564453125,-0.1444244384765625,0.0945587158203125
1782846030744158000,5.587157958984375,-0.975677490234375,-0.1463623046875,0.0962371826171875
1782846030754163000,5.597162841796875,-0.971282958984375,-0.1444854736328125,0.1001129150390625
1782846030764168000,5.60716796875,-0.9636077880859375,-0.146087646484375,0.100433349609375
1782846030774174000,5.617174072265625,-0.9607391357421875,-0.1467437744140625,0.100006103515625
1782846030784179000,5.627178955078125,-0.961578369140625,-0.1456756591796875,0.097991943359375
1782846030794184000,5.637183837890625,-0.965850830078125,-0.148406982421875,0.0998687744140625
1782846030804189000,5.64718896484375,-0.9703826904296875,-0.147552490234375,0.1019287109375
1782846030814195200,5.6571953125,-0.9762420654296875,-0.14776611328125,0.0989532470703125
1782846030824200200,5.6672001953125,-0.9831085205078125,-0.1471405029296875,0.0956573486328125
1782846030834205200,5.677205078125,-0.9871673583984375,-0.1466522216796875,0.0965728759765625
1782846030844211200,5.687211181640625,-0.9869842529296875,-0.147552490234375,0.0985260009765625
1782846030854216200,5.69721630859375,-0.9847412109375,-0.1473388671875,0.095733642578125
1782846030864221200,5.70722119140625,-0.980560302734375,-0.1483612060546875,0.094146728515625
1782846030874226200,5.71722607421875,-0.9749755859375,-0.1502838134765625,0.0920257568359375
1782846030884232000,5.72723193359375,-0.9732513427734375,-0.1478729248046875,0.0899505615234375
1782846030894237000,5.73723681640625,-0.969879150390625,-0.147216796875,0.0894775390625
1782846030904242000,5.747241943359375,-0.966766357421875,-0.1475067138671875,0.089202880859375
1782846030914248000,5.757248046875,-0.9641876220703125,-0.1460723876953125,0.09356689453125
1782846030924253000,5.7672529296875,-0.9640655517578125,-0.1475830078125,0.092620849609375
1782846030934258000,5.7772578125,-0.9680023193359375,-0.146942138671875,0.090240478515625
1782846030944263000,5.787262939453125,-0.9742431640625,-0.1454620361328125,0.091064453125
1782846030954269000,5.79726904296875,-0.9793701171875,-0.1470794677734375,0.093780517578125
1782846030964274000,5.80727392578125,-0.9864501953125,-0.1497802734375,0.0945587158203125
1782846030974279000,5.81727880859375,-0.9897918701171875,-0.1483154296875,0.092376708984375
1782846030984284000,5.827283935546875,-0.9867401123046875,-0.146270751953125,0.0894927978515625
1782846030994290200,5.837290283203125,-0.9820709228515625,-0.144989013671875,0.090606689453125
1782846031004295200,5.847295166015625,-0.9806976318359375,-0.14422607421875,0.0905303955078125
1782846031014300200,5.857300048828125,-0.9797821044921875,-0.1452484130859375,0.0886077880859375
1782846031024306200,5.86730615234375,-0.9756622314453125,-0.145233154296875,0.086822509765625
1782846031034311200,5.877311279296875,-0.9712982177734375,-0.145477294921875,0.0873870849609375
1782846031044316200,5.887316162109375,-0.9676666259765625,-0.145050048828125,0.0879974365234375
1782846031054321200,5.897321044921875,-0.96771240234375,-0.1444854736328125,0.088409423828125
1782846031064327000,5.907326904296875,-0.96771240234375,-0.146881103515625,0.088287353515625
1782846031074332000,5.917331787109375,-0.9698486328125,-0.148406982421875,0.091217041015625
1782846031084337000,5.9273369140625,-0.976898193359375,-0.149871826171875,0.0908050537109375
1782846031094342000,5.937341796875,-0.9848480224609375,-0.148681640625,0.09271240234375
1782846031104348000,5.947347900390625,-0.98626708984375,-0.1460418701171875,0.0975494384765625
1782846031114353000,5.957352783203125,-0.9855804443359375,-0.148895263671875,0.093658447265625
1782846031124358000,5.96735791015625,-0.9857025146484375,-0.147186279296875,0.092254638671875
1782846031134364200,5.9773642578125,-0.9804229736328125,-0.1465606689453125,0.0914459228515625
1782846031144369200,5.987369140625,-0.9727783203125,-0.1442108154296875,0.091583251953125
1782846031154374100,5.9973740234375,-0.9670562744140625,-0.145751953125,0.090911865234375
1782846031164379100,6.007379150390625,-0.95843505859375,-0.1483001708984375,0.0916595458984375
1782846031174385200,6.01738525390625,-0.957611083984375,-0.1417694091796875,0.0955352783203125
1782846031184390100,6.02739013671875,-0.961669921875,-0.140869140625,0.0962982177734375
1782846031194395100,6.03739501953125,-0.9703216552734375,-0.14105224609375,0.0980987548828125
1782846031204401000,6.04740087890625,-0.9806060791015625,-0.141815185546875,0.0976104736328125
1782846031214406000,6.057406005859375,-0.98809814453125,-0.1417694091796875,0.1002197265625
1782846031224411100,6.0674111328125,-0.9918975830078125,-0.1408843994140625,0.1042938232421875
1782846031234416000,6.077416015625,-0.989898681640625,-0.1425628662109375,0.1033935546875
1782846031244422000,6.087421875,-0.9861602783203125,-0.1435089111328125,0.10498046875
1782846031254427000,6.097427001953125,-0.98162841796875,-0.146392822265625,0.103912353515625
1782846031264431900,6.107431884765625,-0.9772186279296875,-0.1456298828125,0.0997314453125
1782846031274436900,6.117436767578125,-0.970794677734375,-0.1439208984375,0.09674072265625
1782846031284443100,6.127443115234375,-0.972259521484375,-0.1468048095703125,0.09503173828125
1782846031294448000,6.1374482421875,-0.97027587890625,-0.1475067138671875,0.0929718017578125
1782846031304453000,6.147453125,-0.9672698974609375,-0.1471710205078125,0.09393310546875
1782846031314459100,6.157459228515625,-0.9719085693359375,-0.14776611328125,0.0944671630859375
1782846031324462800,6.167462890625,-0.97967529296875,-0.1475982666015625,0.0973358154296875
1782846031334467800,6.1774677734375,-0.9844818115234375,-0.1470184326171875,0.1005401611328125
1782846031344472800,6.187472900390625,-0.98834228515625,-0.1474456787109375,0.0965423583984375
1782846031354478800,6.197478759765625,-0.9902801513671875,-0.1455078125,0.0931854248046875
1782846031364483800,6.20748388671875,-0.9895172119140625,-0.14410400390625,0.093017578125
1782846031374488800,6.21748876953125,-0.983367919921875,-0.142333984375,0.08837890625
1782846031384493800,6.227493896484375,-0.9699554443359375,-0.1450347900390625,0.086944580078125
1782846031394500000,6.2375,-0.9586639404296875,-0.145050048828125,0.0847015380859375
1782846031404505000,6.247505126953125,-0.9521942138671875,-0.1476898193359375,0.0841217041015625
1782846031414510000,6.257510009765625,-0.9482269287109375,-0.1466827392578125,0.088409423828125
1782846031424515800,6.267515869140625,-0.9533843994140625,-0.1467132568359375,0.0917205810546875
1782846031434520800,6.277520751953125,-0.9641571044921875,-0.148406982421875,0.0963592529296875
1782846031444526000,6.287526123046875,-0.9745941162109375,-0.146240234375,0.1011810302734375
1782846031454531000,6.297531005859375,-0.984771728515625,-0.1463775634765625,0.103302001953125
1782846031464536800,6.307536865234375,-0.997802734375,-0.1447906494140625,0.1015167236328125
1782846031474541800,6.317541748046875,-0.998779296875,-0.1436004638671875,0.10223388671875
1782846031484546800,6.327546875,-0.99615478515625,-0.145233154296875,0.10321044921875
1782846031494552800,6.337552734375,-0.98846435546875,-0.1454925537109375,0.1009063720703125
1782846031504557800,6.347557861328125,-0.975067138671875,-0.1477813720703125,0.099212646484375
1782846031514562800,6.357562744140625,-0.958251953125,-0.14739990234375,0.0945892333984375
1782846031524567800,6.36756787109375,-0.9528045654296875,-0.1504058837890625,0.0906524658203125
1782846031534573800,6.37757373046875,-0.9554443359375,-0.151824951171875,0.0881805419921875
1782846031544579000,6.3875791015625,-0.9616851806640625,-0.1535186767578125,0.08599853515625
1782846031554584000,6.397583984375,-0.9724578857421875,-0.1526641845703125,0.086669921875
1782846031564589000,6.407589111328125,-0.986297607421875,-0.14996337890625,0.0894317626953125
1782846031574595000,6.417594970703125,-0.9948272705078125,-0.14971923828125,0.088592529296875
1782846031584600000,6.42760009765625,-0.99505615234375,-0.1468048095703125,0.0862579345703125
1782846031594605000,6.43760498046875,-0.987396240234375,-0.1463623046875,0.085479736328125
1782846031604610000,6.447610107421875,-0.9763336181640625,-0.148101806640625,0.0834503173828125
1782846031614615800,6.45761572265625,-0.9658660888671875,-0.1480255126953125,0.0823822021484375
1782846031624620800,6.467620849609375,-0.95849609375,-0.148223876953125,0.0829620361328125
1782846031634625800,6.477625732421875,-0.9636383056640625,-0.1480255126953125,0.0840911865234375
1782846031644631800,6.4876318359375,-0.969573974609375,-0.14520263671875,0.086883544921875
1782846031654636800,6.49763671875,-0.9826202392578125,-0.1491241455078125,0.090301513671875
1782846031664641800,6.507641845703125,-0.9895477294921875,-0.1460418701171875,0.095001220703125
1782846031674646800,6.517646728515625,-0.990570068359375,-0.1467437744140625,0.0991973876953125
1782846031684652800,6.52765283203125,-0.9886932373046875,-0.147796630859375,0.0987396240234375
1782846031694657800,6.53765771484375,-0.975616455078125,-0.1486663818359375,0.0975494384765625
1782846031704662800,6.547662841796875,-0.9642486572265625,-0.14825439453125,0.0950775146484375
1782846031714669000,6.5576689453125,-0.9576568603515625,-0.1484832763671875,0.0928802490234375
1782846031724674000,6.567674072265625,-0.957183837890625,-0.148529052734375,0.091552734375
1782846031734679000,6.577678955078125,-0.958160400390625,-0.1501617431640625,0.089508056640625
1782846031744684000,6.58768408203125,-0.9639739990234375,-0.1508941650390625,0.0892333984375
1782846031754690000,6.59768994140625,-0.9730224609375,-0.1511688232421875,0.089813232421875
1782846031764695000,6.607695068359375,-0.9802703857421875,-0.1509552001953125,0.0883636474609375
1782846031774700000,6.617699951171875,-0.9812164306640625,-0.14971923828125,0.0897216796875
1782846031784705000,6.627705078125,-0.98358154296875,-0.147613525390625,0.090911865234375
1782846031794710800,6.637710693359375,-0.98663330078125,-0.144805908203125,0.092529296875
1782846031804715800,6.6477158203125,-0.9854278564453125,-0.1445159912109375,0.0907135009765625
1782846031814720800,6.657720703125,-0.9816436767578125,-0.14556884765625,0.0889434814453125
1782846031824725800,6.667725830078125,-0.974609375,-0.1435394287109375,0.0875091552734375
1782846031834731800,6.677731689453125,-0.9698638916015625,-0.144866943359375,0.0889129638671875
1782846031844736800,6.68773681640625,-0.9712371826171875,-0.145263671875,0.0914764404296875
1782846031854741800,6.69774169921875,-0.9723052978515625,-0.14453125,0.0917205810546875
1782846031864748000,6.707748046875,-0.9771270751953125,-0.1464691162109375,0.093231201171875
1782846031874753000,6.7177529296875,-0.976318359375,-0.147247314453125,0.0941619873046875
1782846031884758000,6.727758056640625,-0.9760589599609375,-0.145965576171875,0.0933685302734375
1782846031894763000,6.737762939453125,-0.97833251953125,-0.145111083984375,0.087493896484375
1782846031904769000,6.74776904296875,-0.97857666015625,-0.1456451416015625,0.0871429443359375
1782846031914774000,6.75777392578125,-0.9782562255859375,-0.14459228515625,0.0896148681640625
1782846031924779000,6.767779052734375,-0.9766845703125,-0.14599609375,0.0882110595703125
1782846031934784000,6.777783935546875,-0.981658935546875,-0.148651123046875,0.0852508544921875
1782846031944789800,6.787789794921875,-0.9860076904296875,-0.145599365234375,0.08660888671875
1782846031954795000,6.797794921875,-0.987060546875,-0.1446075439453125,0.08953857421875
1782846031964800000,6.807800048828125,-0.982696533203125,-0.14532470703125,0.088714599609375
1782846031974805800,6.8178056640625,-0.9778900146484375,-0.1420745849609375,0.0903167724609375
1782846031984810800,6.827810791015625,-0.97607421875,-0.1424560546875,0.0884246826171875
1782846031994815700,6.837815673828125,-0.9719390869140625,-0.1421356201171875,0.084259033203125
1782846032004820700,6.84782080078125,-0.970123291015625,-0.1392059326171875,0.090545654296875
1782846032014827000,6.857826904296875,-0.965545654296875,-0.14697265625,0.0919036865234375
1782846032024832000,6.86783203125,-0.9628143310546875,-0.1461181640625,0.085693359375
1782846032034837000,6.8778369140625,-0.96612548828125,-0.142059326171875,0.08563232421875
1782846032044842000,6.887842041015625,-0.972198486328125,-0.14599609375,0.08404541015625
1782846032054848000,6.897847900390625,-0.9774169921875,-0.14483642578125,0.084320068359375
1782846032064853000,6.90785302734375,-0.981597900390625,-0.1455535888671875,0.0836639404296875
1782846032074858000,6.91785791015625,-0.98455810546875,-0.1464080810546875,0.0855865478515625
1782846032084864000,6.927864013671875,-0.982574462890625,-0.1454620361328125,0.08782958984375
1782846032094869000,6.937868896484375,-0.982208251953125,-0.1450653076171875,0.0869598388671875
1782846032104874000,6.9478740234375,-0.9819183349609375,-0.14361572265625,0.0887298583984375
1782846032114879000,6.95787890625,-0.9836883544921875,-0.1425628662109375,0.089691162109375
1782846032124884700,6.967884765625,-0.9846649169921875,-0.142486572265625,0.0900726318359375
1782846032134889700,6.9778896484375,-0.9809722900390625,-0.140594482421875,0.0911865234375
1782846032144894700,6.987894775390625,-0.976470947265625,-0.14166259765625,0.0924072265625
1782846032154899700,6.997899658203125,-0.9659271240234375,-0.143768310546875,0.0904388427734375
1782846032164906000,7.007906005859375,-0.9621734619140625,-0.1456756591796875,0.092498779296875
1782846032174911000,7.017910888671875,-0.9631195068359375,-0.146270751953125,0.095428466796875
1782846032184916000,7.027916015625,-0.9688873291015625,-0.1458740234375,0.0939788818359375
1782846032194921000,7.0379208984375,-0.9734954833984375,-0.1448516845703125,0.0904083251953125
1782846032204927000,7.047927001953125,-0.9774627685546875,-0.1426849365234375,0.08685302734375
1782846032214932000,7.057931884765625,-0.9819488525390625,-0.142974853515625,0.0874176025390625
1782846032224937000,7.06793701171875,-0.981597900390625,-0.144683837890625,0.0898590087890625
1782846032234943000,7.07794287109375,-0.98150634765625,-0.145172119140625,0.0904541015625
1782846032244948000,7.087947998046875,-0.976531982421875,-0.144866943359375,0.0868988037109375
1782846032254953000,7.097952880859375,-0.9729461669921875,-0.1458587646484375,0.0868988037109375
1782846032264958000,7.1079580078125,-0.9749908447265625,-0.145416259765625,0.089080810546875
1782846032274964000,7.1179638671875,-0.9725494384765625,-0.1465301513671875,0.086273193359375
1782846032284969000,7.127968994140625,-0.9687347412109375,-0.14764404296875,0.0862884521484375
1782846032294974000,7.137973876953125,-0.96929931640625,-0.146240234375,0.0902099609375
1782846032304979000,7.14797900390625,-0.976287841796875,-0.1449432373046875,0.0863189697265625
1782846032314984700,7.157984619140625,-0.980072021484375,-0.143341064453125,0.088134765625
1782846032324989400,7.167989501953125,-0.98333740234375,-0.1434326171875,0.092529296875
1782846032334994400,7.177994384765625,-0.97845458984375,-0.1436004638671875,0.0908355712890625
1782846032344999400,7.18799951171875,-0.9755096435546875,-0.145660400390625,0.0888519287109375
1782846032355005200,7.198005126953125,-0.9767608642578125,-0.1434326171875,0.08319091796875
1782846032365010200,7.20801025390625,-0.9786529541015625,-0.14447021484375,0.081817626953125
1782846032375015200,7.21801513671875,-0.9806976318359375,-0.1459503173828125,0.081512451171875
1782846032385021200,7.228021240234375,-0.982147216796875,-0.1461029052734375,0.084075927734375
1782846032395026200,7.238026123046875,-0.983154296875,-0.1459503173828125,0.083587646484375
1782846032405031200,7.24803125,-0.981536865234375,-0.144439697265625,0.0830078125
1782846032415036200,7.2580361328125,-0.9810028076171875,-0.142669677734375,0.084381103515625
1782846032425042400,7.26804248046875,-0.9821624755859375,-0.1446380615234375,0.0883331298828125
1782846032435047400,7.27804736328125,-0.98590087890625,-0.1456451416015625,0.0873870849609375
1782846032445052400,7.288052490234375,-0.9833984375,-0.1448516845703125,0.0840301513671875
1782846032455057400,7.298057373046875,-0.97955322265625,-0.144561767578125,0.087799072265625
1782846032465063400,7.3080634765625,-0.978424072265625,-0.1452484130859375,0.087158203125
1782846032475068400,7.318068359375,-0.97503662109375,-0.1443328857421875,0.0864105224609375
1782846032485073400,7.328073486328125,-0.9709625244140625,-0.14569091796875,0.086090087890625
1782846032495078400,7.338078369140625,-0.96954345703125,-0.147491455078125,0.0861358642578125
1782846032505084200,7.348084228515625,-0.9692535400390625,-0.1460418701171875,0.088134765625
1782846032515089200,7.358089111328125,-0.9707183837890625,-0.14495849609375,0.0887451171875
1782846032525094100,7.36809423828125,-0.9742279052734375,-0.14544677734375,0.08709716796875
1782846032535100200,7.37810009765625,-0.9754486083984375,-0.145294189453125,0.086761474609375
1782846032545105200,7.388105224609375,-0.9764251708984375,-0.14495849609375,0.0871734619140625
1782846032555110100,7.398110107421875,-0.97589111328125,-0.14544677734375,0.08880615234375
1782846032565115100,7.408115234375,-0.977569580078125,-0.145050048828125,0.087554931640625
1782846032575121400,7.418121337890625,-0.9817962646484375,-0.1458282470703125,0.0867919921875
1782846032585126400,7.42812646484375,-0.9806365966796875,-0.1467742919921875,0.0889434814453125
1782846032595131400,7.43813134765625,-0.9762725830078125,-0.1479644775390625,0.0840301513671875
1782846032605136400,7.448136474609375,-0.9763031005859375,-0.1484832763671875,0.0845184326171875
1782846032615142400,7.458142333984375,-0.977996826171875,-0.1494903564453125,0.0858001708984375
1782846032625147400,7.4681474609375,-0.98248291015625,-0.147552490234375,0.0868072509765625
1782846032635152400,7.47815234375,-0.9850006103515625,-0.1475372314453125,0.0850372314453125
1782846032645158400,7.488158447265625,-0.9865264892578125,-0.1485443115234375,0.0826873779296875
1782846032655163400,7.498163330078125,-0.982391357421875,-0.1479034423828125,0.083831787109375
1782846032665168400,7.50816845703125,-0.9788360595703125,-0.148895263671875,0.0830535888671875
1782846032675173400,7.51817333984375,-0.9727020263671875,-0.1479949951171875,0.0868682861328125
1782846032685179100,7.52817919921875,-0.964935302734375,-0.1472930908203125,0.08734130859375
1782846032695184100,7.53818408203125,-0.959625244140625,-0.1462554931640625,0.0891265869140625
1782846032705189000,7.548189208984375,-0.9579315185546875,-0.143310546875,0.09051513671875
1782846032715194000,7.558194091796875,-0.95562744140625,-0.1435394287109375,0.093414306640625
1782846032725200100,7.5682001953125,-0.96258544921875,-0.1432037353515625,0.092041015625
1782846032735205000,7.578205078125,-0.97320556640625,-0.1427459716796875,0.093780517578125
1782846032745210000,7.588210205078125,-0.9818115234375,-0.14410400390625,0.099151611328125
1782846032755215000,7.598215087890625,-0.9888763427734375,-0.145263671875,0.0991668701171875
1782846032765221400,7.608221435546875,-0.9912261962890625,-0.1470184326171875,0.09716796875
1782846032775226400,7.618226318359375,-0.9857940673828125,-0.14703369140625,0.096160888671875
1782846032785231400,7.6282314453125,-0.98297119140625,-0.150482177734375,0.0919647216796875
1782846032795236400,7.638236328125,-0.9786834716796875,-0.1489410400390625,0.091949462890625
1782846032805242400,7.648242431640625,-0.9703521728515625,-0.150146484375,0.088287353515625
1782846032815247400,7.658247314453125,-0.9676971435546875,-0.1501922607421875,0.0873565673828125
1782846032825252400,7.66825244140625,-0.967376708984375,-0.1507415771484375,0.08935546875
1782846032835258400,7.67825830078125,-0.9703826904296875,-0.148651123046875,0.0923919677734375
1782846032845263400,7.688263427734375,-0.9749755859375,-0.1474609375,0.091552734375
1782846032855268400,7.698268310546875,-0.9785308837890625,-0.145233154296875,0.088592529296875
1782846032865273300,7.7082734375,-0.977691650390625,-0.1458587646484375,0.0874786376953125
1782846032875279000,7.718279052734375,-0.979339599609375,-0.144195556640625,0.0867462158203125
1782846032885284000,7.7282841796875,-0.9761505126953125,-0.1434478759765625,0.0904388427734375
1782846032895289000,7.7382890625,-0.9722747802734375,-0.1448516845703125,0.0925750732421875
1782846032905294000,7.748294189453125,-0.9684600830078125,-0.144439697265625,0.09381103515625
1782846032915300400,7.75830029296875,-0.96533203125,-0.144866943359375,0.0885467529296875
1782846032925305300,7.768305419921875,-0.96685791015625,-0.1458282470703125,0.0905303955078125
1782846032935310300,7.778310302734375,-0.973052978515625,-0.1458740234375,0.0926361083984375
1782846032945315300,7.7883154296875,-0.9744873046875,-0.1459808349609375,0.09326171875
1782846032955321300,7.7983212890625,-0.977813720703125,-0.1468505859375,0.094573974609375
1782846032965326300,7.808326416015625,-0.9814910888671875,-0.146759033203125,0.09674072265625
1782846032975331300,7.818331298828125,-0.989044189453125,-0.146453857421875,0.0992431640625
1782846032985336300,7.82833642578125,-0.9917449951171875,-0.146881103515625,0.0976409912109375
1782846032995342300,7.83834228515625,-0.9901275634765625,-0.1470947265625,0.094207763671875
1782846033005347300,7.848347412109375,-0.983673095703125,-0.149322509765625,0.092681884765625
1782846033015352300,7.858352294921875,-0.97882080078125,-0.1483612060546875,0.09375
1782846033025358000,7.868358154296875,-0.97723388671875,-0.1494293212890625,0.0904541015625
1782846033035363000,7.878363037109375,-0.97003173828125,-0.148468017578125,0.0910491943359375
1782846033045368300,7.888368408203125,-0.9642486572265625,-0.1497802734375,0.0932769775390625
1782846033055373300,7.898373291015625,-0.9614105224609375,-0.1495819091796875,0.09320068359375
1782846033065379300,7.90837939453125,-0.9635009765625,-0.1480712890625,0.09210205078125
1782846033075384300,7.91838427734375,-0.9693450927734375,-0.1461639404296875,0.0905609130859375
1782846033085389300,7.928389404296875,-0.972991943359375,-0.1487274169921875,0.0921630859375
1782846033095394300,7.938394287109375,-0.975555419921875,-0.148956298828125,0.0909881591796875
1782846033105400300,7.948400390625,-0.9789886474609375,-0.1499786376953125,0.09149169921875
1782846033115405300,7.9584052734375,-0.9798736572265625,-0.150115966796875,0.093994140625
1782846033125410300,7.968410400390625,-0.9774169921875,-0.1495208740234375,0.0977020263671875
1782846033135415300,7.978415283203125,-0.974853515625,-0.150177001953125,0.09942626953125
1782846033145421300,7.98842138671875,-0.975494384765625,-0.1484832763671875,0.0976715087890625
1782846033155426300,7.99842626953125,-0.977386474609375,-0.147735595703125,0.0982513427734375
1782846033165431300,8.008431396484376,-0.98095703125,-0.1483154296875,0.0988922119140625
1782846033175436300,8.018436279296875,-0.983489990234375,-0.1455535888671875,0.0968475341796875
1782846033185442300,8.0284423828125,-0.9815673828125,-0.144866943359375,0.0933074951171875
1782846033195447300,8.038447265625,-0.9771575927734375,-0.14471435546875,0.093170166015625
1782846033205452300,8.048452392578126,-0.975921630859375,-0.146148681640625,0.0972900390625
1782846033215458300,8.058458251953125,-0.970489501953125,-0.1499786376953125,0.0980987548828125
1782846033225463300,8.06846337890625,-0.9694366455078125,-0.15093994140625,0.0996856689453125
1782846033235468300,8.07846826171875,-0.9676361083984375,-0.1493988037109375,0.0979156494140625
1782846033245473300,8.088473388671876,-0.9659271240234375,-0.148895263671875,0.0982666015625
1782846033255479300,8.098479248046875,-0.9658660888671875,-0.1506500244140625,0.0971527099609375
1782846033265484300,8.108484375,-0.971343994140625,-0.15142822265625,0.096893310546875
1782846033275489300,8.1184892578125,-0.97735595703125,-0.1494140625,0.0959014892578125
1782846033285494300,8.128494384765625,-0.983612060546875,-0.1492919921875,0.0993194580078125
1782846033295500300,8.138500244140625,-0.984893798828125,-0.14764404296875,0.1018524169921875
1782846033305505300,8.14850537109375,-0.980133056640625,-0.1474151611328125,0.099761962890625
1782846033315510300,8.15851025390625,-0.9784393310546875,-0.14764404296875,0.0971527099609375
1782846033325515500,8.168515625,-0.976806640625,-0.14886474609375,0.0984039306640625
1782846033335521500,8.178521484375,-0.966033935546875,-0.1500244140625,0.1003570556640625
1782846033345526500,8.188526611328125,-0.9602203369140625,-0.1493072509765625,0.1024932861328125
1782846033355531500,8.198531494140624,-0.9569549560546875,-0.1480865478515625,0.10491943359375
1782846033365536500,8.20853662109375,-0.957855224609375,-0.1482696533203125,0.106353759765625
1782846033375542500,8.21854248046875,-0.9642333984375,-0.148162841796875,0.10772705078125
1782846033385547500,8.228547607421875,-0.9726104736328125,-0.1464691162109375,0.1067352294921875
1782846033395552500,8.238552490234374,-0.979248046875,-0.1456146240234375,0.1057586669921875
1782846033405558300,8.248558349609375,-0.9832763671875,-0.1468353271484375,0.1056060791015625
1782846033415563300,8.258563232421874,-0.984466552734375,-0.146820068359375,0.1014862060546875
1782846033425568300,8.268568359375,-0.9878997802734375,-0.14691162109375,0.0990753173828125
1782846033435573200,8.2785732421875,-0.980987548828125,-0.1474609375,0.0932159423828125
1782846033445579500,8.28857958984375,-0.976654052734375,-0.14727783203125,0.0921630859375
1782846033455584500,8.29858447265625,-0.9735107421875,-0.1473388671875,0.0903167724609375
1782846033465589500,8.308589599609375,-0.97064208984375,-0.15008544921875,0.0895233154296875
1782846033475594500,8.318594482421876,-0.9699554443359375,-0.14935302734375,0.089599609375
1782846033485600500,8.3286005859375,-0.975982666015625,-0.1504669189453125,0.093475341796875
1782846033495605500,8.33860546875,-0.983734130859375,-0.15032958984375,0.0930633544921875
1782846033505610500,8.348610595703125,-0.986846923828125,-0.147491455078125,0.094696044921875
1782846033515615500,8.358615478515626,-0.9899749755859375,-0.1486663818359375,0.0929412841796875
1782846033525621500,8.36862158203125,-0.9882965087890625,-0.1490325927734375,0.094024658203125
1782846033535626500,8.37862646484375,-0.987060546875,-0.14532470703125,0.09375
1782846033545631500,8.388631591796875,-0.97930908203125,-0.1429443359375,0.09246826171875
1782846033555636500,8.398636474609376,-0.97076416015625,-0.1460113525390625,0.0950775146484375
1782846033565642200,8.408642333984375,-0.961395263671875,-0.147308349609375,0.095703125
1782846033575647200,8.418647216796876,-0.955535888671875,-0.1474456787109375,0.0963134765625
1782846033585652200,8.42865234375,-0.95648193359375,-0.1473236083984375,0.0958251953125
1782846033595657500,8.438657470703125,-0.9627838134765625,-0.14923095703125,0.0974273681640625
1782846033605663200,8.448663330078125,-0.973724365234375,-0.14874267578125,0.0990142822265625
1782846033615668200,8.458668212890625,-0.9851837158203125,-0.1464080810546875,0.0978546142578125
1782846033625673200,8.468673095703124,-0.988494873046875,-0.1464385986328125,0.0986785888671875
1782846033635678500,8.478678466796875,-0.98443603515625,-0.148223876953125,0.100555419921875
1782846033645684500,8.4886845703125,-0.981048583984375,-0.149200439453125,0.0969390869140625
1782846033655689500,8.498689453125,-0.97393798828125,-0.1489715576171875,0.0938568115234375
1782846033665694500,8.508694580078124,-0.9678802490234375,-0.148529052734375,0.09112548828125
1782846033675700500,8.518700439453125,-0.97015380859375,-0.1495361328125,0.09161376953125
1782846033685705500,8.52870556640625,-0.9697265625,-0.149871826171875,0.0955047607421875
1782846033695710500,8.53871044921875,-0.9673309326171875,-0.1488800048828125,0.0944671630859375
1782846033705715500,8.548715576171874,-0.9642333984375,-0.1521148681640625,0.0863037109375
1782846033715721500,8.558721435546875,-0.9687347412109375,-0.1455841064453125,0.0940093994140625
1782846033725726500,8.5687265625,-0.983612060546875,-0.1441192626953125,0.0973358154296875
1782846033735731500,8.5787314453125,-0.98388671875,-0.1441192626953125,0.0960235595703125
1782846033745736400,8.588736328125,-0.9988555908203125,-0.143463134765625,0.1031036376953125
1782846033755742200,8.5987421875,-0.9916229248046875,-0.1564483642578125,0.091949462890625
1782846033765747200,8.608747314453124,-0.980010986328125,-0.153228759765625,0.0915985107421875
1782846033775752200,8.618752197265625,-0.972320556640625,-0.1514129638671875,0.0859832763671875
1782846033785757200,8.628757080078126,-0.9618072509765625,-0.1528778076171875,0.088043212890625
1782846033795763500,8.638763427734375,-0.954925537109375,-0.1575164794921875,0.091796875
1782846033805768400,8.6487685546875,-0.95184326171875,-0.1575775146484375,0.095489501953125
1782846033815773400,8.6587734375,-0.96551513671875,-0.149993896484375,0.0984649658203125
