time,seconds_elapsed,z,y,x
1782846025221236000,0.064236083984375,-0.021465344354510307,-0.014935806393623352,-0.03566452115774155
1782846025231241000,0.074240966796875,-0.02220037765800953,-0.017595238983631134,-0.03256220370531082
1782846025241246000,0.084245849609375,-0.020506074652075768,-0.017466874793171883,-0.030303843319416046
1782846025251252000,0.094251953125,-0.016936372965574265,-0.014698252081871033,-0.017560617998242378
1782846025261257000,0.104257080078125,-0.01341460831463337,-0.01185186579823494,-0.009208411909639835
1782846025271262000,0.114261962890625,-0.013404222205281258,-0.018694592639803886,0.0008364989189431071
1782846025281268200,0.124268310546875,-0.013892379589378834,-0.02129490301012993,0.0011118697002530098
1782846025291273200,0.134273193359375,-0.014957910403609276,-0.018079934641718864,-0.00003728425508597866
1782846025301278200,0.1442783203125,-0.014108628034591675,-0.011259312741458416,-0.004935902543365955
1782846025311283200,0.154283203125,-0.01233496330678463,-0.0027113643009215593,-0.01492035947740078
1782846025321288400,0.164288330078125,-0.008526376448571682,0.003013632958754897,-0.021793978288769722
1782846025331293400,0.17429345703125,-0.003922303672879934,0.0018461032304912806,-0.026329608634114265
1782846025341298400,0.18429833984375,0.002557699801400304,0.001362473238259554,-0.028489431366324425
1782846025351304400,0.194304443359375,0.00959616806358099,-0.0016026903176680207,-0.024873923510313034
1782846025361309400,0.204309326171875,0.010664628818631172,-0.007908523082733154,-0.007526359520852566
1782846025371314400,0.214314453125,0.008082427084445953,-0.00794634036719799,0.006192115601152182
1782846025381320400,0.224320556640625,0.005661880597472191,0.0023092268966138363,0.01678510569036007
1782846025391325400,0.234325439453125,0.001674595638178289,0.01437893882393837,0.021102888509631157
1782846025401330400,0.244330322265625,0.0026589001063257456,0.02473277598619461,0.024473916739225388
1782846025411335400,0.25433544921875,-0.003376089269295335,0.027542678639292717,0.02123737707734108
1782846025421341400,0.264341552734375,-0.005776396486908197,0.028746159747242928,0.016641294583678246
1782846025431346400,0.274346435546875,-0.007995874620974064,0.031216775998473167,0.009692841209471226
1782846025441351400,0.284351318359375,-0.0062605589628219604,0.03001702018082142,0.007788414601236582
1782846025451357400,0.294357421875,-0.004821653012186289,0.02382197603583336,0.006759369280189276
1782846025461362400,0.304362548828125,-0.0036008600145578384,0.01932336390018463,0.00851758848875761
1782846025471367400,0.314367431640625,-0.0046389601193368435,0.015724368393421173,0.009162339381873608
1782846025481373200,0.324373291015625,-0.00737376045435667,0.013460149057209492,0.003099919529631734
1782846025491378400,0.33437841796875,-0.003305781865492463,0.00944969430565834,-0.0008748483960516751
1782846025501383400,0.344383544921875,-0.0003701793903019279,0.005001949146389961,-0.007821970619261265
1782846025511388400,0.354388427734375,0.0025680861435830593,0.002868490759283304,-0.008731706067919731
1782846025521394400,0.36439453125,0.00490287970751524,0.002323608146980405,-0.002142513170838356
1782846025531399400,0.3743994140625,0.008165784180164337,0.003632285399362445,0.0022498385515064
1782846025541404400,0.384404296875,0.007336475886404514,0.0007928230334073305,0.009265935979783535
1782846025551410400,0.394410400390625,0.007170561235398054,0.0027326694689691067,0.018322814255952835
1782846025561415400,0.40441552734375,0.0070467242039740086,0.0008468852029182017,0.021342307329177856
1782846025571420400,0.41442041015625,0.0065322015434503555,0.0020397149492055178,0.01739869825541973
1782846025581426400,0.424426513671875,0.008258196525275707,0.0057710702531039715,0.014843926765024662
1782846025591431400,0.434431396484375,0.006779609248042107,-0.002764627570286393,0.01312192715704441
1782846025601436400,0.4444365234375,0.008289887569844723,-0.0038658445701003075,0.0075692362152040005
1782846025611441400,0.45444140625,0.008738630451261997,-0.0037377465050667524,-0.006987601984292269
1782846025621447400,0.464447509765625,0.006025401875376701,-0.004607534967362881,-0.013216203078627586
1782846025631452400,0.474452392578125,0.0024626250378787518,-0.0022892532870173454,-0.012711800634860992
1782846025641457400,0.48445751953125,-0.0024975123815238476,-0.003381948219612241,-0.0052413675002753735
1782846025651463400,0.49446337890625,-0.006186789367347956,-0.0021518340799957514,-0.002144909929484129
1782846025661468400,0.504468505859375,-0.012455604039132595,0.002283926820382476,-0.0015475628897547722
1782846025671473400,0.514473388671875,-0.01955825462937355,0.00851519126445055,0.00857617799192667
1782846025681478400,0.524478515625,-0.016584835946559906,0.004334827419370413,0.013222594745457172
1782846025691484400,0.534484375,-0.014659103937447071,0.006877347361296415,0.014544587582349777
1782846025701489400,0.544489501953125,-0.015424496494233608,0.005287706386297941,0.01278503704816103
1782846025711494400,0.554494384765625,-0.010496582835912704,0.005321261938661337,0.007954861968755722
1782846025721500400,0.56450048828125,-0.010575945489108562,0.0018676748732104897,-0.003341468283906579
1782846025731505400,0.57450537109375,-0.011177021078765392,0.006922088097780943,-0.010405503213405609
1782846025741510400,0.584510498046875,-0.010172742418944836,0.009375925175845623,-0.013951501809060574
1782846025751516400,0.594516357421875,-0.00824088603258133,0.01104359608143568,-0.01543621439486742
1782846025761521400,0.604521484375,-0.006204099860042334,0.0011760519118979573,-0.008798551745712757
1782846025771526400,0.6145263671875,-0.0003283677506260574,-0.004191815387457609,-0.0036850159522145987
1782846025781531400,0.624531494140625,-0.0017531589837744832,-0.008504006080329418,0.005912750028073788
1782846025791537400,0.634537353515625,-0.0013632721966132522,-0.010732272639870644,0.010698717087507248
1782846025801542400,0.64454248046875,-0.008583367802202702,-0.002275937469676137,0.009089901112020016
1782846025811547400,0.65454736328125,-0.008217183873057365,0.001996838254854083,0.009793508797883987
1782846025821553400,0.664553466796875,-0.0049612028524279594,0.00022663500567432493,0.009706689044833183
1782846025831558400,0.674558349609375,-0.007474161684513092,-0.005760417319834232,0.00504083139821887
1782846025841563400,0.6845634765625,-0.007800931576639414,-0.009705091826617718,-0.003066629869863391
1782846025851569400,0.6945693359375,-0.0064927865751087666,-0.00866113230586052,-0.01133814174681902
1782846025861574400,0.704574462890625,-0.0026647590566426516,-0.018379805609583855,-0.019519371911883354
1782846025871579400,0.714579345703125,-0.004713262431323528,-0.024083232507109642,-0.018993664532899857
1782846025881584400,0.72458447265625,-0.0033779535442590714,-0.02520681917667389,-0.016815997660160065
1782846025891590400,0.73459033203125,-0.0018911106744781137,-0.026451313868165016,-0.005940180737525225
1782846025901595400,0.744595458984375,-0.003456783015280962,-0.021707426756620407,-0.0008676578872837126
1782846025911600400,0.754600341796875,-0.0014892396284267306,-0.018932411447167397,0.002251968951895833
1782846025921606400,0.7646064453125,-0.0006511429091915488,-0.01792041026055813,0.004187554586678743
1782846025931611400,0.774611328125,-0.0023726101499050856,-0.012330169789493084,0.005560946650803089
1782846025941616400,0.784616455078125,-0.004490622319281101,-0.004576376173645258,0.00544376764446497
1782846025951621400,0.794621337890625,-0.0005166532355360687,0.004442152567207813,0.006743390113115311
1782846025961627400,0.80462744140625,-0.0007267766632139683,0.011068630032241344,0.008914398960769176
1782846025971632400,0.81463232421875,-0.0015725966077297926,0.0134439030662179,0.013709686696529388
1782846025981637400,0.824637451171875,-0.004385161213576794,0.008786034770309925,0.013787451200187206
1782846025991643400,0.834643310546875,-0.006883472204208374,0.0013158678775653243,0.010974354110658169
1782846026001648400,0.8446484375,-0.008334096521139145,-0.006449643522500992,0.006797985173761845
1782846026011653400,0.8546533203125,-0.008683236315846443,-0.00683074165135622,0.006853911560028791
1782846026021659400,0.864659423828125,-0.006907707080245018,-0.004861600697040558,0.00683100800961256
1782846026031664400,0.874664306640625,-0.007897870615124702,0.001865277998149395,0.005593170877546072
1782846026041669400,0.88466943359375,-0.00815193634480238,0.0070762853138148785,0.0047055394388735294
1782846026051674400,0.89467431640625,-0.009366869926452637,0.013711018487811089,0.004354801028966904
1782846026061680400,0.904680419921875,-0.010507235303521156,0.011787683703005314,0.0070488546043634415
1782846026071685400,0.914685302734375,-0.010191917419433594,0.0009941579774022102,0.015172028914093971
1782846026081690400,0.9246904296875,-0.0046690539456903934,-0.0016841830220073462,0.012057461775839329
1782846026091696400,0.9346962890625,-0.0044203149154782295,-0.00012197277828818187,0.010330667719244957
1782846026101701400,0.944701416015625,-0.0015667376574128866,-0.002602973720058799,0.006393450777977705
1782846026111706400,0.954706298828125,-0.002627741079777479,-0.0051905009895563126,0.0001536643976578489
1782846026121712400,0.96471240234375,-0.001832787413150072,-0.0065447185188531876,-0.007132211700081825
1782846026131717400,0.97471728515625,0.002326271263882518,-0.005074653308838606,-0.019042667001485825
1782846026141722400,0.984722412109375,0.004692756105214357,-0.007660582661628723,-0.026853984221816063
1782846026151727400,0.994727294921875,0.004277302883565426,-0.007361776195466518,-0.027603931725025177
1782846026161733400,1.0047333984375,0.005348692648112774,-0.006301305256783962,-0.02455487847328186
1782846026171738400,1.01473828125,0.009520001709461212,-0.010570086538791656,-0.011635084636509418
1782846026181743400,1.024743408203125,0.011534417048096657,-0.009945841506123543,-0.0009590042755007744
1782846026191749400,1.034749267578125,0.00872158631682396,-0.010361027903854847,0.00586667750030756
1782846026201754400,1.04475439453125,0.0070640346966683865,-0.011159177869558334,0.011682755313813686
1782846026211759400,1.05475927734375,0.003655987558886409,-0.011187407188117504,0.009384713135659695
1782846026221764400,1.064764404296875,0.0012471582740545273,-0.01387080829590559,0.005750563926994801
1782846026231770600,1.0747705078125,0.00010492854926269501,-0.01462634652853012,-0.0019941749051213264
1782846026241775600,1.084775634765625,-0.002615490462630987,-0.01260767038911581,-0.015730226412415504
1782846026251780600,1.094780517578125,-0.0009472863748669624,-0.009123723953962326,-0.022303974255919456
1782846026261786400,1.104786376953125,-0.004068777430802584,-0.01161857321858406,-0.028732845559716225
1782846026271791400,1.114791259765625,-0.0007470166892744601,-0.008282696828246117,-0.028603149577975273
1782846026281796400,1.12479638671875,-0.0016615461790934205,-0.006941263098269701,-0.017018664628267288
1782846026291802400,1.13480224609375,-0.004799282643944025,-0.008756473660469055,-0.007084008306264877
1782846026301807400,1.144807373046875,-0.0028013791888952255,-0.007257380057126284,-0.0030924626626074314
1782846026311812400,1.154812255859375,-0.0022767363116145134,-0.008832906372845173,-0.0019627497531473637
1782846026321816800,1.16481689453125,-0.007126885466277599,-0.011565043590962887,0.006744455546140671
1782846026331822800,1.17482275390625,-0.009465406648814678,-0.010702445171773434,0.007010505069047213
1782846026341827800,1.184827880859375,-0.006191050633788109,-0.008054730482399464,0.007050719112157822
1782846026351832800,1.194832763671875,-0.0049588060937821865,-0.0026756778825074434,0.006170011591166258
1782846026361838800,1.2048388671875,-0.001990712946280837,0.0038488004356622696,-0.0024104269687086344
1782846026371843800,1.21484375,0.0026823359075933695,0.0073292856104671955,-0.009206281043589115
1782846026381848800,1.224848876953125,0.007871504873037338,0.005013400688767433,-0.02020966447889805
1782846026391855000,1.234855224609375,0.013422331772744656,0.002989664673805237,-0.0231734961271286
1782846026401860000,1.244860107421875,0.01858486980199814,0.0017507621087133884,-0.027213245630264282
1782846026411865000,1.254864990234375,0.021376129239797592,0.0027302727103233337,-0.018858909606933594
1782846026421870000,1.2648701171875,0.02382889948785305,-0.0013584784464910626,-0.009918410331010818
1782846026431875800,1.274875732421875,0.022977488115429878,-0.0013784521725028753,0.0022626216523349285
1782846026441880800,1.284880859375,0.023959927260875702,-0.0023228090722113848,0.00836765207350254
1782846026451885800,1.2948857421875,0.021993981674313545,-0.0073133064433932304,0.012316054664552212
1782846026461891800,1.304891845703125,0.02112659066915512,-0.012840164825320244,0.01266972254961729
1782846026471896800,1.314896728515625,0.02291889861226082,-0.009977266192436218,0.006745520513504744
1782846026481901800,1.32490185546875,0.016140354797244072,0.0011137339752167463,-0.0027164241764694452
1782846026491907800,1.334907958984375,0.012566657736897469,0.00814900640398264,-0.011290204711258411
1782846026501912800,1.344912841796875,0.008314388804137707,0.017283648252487183,-0.009849168360233307
1782846026511917800,1.354917724609375,0.001812014845199883,0.01980326510965824,-0.001960619119927287
1782846026521922800,1.3649228515625,0.00018508969515096396,0.013865215703845024,0.004531368613243103
1782846026531929000,1.37492919921875,-0.0021758025977760553,0.005972937680780888,0.016694026067852974
1782846026541934000,1.38493408203125,-0.0018570221727713943,0.00025300029665231705,0.022357236593961716
1782846026551939000,1.39493896484375,-0.004042944870889187,-0.0046328348107635975,0.02317429520189762
1782846026561945000,1.404945068359375,-0.002924150787293911,-0.0023238742724061012,0.018263692036271095
1782846026571950000,1.4149501953125,-0.004099403973668814,-0.0010458233300596476,0.013577061705291271
1782846026581955000,1.424955078125,-0.0019451729021966457,0.0018796591321006417,0.0009922938188537955
1782846026591960000,1.4349599609375,-0.005367068573832512,-0.0002641855680849403,-0.012988503091037273
1782846026601965800,1.4449658203125,-0.0011150655336678028,-0.00031611722079105675,-0.02448749914765358
1782846026611970800,1.454970703125,0.0010921623324975371,-0.004805674310773611,-0.02851925976574421
1782846026621975800,1.464975830078125,0.011787150986492634,-0.006580670829862356,-0.02527180127799511
1782846026631981800,1.47498193359375,0.012648949399590492,-0.010998855344951153,-0.015989618375897408
1782846026641986800,1.48498681640625,0.02052631415426731,-0.010323211550712585,-0.0015630092239007354
1782846026651991800,1.49499169921875,0.022236064076423645,-0.010373012162744999,0.008766593411564827
1782846026661997800,1.504997802734375,0.01956411451101303,-0.011638812720775604,0.015095862559974194
1782846026672003000,1.515003173828125,0.018576348200440407,-0.00860174372792244,0.022190257906913757
1782846026682008000,1.525008056640625,0.01441009808331728,-0.0065559037029743195,0.008609999902546406
1782846026692013000,1.535012939453125,0.012004464864730835,-0.007831024937331676,-0.0011020160745829344
1782846026702019000,1.54501904296875,0.006746585946530104,-0.005717274267226458,-0.014879346825182438
1782846026712024000,1.555024169921875,0.00475320965051651,-0.0011046791914850473,-0.01708444394171238
1782846026722029000,1.565029052734375,0.0036392095498740673,-0.00387383415363729,-0.016880713403224945
1782846026732034800,1.575034912109375,0.008653941564261913,-0.006167881190776825,-0.008862201124429703
1782846026742039800,1.585039794921875,0.007508249953389168,0.0002263686910737306,-0.0029462550301104784
1782846026752044800,1.595044921875,0.009749566204845905,0.000972852751147002,0.0008428904693573713
1782846026762050800,1.60505078125,0.011707788333296776,-0.00370179396122694,0.007755391299724579
1782846026772055800,1.615055908203125,0.011722436174750328,-0.010016148909926414,0.014077203348279
1782846026782060800,1.625060791015625,0.008559399284422398,-0.01113174669444561,0.014119281433522701
1782846026792065800,1.635065673828125,0.010815097019076347,-0.009676063433289528,0.007187339011579752
1782846026802071800,1.64507177734375,0.010432667098939419,-0.011605789884924889,-0.0009169263648800552
1782846026812076800,1.655076904296875,0.014308365061879158,-0.00803156103938818,-0.010774350725114346
1782846026822081800,1.665081787109375,0.015091334469616413,-0.004770254250615835,-0.017069265246391296
1782846026832088000,1.675088134765625,0.012813267298042774,-0.0029949909076094627,-0.011984757147729397
1782846026842093000,1.685093017578125,0.016210129484534264,-0.0048975530080497265,-0.005110606085509062
1782846026852098000,1.69509814453125,0.014356834813952446,-0.008329036645591259,0.00938897393643856
1782846026862104000,1.70510400390625,0.011362110264599323,-0.010212157852947712,0.017839184030890465
1782846026872109000,1.715109130859375,0.01161590963602066,-0.019638681784272194,0.021677065640687943
1782846026882114000,1.725114013671875,0.010885937139391899,-0.02148185670375824,0.020019514486193657
1782846026892119000,1.735119140625,0.007930360734462738,-0.019048258662223816,0.0130920996889472
1782846026902124800,1.745124755859375,0.004827511962503195,-0.023508256301283836,0.0006303702248260379
1782846026912129800,1.7551298828125,0.0005091963685117662,-0.024750886484980583,-0.007454187609255314
1782846026922134800,1.765134765625,0.0011435613268986344,-0.025346368551254272,-0.01575792394578457
1782846026932140800,1.775140869140625,0.000972852751147002,-0.023075224831700325,-0.024222781881690025
1782846026942145800,1.785145751953125,-0.0003938815207220614,-0.020329773426055908,-0.01920192316174507
1782846026952150800,1.79515087890625,-0.0013930995482951403,-0.0201561339199543,-0.007712780963629484
1782846026962155800,1.80515576171875,-0.0013640711549669504,-0.017975272610783577,0.010939733125269413
1782846026972162000,1.815162109375,-0.00025486451340839267,-0.01605859585106373,0.0235854871571064
1782846026982167000,1.8251669921875,0.0013483584625646472,-0.01528627797961235,0.030890537425875664
1782846026992172000,1.835172119140625,-0.0019406455103307962,-0.006174272391945124,0.03008972480893135
1782846027002178000,1.845177978515625,0.00030866035376675427,0.001130245509557426,0.028370387852191925
1782846027012183000,1.85518310546875,-0.003326554549857974,0.0005845638806931674,0.015029815956950188
1782846027022188000,1.86518798828125,-0.0036040558479726315,0.004295678809285164,0.004474110435694456
1782846027032193800,1.87519384765625,-0.0064951833337545395,-0.003572630463168025,-0.009428922086954117
1782846027042198800,1.88519873046875,-0.004596083424985409,-0.006806773599237204,-0.02718954347074032
1782846027052203800,1.895203857421875,-0.002569417702034116,-0.01335921511054039,-0.03771249204874039
1782846027062208800,1.905208740234375,0.004788097459822893,-0.01116503681987524,-0.03633483871817589
1782846027072214800,1.91521484375,0.009010539390146732,-0.006431533955037594,-0.027821511030197144
1782846027082219800,1.9252197265625,0.01113467663526535,-0.0024290692526847124,-0.011770106852054596
1782846027092224800,1.935224853515625,0.016207732260227203,0.0027337349019944668,0.003492203075438738
1782846027102231000,1.94523095703125,0.02052098698914051,0.0025361282750964165,0.016210395842790604
1782846027112236000,1.955236083984375,0.02155083231627941,-0.0012831110507249832,0.027269437909126282
1782846027122241000,1.965240966796875,0.017075655981898308,-0.007646468002349138,0.023538881912827492
1782846027132247000,1.9752470703125,0.01769750379025936,-0.011156514286994934,0.013816479593515396
1782846027142252000,1.985251953125,0.016165919601917267,-0.010729343630373478,0.004652808886021376
1782846027152257000,1.995257080078125,0.012115252204239368,-0.007527957204729319,-0.004344947170466185
1782846027162262000,2.005261962890625,0.00890827365219593,-0.005415804218500853,-0.010921357199549675
1782846027172268000,2.01526806640625,0.004489556886255741,-0.0016106797847896814,-0.006259493995457888
1782846027182273000,2.02527294921875,0.0023214775137603283,-0.0033720945939421654,0.0009720537927933037
1782846027192278000,2.035278076171875,-0.0005006743012927473,-0.0037121803034096956,0.00424348097294569
1782846027202283800,2.04528369140625,-0.0027545075863599777,-0.00615110294893384,0.005152151454240084
1782846027212288800,2.055288818359375,-0.0065013086423277855,-0.008528507314622402,0.009751697070896626
1782846027222293800,2.065293701171875,-0.011454255320131779,-0.012325908057391644,0.011654258705675602
1782846027232298800,2.075298828125,-0.012823120690882206,-0.020964404568076134,0.0034072482958436012
1782846027242304800,2.0853046875,-0.017915084958076477,-0.02111061103641987,-0.0020762004423886538
1782846027252309800,2.095309814453125,-0.016896957531571388,-0.016029033809900284,-0.01643276959657669
1782846027262314800,2.105314697265625,-0.020660005509853363,-0.007247260306030512,-0.02539324015378952
1782846027272321000,2.115321044921875,-0.012489426881074905,-0.000743820914067328,-0.02526247873902321
1782846027282326000,2.125325927734375,-0.007643005810678005,0.004570517223328352,-0.017763817682862282
1782846027292331000,2.1353310546875,-0.003364904085174203,0.00788428820669651,-0.007466171868145466
1782846027302337000,2.1453369140625,0.003834951901808381,0.007721036672592163,-0.0016074840677902102
1782846027312342000,2.155342041015625,0.007522364612668753,0.0008237157016992569,0.015855662524700165
1782846027322347800,2.16534765625,0.008766327053308487,0.0009161274065263569,0.024756744503974915
1782846027332352800,2.175352783203125,0.013600763864815235,-0.0021933794487267733,0.011800467036664486
1782846027342358800,2.18535888671875,0.018080200999975204,0.002612560987472534,-0.0032810145057737827
1782846027352363800,2.19536376953125,0.017186710610985756,0.00410552928224206,-0.01565619185566902
1782846027362368800,2.20536865234375,0.015568040311336517,-0.00037763622822239995,-0.020710870623588562
1782846027372374800,2.215374755859375,0.015469503588974476,-0.0012069445801898837,-0.01810763031244278
1782846027382379800,2.2253798828125,0.021699436008930206,-0.007406251039355993,-0.011846539564430714
1782846027392384800,2.235384765625,0.017239706590771675,-0.003977963700890541,-0.009327455423772335
1782846027402390800,2.245390869140625,0.019401127472519875,-0.004445881117135286,-0.00014860439114272594
1782846027412395800,2.255395751953125,0.017604826018214226,-0.0023422501981258392,0.009549562819302082
1782846027422400800,2.26540087890625,0.013658820651471615,0.0006583334179595113,0.021581724286079407
1782846027432405800,2.27540576171875,0.009388442151248455,0.004366518929600716,0.025583922863006592
1782846027442411800,2.285411865234375,0.008075769990682602,0.003799265483394265,0.021865084767341614
1782846027452417000,2.2954169921875,0.00336117553524673,0.0030101709999144077,0.01715688221156597
1782846027462422000,2.305422119140625,0.0008266451768577099,0.009227320551872253,0.010064085945487022
1782846027472427800,2.315427734375,0.004820588044822216,0.01239408552646637,-0.00009853696246864274
1782846027482432800,2.325432861328125,0.007897604256868362,0.019648535177111626,-0.0015550197567790747
1782846027492437800,2.335437744140625,0.007780957501381636,0.02183978445827961,0.009259277954697609
1782846027502442800,2.34544287109375,0.008207063190639019,0.02268800139427185,0.019570238888263702
1782846027512448800,2.35544873046875,0.010673683136701584,0.018856778740882874,0.022718096151947975
1782846027522453800,2.365453857421875,0.01696353778243065,0.01703357882797718,0.024938372895121574
1782846027532458800,2.375458740234375,0.022457106038928032,0.012312859296798706,0.025188444182276726
1782846027542464800,2.38546484375,0.02514716424047947,0.008777512237429619,0.023565514013171196
1782846027552469800,2.3954697265625,0.025058748200535774,0.0019915117882192135,0.02245311066508293
1782846027562474800,2.405474853515625,0.027712587267160416,-0.004061853047460318,0.018436530604958534
1782846027572480800,2.415480712890625,0.028787972405552864,-0.011807923205196857,0.01167609728872776
1782846027582485800,2.42548583984375,0.031744878739118576,-0.014743260107934475,0.001564873498864472
1782846027592490800,2.43549072265625,0.033611491322517395,-0.014083595015108585,0.0011022823164239526
1782846027602495700,2.445495849609375,0.03657505661249161,-0.01618696004152298,0.002454369328916073
1782846027612501800,2.455501708984375,0.03315022960305214,-0.009846239350736141,0.007171360310167074
1782846027622506800,2.4655068359375,0.03268817067146301,-0.0013113404856994748,0.007760184817016125
1782846027632511700,2.47551171875,0.027540814131498337,0.007168963085860014,0.011788749136030674
1782846027642517800,2.485517822265625,0.02539856731891632,0.017739050090312958,0.013203686103224754
1782846027652522800,2.495522705078125,0.02309759519994259,0.014867895282804966,0.008460596203804016
1782846027662527700,2.50552783203125,0.019334282726049423,0.006702643819153309,-0.0013044163351878524
1782846027672533800,2.51553369140625,0.02255777269601822,-0.00561154680326581,-0.006913566030561924
1782846027682538800,2.525538818359375,0.023661918938159943,-0.012920591980218887,-0.013659087009727955
1782846027692543700,2.535543701171875,0.017238108441233635,-0.0167976226657629,-0.01558268815279007
1782846027702548700,2.545548828125,0.01878540590405464,-0.01519067119807005,-0.011424694210290909
1782846027712554800,2.5555546875,0.017833059653639793,-0.005028314422816038,-0.005663478281348944
1782846027722559700,2.565559814453125,0.017482588067650795,0.003117762738838792,0.0009092031978070736
1782846027732564700,2.575564697265625,0.016818128526210785,0.006687996443361044,0.0062789348885416985
1782846027742570800,2.58557080078125,0.013160543516278267,-0.0013518205378204584,0.013399961404502392
1782846027752576000,2.595575927734375,0.008464591577649117,-0.007722101639956236,0.016284963116049767
1782846027762581000,2.6055810546875,0.005550027824938297,-0.01684103161096573,0.004804076161235571
1782846027772586000,2.6155859375,0.005786516238003969,-0.013717410154640675,-0.0028240159153938293
1782846027782591700,2.625591796875,0.0052376389503479,-0.014278272166848183,-0.007484814152121544
1782846027792596700,2.6355966796875,0.003780623432248831,-0.012682772241532803,-0.013697968795895576
1782846027802601700,2.645601806640625,0.0017651431262493134,-0.00666429428383708,-0.013130449689924717
1782846027812607700,2.655607666015625,-0.001998702296987176,-0.003823766717687249,-0.007260043174028397
1782846027822612700,2.66561279296875,-0.0005850964807905257,-0.0025936525780707598,0.005124987103044987
1782846027832617700,2.67561767578125,-0.0015683355741202831,-0.004430168308317661,0.01654675230383873
1782846027842623700,2.685623779296875,-0.0030210898257791996,-0.009681389667093754,0.022483205422759056
1782846027852628700,2.695628662109375,-0.003203516360372305,-0.010334929451346397,0.02124430239200592
1782846027862633700,2.7056337890625,-0.00785366166383028,-0.011566374450922012,0.015195997431874275
1782846027872638700,2.715638671875,-0.012199142016470432,-0.010500578209757805,0.005143096670508385
1782846027882645000,2.72564501953125,-0.00860041193664074,-0.009424127638339996,-0.0027539748698472977
1782846027892650000,2.73564990234375,-0.0105314701795578,-0.008400408551096916,-0.012518721632659435
1782846027902655000,2.745655029296875,-0.015232215635478497,-0.01176451425999403,-0.016096677631139755
1782846027912660700,2.75566064453125,-0.015798404812812805,-0.019574234262108803,-0.016868462786078453
1782846027922665700,2.765665771484375,-0.0161771047860384,-0.026610838249325752,-0.010146377608180046
1782846027932670700,2.775670654296875,-0.019719908013939857,-0.02551228366792202,-0.007623298559337854
1782846027942675700,2.78567578125,-0.02118304930627346,-0.03021569363772869,-0.003871171036735177
1782846027952681700,2.795681640625,-0.021148161962628365,-0.0343095026910305,-0.0012418320402503014
1782846027962686700,2.805686767578125,-0.024775121361017227,-0.02671629935503006,0.0006838997360318899
1782846027972691700,2.815691650390625,-0.029028987511992455,-0.014315822161734104,-0.0008937568636611104
1782846027982697700,2.82569775390625,-0.025791648775339127,-0.0038043255917727947,0.0025859293527901173
1782846027992702700,2.83570263671875,-0.027456125244498253,0.001288171042688191,0.0033220271579921246
1782846028002707700,2.845707763671875,-0.02652668207883835,0.00683180708438158,-0.004555070772767067
1782846028012713700,2.855713623046875,-0.02359827049076557,0.005769472103565931,-0.011501127853989601
1782846028022718700,2.86571875,-0.015898805111646652,0.00041092574247159064,-0.01955239661037922
1782846028032724000,2.875723876953125,-0.012030564248561859,-0.007603857666254044,-0.023125026375055313
1782846028042729000,2.88572900390625,-0.004555869847536087,-0.014799985103309155,-0.029151760041713715
1782846028052735000,2.89573486328125,-0.001927595934830606,-0.02365765906870365,-0.02618499845266342
1782846028062740000,2.905739990234375,0.0028330706991255283,-0.024218786507844925,-0.0222640261054039
1782846028072745000,2.915744873046875,0.0032892702147364616,-0.028743231669068336,-0.016521718353033066
1782846028082750700,2.925750732421875,0.0068120998330414295,-0.024276044219732285,-0.014384797774255276
1782846028092755700,2.935755615234375,0.00752023421227932,-0.018625615164637566,-0.012629508972167969
1782846028102760700,2.9457607421875,0.002683401107788086,-0.015034875832498074,-0.012762666679918766
1782846028112765700,2.955765625,-0.0005736448802053928,-0.0127584058791399,-0.00824035331606865
1782846028122771700,2.965771728515625,-0.0036479979753494263,-0.008343949913978577,-0.009857690893113613
1782846028132776700,2.975776611328125,-0.004020308144390583,-0.008289621211588383,-0.017167268320918083
1782846028142781700,2.98578173828125,-0.003876763628795743,-0.009594038128852844,-0.021642444655299187
1782846028152787700,2.99578759765625,-0.005423794034868479,-0.01780456304550171,-0.02238520048558712
1782846028162792700,3.005792724609375,-0.00427171029150486,-0.024939971044659615,-0.029755765572190285
1782846028172797700,3.015797607421875,-0.0010010822443291545,-0.022997461259365082,-0.032400816679000854
1782846028182804000,3.025803955078125,-0.002100967802107334,-0.024043284356594086,-0.032290562987327576
1782846028192809000,3.03580908203125,-0.000401604687795043,-0.028689168393611908,-0.020808609202504158
1782846028202814000,3.04581396484375,0.00034168356796726584,-0.030368825420737267,-0.009491239674389362
1782846028212819000,3.05581884765625,-0.0005491438205353916,-0.029233785346150398,-0.000008255799002654385
1782846028222824700,3.06582470703125,0.0002892192860599607,-0.021322332322597504,0.013158945366740227
1782846028232829700,3.07582958984375,0.0010381002211943269,-0.014280934818089008,0.021767878904938698
1782846028242834700,3.085834716796875,0.008328237570822239,-0.0035212314687669277,0.022769493982195854
1782846028252840700,3.0958408203125,0.008381500840187073,0.005599029827862978,0.022159630432724953
1782846028262845700,3.105845703125,0.007698133587837219,-0.00007882956560933962,0.02118251658976078
1782846028272850700,3.1158505859375,0.009037170559167862,-0.006983341183513403,0.01818219944834709
1782846028282855700,3.125855712890625,0.006031260825693607,-0.008159658871591091,0.0024588967207819223
1782846028292861700,3.13586181640625,0.002153165638446808,-0.0037324202712625265,-0.012419119477272034
1782846028302866700,3.14586669921875,-0.0013081447687000036,-0.001160339335910976,-0.01666712760925293
1782846028312871700,3.15587158203125,0.00009693906031316146,0.003049585735425353,-0.01782267354428768
1782846028322878000,3.1658779296875,-0.000358461489668116,0.004172374494373798,-0.0059934440068900585
1782846028332883000,3.175883056640625,0.0023784691002219915,0.004781705792993307,0.0011347729014232755
1782846028342888000,3.185887939453125,0.010180465877056122,0.003278617514297366,0.01170272845774889
1782846028352893000,3.195892822265625,0.01510145515203476,0.005539907608181238,0.022130336612462997
1782846028362899000,3.20589892578125,0.016996294260025024,-0.00418409239500761,0.02737436629831791
1782846028372904000,3.215904052734375,0.022401979193091393,0.0009060074225999415,0.019341474398970604
1782846028382909000,3.225908935546875,0.022855514660477638,0.006286391522735357,0.009633186273276806
1782846028392914700,3.235914794921875,0.02184697613120079,0.006592655088752508,-0.0008833705214783549
1782846028402919700,3.245919677734375,0.01673370599746704,0.007812649011611938,-0.011323761194944382
1782846028412924700,3.255924560546875,0.0120689133182168,0.016081765294075012,-0.016996027901768684
1782846028422930700,3.2659306640625,0.008625445887446404,0.0211244598031044,-0.021989189088344574
1782846028432935700,3.275935791015625,0.0075697689317166805,0.026161029934883118,-0.022765766829252243
1782846028442940700,3.285940673828125,0.009563145227730274,0.017733989283442497,-0.026816966012120247
1782846028452945700,3.295945556640625,0.010700847953557968,0.010175938718020916,-0.026994066312909126
1782846028462952000,3.305951904296875,0.014092915691435337,-0.006584932096302509,-0.023863254114985466
1782846028472957000,3.31595703125,0.012087022885680199,-0.01474618911743164,-0.015350726433098316
1782846028482962000,3.3259619140625,0.007762582041323185,-0.01458826381713152,-0.00948085356503725
1782846028492968000,3.335968017578125,0.00392762990668416,-0.009734120219945908,-0.009239304810762405
1782846028502973000,3.345972900390625,0.002049568807706237,0.0038336203433573246,-0.008961536921560764
1782846028512978000,3.35597802734375,-0.0038775624707341194,0.010835870169103146,0.0015070828376337886
1782846028522983700,3.365983642578125,-0.0008647284121252596,0.012662798166275024,0.005645901430398226
1782846028532988700,3.37598876953125,-0.001231711939908564,0.01672838069498539,0.006159625016152859
1782846028542993700,3.38599365234375,-0.00213612150400877,0.017044497653841972,0.005614209920167923
1782846028552998700,3.39599853515625,0.0027534421533346176,0.01438293419778347,-0.0023454460315406322
1782846028563004700,3.406004638671875,0.0022983080707490444,0.009582053869962692,-0.0062821307219564915
1782846028573009700,3.416009765625,0.004704474005848169,0.0060182115994393826,-0.01152482908219099
1782846028583014700,3.4260146484375,0.006287723314017057,0.0024620923213660717,-0.012604208663105965
1782846028593020700,3.436020751953125,0.006813164800405502,0.004978779703378677,-0.014518222771584988
1782846028603025700,3.446025634765625,0.012165053747594357,0.01007713470607996,-0.00631941482424736
1782846028613030700,3.45603076171875,0.009378587827086449,0.007242732681334019,-0.0019377160351723433
1782846028623035600,3.46603564453125,0.010878213681280613,0.01170272845774889,-0.0014173343079164624
1782846028633042000,3.4760419921875,0.009677660651504993,0.014192251488566399,0.004559065215289593
1782846028643047000,3.486046875,0.008816661313176155,0.020422983914613724,0.0037286917213350534
1782846028653052000,3.496052001953125,0.007441937457770109,0.016806410625576973,0.004173972178250551
1782846028663058000,3.506057861328125,0.009928264655172825,0.01506843138486147,0.0027025758754462004
1782846028673063000,3.51606298828125,0.011009774170815945,0.009088569320738316,0.0039047268219292164
1782846028683068000,3.52606787109375,0.008871788159012794,0.00367116741836071,-0.002624012529850006
1782846028693073000,3.536072998046875,0.0035244273021817207,0.003099919529631734,-0.009659817442297935
1782846028703078700,3.54607861328125,-0.0015033544041216373,0.0004980111261829734,-0.00917352456599474
1782846028713083600,3.556083740234375,-0.002942793071269989,-0.0008024104172363877,-0.011862251907587051
1782846028723088600,3.566088623046875,-0.008504272438585758,-0.001967277145013213,-0.012744557112455368
1782846028733094700,3.5760947265625,-0.010836668312549591,0.0031992553267627954,-0.010923488065600395
1782846028743099600,3.586099609375,-0.012943761423230171,0.006754841655492783,-0.0025598304346203804
1782846028753104600,3.596104736328125,-0.014564295299351215,0.005484247580170631,0.007471764925867319
1782846028763109600,3.606109619140625,-0.01702532172203064,0.0032493227627128363,0.006007558666169643
1782846028773116000,3.616115966796875,-0.015479356981813908,0.002126800362020731,0.005904227960854769
1782846028783121000,3.626120849609375,-0.01606818288564682,-0.0008343683439306915,0.006869623903185129
1782846028793126000,3.6361259765625,-0.01835903339087963,-0.005538576282560825,0.0014495585346594453
1782846028803132000,3.6461318359375,-0.01727193035185337,-0.00564164062961936,-0.010605240240693092
1782846028813137000,3.656136962890625,-0.01842241734266281,-0.002139583695679903,-0.01793159544467926
1782846028823142000,3.666141845703125,-0.01774890348315239,0.0049313753843307495,-0.02148372121155262
1782846028833147000,3.67614697265625,-0.018276475369930267,0.010427340865135193,-0.015614645555615425
1782846028843152600,3.686152587890625,-0.018015485256910324,0.014607172459363937,-0.004541754722595215
1782846028853157600,3.69615771484375,-0.01678324118256569,0.016955014318227768,-0.0005579322460107505
1782846028863163000,3.706162841796875,-0.012967996299266815,0.014666827395558357,0.00009028115891851485
1782846028873168600,3.716168701171875,-0.009312541224062443,0.015294800512492657,0.00609277980402112
1782846028883173600,3.726173583984375,-0.0037089844699949026,0.007952465675771236,0.012839099392294884
1782846028893178600,3.7361787109375,-0.0021766014397144318,0.01173095777630806,0.012892895378172398
1782846028903183600,3.74618359375,-0.0020157466642558575,0.021193701773881912,0.020020313560962677
1782846028913190000,3.75618994140625,0.005335377063602209,0.02118757739663124,0.015296132303774357
1782846028923195000,3.76619482421875,0.01299223117530346,0.012794358655810356,0.005881324876099825
1782846028933200000,3.776199951171875,0.01648976095020771,0.0010873686987906694,-0.0025957829784601927
1782846028943206000,3.786205810546875,0.016020245850086212,-0.013077186420559883,-0.011697402223944664
1782846028953211000,3.7962109375,0.0163629949092865,-0.020494356751441956,-0.018940402194857597
1782846028963216000,3.8062158203125,0.013017797842621803,-0.022530876100063324,-0.019576631486415863
1782846028973222000,3.816221923828125,0.013021792285144329,-0.022470422089099884,-0.015903599560260773
1782846028983227000,3.826226806640625,0.008408132009208202,-0.013607688248157501,-0.005871737375855446
1782846028993232000,3.83623193359375,0.006187322083860636,-0.004850681405514479,0.011999937705695629
1782846029003236900,3.84623681640625,0.002133724745362997,0.00010652644414221868,0.018014153465628624
1782846029013242600,3.85624267578125,0.000752875639591366,0.0020935109350830317,0.019208848476409912
1782846029023247600,3.86624755859375,0.0009749832679517567,0.003049319377169013,0.02057771384716034
1782846029033252600,3.876252685546875,0.0016373114194720984,-0.00532445777207613,0.016105998307466507
1782846029043259000,3.8862587890625,-0.0019797938875854015,-0.006227003410458565,0.006331132724881172
1782846029053264000,3.896263916015625,0.0008870989549905062,-0.00723474333062768,-0.008468852378427982
1782846029063268900,3.906268798828125,-0.006048571318387985,-0.011319499462842941,-0.01098633836954832
1782846029073273900,3.91627392578125,-0.0007550061563961208,-0.00780625781044364,-0.008096009492874146
1782846029083280000,3.92627978515625,-0.0011504855938255787,0.0011779161868616939,-0.0027861990965902805
1782846029093284900,3.936284912109375,-0.00012223910016473383,0.007679224945604801,0.005804892163723707
1782846029103289900,3.946289794921875,0.003430151380598545,0.010232930071651936,0.014003966003656387
1782846029113296000,3.9562958984375,0.008581237867474556,0.0070981234312057495,0.017351826652884483
1782846029123300900,3.96630078125,0.010973022319376469,0.001392300589941442,0.01599973998963833
1782846029133305900,3.976305908203125,0.010265421122312546,-0.00612313998863101,0.003153981640934944
1782846029143310800,3.986310791015625,0.010528274811804295,-0.013413011096417904,-0.010456635616719723
1782846029153316900,3.99631689453125,0.01125265471637249,-0.014962171204388142,-0.024221982806921005
1782846029163321900,4.00632177734375,0.011347463354468346,-0.014358699321746826,-0.0349060520529747
1782846029173326800,4.016326904296875,0.012715528719127178,-0.01281353272497654,-0.03846270218491554
1782846029183332600,4.02633251953125,0.013449229300022125,-0.016460997983813286,-0.03814738616347313
1782846029193337600,4.036337646484375,0.011203918606042862,-0.010160491801798344,-0.03370203822851181
1782846029203342600,4.046342529296875,0.015421566553413868,-0.01401808112859726,-0.017163807526230812
1782846029213347600,4.05634765625,0.007691209204494953,-0.00044900894863530993,-0.0022509037517011166
1782846029223353900,4.066353759765625,0.006579872220754623,0.005303951445966959,0.0065532405860722065
1782846029233358800,4.07635888671875,0.004098604898899794,0.009486446157097816,0.0035662390291690826
1782846029243363800,4.08636376953125,0.004870122764259577,0.01269768550992012,-0.007494934368878603
1782846029253369900,4.096369873046875,0.0005850964807905257,0.009668339975178242,-0.01437973789870739
1782846029263374800,4.106374755859375,-0.004207261838018894,0.012288890779018402,-0.01432141475379467
1782846029273379800,4.1163798828125,-0.0067902617156505585,0.0051569449715316296,-0.012572783045470715
1782846029283384800,4.126384765625,-0.004049602895975113,0.005380650516599417,-0.00936021190136671
1782846029293390800,4.136390869140625,-0.007317834068089724,0.010537861846387386,-0.0010285128373652697
1782846029303395800,4.146395751953125,-0.007001983001828194,0.009349559433758259,0.009465673007071018
1782846029313400800,4.15640087890625,0.00037976677413098514,0.00948165263980627,0.014123009517788887
1782846029323406600,4.166406494140625,0.0030602384358644485,0.00759853096678853,0.015365107916295528
1782846029333411600,4.17641162109375,0.0016737966798245907,0.005649097263813019,0.0117900799959898
1782846029343416600,4.18641650390625,0.004536428488790989,0.005332447588443756,-0.000013582121027866378
1782846029353421600,4.196421630859375,0.0048858351074159145,0.003531617810949683,-0.0076272934675216675
1782846029363427800,4.206427734375,0.00427277572453022,-0.0008761800127103925,-0.013438576832413673
1782846029373432800,4.216432861328125,0.0022450448013842106,0.0033955303952097893,-0.013125388883054256
1782846029383437800,4.226437744140625,0.0004948153509758413,0.001966744428500533,-0.01079752016812563
1782846029393443800,4.23644384765625,0.00014327807002700865,0.001677525113336742,-0.0038754320703446865
1782846029403448800,4.24644873046875,-0.0004271710349712521,0.006364156026393175,0.0062760054133832455
1782846029413453800,4.256453857421875,-0.004037618637084961,0.006733270362019539,0.014090518467128277
1782846029423459800,4.2664599609375,-0.006287190597504377,0.010370083153247833,0.020085293799638748
1782846029433464800,4.27646484375,-0.005960953421890736,0.016094280406832695,0.025004152208566666
1782846029443469800,4.2864697265625,-0.012041216716170311,0.017293769866228104,0.03190973028540611
1782846029453474800,4.296474853515625,-0.01050270814448595,0.01834438554942608,0.028913140296936035
1782846029463480800,4.306480712890625,-0.005952697712928057,0.016271913424134254,0.018137991428375244
1782846029473485800,4.31648583984375,-0.004066913388669491,0.013244965113699436,0.002785400254651904
1782846029483490800,4.32649072265625,-0.0020335898734629154,0.006866428069770336,-0.005549495108425617
1782846029493495800,4.336495849609375,-0.0013704627053812146,0.006529538426548243,-0.013850301504135132
1782846029503501800,4.346501708984375,0.00016058860637713224,0.009079515002667904,-0.011607653461396694
1782846029513506800,4.3565068359375,-0.0003653856983873993,0.004583566449582577,-0.001728657865896821
1782846029523511800,4.36651171875,-0.0030802120454609394,-0.0009257147903554142,0.008275507017970085
1782846029533517800,4.376517822265625,-0.00421232171356678,-0.0030008498579263687,0.026874225586652756
1782846029543522800,4.386522705078125,-0.008191084489226341,-0.0066650933586061,0.03434545546770096
1782846029553527800,4.39652783203125,-0.012264655902981758,-0.0057047572918236256,0.03545119985938072
1782846029563532800,4.40653271484375,-0.015856994315981865,0.0005901564727537334,0.03561578318476677
1782846029573538800,4.416538818359375,-0.02082325704395771,0.002232261700555682,0.02437777817249298
1782846029583543800,4.426543701171875,-0.017960358411073685,0.0023086944129318,0.014640728011727333
1782846029593548800,4.436548828125,-0.023312779143452644,0.009021458216011524,0.0010892328573390841
1782846029603554800,4.446554931640625,-0.025618543848395348,0.016211461275815964,-0.006611031014472246
1782846029613559800,4.456559814453125,-0.024168452247977257,0.0008689894457347691,-0.0036642432678490877
1782846029623564800,4.466564697265625,-0.017249559983611107,-0.009769540280103683,-0.008333297446370125
1782846029633569800,4.47656982421875,-0.018802981823682785,-0.014568822458386421,-0.004462126176804304
1782846029643575600,4.486575439453125,-0.018556639552116394,-0.011574364267289639,0.0017323862994089723
1782846029653580800,4.496580810546875,-0.019528960809111595,-0.007056045345962048,0.011153318919241428
1782846029663585800,4.506585693359375,-0.018611501902341843,-0.0037766287568956614,0.012568522244691849
1782846029673591800,4.516591796875,-0.021160678938031197,-0.006907440721988678,0.014510232955217361
1782846029683596800,4.5265966796875,-0.020306071266531944,-0.01359543763101101,0.00959776621311903
1782846029693601800,4.536601806640625,-0.020667728036642075,-0.016330502927303314,0.0016812535468488932
1782846029703606800,4.546606689453125,-0.012654010206460953,-0.010230799205601215,-0.004341484978795052
1782846029713612800,4.55661279296875,-0.010814564302563667,-0.004502872936427593,-0.004625644534826279
1782846029723617800,4.56661767578125,-0.007892810739576817,0.0037678403314203024,0.005313272587954998
1782846029733622800,4.576622802734375,-0.0036693033762276173,0.009731989353895187,0.010509898886084557
1782846029743628800,4.58662890625,0.0008753810543566942,0.006987069267779589,0.014522217214107513
1782846029753633800,4.5966337890625,0.0026903252582997084,0.0002695118892006576,0.021568408235907555
1782846029763638800,4.606638671875,-0.0010982876410707831,-0.012250008061528206,0.02142832614481449
1782846029773643800,4.616643798828125,-0.0025446503423154354,-0.012259862385690212,0.010833472944796085
1782846029783649800,4.62664990234375,-0.004863997455686331,-0.009424393996596336,0.0010058758780360222
1782846029793654800,4.63665478515625,-0.01107661984860897,-0.004064782522618771,-0.012387693859636784
1782846029803659800,4.64665966796875,-0.011290471069514751,0.001981391804292798,-0.016528110951185226
1782846029813665800,4.656665771484375,-0.013874536380171776,0.001752093667164445,-0.023122895509004593
1782846029823670800,4.6666708984375,-0.009130647405982018,0.0012564794160425663,-0.025067269802093506
1782846029833675800,4.67667578125,-0.00700730923563242,0.001249555149115622,-0.018974490463733673
1782846029843680800,4.6866806640625,-0.005505819339305162,0.0009715211344882846,-0.01266759168356657
1782846029853686800,4.696686767578125,-0.003108974313363433,-0.0014950985787436366,-0.005630454979836941
1782846029863691800,4.70669189453125,-0.004674646537750959,0.0011646003695204854,0.004400340840220451
1782846029873696800,4.71669677734375,-0.006175071466714144,-0.0008556736283935606,0.012339756824076176
1782846029883702800,4.726702880859375,-0.008115450851619244,-0.006075202953070402,0.016116652637720108
1782846029893707800,4.736707763671875,-0.011920841410756111,0.0005456816870719194,0.009898703545331955
1782846029903712800,4.746712646484375,-0.011696869507431984,0.010260360315442085,-0.002276470186188817
1782846029913717800,4.7567177734375,-0.012577843852341175,0.0098038949072361,-0.008717325516045094
1782846029923723800,4.766723876953125,-0.012529906816780567,0.012084359303116798,-0.011093930341303349
1782846029933728800,4.776728759765625,-0.005818740464746952,0.00637906976044178,-0.010537062771618366
1782846029943733800,4.786733642578125,-0.0018397116800770164,0.0024322650860995054,-0.004455468617379665
1782846029953739800,4.79673974609375,-0.003425357863306999,0.0013675332302227616,0.002375007141381502
1782846029963744800,4.806744873046875,-0.0015672702575102448,0.0013315805699676275,0.010134393349289894
1782846029973749800,4.816749755859375,-0.00031904669594950974,0.00195156445261091,0.014593856409192085
1782846029983754800,4.826754638671875,-0.001823732745833695,-0.0026077672373503447,0.018984610214829445
1782846029993760800,4.8367607421875,-0.006965231616050005,0.0017337178578600287,0.020017649978399277
1782846030003765800,4.846765869140625,-0.010428139939904213,0.004876514431089163,0.021585986018180847
1782846030013770800,4.856770751953125,-0.01696140691637993,0.00968671590089798,0.015897473320364952
1782846030023776800,4.86677685546875,-0.018254105001688004,0.003882356220856309,0.011079282499849796
1782846030033781800,4.87678173828125,-0.01931963488459587,0.0009089368977583945,0.008213188499212265
1782846030043786800,4.886786865234375,-0.017553959041833878,0.0044019389897584915,0.0010178601369261742
1782846030053791700,4.896791748046875,-0.021451761946082115,0.002691656816750765,0.0011733887949958444
1782846030063797800,4.9067978515625,-0.02045813761651516,0.003057841444388032,0.004599012900143862
1782846030073802800,4.916802734375,-0.019590212032198906,0.00666429428383708,0.011769307777285576
1782846030083807700,4.926807861328125,-0.016218651086091995,0.013517939485609531,0.020737236365675926
1782846030093814000,4.93681396484375,-0.016802415251731873,0.012300075963139534,0.026915770024061203
1782846030103819000,4.946819091796875,-0.01649082638323307,0.009559682570397854,0.026373550295829773
1782846030113824000,4.956823974609375,-0.01733558066189289,0.00689066294580698,0.022221149876713753
1782846030123829000,4.9668291015625,-0.02148611657321453,0.006567355245351791,0.013640444725751877
1782846030133834800,4.976834716796875,-0.020000606775283813,-0.00005379585491027683,0.008389756083488464
1782846030143839700,4.98683984375,-0.013068663887679577,-0.011980229988694191,0.01095571182668209
1782846030153844700,4.9968447265625,-0.014404771849513054,-0.016752082854509354,0.007632353343069553
1782846030163850800,5.006850830078125,-0.01248330157250166,-0.0152561841532588,0.006554571911692619
1782846030173855700,5.016855712890625,-0.011952799744904041,-0.014334730803966522,0.008783104829490185
1782846030183860700,5.02686083984375,-0.007232346571981907,-0.012146944180130959,0.018160095438361168
1782846030193865700,5.03686572265625,-0.010914432816207409,-0.010325874201953411,0.018010959029197693
1782846030203871700,5.046871826171875,-0.011975969187915325,-0.005524461157619953,0.021572403609752655
1782846030213876700,5.056876708984375,-0.014646320603787899,0.0008053398923948407,0.013376525603234768
1782846030223881700,5.0668818359375,-0.01552250050008297,0.00010572749306447804,0.008476309478282928
1782846030233886700,5.07688671875,-0.013971475884318352,-0.0041193775832653046,0.005593170877546072
1782846030243892700,5.086892822265625,-0.010853447020053864,-0.010282198898494244,-0.00301736150868237
1782846030253898000,5.09689794921875,-0.011789281852543354,-0.017351027578115463,-0.008650479838252068
1782846030263903000,5.106903076171875,-0.009271262213587761,-0.013373595662415028,-0.013229519128799438
1782846030273908700,5.11690869140625,-0.008785502053797245,-0.012092615477740765,-0.01041349209845066
1782846030283913700,5.126913818359375,-0.006710899528115988,-0.01179434172809124,-0.007376956287771463
1782846030293919000,5.1369189453125,-0.006518086884170771,-0.010104033164680004,0.00538517814129591
1782846030303924000,5.146924072265625,-0.005586512852460146,-0.013859356753528118,0.009620402939617634
1782846030313929700,5.1569296875,-0.0012708604335784912,-0.014913702383637428,0.012458800338208675
1782846030323936000,5.16693603515625,0.0000876179983606562,-0.008776181377470493,0.0088803106918931
1782846030333941000,5.17694091796875,-0.0007536745979450643,-0.0055090151727199554,0.005819273181259632
1782846030343947000,5.186947021484375,0.0067484499886631966,-0.005136172287166119,0.0016724651213735342
1782846030353952000,5.196951904296875,0.005742307752370834,-0.00324825756251812,0.0032647692132741213
1782846030363957000,5.20695703125,0.007208111695945263,-0.005175320897251368,-0.00019973708549514413
1782846030373962000,5.2169619140625,0.013498231768608093,-0.009782057255506516,-0.003970507066696882
1782846030383968000,5.226968017578125,0.014378140680491924,-0.016102271154522896,-0.00387356779538095
1782846030393973000,5.236972900390625,0.010882475413382053,-0.022959643974900246,0.004472512751817703
1782846030403978000,5.24697802734375,0.00917139369994402,-0.02630377560853958,-0.0036101811565458775
1782846030413984000,5.25698388671875,0.010088853538036346,-0.017592309042811394,-0.01113201305270195
1782846030423989000,5.266989013671875,0.005841377656906843,-0.010550911538302898,-0.01518933940678835
1782846030433994000,5.276993896484375,0.007285343483090401,-0.002773682354018092,-0.0226840078830719
1782846030443999000,5.2869990234375,0.006572947837412357,-0.000018109494703821838,-0.029272668063640594
1782846030454005000,5.2970048828125,0.006647516507655382,-0.0017576862592250109,-0.025431057438254356
1782846030464010000,5.307010009765625,0.004744953941553831,-0.008902414701879025,-0.02063816599547863
1782846030474015000,5.317014892578125,0.0016410398529842496,-0.012885171920061111,-0.012554141692817211
1782846030484021000,5.32702099609375,0.004053330980241299,-0.010819091461598873,-0.0022714100778102875
1782846030494026000,5.33702587890625,0.005241101142019033,-0.007336475886404514,0.008588427677750587
1782846030504031000,5.347031005859375,0.006176403257995844,-0.007044593803584576,0.023356454446911812
1782846030514036000,5.357035888671875,0.0018247979460284114,-0.0029936593491584063,0.028268389403820038
1782846030524042200,5.367042236328125,-0.001327053178101778,-0.0004396878939587623,0.021931663155555725
1782846030534047200,5.377047119140625,-0.002692722249776125,0.0005062668933533132,0.013737117871642113
1782846030544052200,5.38705224609375,-0.003290601773187518,-0.00035952674807049334,0.005788114387542009
1782846030554057200,5.39705712890625,-0.0005763080553151667,-0.004318848252296448,-0.007241401355713606
1782846030564063000,5.40706298828125,-0.00392762990668416,-0.006779342889785767,-0.01727752387523651
1782846030574068000,5.41706787109375,-0.0009036105475388467,-0.0034906051587313414,-0.024803083389997482
1782846030584073000,5.427072998046875,0.001793905277736485,0.004280232358723879,-0.023238476365804672
1782846030594079000,5.437078857421875,0.005769472103565931,0.008314655162394047,-0.01302285771816969
1782846030604084000,5.447083984375,0.014345383271574974,0.009912817738950253,0.008264321833848953
1782846030614089000,5.4570888671875,0.01537602674216032,0.007866711355745792,0.022335132583975792
1782846030624094000,5.467093994140625,0.017421867698431015,0.00401737866923213,0.030321154743433
1782846030634100000,5.477099853515625,0.015933958813548088,-0.0014599448768422008,0.029626602306962013
1782846030644105000,5.48710498046875,0.01564234308898449,-0.011023889295756817,0.02648433856666088
1782846030654110000,5.49710986328125,0.008493886329233646,-0.01708950474858284,0.01654914952814579
1782846030664116200,5.5071162109375,0.006779609248042107,-0.013797570951282978,0.005317001137882471
1782846030674121200,5.517121337890625,-0.002042910782620311,-0.012436696328222752,-0.004492220003157854
1782846030684126200,5.527126220703125,-0.0008705873624421656,-0.006667223758995533,-0.00833569373935461
1782846030694131200,5.537131103515625,-0.0005182511522434652,-0.0018775284988805652,-0.005245628301054239
1782846030704137000,5.547136962890625,0.0013938985066488385,0.00427224300801754,0.00022210762836039066
1782846030714142200,5.55714208984375,-0.0019536949694156647,0.010218814946711063,0.010294981300830841
1782846030724147200,5.567147216796875,-0.002383529208600521,0.01034611463546753,0.019938820973038673
1782846030734153000,5.577153076171875,-0.005239236634224653,0.016646355390548706,0.020772922784090042
1782846030744158000,5.587157958984375,-0.002787530655041337,0.01420370303094387,0.021319668740034103
1782846030754163000,5.597162841796875,-0.0035169704351574183,0.006685866042971611,0.01581837795674801
1782846030764168000,5.60716796875,-0.00358754419721663,0.0004985437262803316,0.0002918824611697346
1782846030774174000,5.617174072265625,0.0008847020799294114,0.0032490564044564962,-0.008570319041609764
1782846030784179000,5.627178955078125,0.0020242687314748764,-0.00019494339358061552,-0.01828686147928238
1782846030794184000,5.637183837890625,0.0025302693247795105,0.0032748891972005367,-0.021852567791938782
1782846030804189000,5.64718896484375,0.0087205208837986,0.00555215822532773,-0.025241972878575325
1782846030814195200,5.6571953125,0.00535428524017334,0.008380435407161713,-0.018640529364347458
1782846030824200200,5.6672001953125,0.0056949034333229065,0.009954363107681274,-0.014957111328840256
1782846030834205200,5.677205078125,0.0051779840141534805,0.005556951742619276,-0.0038597192615270615
1782846030844211200,5.687211181640625,0.0074605792760849,0.0032386700622737408,0.0012828446924686432
1782846030854216200,5.69721630859375,0.004544151946902275,-0.003156911116093397,0.0075849490240216255
1782846030864221200,5.70722119140625,0.0010229201288893819,-0.005289037711918354,0.009468869306147099
1782846030874226200,5.71722607421875,-0.0005640574963763356,0.0009387642494402826,0.007370031904429197
1782846030884232000,5.72723193359375,-0.0019217369845137,0.008042213506996632,0.003465571440756321
1782846030894237000,5.73723681640625,-0.004503138829022646,0.0027750139124691486,0.0005584649043157697
1782846030904242000,5.747241943359375,-0.0041582598350942135,-0.0008372978190891445,-0.005471197888255119
1782846030914248000,5.757248046875,-0.006840062793344259,-0.004544950556010008,-0.013531255535781384
1782846030924253000,5.7672529296875,-0.009472064673900604,-0.007532484829425812,-0.018071943894028664
1782846030934258000,5.7772578125,-0.014785337261855602,-0.01037594210356474,-0.02183951810002327
1782846030944263000,5.787262939453125,-0.01823679357767105,-0.0075548551976680756,-0.016642093658447266
1782846030954269000,5.79726904296875,-0.023497335612773895,-0.009979397058486938,-0.014432202093303204
1782846030964274000,5.80727392578125,-0.023932762444019318,-0.01350595522671938,-0.0041308291256427765
1782846030974279000,5.81727880859375,-0.023383352905511856,-0.019875437021255493,-0.0008823052630759776
1782846030984284000,5.827283935546875,-0.024644093587994576,-0.018848255276679993,-0.0003563309437595308
1782846030994290200,5.837290283203125,-0.02569018304347992,-0.018561167642474174,0.004751878324896097
1782846031004295200,5.847295166015625,-0.022468823939561844,-0.021078387275338173,0.005085838492959738
1782846031014300200,5.857300048828125,-0.028004202991724014,-0.016878316178917885,0.011580489575862885
1782846031024306200,5.86730615234375,-0.025958895683288574,-0.01775342971086502,0.008406800217926502
1782846031034311200,5.877311279296875,-0.030311033129692078,-0.02184617705643177,0.0019230686593800783
1782846031044316200,5.887316162109375,-0.03217045217752457,-0.01629801280796528,-0.00019414443522691727
1782846031054321200,5.897321044921875,-0.03615187853574753,-0.014932876452803612,-0.004069043789058924
1782846031064327000,5.907326904296875,-0.03844432905316353,-0.014255368150770664,-0.009698966518044472
1782846031074332000,5.917331787109375,-0.03789757937192917,-0.014907577075064182,-0.010662497952580452
1782846031084337000,5.9273369140625,-0.03609754890203476,-0.009197226725518703,-0.012255334295332432
1782846031094342000,5.937341796875,-0.03720675781369209,-0.014849253930151463,-0.0027952538803219795
1782846031104348000,5.947347900390625,-0.037585191428661346,-0.015813317149877548,0.007785751484334469
1782846031114353000,5.957352783203125,-0.03783686086535454,-0.015566975809633732,0.012299276888370514
1782846031124358000,5.96735791015625,-0.03464239835739136,-0.01636911928653717,0.024538898840546608
1782846031134364200,5.9773642578125,-0.04398183897137642,-0.025656627491116524,0.03629808500409126
1782846031144369200,5.987369140625,-0.0358424186706543,-0.019347865134477615,0.022836873307824135
1782846031154374100,5.9973740234375,-0.039448074996471405,-0.020566526800394058,0.015077752992510796
1782846031164379100,6.007379150390625,-0.03665894642472267,-0.02269466035068035,0.00196381495334208
1782846031174385200,6.01738525390625,-0.0400233156979084,-0.024811606854200363,-0.006716492120176554
1782846031184390100,6.02739013671875,-0.039935432374477386,-0.02419295348227024,-0.021558821201324463
1782846031194395100,6.03739501953125,-0.036679983139038086,-0.017374197021126747,-0.0291160736232996
1782846031204401000,6.04740087890625,-0.03313984349370003,-0.014719291590154171,-0.026675019413232803
1782846031214406000,6.057406005859375,-0.027113376185297966,-0.015065768733620644,-0.018254105001688004
1782846031224411100,6.0674111328125,-0.016202405095100403,-0.018683938309550285,-0.0035430695861577988
1782846031234416000,6.077416015625,-0.010663030669093132,-0.02515675127506256,0.009796437807381153
1782846031244422000,6.087421875,-0.003740143496543169,-0.032515332102775574,0.01732918992638588
1782846031254427000,6.097427001953125,0.00011238539445912465,-0.04060494899749756,0.01557975821197033
1782846031264431900,6.107431884765625,0.0029292108956724405,-0.03651673346757889,0.01841895468533039
1782846031274436900,6.117436767578125,0.0023044333793222904,-0.03277818486094475,0.0140156839042902
1782846031284443100,6.127443115234375,-0.0014788532862439752,-0.02208452858030796,0.008046208880841732
1782846031294448000,6.1374482421875,-0.0024892566725611687,-0.00609224708750844,0.00007323692989302799
1782846031304453000,6.147453125,-0.0014602112350985408,0.0002540655550546944,-0.009790046140551567
1782846031314459100,6.157459228515625,-0.0018495653057470918,-0.0018575548892840743,-0.01173415407538414
1782846031324462800,6.167462890625,0.0010663296561688185,-0.012922190129756927,-0.006587328854948282
1782846031334467800,6.1774677734375,0.004485029727220535,-0.01465590763837099,0.0008114652009680867
1782846031344472800,6.187472900390625,0.0057465690188109875,-0.016278306022286415,0.01227371022105217
1782846031354478800,6.197478759765625,0.002351038623601198,-0.018324146047234535,0.029198098927736282
1782846031364483800,6.20748388671875,-0.0011715245200321078,-0.01948688179254532,0.03689516708254814
1782846031374488800,6.21748876953125,-0.003611779073253274,-0.015684686601161957,0.04048510640859604
1782846031384493800,6.227493896484375,-0.011514442972838879,-0.010476609691977501,0.03482535853981972
1782846031394500000,6.2375,-0.015598933212459087,-0.006332730874419212,0.021505825221538544
1782846031404505000,6.247505126953125,-0.01816435717046261,-0.005481318105012178,-0.002737196860834956
1782846031414510000,6.257510009765625,-0.020189689472317696,-0.0031992553267627954,-0.022052837535738945
1782846031424515800,6.267515869140625,-0.02111700363457203,-0.009555954486131668,-0.03481683507561684
1782846031434520800,6.277520751953125,-0.019887953996658325,-0.01961764320731163,-0.037765223532915115
1782846031444526000,6.287526123046875,-0.017549166455864906,-0.01751534454524517,-0.039142075926065445
1782846031454531000,6.297531005859375,-0.01398931909352541,0.0003326288133393973,-0.028490763157606125
1782846031464536800,6.307536865234375,-0.005773200653493404,0.009090433828532696,-0.013107013888657093
1782846031474541800,6.317541748046875,-0.0014375743921846151,0.01611904799938202,0.00939163751900196
1782846031484546800,6.327546875,0.00980575941503048,0.016142217442393303,0.023783093318343163
1782846031494552800,6.337552734375,0.01564101129770279,0.00609224708750844,0.029745912179350853
1782846031504557800,6.347557861328125,0.02137133479118347,-0.007622765842825174,0.019885823130607605
1782846031514562800,6.357562744140625,0.02274818904697895,-0.015537148341536522,0.0032474587205797434
1782846031524567800,6.36756787109375,0.021136976778507233,-0.013109410181641579,-0.016870858147740364
1782846031534573800,6.37757373046875,0.013390906155109406,-0.015422099269926548,-0.030060963705182076
1782846031544579000,6.3875791015625,0.0154956029728055,-0.013818077743053436,-0.03203117102384567
1782846031554584000,6.397583984375,0.01369477342814207,-0.011057178489863873,-0.02558019384741783
1782846031564589000,6.407589111328125,0.010269948281347752,-0.006013683974742889,-0.011950136162340641
1782846031574595000,6.417594970703125,0.00481472909450531,-0.0028365328907966614,0.003908987622708082
1782846031584600000,6.42760009765625,0.003213636577129364,0.0005763080553151667,0.017473531886935234
1782846031594605000,6.43760498046875,0.0024290692526847124,0.000958205375354737,0.02478097938001156
1782846031604610000,6.447610107421875,-0.00045566685730591416,-0.0017307883827015758,0.018515894189476967
1782846031614615800,6.45761572265625,-0.0019539613276720047,-0.005000350996851921,0.00549276964738965
1782846031624620800,6.467620849609375,-0.0044983453117311,-0.009326922707259655,-0.006837399676442146
1782846031634625800,6.477625732421875,-0.008153267204761505,-0.0059838565066456795,-0.018920959904789925
1782846031644631800,6.4876318359375,-0.012718192301690578,-0.0015683355741202831,-0.014940333552658558
1782846031654636800,6.49763671875,-0.012908075004816055,0.0028005801141262054,-0.012137356214225292
1782846031664641800,6.507641845703125,-0.010511497035622597,0.0010972223244607449,0.0022327941842377186
1782846031674646800,6.517646728515625,-0.010156497359275818,-0.001487375469878316,0.015443405136466026
1782846031684652800,6.52765283203125,-0.0049193911254405975,-0.005330316722393036,0.023071764037013054
1782846031694657800,6.53765771484375,-0.00018855179951060563,-0.013412744738161564,0.02683853916823864
1782846031704662800,6.547662841796875,0.004890096373856068,-0.015677230432629585,0.014854580163955688
1782846031714669000,6.5576689453125,0.008159925229847431,-0.017485516145825386,0.000630902883131057
1782846031724674000,6.567674072265625,0.008776181377470493,-0.01525804866105318,-0.01732892356812954
1782846031734679000,6.577678955078125,0.007679224945604801,-0.010981811210513115,-0.029324332252144814
1782846031744684000,6.58768408203125,0.005681854207068682,-0.006779076531529427,-0.03356381878256798
1782846031754690000,6.59768994140625,0.0038256309926509857,-0.010773285292088985,-0.026684874668717384
1782846031764695000,6.607695068359375,-0.00245090713724494,-0.01998329535126686,-0.021858960390090942
1782846031774700000,6.617699951171875,0.0012026835465803742,-0.025969548150897026,-0.016264989972114563
1782846031784705000,6.627705078125,-0.00019654128118418157,-0.024205470457673073,-0.008461927995085716
1782846031794710800,6.637710693359375,0.0032983249984681606,-0.025015870109200478,0.0025483788922429085
1782846031804715800,6.6477158203125,0.0095671396702528,-0.025780463591217995,0.020387563854455948
1782846031814720800,6.657720703125,0.008356733247637749,-0.00875221285969019,0.009239571169018745
1782846031824725800,6.667725830078125,0.010085923597216606,-0.00007643271965207532,0.010338124819099903
1782846031834731800,6.677731689453125,0.008081895299255848,0.003512975759804249,-0.0018975022248923779
1782846031844736800,6.68773681640625,0.010322412475943565,0.0026522420812398195,-0.008309595286846161
1782846031854741800,6.69774169921875,0.015215437859296799,-0.0011060107499361038,-0.006036587059497833
1782846031864748000,6.707748046875,0.014223410747945309,-0.009571134112775326,-0.005854160524904728
1782846031874753000,6.7177529296875,0.0191316157579422,-0.017617875710129738,-0.01062121894210577
1782846031884758000,6.727758056640625,0.01924852840602398,-0.017417339608073235,-0.011153318919241428
1782846031894763000,6.737762939453125,0.01919952780008316,-0.014426343142986298,-0.009062470868229866
1782846031904769000,6.74776904296875,0.022654978558421135,-0.01378185860812664,-0.0030682277865707874
1782846031914774000,6.75777392578125,0.018219484016299248,-0.007559915538877249,-0.0018080200534313917
1782846031924779000,6.767779052734375,0.015150723047554493,-0.0026972496416419744,-0.003279150230810046
1782846031934784000,6.777783935546875,0.015308648347854614,-0.0017678063595667481,0.003013632958754897
1782846031944789800,6.787789794921875,0.015548599883913994,-0.007170827593654394,0.010251305997371674
1782846031954795000,6.797794921875,0.012317386455833912,-0.01209687627851963,0.0161289032548666
1782846031964800000,6.807800048828125,0.015678029507398605,-0.01840244233608246,0.012043613009154797
1782846031974805800,6.8178056640625,0.014255368150770664,-0.015588280744850636,0.009393768385052681
1782846031984810800,6.827810791015625,0.013550962321460247,-0.009212672710418701,0.008933041244745255
1782846031994815700,6.837815673828125,0.006547914352267981,-0.0146476523950696,0.00777616398409009
1782846032004820700,6.84782080078125,0.012625513598322868,-0.027517111971974373,0.013147760182619095
1782846032014827000,6.857826904296875,0.015453791245818138,-0.021799305453896523,-0.0018298579379916191
1782846032024832000,6.86783203125,0.011687815189361572,-0.028145616874098778,-0.010848119854927063
1782846032034837000,6.8778369140625,0.011137605644762516,-0.027721907943487167,-0.012656406499445438
1782846032044842000,6.887842041015625,0.004824049770832062,-0.018618158996105194,-0.016654077917337418
1782846032054848000,6.897847900390625,0.0015789881581440568,-0.014456436969339848,-0.014182398095726967
1782846032064853000,6.90785302734375,-0.002094842493534088,-0.00546240946277976,-0.010790063068270683
1782846032074858000,6.91785791015625,0.0012397015234455466,0.001955559244379401,-0.01019964087754488
1782846032084864000,6.927864013671875,-0.0002609897928778082,0.006115949247032404,-0.007522897329181433
1782846032094869000,6.937868896484375,0.0012804478174075484,0.012408998794853687,-0.0021201425697654486
1782846032104874000,6.9478740234375,0.0031201594974845648,0.011485947296023369,0.0023968450259417295
1782846032114879000,6.95787890625,0.004741491749882698,0.012673983350396156,0.005052549298852682
1782846032124884700,6.967884765625,0.006955377757549286,0.014455637894570827,0.01258157193660736
1782846032134889700,6.9778896484375,0.013141634874045849,0.01549240667372942,0.015624766238033772
1782846032144894700,6.987894775390625,0.01384231261909008,0.016278039664030075,0.010436661541461945
1782846032154899700,6.997899658203125,0.015784556046128273,0.007500526960939169,0.0036163064651191235
1782846032164906000,7.007906005859375,0.020246149972081184,0.005620068870484829,-0.008477373979985714
1782846032174911000,7.017910888671875,0.02364594116806984,-0.0021552962716668844,-0.015255119651556015
1782846032184916000,7.027916015625,0.024822792038321495,-0.005566539242863655,-0.022907979786396027
1782846032194921000,7.0379208984375,0.02684306539595127,0.0002735066518653184,-0.020418988540768623
1782846032204927000,7.047927001953125,0.02658766880631447,0.0018122810870409012,-0.016102803871035576
1782846032214932000,7.057931884765625,0.02666596509516239,-0.0006617955514229834,-0.0075692362152040005
1782846032224937000,7.06793701171875,0.029084382578730583,-0.005653358530253172,-0.0007890945998951793
1782846032234943000,7.07794287109375,0.02767610177397728,-0.007847003638744354,-0.002758768619969487
1782846032244948000,7.087947998046875,0.02400599978864193,-0.013362943194806576,-0.004761199466884136
1782846032254953000,7.097952880859375,0.02377856709063053,-0.019305787980556488,-0.00758042186498642
1782846032264958000,7.1079580078125,0.02166907675564289,-0.0181097611784935,-0.009734386578202248
1782846032274964000,7.1179638671875,0.018694858998060226,-0.02069222927093506,-0.018123077228665352
1782846032284969000,7.127968994140625,0.020265057682991028,-0.025128256529569626,-0.02514902874827385
1782846032294974000,7.137973876953125,0.021198229864239693,-0.021448034793138504,-0.02996695414185524
1782846032304979000,7.14797900390625,0.018678879365324974,-0.014797854237258434,-0.027393540367484093
1782846032314984700,7.157984619140625,0.019266372546553612,-0.012900885194540024,-0.014480405487120152
1782846032324989400,7.167989501953125,0.021393172442913055,-0.013022058643400669,-0.005479986313730478
1782846032334994400,7.177994384765625,0.022700784727931023,-0.019574766978621483,-0.0008346347021870315
1782846032344999400,7.18799951171875,0.02280784398317337,-0.014786935411393642,-0.007123423274606466
1782846032355005200,7.198005126953125,0.01733291707932949,-0.009440373629331589,-0.003450924064964056
1782846032365010200,7.20801025390625,0.013313674367964268,-0.0070342072285711765,-0.006523945834487677
1782846032375015200,7.21801513671875,0.010833739303052425,-0.003757720347493887,-0.009634518064558506
1782846032385021200,7.228021240234375,0.011738414876163006,0.00022397184511646628,-0.009023056365549564
1782846032395026200,7.238026123046875,0.010714163072407246,0.004450940992683172,-0.006599313113838434
1782846032405031200,7.24803125,0.009973271749913692,0.010467288084328175,-0.004295412451028824
1782846032415036200,7.2580361328125,0.013601829297840595,0.014220480807125568,-0.0033446638844907284
1782846032425042400,7.26804248046875,0.015232215635478497,0.012483567930758,0.001606152392923832
1782846032435047400,7.27804736328125,0.011953865177929401,0.015352058224380016,0.011529623530805111
1782846032445052400,7.288052490234375,0.009617740288376808,0.015173359774053097,0.02340971864759922
1782846032455057400,7.298057373046875,0.006591323763132095,0.01528601162135601,0.022877352312207222
1782846032465063400,7.3080634765625,0.008649148046970367,0.010516823269426823,0.025493375957012177
1782846032475068400,7.318068359375,0.007787615526467562,0.010848119854927063,0.018216021358966827
1782846032485073400,7.328073486328125,0.004709267523139715,0.00959723349660635,0.012161857448518276
1782846032495078400,7.338078369140625,0.0030415961518883705,0.016652479767799377,0.0035960664972662926
1782846032505084200,7.348084228515625,0.004899950232356787,0.019216304644942284,-0.001525991247035563
1782846032515089200,7.358089111328125,0.004020308144390583,0.02430560626089573,-0.002609631512314081
1782846032525094100,7.36809423828125,0.007148723118007183,0.02268880046904087,0.0012769857421517372
1782846032535100200,7.37810009765625,0.00515721132978797,0.016931844875216484,0.0023518374655395746
1782846032545105200,7.388105224609375,0.004479170776903629,0.007288539316505194,0.002959570847451687
1782846032555110100,7.398110107421875,0.002770486520603299,0.009007343091070652,0.002785133896395564
1782846032565115100,7.408115234375,0.005279184319078922,0.002764627570286393,0.008578307926654816
1782846032575121400,7.418121337890625,0.008902681060135365,0.00041998049709945917,0.011391405016183853
1782846032585126400,7.42812646484375,0.00723634148016572,-0.004433896858245134,0.007664044853299856
1782846032595131400,7.43813134765625,0.007899468764662743,-0.0023092268966138363,0.005054679699242115
1782846032605136400,7.448136474609375,0.01010856032371521,0.0010926949325948954,0.0024021712597459555
1782846032615142400,7.458142333984375,0.008141282945871353,0.008138353936374187,-0.0025680861435830593
1782846032625147400,7.4681474609375,0.0008767126128077507,0.009671801701188087,0.010182330384850502
1782846032635152400,7.47815234375,-0.0007531419396400452,0.020546820014715195,0.02027198113501072
1782846032645158400,7.488158447265625,-0.0046759783290326595,0.02196308970451355,0.03063567355275154
1782846032655163400,7.498163330078125,-0.0073074474930763245,0.019657857716083527,0.035661324858665466
1782846032665168400,7.50816845703125,-0.010322945192456245,0.022247781977057457,0.03603123873472214
1782846032675173400,7.51817333984375,-0.011011638678610325,0.025803102180361748,0.02948012761771679
1782846032685179100,7.52817919921875,-0.012749350629746914,0.024223580956459045,0.02291996218264103
1782846032695184100,7.53818408203125,-0.01224654633551836,0.019271964207291603,0.009971673600375652
1782846032705189000,7.548189208984375,-0.010631605051457882,0.011963984929025173,-0.007279484532773495
1782846032715194000,7.558194091796875,-0.012087821960449219,0.01480238139629364,-0.02430800348520279
1782846032725200100,7.5682001953125,-0.010432134382426739,0.014455371536314487,-0.03245061635971069
1782846032735205000,7.578205078125,-0.0032402679789811373,0.013761618174612522,-0.030231138691306114
1782846032745210000,7.588210205078125,-0.0012628709664568305,0.005559082608669996,-0.01961711049079895
1782846032755215000,7.598215087890625,0.0035867453552782536,0.003835484618321061,-0.006503439508378506
1782846032765221400,7.608221435546875,0.004443218000233173,0.0016410398529842496,0.004908472299575806
1782846032775226400,7.618226318359375,0.0062757390551269054,0.0011920308461412787,0.012222311459481716
1782846032785231400,7.6282314453125,0.006511428859084845,-0.0015712650492787361,0.015537681058049202
1782846032795236400,7.638236328125,0.008945824578404427,-0.0035891421139240265,0.013837252743542194
1782846032805242400,7.648242431640625,0.01068140659481287,0.003453853540122509,0.005049619823694229
1782846032815247400,7.658247314453125,0.0067636300809681416,0.0032051142770797014,-0.003037335118278861
1782846032825252400,7.66825244140625,0.008070709183812141,0.004751611966639757,-0.009069927968084812
1782846032835258400,7.67825830078125,0.005860818549990654,0.004564391914755106,-0.011158645153045654
1782846032845263400,7.688263427734375,0.005693572107702494,0.0013195963110774755,-0.009072324261069298
1782846032855268400,7.698268310546875,0.00321816373616457,0.005811816547065973,0.0006956176948733628
1782846032865273300,7.7082734375,-0.0008024104172363877,0.006878412328660488,0.006036320701241493
1782846032875279000,7.718279052734375,0.0015366439474746585,0.009308813139796257,0.0067718857899308205
1782846032885284000,7.7282841796875,-0.000070307454734575,0.0015001586871221662,0.010973821394145489
1782846032895289000,7.7382890625,0.002201901515945792,-0.0062272693030536175,0.003766508772969246
1782846032905294000,7.748294189453125,0.0013741911388933659,-0.0024442493449896574,-0.0054363105446100235
1782846032915300400,7.75830029296875,-0.0012985573848709464,-0.0005733785801567137,-0.012748552486300468
1782846032925305300,7.768305419921875,-0.004569984506815672,-0.00016458335448987782,-0.015659119933843613
1782846032935310300,7.778310302734375,-0.004683701321482658,-0.00032330775866284966,-0.020388362929224968
1782846032945315300,7.7883154296875,-0.0031188279390335083,0.0034527883399277925,-0.017366738989949226
1782846032955321300,7.7983212890625,-0.0025595640763640404,0.0016761935548856854,-0.017415475100278854
1782846032965326300,7.808326416015625,0.0010090717114508152,0.005850964691489935,-0.008444084785878658
1782846032975331300,7.818331298828125,0.007197725586593151,0.006660033017396927,-0.00350445369258523
1782846032985336300,7.82833642578125,0.0099610211327672,0.010585798881947994,0.008409197442233562
1782846032995342300,7.83834228515625,0.009488310664892197,0.018427476286888123,0.020380105823278427
1782846033005347300,7.848347412109375,0.010146910324692726,0.018312161788344383,0.023986825719475746
1782846033015352300,7.858352294921875,0.008743690326809883,0.025684058666229248,0.023620640859007835
1782846033025358000,7.868358154296875,0.005525260232388973,0.017369402572512627,0.023248597979545593
1782846033035363000,7.878363037109375,0.004340153653174639,0.010846522636711597,0.016349945217370987
1782846033045368300,7.888368408203125,0.005853627808392048,0.008534898981451988,0.007929296232759953
1782846033055373300,7.898373291015625,0.0038948729634284973,0.003890611929818988,-0.004365986213088036
1782846033065379300,7.90837939453125,0.005897836294025183,0.0044394894503057,-0.008582568727433681
1782846033075384300,7.91838427734375,0.007729825098067522,0.01113627478480339,-0.007143396884202957
1782846033085389300,7.928389404296875,0.00675377668812871,0.01696593314409256,-0.006047239992767572
1782846033095394300,7.938394287109375,0.0010812433902174234,0.027881432324647903,-0.0035198999103158712
1782846033105400300,7.948400390625,-0.0009233179152943194,0.028053205460309982,0.004727377090603113
1782846033115405300,7.9584052734375,-0.002989398315548897,0.02322356402873993,0.003337473375722766
1782846033125410300,7.968410400390625,-0.0035025894176214933,0.014272945001721382,0.003029612125828862
1782846033135415300,7.978415283203125,-0.003382480936124921,0.0026959178503602743,-0.00021784658019896597
1782846033145421300,7.98842138671875,-0.005228317808359861,-0.0011283813510090113,-0.005562012083828449
1782846033155426300,7.99842626953125,-0.006162022240459919,-0.005555620416998863,-0.003864779369905591
1782846033165431300,8.008431396484376,-0.00361763802357018,-0.00020293287525419146,0.000477504770969972
1782846033175436300,8.018436279296875,-0.006676278542727232,0.010183661244809628,0.00996315199881792
1782846033185442300,8.0284423828125,-0.005635248962789774,0.017773937433958054,0.014449512585997581
1782846033195447300,8.038447265625,-0.0027150926180183887,0.024228107184171677,0.015169898048043251
1782846033205452300,8.048452392578126,-0.00025513084256090224,0.018320949748158455,0.020802482962608337
1782846033215458300,8.058458251953125,-0.0011358382180333138,0.007106379140168428,0.020445886999368668
1782846033225463300,8.06846337890625,0.0003640541108325124,0.0008679241873323917,0.013244965113699436
1782846033235468300,8.07846826171875,-0.001047154888510704,0.00023462448734790087,0.0029089709278196096
1782846033245473300,8.088473388671876,-0.0015811186749488115,-0.001175252953544259,-0.007260309532284737
1782846033255479300,8.098479248046875,-0.004428304266184568,0.006725280545651913,-0.01332778949290514
1782846033265484300,8.108484375,-0.006736199837177992,0.008520783856511116,-0.014466291293501854
1782846033275489300,8.1184892578125,-0.006491455249488354,0.007516772020608187,-0.003941478207707405
1782846033285494300,8.128494384765625,-0.004257062915712595,0.002772350562736392,0.004751345608383417
1782846033295500300,8.138500244140625,-0.004274906124919653,-0.002767557045444846,0.009798568673431873
1782846033305505300,8.14850537109375,-0.0019350528018549085,0.000006391586794052273,0.016951020807027817
1782846033315510300,8.15851025390625,-0.001127582392655313,0.007453655358403921,0.017609354108572006
1782846033325515500,8.168515625,0.0020125508308410645,0.01522635668516159,0.012504606507718563
1782846033335521500,8.178521484375,0.0020125508308410645,0.016475113108754158,0.006815827917307615
1782846033345526500,8.188526611328125,0.0057708038948476315,0.012473979964852333,-0.0027744811959564686
1782846033355531500,8.198531494140624,0.0029909962322562933,0.004210457671433687,-0.016339825466275215
1782846033365536500,8.20853662109375,0.006454703398048878,-0.0029973878990858793,-0.025366343557834625
1782846033375542500,8.21854248046875,0.009497364982962608,-0.01210033893585205,-0.02569817192852497
1782846033385547500,8.228547607421875,0.01429238636046648,-0.019828565418720245,-0.020927652716636658
1782846033395552500,8.238552490234374,0.02003069967031479,-0.024170050397515297,-0.0190727598965168
1782846033405558300,8.248558349609375,0.025849707424640656,-0.027006050571799278,-0.012712599709630013
1782846033415563300,8.258563232421874,0.03531324863433838,-0.028269721195101738,-0.0012032161466777325
1782846033425568300,8.268568359375,0.03749198094010353,-0.023785224184393883,0.0049308426678180695
1782846033435573200,8.2785732421875,0.03664243221282959,-0.01968368887901306,0.002918291836977005
1782846033445579500,8.28857958984375,0.034396056085824966,-0.01728098653256893,0.0029031119775027037
1782846033455584500,8.29858447265625,0.03111237846314907,-0.015047659166157246,-0.0022442457266151905
1782846033465589500,8.308589599609375,0.02720099501311779,-0.017677530646324158,-0.008760201744735241
1782846033475594500,8.318594482421876,0.021892249584197998,-0.019906597211956978,-0.014305968768894672
1782846033485600500,8.3286005859375,0.0205159280449152,-0.018559303134679794,-0.013740579597651958
1782846033495605500,8.33860546875,0.01575898937880993,-0.011639079079031944,-0.0038868836127221584
1782846033505610500,8.348610595703125,0.015740081667900085,-0.007017962168902159,0.008186823688447475
1782846033515615500,8.358615478515626,0.017186177894473076,-0.0017768610268831253,0.021402226760983467
1782846033525621500,8.36862158203125,0.01858646795153618,0.002523611532524228,0.03105671890079975
1782846033535626500,8.37862646484375,0.017140638083219528,-0.0018780612153932452,0.03861450403928757
1782846033545631500,8.388631591796875,0.013629525899887085,-0.009737315587699413,0.038174018263816833
1782846033555636500,8.398636474609376,0.014156298711895943,-0.00977380108088255,0.03237338736653328
1782846033565642200,8.408642333984375,0.018484467640519142,-0.008132228627800941,0.012859872542321682
1782846033575647200,8.418647216796876,0.016863135620951653,-0.006922354456037283,-0.0024074974935501814
1782846033585652200,8.42865234375,0.019517775624990463,-0.007546599488705397,-0.013671071268618107
1782846033595657500,8.438657470703125,0.021892515942454338,-0.009397496469318867,-0.020049341022968292
1782846033605663200,8.448663330078125,0.02167014218866825,-0.010641725733876228,-0.01140099298208952
1782846033615668200,8.458668212890625,0.01992150954902172,-0.013968279585242271,0.0005664543714374304
1782846033625673200,8.468673095703124,0.019421102479100227,-0.02955283224582672,0.014853514730930328
1782846033635678500,8.478678466796875,0.020614730194211006,-0.02882472425699234,0.020075706765055656
1782846033645684500,8.4886845703125,0.017887121066451073,-0.021216072142124176,0.0220914538949728
1782846033655689500,8.498689453125,0.012885438278317451,-0.010485397651791573,0.01522662304341793
1782846033665694500,8.508694580078124,0.011949337087571621,-0.005751895252615213,0.008130630478262901
1782846033675700500,8.518700439453125,0.010511230677366257,-0.002037318190559745,0.004597947467118502
1782846033685705500,8.52870556640625,0.018315624445676804,-0.0027268105186522007,0.004887166898697615
1782846033695710500,8.53871044921875,0.01750682108104229,0.009798568673431873,-0.00618119677528739
1782846033705715500,8.548715576171874,0.01613103225827217,0.010379137471318245,-0.015923839062452316
1782846033715721500,8.558721435546875,0.017912954092025757,0.0065039717592298985,-0.006196643225848675
1782846033725726500,8.5687265625,0.011986888013780117,-0.01871003769338131,0.012134959921240807
1782846033735731500,8.5787314453125,0.013395434245467186,-0.05318678915500641,0.012047608382999897
1782846033745736400,8.588736328125,0.014213024638593197,-0.057257164269685745,0.026800455525517464
1782846033755742200,8.5987421875,0.015058577992022038,-0.05331115797162056,0.027333619073033333
1782846033765747200,8.608747314453124,0.014653511345386505,-0.02948252484202385,0.026636404916644096
1782846033775752200,8.618752197265625,0.005633118096739054,-0.012251872569322586,0.020298346877098083
1782846033785757200,8.628757080078126,0.002133458387106657,-0.00475320965051651,0.0043563987128436565
1782846033795763500,8.638763427734375,0.0008580705034546554,-0.0007976167253218591,-0.009926666505634785
1782846033805768400,8.6487685546875,0.00036218989407643676,-0.024383636191487312,-0.024955151602625847
1782846033815773400,8.6587734375,-0.00036378781078383327,-0.06053072214126587,-0.025183649733662605
