time,seconds_elapsed,z,y,x
1782845663005433600,0.06143359375,-0.89837646484375,-0.32061767578125,0.14215087890625
1782845663015438600,0.0714384765625,-0.9068756103515625,-0.303497314453125,0.1476593017578125
1782845663025443600,0.081443603515625,-0.9204864501953125,-0.2781829833984375,0.14434814453125
1782845663035448600,0.091448486328125,-0.92431640625,-0.2767181396484375,0.13446044921875
1782845663045453600,0.10145361328125,-0.91448974609375,-0.2955322265625,0.1249847412109375
1782845663055457500,0.11145751953125,-0.8969879150390625,-0.304718017578125,0.1277923583984375
1782845663065462500,0.121462646484375,-0.8831634521484375,-0.3086090087890625,0.1355133056640625
1782845663075467500,0.131467529296875,-0.8696441650390625,-0.32244873046875,0.1358489990234375
1782845663085472500,0.141472412109375,-0.8702239990234375,-0.3309326171875,0.1370086669921875
1782845663095477500,0.1514775390625,-0.88385009765625,-0.3305816650390625,0.13525390625
1782845663105482500,0.161482421875,-0.8997650146484375,-0.3346405029296875,0.126007080078125
1782845663115487500,0.171487548828125,-0.910736083984375,-0.3358917236328125,0.1129608154296875
1782845663125492500,0.181492431640625,-0.928558349609375,-0.3339691162109375,0.1081085205078125
1782845663135497500,0.19149755859375,-0.9559478759765625,-0.3355865478515625,0.1055755615234375
1782845663145502500,0.20150244140625,-0.97625732421875,-0.342926025390625,0.103912353515625
1782845663155506700,0.211506591796875,-0.9861602783203125,-0.3470916748046875,0.098846435546875
1782845663165511700,0.22151171875,-0.9957275390625,-0.3469696044921875,0.099639892578125
1782845663175516700,0.2315166015625,-1.0059814453125,-0.346466064453125,0.096588134765625
1782845663185521700,0.241521728515625,-1.0074615478515625,-0.3456573486328125,0.0905914306640625
1782845663195526700,0.251526611328125,-1.0046844482421875,-0.3408050537109375,0.092132568359375
1782845663205531600,0.26153173828125,-1.003631591796875,-0.3408050537109375,0.0928497314453125
1782845663215536600,0.27153662109375,-0.99432373046875,-0.346710205078125,0.0906524658203125
1782845663225541600,0.281541748046875,-0.976043701171875,-0.3524017333984375,0.0956573486328125
1782845663235546600,0.291546630859375,-0.9639892578125,-0.3575286865234375,0.10076904296875
1782845663245550600,0.301550537109375,-0.961181640625,-0.3637237548828125,0.109039306640625
1782845663255555600,0.3115556640625,-0.9620819091796875,-0.369781494140625,0.114990234375
1782845663265560600,0.321560546875,-0.95867919921875,-0.3798065185546875,0.1138763427734375
1782845663275565600,0.331565673828125,-0.9479827880859375,-0.39764404296875,0.1148223876953125
1782845663285570600,0.341570556640625,-0.9441375732421875,-0.4042205810546875,0.1197357177734375
1782845663295575600,0.351575439453125,-0.9429473876953125,-0.4039459228515625,0.1191864013671875
1782845663305580500,0.36158056640625,-0.9399871826171875,-0.4051361083984375,0.12091064453125
1782845663315585500,0.37158544921875,-0.928802490234375,-0.3957977294921875,0.13525390625
1782845663325590500,0.381590576171875,-0.917755126953125,-0.37860107421875,0.14935302734375
1782845663335594500,0.391594482421875,-0.9173583984375,-0.3375701904296875,0.173187255859375
1782845663345599500,0.401599609375,-0.924041748046875,-0.2972869873046875,0.1908111572265625
1782845663355604500,0.4116044921875,-0.944488525390625,-0.280975341796875,0.206695556640625
1782845663365609500,0.421609375,-0.97796630859375,-0.250244140625,0.235687255859375
1782845663375614500,0.431614501953125,-1.0331573486328125,-0.225189208984375,0.25091552734375
1782845663385619500,0.441619384765625,-1.0889739990234375,-0.21478271484375,0.2496337890625
1782845663395624400,0.45162451171875,-1.1143035888671875,-0.201080322265625,0.23406982421875
1782845663405629700,0.461629638671875,-1.1029815673828125,-0.182281494140625,0.2212066650390625
1782845663415634700,0.471634765625,-1.0748291015625,-0.17498779296875,0.1944580078125
1782845663425638400,0.481638427734375,-1.0455474853515625,-0.1633453369140625,0.1844940185546875
1782845663435643400,0.491643310546875,-1.0125274658203125,-0.160980224609375,0.1799468994140625
1782845663445648400,0.5016484375,-0.96221923828125,-0.1802215576171875,0.170654296875
1782845663455653400,0.5116533203125,-0.9105224609375,-0.1886138916015625,0.165802001953125
1782845663465658400,0.521658447265625,-0.875244140625,-0.18975830078125,0.158721923828125
1782845663475663400,0.531663330078125,-0.8570556640625,-0.1947021484375,0.1487579345703125
1782845663485668400,0.54166845703125,-0.851654052734375,-0.2049102783203125,0.1289215087890625
1782845663495673300,0.55167333984375,-0.8448944091796875,-0.215911865234375,0.10382080078125
1782845663505678300,0.56167822265625,-0.8451080322265625,-0.2025299072265625,0.08404541015625
1782845663515683300,0.571683349609375,-0.8565826416015625,-0.1876068115234375,0.073028564453125
1782845663525687600,0.5816875,-0.85546875,-0.173309326171875,0.060394287109375
1782845663535692500,0.591692626953125,-0.8579559326171875,-0.1603546142578125,0.0666351318359375
1782845663545697500,0.601697509765625,-0.868865966796875,-0.14007568359375,0.080322265625
1782845663555702500,0.61170263671875,-0.8701934814453125,-0.13909912109375,0.081085205078125
1782845663565707500,0.62170751953125,-0.8611297607421875,-0.14251708984375,0.10052490234375
1782845663575712500,0.63171240234375,-0.866241455078125,-0.1253662109375,0.126708984375
1782845663585717500,0.641717529296875,-0.8742218017578125,-0.114105224609375,0.1437225341796875
1782845663595722500,0.651722412109375,-0.88348388671875,-0.1297149658203125,0.15185546875
1782845663605727500,0.6617275390625,-0.9063873291015625,-0.136505126953125,0.1583709716796875
1782845663615731500,0.6717314453125,-0.942291259765625,-0.12786865234375,0.149993896484375
1782845663625736400,0.681736328125,-0.97589111328125,-0.1328125,0.120880126953125
1782845663635741400,0.691741455078125,-1.0036773681640625,-0.1547393798828125,0.094268798828125
1782845663645746400,0.701746337890625,-1.0296173095703125,-0.1674957275390625,0.081634521484375
1782845663655751400,0.71175146484375,-1.051727294921875,-0.1822357177734375,0.074615478515625
1782845663665756400,0.72175634765625,-1.0655364990234375,-0.18310546875,0.073486328125
1782845663675761400,0.731761474609375,-1.091522216796875,-0.187530517578125,0.066436767578125
1782845663685766400,0.741766357421875,-1.112060546875,-0.191375732421875,0.0484466552734375
1782845663695771400,0.751771484375,-1.124420166015625,-0.193023681640625,0.0321502685546875
1782845663705776400,0.7617763671875,-1.130340576171875,-0.1883544921875,0.0248260498046875
1782845663715780600,0.771780517578125,-1.125518798828125,-0.18389892578125,0.01544189453125
1782845663725785600,0.78178564453125,-1.1107940673828125,-0.18695068359375,0.0059967041015625
1782845663735790600,0.79179052734375,-1.0838623046875,-0.186004638671875,0.00592041015625
1782845663745795600,0.801795654296875,-1.0518646240234375,-0.1819610595703125,0.00518798828125
1782845663755800600,0.811800537109375,-1.01422119140625,-0.17645263671875,0.0097503662109375
1782845663765805600,0.8218056640625,-0.97174072265625,-0.17626953125,0.006622314453125
1782845663775810600,0.831810546875,-0.9396209716796875,-0.1735382080078125,0.002716064453125
1782845663785815600,0.841815673828125,-0.9117279052734375,-0.1721954345703125,-0.0023651123046875
1782845663795820500,0.851820556640625,-0.8841094970703125,-0.1742095947265625,-0.0013427734375
1782845663805824500,0.861824462890625,-0.8685150146484375,-0.175079345703125,-0.0029754638671875
1782845663815829500,0.87182958984375,-0.8609466552734375,-0.1725616455078125,-0.00634765625
1782845663825834500,0.88183447265625,-0.867706298828125,-0.169830322265625,-0.007171630859375
1782845663835839500,0.891839599609375,-0.8778533935546875,-0.1717376708984375,-0.0090484619140625
1782845663845844500,0.901844482421875,-0.876739501953125,-0.16912841796875,-0.0106658935546875
1782845663855849500,0.911849365234375,-0.87591552734375,-0.1708221435546875,-0.008270263671875
1782845663865854500,0.9218544921875,-0.8788909912109375,-0.1768035888671875,0.001739501953125
1782845663875859500,0.931859375,-0.8797607421875,-0.182861328125,0.0167236328125
1782845663885864400,0.941864501953125,-0.8803558349609375,-0.1953582763671875,0.0254669189453125
1782845663895868400,0.951868408203125,-0.88751220703125,-0.2132110595703125,0.030426025390625
1782845663905873700,0.961873779296875,-0.90447998046875,-0.2187042236328125,0.03485107421875
1782845663915878700,0.971878662109375,-0.9346923828125,-0.2231903076171875,0.030609130859375
1782845663925883600,0.981883544921875,-0.966400146484375,-0.2323760986328125,0.0328826904296875
1782845663935888600,0.991888671875,-0.9937896728515625,-0.230712890625,0.0373382568359375
1782845663945893600,1.0018935546875,-1.009613037109375,-0.23736572265625,0.03546142578125
1782845663955898600,1.011898681640625,-1.01251220703125,-0.25018310546875,0.0306243896484375
1782845663965903600,1.021903564453125,-1.018798828125,-0.2563629150390625,0.0348052978515625
1782845663975908400,1.031908447265625,-1.026031494140625,-0.2585296630859375,0.044281005859375
1782845663985913300,1.041913330078125,-1.0323638916015625,-0.24310302734375,0.0558929443359375
1782845663995917300,1.051917236328125,-1.074493408203125,-0.2543487548828125,0.064422607421875
1782845664005922300,1.06192236328125,-1.0634307861328125,-0.2599334716796875,0.0535888671875
1782845664015927300,1.07192724609375,-1.049713134765625,-0.254547119140625,0.05670166015625
1782845664025932300,1.081932373046875,-1.0237274169921875,-0.267547607421875,0.0573272705078125
1782845664035937300,1.091937255859375,-1.0160675048828125,-0.2686004638671875,0.0630950927734375
1782845664045942300,1.1019423828125,-0.99261474609375,-0.267547607421875,0.06781005859375
1782845664055947300,1.111947265625,-0.9735870361328125,-0.261444091796875,0.075042724609375
1782845664065952300,1.1219521484375,-0.9604339599609375,-0.2458038330078125,0.070404052734375
1782845664075957200,1.131957275390625,-0.9392852783203125,-0.2457275390625,0.063262939453125
1782845664085961200,1.141961181640625,-0.9275360107421875,-0.2377777099609375,0.057708740234375
1782845664095966500,1.151966552734375,-0.935699462890625,-0.2170867919921875,0.0514678955078125
1782845664105971500,1.161971435546875,-0.927398681640625,-0.2126922607421875,0.032562255859375
1782845664115976400,1.1719765625,-0.9226837158203125,-0.200958251953125,0.0012969970703125
1782845664125981400,1.1819814453125,-0.938385009765625,-0.197235107421875,-0.0218353271484375
1782845664135986400,1.191986328125,-0.938507080078125,-0.2497100830078125,-0.005096435546875
1782845664145991400,1.201991455078125,-0.922454833984375,-0.255615234375,0.0220184326171875
1782845664155996400,1.211996337890625,-0.9292755126953125,-0.241546630859375,0.0231475830078125
1782845664166001400,1.22200146484375,-0.93267822265625,-0.2594757080078125,0.01226806640625
1782845664176005400,1.23200537109375,-0.93060302734375,-0.2709197998046875,0.0146484375
1782845664186010400,1.24201025390625,-0.929107666015625,-0.2574615478515625,0.0162811279296875
1782845664196015400,1.252015380859375,-0.927154541015625,-0.249053955078125,0.00390625
1782845664206020400,1.262020263671875,-0.9265594482421875,-0.244598388671875,-0.006011962890625
1782845664216025300,1.272025390625,-0.9342041015625,-0.240631103515625,-0.008270263671875
1782845664226030300,1.2820302734375,-0.943511962890625,-0.2385101318359375,-0.0081787109375
1782845664236035300,1.292035400390625,-0.9481964111328125,-0.24798583984375,-0.0078125
1782845664246040300,1.302040283203125,-0.9506378173828125,-0.2662353515625,-0.001434326171875
1782845664256045300,1.31204541015625,-0.9508819580078125,-0.279815673828125,0.0133209228515625
1782845664266050300,1.32205029296875,-0.954925537109375,-0.294891357421875,0.023040771484375
1782845664276054300,1.33205419921875,-0.9597015380859375,-0.2998809814453125,0.0251312255859375
1782845664286059300,1.342059326171875,-0.9644622802734375,-0.2981109619140625,0.0188751220703125
1782845664296064300,1.352064208984375,-0.968109130859375,-0.2977142333984375,0.0133514404296875
1782845664306069200,1.3620693359375,-0.9693756103515625,-0.298370361328125,0.0086822509765625
1782845664316074500,1.372074462890625,-0.969696044921875,-0.296478271484375,-0.0036773681640625
1782845664326079500,1.38207958984375,-0.962799072265625,-0.3016815185546875,-0.0137939453125
1782845664336084500,1.39208447265625,-0.956939697265625,-0.3024139404296875,-0.012054443359375
1782845664346089500,1.40208935546875,-0.9680023193359375,-0.2911834716796875,-0.0113067626953125
1782845664356094500,1.412094482421875,-0.9712371826171875,-0.285491943359375,-0.0060577392578125
1782845664366098400,1.422098388671875,-0.9858856201171875,-0.2801971435546875,-0.00970458984375
1782845664376103400,1.432103515625,-0.9978790283203125,-0.2597198486328125,-0.0213775634765625
1782845664386108400,1.4421083984375,-0.9948577880859375,-0.2522430419921875,-0.0383453369140625
1782845664396113400,1.452113525390625,-0.9965362548828125,-0.2615966796875,-0.04400634765625
1782845664406118400,1.462118408203125,-0.996002197265625,-0.2631988525390625,-0.036956787109375
1782845664416123400,1.472123291015625,-0.996612548828125,-0.2508392333984375,-0.026336669921875
1782845664426128400,1.48212841796875,-0.9997406005859375,-0.2330474853515625,-0.0126190185546875
1782845664436133400,1.49213330078125,-1.023895263671875,-0.22314453125,-0.004119873046875
1782845664446138400,1.502138427734375,-1.066680908203125,-0.2348175048828125,0.0191802978515625
1782845664456143400,1.512143310546875,-1.10260009765625,-0.2483062744140625,0.0611572265625
1782845664466147300,1.522147216796875,-1.1329803466796875,-0.2464752197265625,0.1065216064453125
1782845664476152300,1.53215234375,-1.1518707275390625,-0.2305908203125,0.1295013427734375
1782845664486157300,1.5421572265625,-1.1464080810546875,-0.2104034423828125,0.1280975341796875
1782845664496162300,1.552162353515625,-1.1279449462890625,-0.19866943359375,0.1176300048828125
1782845664506167300,1.562167236328125,-1.0888519287109375,-0.2010650634765625,0.10699462890625
1782845664516172300,1.57217236328125,-1.0458526611328125,-0.192779541015625,0.1006011962890625
1782845664526177300,1.58217724609375,-0.9986572265625,-0.1828460693359375,0.097198486328125
1782845664536182500,1.5921826171875,-0.9585113525390625,-0.176544189453125,0.0787811279296875
1782845664546187500,1.6021875,-0.9176483154296875,-0.17669677734375,0.0469207763671875
1782845664556191200,1.612191162109375,-0.8821868896484375,-0.1791534423828125,0.0233306884765625
1782845664566196200,1.6221962890625,-0.8729095458984375,-0.185089111328125,0.005645751953125
1782845664576201200,1.632201171875,-0.8597259521484375,-0.1848602294921875,0.0105133056640625
1782845664586206200,1.642206298828125,-0.8338165283203125,-0.198760986328125,0.0241546630859375
1782845664596211200,1.652211181640625,-0.82086181640625,-0.2172393798828125,0.03607177734375
1782845664606216200,1.66221630859375,-0.8053131103515625,-0.2168121337890625,0.0377197265625
1782845664616221200,1.67222119140625,-0.7939453125,-0.21221923828125,0.0277557373046875
1782845664626226400,1.682226318359375,-0.7965240478515625,-0.20428466796875,0.0205841064453125
1782845664636231400,1.6922314453125,-0.812713623046875,-0.19097900390625,0.0373382568359375
1782845664646236400,1.702236328125,-0.8552093505859375,-0.1829986572265625,0.0534820556640625
1782845664656240000,1.712240234375,-0.9059295654296875,-0.174652099609375,0.070831298828125
1782845664666245000,1.7222451171875,-0.9438323974609375,-0.1656494140625,0.09088134765625
1782845664676250000,1.73225,-0.9732513427734375,-0.1527557373046875,0.1124267578125
1782845664686255000,1.742255126953125,-0.994232177734375,-0.1451568603515625,0.13018798828125
1782845664696260000,1.752260009765625,-1.019012451171875,-0.13671875,0.1473388671875
1782845664706265000,1.76226513671875,-1.0357513427734375,-0.14239501953125,0.13916015625
1782845664716270300,1.772270263671875,-1.0354766845703125,-0.14715576171875,0.157806396484375
1782845664726275300,1.782275390625,-1.06341552734375,-0.1574859619140625,0.167724609375
1782845664736280300,1.7922802734375,-1.091400146484375,-0.166015625,0.187408447265625
1782845664746284300,1.8022841796875,-1.1010284423828125,-0.171356201171875,0.20892333984375
1782845664756289300,1.812289306640625,-1.0895843505859375,-0.1771697998046875,0.2245941162109375
1782845664766294300,1.822294189453125,-1.062591552734375,-0.1857147216796875,0.2304534912109375
1782845664776299300,1.83229931640625,-1.03448486328125,-0.198089599609375,0.2216796875
1782845664786304300,1.84230419921875,-1.0132598876953125,-0.2118988037109375,0.2146453857421875
1782845664796309200,1.852309326171875,-0.9965667724609375,-0.211273193359375,0.207916259765625
1782845664806314200,1.862314208984375,-0.982177734375,-0.2158050537109375,0.2017669677734375
1782845664816319200,1.8723193359375,-0.9741363525390625,-0.233795166015625,0.195648193359375
1782845664826324200,1.88232421875,-0.9639434814453125,-0.2342681884765625,0.1870880126953125
1782845664836329200,1.8923291015625,-0.955841064453125,-0.2187652587890625,0.1810455322265625
1782845664846333200,1.902333251953125,-0.9725341796875,-0.2035369873046875,0.1654510498046875
1782845664856338200,1.912338134765625,-0.9869537353515625,-0.193511962890625,0.1499176025390625
1782845664866343200,1.92234326171875,-0.9956207275390625,-0.187164306640625,0.13677978515625
1782845664876348200,1.93234814453125,-1.0019073486328125,-0.1921844482421875,0.1260986328125
1782845664886353200,1.942353271484375,-0.9928436279296875,-0.202239990234375,0.12017822265625
1782845664896358100,1.952358154296875,-0.9670257568359375,-0.1947479248046875,0.11102294921875
1782845664906363100,1.962363037109375,-0.9491729736328125,-0.1939239501953125,0.108489990234375
1782845664916368100,1.9723681640625,-0.943023681640625,-0.206268310546875,0.1075439453125
1782845664926373000,1.982373046875,-0.917633056640625,-0.2156219482421875,0.1029052734375
1782845664936377300,1.99237744140625,-0.899322509765625,-0.220611572265625,0.1041412353515625
1782845664946382300,2.00238232421875,-0.9006195068359375,-0.218353271484375,0.1077423095703125
1782845664956387300,2.01238720703125,-0.9014434814453125,-0.2146759033203125,0.1084747314453125
1782845664966392300,2.022392333984375,-0.911895751953125,-0.208953857421875,0.1114501953125
1782845664976397300,2.032397216796875,-0.9275665283203125,-0.20843505859375,0.1118011474609375
1782845664986402300,2.04240234375,-0.9312744140625,-0.2122955322265625,0.10986328125
1782845664996407600,2.052407470703125,-0.923858642578125,-0.2158203125,0.1123504638671875
1782845665006412500,2.06241259765625,-0.92449951171875,-0.2155609130859375,0.1186370849609375
1782845665016417500,2.07241748046875,-0.923370361328125,-0.213531494140625,0.118072509765625
1782845665026422500,2.082422607421875,-0.9184722900390625,-0.2151336669921875,0.119720458984375
1782845665036426200,2.09242626953125,-0.9094085693359375,-0.2229156494140625,0.1238861083984375
1782845665046431200,2.10243115234375,-0.9034423828125,-0.230072021484375,0.1334991455078125
1782845665056436200,2.112436279296875,-0.9031524658203125,-0.234893798828125,0.139556884765625
1782845665066441200,2.122441162109375,-0.908660888671875,-0.2268524169921875,0.1444854736328125
1782845665076446200,2.1324462890625,-0.9182281494140625,-0.2246856689453125,0.1445770263671875
1782845665086451200,2.142451171875,-0.9212799072265625,-0.237335205078125,0.1413421630859375
1782845665096456200,2.152456298828125,-0.918701171875,-0.2527008056640625,0.1431427001953125
1782845665106461200,2.162461181640625,-0.9177398681640625,-0.262176513671875,0.1461029052734375
1782845665116466200,2.172466064453125,-0.91864013671875,-0.273529052734375,0.150115966796875
1782845665126470400,2.182470458984375,-0.9167327880859375,-0.2834014892578125,0.1446685791015625
1782845665136475400,2.192475341796875,-0.9156951904296875,-0.2881622314453125,0.1374053955078125
1782845665146480400,2.20248046875,-0.9200897216796875,-0.28924560546875,0.129302978515625
1782845665156485400,2.2124853515625,-0.93017578125,-0.2901458740234375,0.12261962890625
1782845665166490400,2.222490478515625,-0.9326324462890625,-0.2913360595703125,0.1150054931640625
1782845665176495400,2.232495361328125,-0.936737060546875,-0.2867279052734375,0.1067657470703125
1782845665186500400,2.242500244140625,-0.941253662109375,-0.2795562744140625,0.0976715087890625
1782845665196505300,2.25250537109375,-0.94036865234375,-0.281036376953125,0.0827484130859375
1782845665206510300,2.26251025390625,-0.940704345703125,-0.2911376953125,0.068359375
1782845665216515300,2.272515380859375,-0.9470672607421875,-0.2994842529296875,0.0611572265625
1782845665226519300,2.282519287109375,-0.9459075927734375,-0.3007354736328125,0.0650787353515625
1782845665236524300,2.292524169921875,-0.937286376953125,-0.299285888671875,0.062225341796875
1782845665246529300,2.302529296875,-0.9282989501953125,-0.2967529296875,0.0591888427734375
1782845665256534300,2.3125341796875,-0.9122772216796875,-0.2919921875,0.056060791015625
1782845665266539300,2.322539306640625,-0.896881103515625,-0.28619384765625,0.060394287109375
1782845665276544300,2.332544189453125,-0.88543701171875,-0.278472900390625,0.0623626708984375
1782845665286549200,2.34254931640625,-0.88262939453125,-0.2752227783203125,0.064361572265625
1782845665296554200,2.35255419921875,-0.88299560546875,-0.2806549072265625,0.0732421875
1782845665306559200,2.362559326171875,-0.890106201171875,-0.2917633056640625,0.084381103515625
1782845665316563500,2.3725634765625,-0.90472412109375,-0.3021392822265625,0.0958709716796875
1782845665326568400,2.382568359375,-0.91864013671875,-0.30804443359375,0.1065826416015625
1782845665336573400,2.392573486328125,-0.931610107421875,-0.3134918212890625,0.1177215576171875
1782845665346578400,2.402578369140625,-0.9405059814453125,-0.3179779052734375,0.12689208984375
1782845665356583400,2.41258349609375,-0.9495086669921875,-0.3268585205078125,0.1332550048828125
1782845665366588400,2.42258837890625,-0.970458984375,-0.3332672119140625,0.13653564453125
1782845665376593400,2.432593505859375,-0.9881134033203125,-0.33648681640625,0.1250152587890625
1782845665386598400,2.442598388671875,-0.9931640625,-0.33673095703125,0.120025634765625
1782845665396603400,2.452603271484375,-0.995391845703125,-0.3344879150390625,0.1199188232421875
1782845665406608400,2.4626083984375,-0.9945068359375,-0.331207275390625,0.116668701171875
1782845665416612400,2.4726123046875,-0.9909515380859375,-0.34710693359375,0.11566162109375
1782845665426617300,2.482617431640625,-0.9922637939453125,-0.3685302734375,0.120574951171875
1782845665436622300,2.492622314453125,-1.0015106201171875,-0.3734588623046875,0.1226959228515625
1782845665446627300,2.50262744140625,-1.01220703125,-0.3586273193359375,0.1231231689453125
1782845665456632300,2.51263232421875,-1.03204345703125,-0.339630126953125,0.1290130615234375
1782845665466637300,2.52263720703125,-1.055938720703125,-0.3121185302734375,0.1304931640625
1782845665476642300,2.532642333984375,-1.0546875,-0.281524658203125,0.1240386962890625
1782845665486647300,2.542647216796875,-1.0524139404296875,-0.250823974609375,0.1356201171875
1782845665496652300,2.55265234375,-1.0726470947265625,-0.209747314453125,0.1571807861328125
1782845665506657300,2.5626572265625,-1.082550048828125,-0.1676788330078125,0.1722869873046875
1782845665516661500,2.57266162109375,-1.0914154052734375,-0.169036865234375,0.177978515625
1782845665526666500,2.58266650390625,-1.1061248779296875,-0.166534423828125,0.192047119140625
1782845665536671500,2.59267138671875,-1.102752685546875,-0.155975341796875,0.1936187744140625
1782845665546676500,2.602676513671875,-1.10247802734375,-0.15191650390625,0.192138671875
1782845665556681500,2.612681396484375,-1.0934600830078125,-0.1448211669921875,0.192596435546875
1782845665566686500,2.6226865234375,-1.0784759521484375,-0.1457977294921875,0.177337646484375
1782845665576691500,2.63269140625,-1.0699462890625,-0.1461334228515625,0.1550750732421875
1782845665586696400,2.642696533203125,-1.0547637939453125,-0.1379547119140625,0.1300048828125
1782845665596701400,2.652701416015625,-1.0228424072265625,-0.1338958740234375,0.10186767578125
1782845665606705400,2.662705322265625,-0.9850006103515625,-0.1279754638671875,0.0807647705078125
1782845665616710400,2.67271044921875,-0.946533203125,-0.12994384765625,0.0675811767578125
1782845665626715400,2.68271533203125,-0.9074859619140625,-0.1282958984375,0.0611724853515625
1782845665636720400,2.692720458984375,-0.865264892578125,-0.130523681640625,0.0541534423828125
1782845665646725400,2.702725341796875,-0.8312530517578125,-0.13482666015625,0.0634613037109375
1782845665656730400,2.71273046875,-0.8116455078125,-0.1396484375,0.0743865966796875
1782845665666735400,2.7227353515625,-0.8007049560546875,-0.1281280517578125,0.0780181884765625
1782845665676740400,2.732740234375,-0.8011932373046875,-0.1206512451171875,0.0874481201171875
1782845665686745300,2.742745361328125,-0.8082122802734375,-0.1265869140625,0.09368896484375
1782845665696750300,2.752750244140625,-0.8102569580078125,-0.1274566650390625,0.1000518798828125
1782845665706754600,2.762754638671875,-0.819915771484375,-0.125244140625,0.10101318359375
1782845665716759600,2.772759521484375,-0.8332366943359375,-0.122467041015625,0.1051177978515625
1782845665726764500,2.7827646484375,-0.8454132080078125,-0.1203155517578125,0.10150146484375
1782845665736769500,2.79276953125,-0.87335205078125,-0.1244964599609375,0.0949554443359375
1782845665746774500,2.8027744140625,-0.90826416015625,-0.128662109375,0.08514404296875
1782845665756779500,2.812779541015625,-0.93682861328125,-0.1359710693359375,0.0748291015625
1782845665766784500,2.822784423828125,-0.9572601318359375,-0.1388702392578125,0.0675201416015625
1782845665776789500,2.83278955078125,-0.9767913818359375,-0.141815185546875,0.063751220703125
1782845665786794500,2.84279443359375,-0.996490478515625,-0.1537933349609375,0.06402587890625
1782845665796799500,2.852799560546875,-1.012542724609375,-0.1687164306640625,0.066497802734375
1782845665806803500,2.862803466796875,-1.0260009765625,-0.1732330322265625,0.0645751953125
1782845665816808400,2.872808349609375,-1.048126220703125,-0.1776580810546875,0.0640716552734375
1782845665826813400,2.8828134765625,-1.0697479248046875,-0.188385009765625,0.05828857421875
1782845665836818400,2.892818359375,-1.0793304443359375,-0.191680908203125,0.05157470703125
1782845665846823400,2.902823486328125,-1.08251953125,-0.193572998046875,0.0441436767578125
1782845665856828400,2.912828369140625,-1.0858154296875,-0.190277099609375,0.0399627685546875
1782845665866833400,2.92283349609375,-1.0852813720703125,-0.1856842041015625,0.027587890625
1782845665876838400,2.93283837890625,-1.077728271484375,-0.1795196533203125,0.0203094482421875
1782845665886843400,2.942843505859375,-1.0608673095703125,-0.1727447509765625,0.0167694091796875
1782845665896847400,2.952847412109375,-1.0370941162109375,-0.172332763671875,0.013214111328125
1782845665906852600,2.9628525390625,-1.015533447265625,-0.171356201171875,0.01324462890625
1782845665916857600,2.972857666015625,-0.9896697998046875,-0.1682891845703125,0.0189971923828125
1782845665926862600,2.982862548828125,-0.9669189453125,-0.1681365966796875,0.023406982421875
1782845665936867600,2.99286767578125,-0.9528961181640625,-0.1651153564453125,0.0311737060546875
1782845665946872600,3.00287255859375,-0.9337005615234375,-0.171142578125,0.0328369140625
1782845665956877600,3.012877685546875,-0.9125518798828125,-0.1693572998046875,0.0341949462890625
1782845665966882600,3.022882568359375,-0.899444580078125,-0.1659393310546875,0.0496368408203125
1782845665976887600,3.032887451171875,-0.8999481201171875,-0.1717071533203125,0.0495147705078125
1782845665986892800,3.042892822265625,-0.9095611572265625,-0.1693572998046875,0.0501251220703125
1782845665996896800,3.052896728515625,-0.929901123046875,-0.1651153564453125,0.0509185791015625
1782845666006901800,3.06290185546875,-0.94384765625,-0.1688995361328125,0.0480194091796875
1782845666016906800,3.07290673828125,-0.9456329345703125,-0.174835205078125,0.0470123291015625
1782845666026911700,3.082911865234375,-0.941070556640625,-0.178924560546875,0.0514068603515625
1782845666036916700,3.092916748046875,-0.9363250732421875,-0.1849212646484375,0.0562896728515625
1782845666046921700,3.102921630859375,-0.930328369140625,-0.1915130615234375,0.06195068359375
1782845666056926700,3.1129267578125,-0.92987060546875,-0.1996002197265625,0.06658935546875
1782845666066931700,3.122931640625,-0.9350738525390625,-0.2054290771484375,0.0692138671875
1782845666076936700,3.132936767578125,-0.9493865966796875,-0.212249755859375,0.0693206787109375
1782845666086941700,3.142941650390625,-0.968231201171875,-0.218719482421875,0.0618743896484375
1782845666096945700,3.152945556640625,-0.9830474853515625,-0.2219085693359375,0.0483245849609375
1782845666106950700,3.16295068359375,-0.9936370849609375,-0.2269287109375,0.0426788330078125
1782845666116955600,3.17295556640625,-0.9953460693359375,-0.2265625,0.0378265380859375
1782845666126960600,3.182960693359375,-0.992462158203125,-0.22613525390625,0.0322418212890625
1782845666136965600,3.192965576171875,-0.9846343994140625,-0.227630615234375,0.0281829833984375
1782845666146970600,3.202970703125,-0.9783782958984375,-0.2301483154296875,0.0320281982421875
1782845666156975900,3.212975830078125,-0.974700927734375,-0.229827880859375,0.0347137451171875
1782845666166980900,3.22298095703125,-0.9672698974609375,-0.2313385009765625,0.0340118408203125
1782845666176985900,3.23298583984375,-0.963897705078125,-0.234771728515625,0.0310821533203125
1782845666186989800,3.24298974609375,-0.964263916015625,-0.231292724609375,0.032928466796875
1782845666196994800,3.252994873046875,-0.962066650390625,-0.22998046875,0.0310516357421875
1782845666206999800,3.262999755859375,-0.9622344970703125,-0.235504150390625,0.0306854248046875
1782845666217004800,3.2730048828125,-0.95550537109375,-0.238922119140625,0.03521728515625
1782845666227009800,3.283009765625,-0.9507904052734375,-0.237213134765625,0.03936767578125
1782845666237014800,3.293014892578125,-0.9386749267578125,-0.234527587890625,0.046295166015625
1782845666247019800,3.303019775390625,-0.9257049560546875,-0.2396240234375,0.053558349609375
1782845666257024800,3.313024658203125,-0.9230194091796875,-0.241607666015625,0.05517578125
1782845666267029800,3.32302978515625,-0.920745849609375,-0.2429962158203125,0.054412841796875
1782845666277034800,3.33303466796875,-0.914398193359375,-0.2415924072265625,0.0548248291015625
1782845666287038700,3.343038818359375,-0.9193878173828125,-0.23992919921875,0.0523529052734375
1782845666297043700,3.353043701171875,-0.92828369140625,-0.243011474609375,0.0415802001953125
1782845666307048700,3.363048583984375,-0.9373626708984375,-0.2466583251953125,0.0319061279296875
1782845666317053700,3.3730537109375,-0.9470672607421875,-0.2567596435546875,0.025299072265625
1782845666327058700,3.38305859375,-0.9591217041015625,-0.26123046875,0.0229339599609375
1782845666337063700,3.393063720703125,-0.9675750732421875,-0.265411376953125,0.017852783203125
1782845666347068700,3.403068603515625,-0.966644287109375,-0.2697296142578125,0.0120697021484375
1782845666357073700,3.41307373046875,-0.962738037109375,-0.2764129638671875,0.010162353515625
1782845666367078700,3.42307861328125,-0.96124267578125,-0.2821044921875,0.00909423828125
1782845666377084000,3.433083984375,-0.957733154296875,-0.2879486083984375,0.0037841796875
1782845666387088000,3.443087890625,-0.9539947509765625,-0.290771484375,0.00885009765625
1782845666397092900,3.4530927734375,-0.9514923095703125,-0.2956085205078125,0.014373779296875
1782845666407097900,3.463097900390625,-0.9521484375,-0.2933807373046875,0.0100555419921875
1782845666417102800,3.473102783203125,-0.9536590576171875,-0.291015625,0.015045166015625
1782845666427107800,3.48310791015625,-0.96063232421875,-0.2985076904296875,0.0166473388671875
1782845666437112800,3.49311279296875,-0.967559814453125,-0.2998046875,0.0149078369140625
1782845666447117800,3.503117919921875,-0.9735107421875,-0.30474853515625,0.0146026611328125
1782845666457122800,3.513122802734375,-0.97894287109375,-0.3085174560546875,0.00787353515625
1782845666467127800,3.5231279296875,-0.983367919921875,-0.3142852783203125,0.0009765625
1782845666477131800,3.5331318359375,-0.985748291015625,-0.3243408203125,0.0011138916015625
1782845666487136800,3.54313671875,-0.9837493896484375,-0.334686279296875,0.00543212890625
1782845666497141800,3.553141845703125,-0.9845733642578125,-0.332916259765625,0.0098724365234375
1782845666507146800,3.563146728515625,-0.9819183349609375,-0.3244781494140625,0.0068817138671875
1782845666517151700,3.57315185546875,-0.9799652099609375,-0.314727783203125,-0.0006866455078125
1782845666527156700,3.58315673828125,-0.980712890625,-0.2991790771484375,-0.0103912353515625
1782845666537161700,3.59316162109375,-0.97357177734375,-0.2801666259765625,-0.01776123046875
1782845666547166700,3.603166748046875,-0.9630889892578125,-0.26312255859375,-0.017791748046875
1782845666557171700,3.613171630859375,-0.95281982421875,-0.251556396484375,-0.00970458984375
1782845666567176700,3.6231767578125,-0.9453277587890625,-0.23797607421875,0.003814697265625
1782845666577181000,3.633180908203125,-0.952972412109375,-0.22216796875,0.010467529296875
1782845666587186000,3.64318603515625,-0.97857666015625,-0.201904296875,0.0355224609375
1782845666597191000,3.65319091796875,-1.0218963623046875,-0.198577880859375,0.051300048828125
1782845666607196000,3.66319580078125,-1.0598602294921875,-0.19891357421875,0.056427001953125
1782845666617201000,3.673200927734375,-1.0760650634765625,-0.183349609375,0.0610198974609375
1782845666627206000,3.683205810546875,-1.0871734619140625,-0.1747283935546875,0.064910888671875
1782845666637211000,3.6932109375,-1.08477783203125,-0.1797943115234375,0.0567626953125
1782845666647215900,3.7032158203125,-1.0636444091796875,-0.1878509521484375,0.052581787109375
1782845666657220900,3.713220947265625,-1.0434722900390625,-0.2030029296875,0.0473480224609375
1782845666667225900,3.723225830078125,-1.0452880859375,-0.223785400390625,0.035400390625
1782845666677229800,3.733229736328125,-1.0605926513671875,-0.237030029296875,0.0228424072265625
1782845666687234800,3.74323486328125,-1.0644989013671875,-0.244842529296875,0.014862060546875
1782845666697239800,3.75323974609375,-1.0501251220703125,-0.2478790283203125,0.006988525390625
1782845666707244800,3.763244873046875,-1.020965576171875,-0.257415771484375,0.0027008056640625
1782845666717249800,3.773249755859375,-0.9843292236328125,-0.26318359375,0.003326416015625
1782845666727254800,3.7832548828125,-0.944488525390625,-0.2569732666015625,0.0122833251953125
1782845666737259800,3.793259765625,-0.9144439697265625,-0.2534637451171875,0.0102386474609375
1782845666747264800,3.8032646484375,-0.8918914794921875,-0.247711181640625,0.016021728515625
1782845666757269800,3.813269775390625,-0.875762939453125,-0.2402191162109375,0.020904541015625
1782845666767274800,3.823274658203125,-0.8714599609375,-0.2321014404296875,0.0252227783203125
1782845666777279000,3.833279052734375,-0.8773956298828125,-0.215606689453125,0.0377655029296875
1782845666787284000,3.843283935546875,-0.8926849365234375,-0.1970977783203125,0.0504302978515625
1782845666797289000,3.8532890625,-0.9152374267578125,-0.18109130859375,0.059783935546875
1782845666807294000,3.8632939453125,-0.9382171630859375,-0.167266845703125,0.07470703125
1782845666817299000,3.873298828125,-0.956512451171875,-0.1536865234375,0.088623046875
1782845666827304000,3.883303955078125,-0.9668426513671875,-0.14154052734375,0.1024322509765625
1782845666837309000,3.893308837890625,-0.9653167724609375,-0.13336181640625,0.11480712890625
1782845666847314000,3.90331396484375,-0.9590301513671875,-0.1303863525390625,0.1253662109375
1782845666857319000,3.91331884765625,-0.958221435546875,-0.1285552978515625,0.131805419921875
1782845666867323000,3.923322998046875,-0.9567108154296875,-0.1310882568359375,0.132781982421875
1782845666877328000,3.933327880859375,-0.94580078125,-0.1347503662109375,0.133056640625
1782845666887332900,3.943332763671875,-0.9462890625,-0.1471405029296875,0.12823486328125
1782845666897337900,3.953337890625,-0.95245361328125,-0.1573638916015625,0.1232757568359375
1782845666907342800,3.9633427734375,-0.9602203369140625,-0.1690521240234375,0.12298583984375
1782845666917347800,3.973347900390625,-0.9695281982421875,-0.188140869140625,0.1231842041015625
1782845666927352800,3.983352783203125,-0.9711456298828125,-0.1994476318359375,0.122833251953125
1782845666937357800,3.99335791015625,-0.9683380126953125,-0.2185821533203125,0.1195068359375
1782845666947362800,4.00336279296875,-0.979888916015625,-0.2334747314453125,0.117950439453125
1782845666957367800,4.013367919921875,-0.9858856201171875,-0.2467803955078125,0.1162261962890625
1782845666967371800,4.023371826171875,-0.988067626953125,-0.26275634765625,0.1194305419921875
1782845666977376800,4.033376708984375,-0.990631103515625,-0.270233154296875,0.1242218017578125
1782845666987381500,4.043381591796875,-0.99395751953125,-0.267364501953125,0.122528076171875
1782845666997386500,4.053386474609375,-1.0001678466796875,-0.277557373046875,0.1168365478515625
1782845667007391500,4.0633916015625,-1.0004425048828125,-0.2901763916015625,0.1136932373046875
1782845667017396500,4.073396484375,-0.9979705810546875,-0.283294677734375,0.1148681640625
1782845667027401500,4.0834013671875,-0.9838104248046875,-0.2754974365234375,0.109100341796875
1782845667037406500,4.093406494140625,-0.9702301025390625,-0.2677764892578125,0.097747802734375
1782845667047411500,4.103411376953125,-0.9591827392578125,-0.25018310546875,0.0870819091796875
1782845667057416400,4.11341650390625,-0.9481658935546875,-0.2366943359375,0.076904296875
1782845667067420400,4.12342041015625,-0.9393310546875,-0.23822021484375,0.070098876953125
1782845667077425400,4.13342529296875,-0.927276611328125,-0.244842529296875,0.070709228515625
1782845667087430400,4.143430419921875,-0.9250030517578125,-0.24072265625,0.080841064453125
1782845667097435400,4.153435302734375,-0.9293060302734375,-0.237457275390625,0.08624267578125
1782845667107440400,4.1634404296875,-0.92510986328125,-0.2342681884765625,0.0864410400390625
1782845667117445400,4.1734453125,-0.9241790771484375,-0.23541259765625,0.0882415771484375
1782845667127450400,4.183450439453125,-0.92529296875,-0.2422943115234375,0.0830535888671875
1782845667137455400,4.193455322265625,-0.917999267578125,-0.2369537353515625,0.08209228515625
1782845667147460400,4.20346044921875,-0.8949432373046875,-0.22882080078125,0.0858917236328125
1782845667157464600,4.213464599609375,-0.885711669921875,-0.2302398681640625,0.083709716796875
1782845667167469600,4.223469482421875,-0.879486083984375,-0.231475830078125,0.08612060546875
1782845667177474600,4.233474609375,-0.8667144775390625,-0.2330169677734375,0.0893402099609375
1782845667187479600,4.2434794921875,-0.863525390625,-0.2428741455078125,0.092193603515625
1782845667197484500,4.253484619140625,-0.8701629638671875,-0.2488250732421875,0.1026153564453125
1782845667207489500,4.263489501953125,-0.8864288330078125,-0.253570556640625,0.113311767578125
1782845667217494500,4.27349462890625,-0.9013519287109375,-0.257171630859375,0.115264892578125
1782845667227499500,4.28349951171875,-0.92059326171875,-0.260223388671875,0.1132354736328125
1782845667237504500,4.29350439453125,-0.945098876953125,-0.2584075927734375,0.1106414794921875
1782845667247509500,4.303509521484375,-0.9630584716796875,-0.2531280517578125,0.1143035888671875
1782845667257513500,4.313513427734375,-0.965576171875,-0.2563323974609375,0.1168365478515625
1782845667267518500,4.3235185546875,-0.9617767333984375,-0.26312255859375,0.11944580078125
1782845667277523500,4.3335234375,-0.962921142578125,-0.265625,0.12359619140625
1782845667287528400,4.343528564453125,-0.948944091796875,-0.2672119140625,0.1267547607421875
1782845667297533400,4.353533447265625,-0.9277801513671875,-0.27301025390625,0.124359130859375
1782845667307538400,4.363538330078125,-0.9124298095703125,-0.282379150390625,0.1204833984375
1782845667317543400,4.37354345703125,-0.9050750732421875,-0.2859649658203125,0.118316650390625
1782845667327548400,4.38354833984375,-0.906951904296875,-0.2908172607421875,0.11187744140625
1782845667337553400,4.393553466796875,-0.905364990234375,-0.2921905517578125,0.104278564453125
1782845667347558400,4.403558349609375,-0.9028472900390625,-0.2957000732421875,0.0980682373046875
1782845667357562600,4.413562744140625,-0.9100799560546875,-0.3057403564453125,0.09344482421875
1782845667367567600,4.423567626953125,-0.9169464111328125,-0.31298828125,0.089935302734375
1782845667377572600,4.433572509765625,-0.9225006103515625,-0.3187255859375,0.0928955078125
1782845667387577600,4.44357763671875,-0.9358978271484375,-0.3209381103515625,0.0962982177734375
1782845667397582600,4.45358251953125,-0.94268798828125,-0.3251190185546875,0.0934906005859375
1782845667407587600,4.463587646484375,-0.9359893798828125,-0.3317108154296875,0.0919036865234375
1782845667417592600,4.473592529296875,-0.929290771484375,-0.330810546875,0.0912628173828125
1782845667427597600,4.48359765625,-0.9239959716796875,-0.326507568359375,0.0902252197265625
1782845667437602600,4.4936025390625,-0.9200897216796875,-0.3214874267578125,0.087799072265625
1782845667447606500,4.5036064453125,-0.9096527099609375,-0.3167572021484375,0.083709716796875
1782845667457611500,4.513611572265625,-0.8973388671875,-0.3212738037109375,0.080322265625
1782845667467616500,4.523616455078125,-0.9010162353515625,-0.3199920654296875,0.0778656005859375
1782845667477621500,4.53362158203125,-0.9023284912109375,-0.3201751708984375,0.087127685546875
1782845667487626500,4.54362646484375,-0.919921875,-0.3289642333984375,0.08624267578125
1782845667497631500,4.553631591796875,-0.92864990234375,-0.3332977294921875,0.0954132080078125
1782845667507636500,4.563636474609375,-0.92572021484375,-0.33648681640625,0.10003662109375
1782845667517641500,4.573641357421875,-0.9233245849609375,-0.3460235595703125,0.09906005859375
1782845667527646500,4.583646484375,-0.9298248291015625,-0.3475799560546875,0.099151611328125
1782845667537651500,4.5936513671875,-0.93951416015625,-0.344635009765625,0.09136962890625
1782845667547655700,4.60365576171875,-0.9459686279296875,-0.3382720947265625,0.08056640625
1782845667557660700,4.61366064453125,-0.9541778564453125,-0.3380126953125,0.06976318359375
1782845667567665700,4.623665771484375,-0.957183837890625,-0.346160888671875,0.065399169921875
1782845667577670700,4.633670654296875,-0.96343994140625,-0.3486175537109375,0.0650787353515625
1782845667587675600,4.643675537109375,-0.9761810302734375,-0.348541259765625,0.0610198974609375
1782845667597680600,4.6536806640625,-0.9812469482421875,-0.3551177978515625,0.0501556396484375
1782845667607685600,4.663685546875,-0.9801788330078125,-0.3659515380859375,0.04742431640625
1782845667617690600,4.673690673828125,-0.9812164306640625,-0.3819122314453125,0.05303955078125
1782845667627695600,4.683695556640625,-0.979248046875,-0.3973236083984375,0.0569000244140625
1782845667637700600,4.69370068359375,-0.99285888671875,-0.4110107421875,0.059478759765625
1782845667647704600,4.70370458984375,-1.011383056640625,-0.4155426025390625,0.0615081787109375
1782845667657709600,4.71370947265625,-1.0190277099609375,-0.40240478515625,0.066009521484375
1782845667667714600,4.723714599609375,-1.0217437744140625,-0.382171630859375,0.0701446533203125
1782845667677719600,4.733719482421875,-1.0271759033203125,-0.3610992431640625,0.07501220703125
1782845667687724500,4.743724609375,-1.0547027587890625,-0.340087890625,0.0955352783203125
1782845667697729500,4.7537294921875,-1.0972747802734375,-0.30047607421875,0.1336212158203125
1782845667707734500,4.763734619140625,-1.145599365234375,-0.260223388671875,0.1609039306640625
1782845667717739500,4.773739501953125,-1.17889404296875,-0.253173828125,0.178131103515625
1782845667727744500,4.78374462890625,-1.18548583984375,-0.2571258544921875,0.19793701171875
1782845667737748700,4.793748779296875,-1.166839599609375,-0.2380218505859375,0.2165679931640625
1782845667747753700,4.803753662109375,-1.1337738037109375,-0.2272491455078125,0.21478271484375
1782845667757758700,4.8137587890625,-1.104461669921875,-0.2349090576171875,0.2151336669921875
1782845667767763700,4.823763671875,-1.0629730224609375,-0.242401123046875,0.2060394287109375
1782845667777768700,4.833768798828125,-1.010833740234375,-0.245635986328125,0.1991729736328125
1782845667787773700,4.843773681640625,-0.9525909423828125,-0.2476043701171875,0.185333251953125
1782845667797778700,4.85377880859375,-0.90399169921875,-0.2371978759765625,0.168853759765625
1782845667807783700,4.86378369140625,-0.868682861328125,-0.22601318359375,0.1571197509765625
1782845667817788700,4.87378857421875,-0.832855224609375,-0.2196044921875,0.1411285400390625
1782845667827793700,4.883793701171875,-0.79290771484375,-0.2096099853515625,0.1270751953125
1782845667837797400,4.89379736328125,-0.7567138671875,-0.1913604736328125,0.11328125
1782845667847802400,4.90380224609375,-0.731231689453125,-0.1829071044921875,0.098297119140625
1782845667857807400,4.913807373046875,-0.7140350341796875,-0.185089111328125,0.0882568359375
1782845667867812600,4.9238125,-0.7080841064453125,-0.1879730224609375,0.0884246826171875
1782845667877817600,4.933817626953125,-0.7168426513671875,-0.1874847412109375,0.095916748046875
1782845667887822600,4.943822509765625,-0.736663818359375,-0.1823272705078125,0.095794677734375
1782845667897827600,4.95382763671875,-0.772857666015625,-0.1793060302734375,0.087188720703125
1782845667907832600,4.96383251953125,-0.8170928955078125,-0.1725006103515625,0.0828399658203125
1782845667917837600,4.973837646484375,-0.8599853515625,-0.166229248046875,0.0835113525390625
1782845667927842600,4.983842529296875,-0.8960723876953125,-0.1606597900390625,0.087249755859375
1782845667937846500,4.993846435546875,-0.9131927490234375,-0.1541290283203125,0.0876312255859375
1782845667947851500,5.0038515625,-0.9275665283203125,-0.14642333984375,0.0840911865234375
1782845667957856500,5.0138564453125,-0.9584197998046875,-0.1443939208984375,0.0797882080078125
1782845667967861500,5.023861572265625,-0.9961700439453125,-0.1421661376953125,0.0750274658203125
1782845667977866500,5.033866455078125,-1.0238037109375,-0.135498046875,0.0727081298828125
1782845667987872000,5.0438720703125,-1.039947509765625,-0.127532958984375,0.0683441162109375
1782845667997877000,5.053876953125,-1.051727294921875,-0.124053955078125,0.064056396484375
1782845668007882000,5.063882080078125,-1.0519866943359375,-0.12786865234375,0.05859375
1782845668017887000,5.073886962890625,-1.040679931640625,-0.1365203857421875,0.056854248046875
1782845668027891000,5.083890869140625,-1.0246124267578125,-0.14337158203125,0.059478759765625
1782845668037896000,5.09389599609375,-1.012359619140625,-0.15496826171875,0.0576629638671875
1782845668047901000,5.10390087890625,-1.0019683837890625,-0.161590576171875,0.0545196533203125
1782845668057906000,5.113906005859375,-0.99603271484375,-0.163726806640625,0.050445556640625
1782845668067911000,5.123910888671875,-0.9948577880859375,-0.1644134521484375,0.043853759765625
1782845668077916000,5.133916015625,-0.9961395263671875,-0.1708831787109375,0.0384979248046875
1782845668087921000,5.1439208984375,-0.9949951171875,-0.177947998046875,0.0422210693359375
1782845668097926000,5.15392578125,-0.9991607666015625,-0.1785888671875,0.0491943359375
1782845668107931000,5.163930908203125,-1.0154571533203125,-0.1810302734375,0.056854248046875
1782845668117935900,5.173935791015625,-1.0238494873046875,-0.1814727783203125,0.0609130859375
1782845668127939600,5.183939697265625,-1.028106689453125,-0.1801300048828125,0.0624542236328125
1782845668137944600,5.193944580078125,-1.028564453125,-0.180908203125,0.0645599365234375
1782845668147949600,5.203949462890625,-1.0322113037109375,-0.1779937744140625,0.06561279296875
1782845668157954800,5.213954833984375,-1.0231781005859375,-0.18121337890625,0.0699310302734375
1782845668167959800,5.223959716796875,-1.00286865234375,-0.1821136474609375,0.076019287109375
1782845668177964800,5.23396484375,-0.9876708984375,-0.177734375,0.077972412109375
1782845668187970000,5.243969970703125,-0.973358154296875,-0.17669677734375,0.0779266357421875
1782845668197975000,5.25397509765625,-0.9467620849609375,-0.17816162109375,0.077789306640625
1782845668207980000,5.26397998046875,-0.9219970703125,-0.1773529052734375,0.0806732177734375
1782845668217983700,5.273983642578125,-0.912994384765625,-0.18084716796875,0.0784149169921875
1782845668227988700,5.28398876953125,-0.909027099609375,-0.186859130859375,0.068695068359375
1782845668237993700,5.29399365234375,-0.906402587890625,-0.1853790283203125,0.0597076416015625
1782845668247998700,5.303998779296875,-0.909210205078125,-0.1879425048828125,0.054229736328125
1782845668258003700,5.314003662109375,-0.9190216064453125,-0.1915130615234375,0.0500946044921875
1782845668268008700,5.3240087890625,-0.92987060546875,-0.194610595703125,0.0444793701171875
1782845668278013700,5.334013671875,-0.9388275146484375,-0.2038421630859375,0.035858154296875
1782845668288018700,5.344018798828125,-0.9403228759765625,-0.211181640625,0.03289794921875
1782845668298023700,5.354023681640625,-0.9345703125,-0.215179443359375,0.0286865234375
1782845668308028700,5.364028564453125,-0.94171142578125,-0.2139892578125,0.0341339111328125
1782845668318032600,5.37403271484375,-0.9530029296875,-0.2176971435546875,0.031890869140625
1782845668328037600,5.38403759765625,-0.956329345703125,-0.224700927734375,0.028717041015625
1782845668338042600,5.394042724609375,-0.964569091796875,-0.226318359375,0.031707763671875
1782845668348047600,5.404047607421875,-0.9684295654296875,-0.2212371826171875,0.0325927734375
1782845668358052600,5.414052490234375,-0.9720916748046875,-0.2181396484375,0.030975341796875
1782845668368057600,5.4240576171875,-0.978973388671875,-0.2178955078125,0.0326080322265625
1782845668378062800,5.434062744140625,-0.985076904296875,-0.21875,0.03460693359375
1782845668388067800,5.44406787109375,-0.9899444580078125,-0.223480224609375,0.0366058349609375
1782845668398072800,5.45407275390625,-0.990570068359375,-0.2305450439453125,0.043121337890625
1782845668408077800,5.464077880859375,-0.9952545166015625,-0.2328643798828125,0.0516510009765625
1782845668418081800,5.474081787109375,-1.0000152587890625,-0.231170654296875,0.0559844970703125
1782845668428086800,5.484086669921875,-0.998291015625,-0.23284912109375,0.0556640625
1782845668438091800,5.494091796875,-1.0045928955078125,-0.2377777099609375,0.0589599609375
1782845668448096800,5.5040966796875,-1.004180908203125,-0.2433929443359375,0.06475830078125
1782845668458101800,5.514101806640625,-1.0058746337890625,-0.2482452392578125,0.06854248046875
1782845668468106800,5.524106689453125,-1.00067138671875,-0.2444305419921875,0.069580078125
1782845668478111700,5.53411181640625,-0.9918975830078125,-0.239105224609375,0.0672760009765625
1782845668488116700,5.54411669921875,-0.9800872802734375,-0.240325927734375,0.067352294921875
1782845668498121700,5.554121826171875,-0.95709228515625,-0.24176025390625,0.06756591796875
1782845668508126700,5.564126708984375,-0.9376983642578125,-0.24267578125,0.0680084228515625
1782845668518130700,5.574130615234375,-0.9272613525390625,-0.241302490234375,0.066314697265625
1782845668528135700,5.5841357421875,-0.9249114990234375,-0.239593505859375,0.06549072265625
1782845668538140700,5.594140625,-0.931976318359375,-0.2404327392578125,0.0605926513671875
1782845668548145700,5.604145751953125,-0.9501190185546875,-0.24664306640625,0.059722900390625
1782845668558150700,5.614150634765625,-0.9676971435546875,-0.2523651123046875,0.0571441650390625
1782845668568155600,5.62415576171875,-0.9825592041015625,-0.257720947265625,0.05499267578125
1782845668578160600,5.63416064453125,-1.0009765625,-0.257080078125,0.05645751953125
1782845668588166000,5.644165771484375,-1.0137786865234375,-0.25543212890625,0.047607421875
1782845668598171000,5.6541708984375,-1.0101776123046875,-0.2556610107421875,0.0348052978515625
1782845668608175900,5.66417578125,-0.99774169921875,-0.254974365234375,0.0323638916015625
1782845668618179800,5.674179931640625,-0.9864501953125,-0.255035400390625,0.0391693115234375
1782845668628184800,5.684184814453125,-0.97894287109375,-0.2581787109375,0.0463104248046875
1782845668638189800,5.69418994140625,-0.9747161865234375,-0.2576446533203125,0.0487213134765625
1782845668648194800,5.70419482421875,-0.969024658203125,-0.259765625,0.0484619140625
1782845668658199800,5.71419970703125,-0.9586334228515625,-0.2677001953125,0.0506439208984375
1782845668668204800,5.724204833984375,-0.9561309814453125,-0.275238037109375,0.054840087890625
1782845668678209800,5.734209716796875,-0.95294189453125,-0.2808074951171875,0.0595855712890625
1782845668688214800,5.74421484375,-0.9548492431640625,-0.2888031005859375,0.060455322265625
1782845668698219800,5.7542197265625,-0.95001220703125,-0.29620361328125,0.05694580078125
1782845668708223700,5.7642236328125,-0.9584197998046875,-0.3047637939453125,0.052581787109375
1782845668718228700,5.774228759765625,-0.9782257080078125,-0.308868408203125,0.0408935546875
1782845668728233700,5.784233642578125,-0.988861083984375,-0.3062896728515625,0.0294952392578125
1782845668738238700,5.79423876953125,-0.981414794921875,-0.30059814453125,0.0165557861328125
1782845668748243700,5.80424365234375,-0.9672393798828125,-0.2937469482421875,0.0133819580078125
1782845668758248700,5.814248779296875,-0.94940185546875,-0.2836151123046875,0.0097198486328125
1782845668768253700,5.824253662109375,-0.9300384521484375,-0.2647705078125,0.0082855224609375
1782845668778258700,5.8342587890625,-0.9143829345703125,-0.243621826171875,0.000091552734375
1782845668788263700,5.844263671875,-0.915496826171875,-0.2333526611328125,0.0061187744140625
1782845668798268000,5.854267822265625,-0.9357757568359375,-0.23162841796875,0.0286712646484375
1782845668808273000,5.86427294921875,-0.9748687744140625,-0.2236175537109375,0.0559844970703125
1782845668818278000,5.87427783203125,-1.0436553955078125,-0.2258758544921875,0.0744171142578125
1782845668828283000,5.884282958984375,-1.108856201171875,-0.2175140380859375,0.0847015380859375
1782845668838288000,5.894287841796875,-1.159271240234375,-0.1997222900390625,0.08209228515625
1782845668848292900,5.90429296875,-1.1812286376953125,-0.18963623046875,0.07501220703125
1782845668858297900,5.9142978515625,-1.183624267578125,-0.19866943359375,0.070953369140625
1782845668868302800,5.924302734375,-1.1481170654296875,-0.2108612060546875,0.0723876953125
1782845668878307800,5.934307861328125,-1.1012420654296875,-0.219573974609375,0.0709075927734375
1782845668888312800,5.944312744140625,-1.0705718994140625,-0.2303314208984375,0.055999755859375
1782845668898316800,5.95431689453125,-1.036346435546875,-0.242279052734375,0.0247650146484375
1782845668908321800,5.96432177734375,-1.004913330078125,-0.246551513671875,0.0050811767578125
1782845668918326800,5.974326904296875,-0.981689453125,-0.224334716796875,-0.0026092529296875
1782845668928331800,5.984331787109375,-0.9691619873046875,-0.220428466796875,-0.0272216796875
1782845668938336800,5.994336669921875,-0.9246826171875,-0.2071075439453125,-0.0547943115234375
1782845668948341800,6.004341796875,-0.8895721435546875,-0.1843719482421875,-0.061065673828125
1782845668958346800,6.0143466796875,-0.8527679443359375,-0.1912384033203125,-0.0626373291015625
1782845668968351700,6.024351806640625,-0.8091888427734375,-0.2067108154296875,-0.0458221435546875
1782845668978356700,6.034356689453125,-0.7880096435546875,-0.2162933349609375,-0.0187225341796875
1782845668988361200,6.044361328125,-0.775146484375,-0.215240478515625,-0.01373291015625
1782845668998365000,6.054364990234375,-0.78564453125,-0.2148284912109375,-0.0163726806640625
1782845669008370000,6.064369873046875,-0.823638916015625,-0.2206268310546875,-0.0209503173828125
1782845669018375000,6.074375,-0.8553009033203125,-0.2137603759765625,-0.018463134765625
1782845669028380000,6.0843798828125,-0.889892578125,-0.200469970703125,-0.0048980712890625
1782845669038385000,6.094385009765625,-0.915771484375,-0.18865966796875,0.0118255615234375
1782845669048390000,6.104389892578125,-0.94219970703125,-0.170806884765625,0.0318450927734375
1782845669058395000,6.114394775390625,-0.9705657958984375,-0.1580047607421875,0.04913330078125
1782845669068399900,6.12439990234375,-1.00372314453125,-0.152008056640625,0.0666046142578125
1782845669078404900,6.13440478515625,-1.0344390869140625,-0.151214599609375,0.0858154296875
1782845669088408800,6.144408935546875,-1.05841064453125,-0.1546630859375,0.10821533203125
1782845669098413800,6.154413818359375,-1.07861328125,-0.1589202880859375,0.1303558349609375
1782845669108418800,6.164418701171875,-1.080535888671875,-0.1640472412109375,0.1486053466796875
1782845669118424000,6.174424072265625,-1.0748138427734375,-0.173004150390625,0.1590118408203125
1782845669128429000,6.184428955078125,-1.054168701171875,-0.17877197265625,0.1771240234375
1782845669138434000,6.19443408203125,-1.01959228515625,-0.177215576171875,0.1981658935546875
1782845669148439000,6.20443896484375,-0.98492431640625,-0.17999267578125,0.2087860107421875
1782845669158444000,6.214444091796875,-0.9603424072265625,-0.191925048828125,0.2024383544921875
1782845669168449000,6.224448974609375,-0.9414825439453125,-0.2046356201171875,0.1912994384765625
1782845669178454000,6.2344541015625,-0.9151153564453125,-0.2199249267578125,0.1794586181640625
1782845669188458000,6.2444580078125,-0.8984375,-0.2373046875,0.17095947265625
1782845669198463000,6.254462890625,-0.8907012939453125,-0.244232177734375,0.160064697265625
1782845669208468000,6.264468017578125,-0.87005615234375,-0.247802734375,0.148284912109375
1782845669218473000,6.274472900390625,-0.87603759765625,-0.251007080078125,0.1479949951171875
1782845669228478000,6.28447802734375,-0.9019775390625,-0.2527008056640625,0.14849853515625
1782845669238483000,6.29448291015625,-0.9192657470703125,-0.262786865234375,0.1434326171875
1782845669248488000,6.304488037109375,-0.941802978515625,-0.2693939208984375,0.14105224609375
1782845669258493000,6.314492919921875,-0.9563751220703125,-0.2534942626953125,0.1334228515625
1782845669268498000,6.324497802734375,-0.973052978515625,-0.2415313720703125,0.127471923828125
1782845669278503000,6.3345029296875,-0.982879638671875,-0.234405517578125,0.120147705078125
1782845669288507000,6.3445068359375,-0.981475830078125,-0.2307281494140625,0.118865966796875
1782845669298512000,6.354511962890625,-0.9741668701171875,-0.232452392578125,0.12384033203125
1782845669308516900,6.364516845703125,-0.9652557373046875,-0.2351226806640625,0.13372802734375
1782845669318521900,6.37452197265625,-0.9561767578125,-0.2304840087890625,0.1367950439453125
1782845669328526800,6.38452685546875,-0.9374542236328125,-0.23028564453125,0.13623046875
1782845669338532000,6.394531982421875,-0.9161834716796875,-0.236541748046875,0.1339111328125
1782845669348537000,6.404537109375,-0.8941650390625,-0.23944091796875,0.133209228515625
1782845669358542000,6.4145419921875,-0.879425048828125,-0.2310638427734375,0.13677978515625
1782845669368547000,6.424547119140625,-0.889892578125,-0.231292724609375,0.134124755859375
1782845669378551000,6.434551025390625,-0.9192352294921875,-0.226959228515625,0.1342926025390625
1782845669388556000,6.44455615234375,-0.9308013916015625,-0.2294158935546875,0.1424407958984375
1782845669398561000,6.45456103515625,-0.9288177490234375,-0.234375,0.14910888671875
1782845669408566000,6.46456591796875,-0.9244384765625,-0.2364654541015625,0.15216064453125
1782845669418571000,6.474571044921875,-0.9180908203125,-0.2356414794921875,0.1543426513671875
1782845669428576000,6.484575927734375,-0.9112548828125,-0.240570068359375,0.157928466796875
1782845669438581000,6.4945810546875,-0.9021148681640625,-0.2516326904296875,0.15728759765625
1782845669448586000,6.5045859375,-0.8921356201171875,-0.2657470703125,0.154205322265625
1782845669458591000,6.514591064453125,-0.88592529296875,-0.27178955078125,0.1517791748046875
1782845669468596000,6.524595947265625,-0.89288330078125,-0.2585906982421875,0.147247314453125
1782845669478600000,6.534599853515625,-0.908111572265625,-0.2521514892578125,0.1425628662109375
1782845669488605000,6.54460498046875,-0.9236602783203125,-0.2557525634765625,0.1408538818359375
1782845669498610000,6.55460986328125,-0.9302825927734375,-0.2744293212890625,0.14495849609375
1782845669508615000,6.564614990234375,-0.93548583984375,-0.2887725830078125,0.1564178466796875
1782845669518620000,6.574619873046875,-0.938995361328125,-0.3016815185546875,0.158477783203125
1782845669528625000,6.584625,-0.946319580078125,-0.312103271484375,0.151580810546875
1782845669538630000,6.5946298828125,-0.9546356201171875,-0.3095703125,0.1595001220703125
1782845669548635000,6.604634765625,-0.958526611328125,-0.31378173828125,0.1503753662109375
1782845669558640000,6.61464013671875,-0.9581146240234375,-0.3152618408203125,0.13714599609375
1782845669568644000,6.62464404296875,-0.954315185546875,-0.3135528564453125,0.1268768310546875
1782845669578649000,6.634649169921875,-0.9465179443359375,-0.3102569580078125,0.1174774169921875
1782845669588654000,6.644654052734375,-0.93548583984375,-0.3096466064453125,0.10430908203125
1782845669598659000,6.6546591796875,-0.92840576171875,-0.3155670166015625,0.0961761474609375
1782845669608664000,6.6646640625,-0.928619384765625,-0.3218994140625,0.0933380126953125
1782845669618669000,6.6746689453125,-0.9270477294921875,-0.3286895751953125,0.0916290283203125
1782845669628674000,6.684674072265625,-0.9220733642578125,-0.3379364013671875,0.09112548828125
1782845669638679000,6.694678955078125,-0.915191650390625,-0.3364105224609375,0.094635009765625
1782845669648684000,6.70468408203125,-0.9113616943359375,-0.3295135498046875,0.0938568115234375
1782845669658689000,6.71468896484375,-0.9125823974609375,-0.3249359130859375,0.0889892578125
1782845669668693000,6.72469287109375,-0.9131317138671875,-0.317108154296875,0.085235595703125
1782845669678698000,6.734697998046875,-0.9113311767578125,-0.3142852783203125,0.081451416015625
1782845669688703000,6.744702880859375,-0.910675048828125,-0.3134613037109375,0.0826263427734375
1782845669698708000,6.7547080078125,-0.902862548828125,-0.3115386962890625,0.086822509765625
1782845669708713000,6.764712890625,-0.89105224609375,-0.3104400634765625,0.0872802734375
1782845669718718000,6.774718017578125,-0.8894195556640625,-0.3237457275390625,0.086151123046875
1782845669728723000,6.784722900390625,-0.8980255126953125,-0.3324737548828125,0.0897369384765625
1782845669738728000,6.79472802734375,-0.914093017578125,-0.3345947265625,0.0946044921875
1782845669748733000,6.80473291015625,-0.9329681396484375,-0.3399658203125,0.0974884033203125
1782845669758738000,6.814738037109375,-0.9467010498046875,-0.3536529541015625,0.1020355224609375
1782845669768742100,6.8247421875,-0.9593658447265625,-0.3608551025390625,0.1125640869140625
1782845669778747100,6.8347470703125,-0.965972900390625,-0.3604278564453125,0.1169281005859375
1782845669788752100,6.844752197265625,-0.96380615234375,-0.362823486328125,0.112579345703125
1782845669798757000,6.854757080078125,-0.9582061767578125,-0.369232177734375,0.108062744140625
1782845669808762000,6.86476220703125,-0.9568328857421875,-0.3783416748046875,0.10455322265625
1782845669818767000,6.87476708984375,-0.9610137939453125,-0.390838623046875,0.0995635986328125
1782845669828772000,6.884772216796875,-0.963134765625,-0.401947021484375,0.093536376953125
1782845669838777000,6.894777099609375,-0.9605560302734375,-0.4152374267578125,0.0832672119140625
1782845669848782000,6.904781982421875,-0.965728759765625,-0.4320068359375,0.0762786865234375
1782845669858787000,6.914787109375,-0.9666748046875,-0.441741943359375,0.0738983154296875
1782845669868791000,6.924791015625,-0.962249755859375,-0.4361724853515625,0.07598876953125
1782845669878796000,6.934796142578125,-0.9723358154296875,-0.4169921875,0.0830841064453125
1782845669888801000,6.944801025390625,-0.9744415283203125,-0.3987884521484375,0.0781707763671875
1782845669898806000,6.954805908203125,-0.9656829833984375,-0.369232177734375,0.0768890380859375
1782845669908811000,6.96481103515625,-0.9704132080078125,-0.318756103515625,0.07867431640625
1782845669918816000,6.97481591796875,-0.991485595703125,-0.267364501953125,0.089080810546875
1782845669928821000,6.984821044921875,-1.0204620361328125,-0.24603271484375,0.10638427734375
1782845669938826000,6.994825927734375,-1.0350189208984375,-0.232391357421875,0.1344757080078125
1782845669948831000,7.0048310546875,-1.063934326171875,-0.2089385986328125,0.155487060546875
1782845669958835200,7.014835205078125,-1.1123199462890625,-0.1927642822265625,0.170928955078125
1782845669968840200,7.024840087890625,-1.1467132568359375,-0.192474365234375,0.1865997314453125
1782845669978845200,7.03484521484375,-1.149810791015625,-0.1982574462890625,0.19927978515625
1782845669988850700,7.0448505859375,-1.1210174560546875,-0.214996337890625,0.2059326171875
1782845669998855700,7.054855712890625,-1.0802764892578125,-0.2303466796875,0.20166015625
1782845670008860700,7.064860595703125,-1.0359954833984375,-0.2337188720703125,0.1959381103515625
1782845670018865700,7.07486572265625,-0.9879150390625,-0.2315673828125,0.1798248291015625
1782845670028870700,7.08487060546875,-0.9294891357421875,-0.2382354736328125,0.159942626953125
1782845670038875600,7.094875732421875,-0.8671875,-0.2424163818359375,0.1428680419921875
1782845670048880600,7.104880615234375,-0.8275146484375,-0.2379913330078125,0.1247406005859375
1782845670058884600,7.114884521484375,-0.8122711181640625,-0.238433837890625,0.1112213134765625
1782845670068889600,7.1248896484375,-0.7954254150390625,-0.2299652099609375,0.09906005859375
1782845670078894600,7.13489453125,-0.7929229736328125,-0.2095794677734375,0.093994140625
1782845670088899600,7.144899658203125,-0.813201904296875,-0.1956634521484375,0.090850830078125
1782845670098904600,7.154904541015625,-0.84368896484375,-0.193695068359375,0.076416015625
1782845670108909600,7.16490966796875,-0.878143310546875,-0.176544189453125,0.0660400390625
1782845670118914600,7.17491455078125,-0.903717041015625,-0.1569061279296875,0.0716400146484375
1782845670128919600,7.18491943359375,-0.9113311767578125,-0.1535797119140625,0.0801544189453125
1782845670138924500,7.194924560546875,-0.908203125,-0.1480255126953125,0.0970001220703125
1782845670148928500,7.204928466796875,-0.91546630859375,-0.135009765625,0.1107025146484375
1782845670158933500,7.21493359375,-0.931976318359375,-0.1312255859375,0.1222076416015625
1782845670168938500,7.2249384765625,-0.93743896484375,-0.13031005859375,0.1311492919921875
1782845670178943700,7.23494384765625,-0.9419708251953125,-0.127288818359375,0.14013671875
1782845670188948700,7.24494873046875,-0.9526824951171875,-0.11883544921875,0.1426849365234375
1782845670198953700,7.25495361328125,-0.9734039306640625,-0.1121673583984375,0.13409423828125
1782845670208958700,7.264958740234375,-0.9846649169921875,-0.10614013671875,0.1245574951171875
1782845670218963700,7.274963623046875,-0.9861907958984375,-0.099029541015625,0.113250732421875
1782845670228968700,7.28496875,-0.984405517578125,-0.101409912109375,0.1031646728515625
1782845670238973700,7.2949736328125,-0.978302001953125,-0.1108551025390625,0.09716796875
1782845670248977400,7.304977294921875,-0.9703521728515625,-0.1124114990234375,0.096160888671875
1782845670258982400,7.314982421875,-0.9582672119140625,-0.1230926513671875,0.0856170654296875
1782845670268987400,7.3249873046875,-0.9528961181640625,-0.1382598876953125,0.0796966552734375
1782845670278992400,7.334992431640625,-0.954681396484375,-0.1528167724609375,0.0813446044921875
1782845670288997400,7.344997314453125,-0.9575958251953125,-0.17315673828125,0.086151123046875
1782845670299002400,7.35500244140625,-0.9653472900390625,-0.1912384033203125,0.0913238525390625
1782845670309007400,7.36500732421875,-0.9847564697265625,-0.2010498046875,0.09918212890625
1782845670319012400,7.375012451171875,-1.004974365234375,-0.211883544921875,0.096923828125
1782845670329017300,7.385017333984375,-1.032379150390625,-0.2178497314453125,0.1025238037109375
1782845670339021600,7.395021484375,-1.0579071044921875,-0.218231201171875,0.10406494140625
1782845670349026600,7.405026611328125,-1.0709686279296875,-0.210662841796875,0.1000823974609375
1782845670359031600,7.415031494140625,-1.07281494140625,-0.2050628662109375,0.090484619140625
1782845670369036500,7.42503662109375,-1.0796966552734375,-0.1938323974609375,0.0738677978515625
1782845670379041500,7.43504150390625,-1.0638580322265625,-0.1778411865234375,0.05755615234375
1782845670389046500,7.445046630859375,-1.0227813720703125,-0.16766357421875,0.0423431396484375
1782845670399051500,7.455051513671875,-0.9779815673828125,-0.1663360595703125,0.0399932861328125
1782845670409056500,7.465056396484375,-0.9243621826171875,-0.16546630859375,0.0526123046875
1782845670419061500,7.4750615234375,-0.880828857421875,-0.1644744873046875,0.06280517578125
1782845670429066500,7.48506640625,-0.8532257080078125,-0.166046142578125,0.07421875
1782845670439070500,7.495070556640625,-0.849334716796875,-0.168212890625,0.0830841064453125
1782845670449075500,7.505075439453125,-0.866973876953125,-0.1681671142578125,0.0857696533203125
1782845670459080400,7.51508056640625,-0.8913726806640625,-0.1722564697265625,0.0792236328125
1782845670469085400,7.52508544921875,-0.9252471923828125,-0.1759033203125,0.072296142578125
1782845670479090400,7.53509033203125,-0.9520416259765625,-0.1770782470703125,0.064849853515625
1782845670489095400,7.545095458984375,-0.9619293212890625,-0.182464599609375,0.055450439453125
1782845670499100400,7.555100341796875,-0.960723876953125,-0.19952392578125,0.051177978515625
1782845670509105400,7.56510546875,-0.957916259765625,-0.215728759765625,0.054351806640625
1782845670519110400,7.5751103515625,-0.9593505859375,-0.2218780517578125,0.0585784912109375
1782845670529114400,7.5851142578125,-0.96087646484375,-0.22601318359375,0.0591583251953125
1782845670539119400,7.595119384765625,-0.9673309326171875,-0.2261199951171875,0.0615386962890625
1782845670549124400,7.605124267578125,-0.976654052734375,-0.2267913818359375,0.0547943115234375
1782845670559129600,7.615129638671875,-0.9864959716796875,-0.22747802734375,0.0495758056640625
1782845670569134600,7.625134521484375,-0.9925689697265625,-0.224822998046875,0.0443572998046875
1782845670579139600,7.6351396484375,-1.009307861328125,-0.217193603515625,0.0372161865234375
1782845670589144600,7.64514453125,-1.0186920166015625,-0.2142791748046875,0.0272216796875
1782845670599149600,7.655149658203125,-1.0217132568359375,-0.2159881591796875,0.02081298828125
1782845670609154600,7.665154541015625,-1.0189208984375,-0.2195892333984375,0.02642822265625
1782845670619159600,7.67515966796875,-0.99945068359375,-0.223541259765625,0.0396881103515625
1782845670629163500,7.68516357421875,-0.9769744873046875,-0.2291107177734375,0.0506134033203125
1782845670639168500,7.69516845703125,-0.9522247314453125,-0.238189697265625,0.0554656982421875
1782845670649173500,7.705173583984375,-0.93365478515625,-0.238983154296875,0.0652008056640625
1782845670659178500,7.715178466796875,-0.9248809814453125,-0.2368621826171875,0.073883056640625
1782845670669183500,7.72518359375,-0.92822265625,-0.23651123046875,0.0776519775390625
1782845670679188500,7.7351884765625,-0.9389495849609375,-0.2383880615234375,0.0797576904296875
1782845670689193500,7.745193359375,-0.9522247314453125,-0.237335205078125,0.08197021484375
1782845670699198500,7.755198486328125,-0.9692840576171875,-0.2355499267578125,0.0828857421875
1782845670709203500,7.765203369140625,-0.9889068603515625,-0.2329254150390625,0.084136962890625
1782845670719208400,7.77520849609375,-1.003570556640625,-0.22711181640625,0.083648681640625
1782845670729212400,7.78521240234375,-1.0135345458984375,-0.2275543212890625,0.080078125
1782845670739217400,7.795217529296875,-1.015167236328125,-0.2339935302734375,0.0848236083984375
1782845670749222400,7.805222412109375,-1.012298583984375,-0.24310302734375,0.0851593017578125
1782845670759227400,7.815227294921875,-1.0028839111328125,-0.252288818359375,0.08416748046875
1782845670769232400,7.825232421875,-0.993988037109375,-0.25775146484375,0.08447265625
1782845670779237600,7.835237548828125,-0.990570068359375,-0.2556304931640625,0.08349609375
1782845670789242600,7.84524267578125,-0.983551025390625,-0.2533721923828125,0.0755767822265625
1782845670799247600,7.85524755859375,-0.9767303466796875,-0.255218505859375,0.0668182373046875
1782845670809252600,7.865252685546875,-0.9789581298828125,-0.2519073486328125,0.065155029296875
1782845670819257600,7.875257568359375,-0.97906494140625,-0.2489776611328125,0.0636749267578125
1782845670829261600,7.885261474609375,-0.9753570556640625,-0.2469024658203125,0.06103515625
1782845670839266600,7.8952666015625,-0.96881103515625,-0.248138427734375,0.0569305419921875
1782845670849271600,7.905271484375,-0.9561004638671875,-0.2574310302734375,0.053375244140625
1782845670859276500,7.915276611328125,-0.9422454833984375,-0.2806243896484375,0.05694580078125
1782845670869281500,7.925281494140625,-0.9332122802734375,-0.301177978515625,0.0640106201171875
1782845670879286500,7.93528662109375,-0.9270477294921875,-0.317901611328125,0.0744781494140625
1782845670889291500,7.94529150390625,-0.9283294677734375,-0.3255462646484375,0.0789337158203125
1782845670899296500,7.955296630859375,-0.929412841796875,-0.3231201171875,0.0723114013671875
1782845670909301500,7.965301513671875,-0.933624267578125,-0.312225341796875,0.0684356689453125
1782845670919305500,7.975305419921875,-0.9442901611328125,-0.304931640625,0.047607421875
1782845670929310500,7.985310546875,-0.9520263671875,-0.2989501953125,0.0240020751953125
1782845670939315500,7.9953154296875,-0.9608001708984375,-0.2984619140625,0.01806640625
1782845670949320400,8.005320556640624,-0.9705047607421875,-0.3029632568359375,0.0224456787109375
1782845670959325400,8.015325439453125,-0.983856201171875,-0.302764892578125,0.02044677734375
1782845670969330400,8.025330322265624,-0.99822998046875,-0.301788330078125,0.009368896484375
1782845670979335400,8.03533544921875,-1.0066070556640625,-0.297943115234375,-0.0018463134765625
1782845670989340200,8.045340087890626,-1.0129547119140625,-0.2935333251953125,-0.01385498046875
1782845670999345200,8.05534521484375,-1.012237548828125,-0.285064697265625,-0.019805908203125
1782845671009350100,8.06535009765625,-0.999664306640625,-0.281494140625,-0.0273284912109375
1782845671019354000,8.07535400390625,-0.9715728759765625,-0.27911376953125,-0.02593994140625
1782845671029359000,8.085359130859375,-0.9430694580078125,-0.2775726318359375,-0.0146331787109375
1782845671039364000,8.095364013671874,-0.9182891845703125,-0.2791595458984375,0.0004730224609375
1782845671049369000,8.105369140625,-0.8939361572265625,-0.2803802490234375,0.014251708984375
1782845671059374000,8.1153740234375,-0.8768463134765625,-0.2813568115234375,0.02825927734375
1782845671069379000,8.125379150390625,-0.87677001953125,-0.2793121337890625,0.04571533203125
1782845671079384000,8.135384033203126,-0.8954010009765625,-0.2756195068359375,0.061737060546875
1782845671089389000,8.14538916015625,-0.9268951416015625,-0.274444580078125,0.0754547119140625
1782845671099394000,8.15539404296875,-0.9642333984375,-0.2754669189453125,0.080902099609375
1782845671109398000,8.16539794921875,-0.9945526123046875,-0.2681732177734375,0.0874481201171875
1782845671119403000,8.175403076171875,-1.024566650390625,-0.266937255859375,0.08941650390625
1782845671129408000,8.185407958984374,-1.0457305908203125,-0.2709197998046875,0.0855865478515625
1782845671139413000,8.1954130859375,-1.0588531494140625,-0.2747344970703125,0.085693359375
1782845671149418200,8.205418212890624,-1.0693511962890625,-0.2712554931640625,0.0760040283203125
1782845671159423200,8.21542333984375,-1.0742645263671875,-0.2650146484375,0.063568115234375
1782845671169428200,8.22542822265625,-1.051727294921875,-0.2648773193359375,0.0525054931640625
1782845671179433200,8.23543310546875,-1.005462646484375,-0.2689666748046875,0.0484466552734375
1782845671189438200,8.245438232421876,-0.949462890625,-0.2739410400390625,0.0485382080078125
1782845671199443200,8.255443115234375,-0.8984527587890625,-0.2657318115234375,0.0529022216796875
1782845671209447200,8.265447265625,-0.8564300537109375,-0.2505950927734375,0.0492095947265625
1782845671219452200,8.2754521484375,-0.81976318359375,-0.244720458984375,0.0471343994140625
1782845671229457200,8.28545703125,-0.7968292236328125,-0.2458953857421875,0.04962158203125
1782845671239462100,8.295462158203126,-0.7913055419921875,-0.2509765625,0.051971435546875
1782845671249467100,8.305467041015625,-0.7952880859375,-0.2457122802734375,0.0510406494140625
1782845671259472100,8.31547216796875,-0.8091888427734375,-0.2394256591796875,0.050048828125
1782845671269477000,8.32547705078125,-0.8360137939453125,-0.238677978515625,0.0605926513671875
1782845671279482000,8.335482177734375,-0.8672027587890625,-0.248291015625,0.058868408203125
1782845671289487000,8.345487060546875,-0.886932373046875,-0.22625732421875,0.0897979736328125
1782845671299492000,8.3554921875,-0.898162841796875,-0.228302001953125,0.090972900390625
1782845671309496000,8.36549609375,-0.91986083984375,-0.2371063232421875,0.083465576171875
1782845671319501000,8.3755009765625,-0.9310150146484375,-0.22613525390625,0.092010498046875
1782845671329506000,8.385506103515626,-0.944610595703125,-0.2217254638671875,0.093231201171875
1782845671339511000,8.395510986328125,-0.961669921875,-0.2203521728515625,0.10009765625
1782845671349516000,8.40551611328125,-0.9915771484375,-0.2179718017578125,0.1048583984375
1782845671359521000,8.41552099609375,-1.015472412109375,-0.210845947265625,0.0998687744140625
1782845671369526300,8.4255263671875,-1.0334320068359375,-0.198028564453125,0.112152099609375
1782845671379531300,8.43553125,-1.042022705078125,-0.2161102294921875,0.1029510498046875
1782845671389536300,8.445536376953125,-0.9919891357421875,-0.2058563232421875,0.1303253173828125
1782845671399540200,8.455540283203124,-1.0176544189453125,-0.19793701171875,0.12701416015625
1782845671409545200,8.465545166015625,-1.00732421875,-0.223358154296875,0.1292266845703125
1782845671419550200,8.47555029296875,-0.981201171875,-0.240081787109375,0.135528564453125
1782845671429555200,8.48555517578125,-0.9636688232421875,-0.2319793701171875,0.1248016357421875
1782845671439560200,8.495560302734376,-0.952301025390625,-0.2374114990234375,0.107513427734375
1782845671449565200,8.505565185546875,-0.9596099853515625,-0.2381439208984375,0.095611572265625
1782845671459570200,8.515570068359375,-0.9592742919921875,-0.2355499267578125,0.0855865478515625
