time,seconds_elapsed,z,y,x
1782845663012935400,0.068935302734375,-0.16037267446517944,-0.06477183103561401,0.03821784630417824
1782845663022940700,0.078940673828125,-0.14436131715774536,-0.03878931328654289,0.07793073356151581
1782845663032945700,0.088945556640625,-0.13213101029396057,-0.00982770323753357,0.10643161833286285
1782845663042950700,0.09895068359375,-0.11912846565246582,0.030941838398575783,0.11523343622684479
1782845663052955600,0.10895556640625,-0.09850069135427475,0.048761848360300064,0.10467320680618286
1782845663062960600,0.118960693359375,-0.07339838892221451,0.056641750037670135,0.06384839862585068
1782845663072965600,0.128965576171875,-0.0505969375371933,0.06275184452533722,0.00720909284427762
1782845663082970600,0.138970703125,-0.026578843593597412,0.05414924770593643,-0.0467703640460968
1782845663092975600,0.1489755859375,-0.0025190473534166813,0.036418184638023376,-0.09908469766378403
1782845663102979300,0.158979248046875,0.010977376252412796,0.026786567643284798,-0.14737878739833832
1782845663112984300,0.168984375,0.019992975518107414,0.0227124635130167,-0.19691917300224304
1782845663122989300,0.1789892578125,0.02915762923657894,0.020249027758836746,-0.2189767211675644
1782845663132994300,0.188994384765625,0.030132347717881203,0.011496549472212791,-0.21456758677959442
1782845663142999300,0.198999267578125,0.025204813107848167,-0.01750863343477249,-0.18238767981529236
1782845663153004300,0.20900439453125,0.022675609216094017,-0.04498446732759476,-0.14863796532154083
1782845663163009300,0.21900927734375,0.0177005548030138,-0.06853549182415009,-0.10496184974908829
1782845663173014500,0.2290146484375,0.01215452142059803,-0.07896256446838379,-0.0563058964908123
1782845663183019500,0.23901953125,0.002782185561954975,-0.09448228031396866,-0.003980500623583794
1782845663193024500,0.2490244140625,-0.010578094981610775,-0.10873152315616608,0.0664403960108757
1782845663203028500,0.259028564453125,-0.02288413979113102,-0.10800069570541382,0.13358359038829803
1782845663213033500,0.269033447265625,-0.03214714676141739,-0.09643485397100449,0.19841212034225464
1782845663223038500,0.27903857421875,-0.03634005784988403,-0.08971909433603287,0.2505565881729126
1782845663233043500,0.28904345703125,-0.030072305351495743,-0.08907914161682129,0.3028157949447632
1782845663243048400,0.29904833984375,-0.01568666659295559,-0.09956192225217819,0.36981716752052307
1782845663253053400,0.309053466796875,-0.0035839322954416275,-0.1099168211221695,0.43242061138153076
1782845663263058400,0.319058349609375,-0.010757760144770145,-0.10207583010196686,0.48254749178886414
1782845663273063400,0.3290634765625,-0.0250682570040226,-0.06718762218952179,0.497839093208313
1782845663283068400,0.339068359375,-0.05607243999838829,-0.011429661884903908,0.4780922532081604
1782845663293072400,0.349072265625,-0.09278358519077301,0.050144217908382416,0.4328390061855316
1782845663303077400,0.359077392578125,-0.1418265402317047,0.11773234605789185,0.3419714868068695
1782845663313082400,0.369082275390625,-0.1948586106300354,0.16650600731372833,0.20285564661026
1782845663323087400,0.37908740234375,-0.2416945993900299,0.20046481490135193,0.022810297086834908
1782845663333092400,0.38909228515625,-0.24658016860485077,0.20360548794269562,-0.17906850576400757
1782845663343097300,0.399097412109375,-0.2323492467403412,0.15504004061222076,-0.35514527559280396
1782845663353102300,0.409102294921875,-0.19955003261566162,0.06673067808151245,-0.47172462940216064
1782845663363107300,0.419107421875,-0.1371452808380127,-0.05890069901943207,-0.496065616607666
1782845663373112300,0.4291123046875,-0.06595233082771301,-0.16914890706539154,-0.42875903844833374
1782845663383116500,0.439116455078125,-0.014093593694269657,-0.22097431123256683,-0.32132449746131897
1782845663393121500,0.44912158203125,0.021222053095698357,-0.22867856919765472,-0.21809719502925873
1782845663403126500,0.45912646484375,0.046830981969833374,-0.1968100368976593,-0.13295404613018036
1782845663413131500,0.469131591796875,0.04188096150755882,-0.16116681694984436,-0.05286240205168724
1782845663423136500,0.479136474609375,0.05593282729387283,-0.1580595076084137,0.05422521010041237
1782845663433141500,0.4891416015625,0.09609276056289673,-0.17366217076778412,0.17124876379966736
1782845663443146500,0.499146484375,0.12957844138145447,-0.21371833980083466,0.25738564133644104
1782845663453151500,0.5091513671875,0.14888262748718262,-0.2603242099285126,0.31137216091156006
1782845663463156500,0.519156494140625,0.15713655948638916,-0.3130481243133545,0.33425164222717285
1782845663473161500,0.529161376953125,0.14725223183631897,-0.3410765528678894,0.33604317903518677
1782845663483165400,0.53916552734375,0.14084097743034363,-0.3157137334346771,0.31554874777793884
1782845663493170400,0.54917041015625,0.13149701058864594,-0.25902649760246277,0.27427029609680176
1782845663503175400,0.559175537109375,0.1146528348326683,-0.15962058305740356,0.23922944068908691
1782845663513180400,0.569180419921875,0.08638284355401993,-0.03673966974020004,0.21143509447574615
1782845663523185400,0.579185302734375,0.0432308092713356,0.05303846672177315,0.19432780146598816
1782845663533190400,0.5891904296875,0.01156662218272686,0.13320094347000122,0.16017062962055206
1782845663543195400,0.5991953125,-0.013283248990774155,0.17924264073371887,0.1231459379196167
1782845663553200400,0.609200439453125,-0.02510715089738369,0.17616215348243713,0.06936899572610855
1782845663563205400,0.619205322265625,-0.010634973645210266,0.1586344987154007,0.0066696335561573505
1782845663573209600,0.629209716796875,0.025890812277793884,0.10314541310071945,-0.04944130405783653
1782845663583214600,0.639214599609375,0.0713856890797615,0.03295373171567917,-0.12444215267896652
1782845663593219600,0.649219482421875,0.11241701245307922,-0.04345102608203888,-0.2040083408355713
1782845663603224600,0.659224609375,0.16365569829940796,-0.11410335451364517,-0.26280641555786133
1782845663613229600,0.6692294921875,0.20210587978363037,-0.18363475799560547,-0.30170002579689026
1782845663623234600,0.679234619140625,0.21376332640647888,-0.23835767805576324,-0.34985846281051636
1782845663633239600,0.689239501953125,0.22406922280788422,-0.2759420871734619,-0.410855233669281
1782845663643244500,0.69924462890625,0.23815931379795074,-0.2716318368911743,-0.4789886176586151
1782845663653249500,0.70924951171875,0.23613131046295166,-0.29144495725631714,-0.5256295800209045
1782845663663253500,0.71925341796875,0.22092308104038239,-0.3267621695995331,-0.5439614653587341
1782845663673258500,0.729258544921875,0.20098373293876648,-0.3410628139972687,-0.5283199548721313
1782845663683263500,0.739263427734375,0.1799965798854828,-0.3342050313949585,-0.4789373576641083
1782845663693268500,0.7492685546875,0.15742096304893494,-0.31268933415412903,-0.4016982316970825
1782845663703273500,0.7592734375,0.13947194814682007,-0.2834959924221039,-0.29506728053092957
1782845663713278500,0.769278564453125,0.12504027783870697,-0.24613502621650696,-0.1777808666229248
1782845663723283500,0.779283447265625,0.11843033879995346,-0.21420058608055115,-0.07133755087852478
1782845663733288400,0.789288330078125,0.1176537573337555,-0.1909290850162506,0.028112607076764107
1782845663743293400,0.79929345703125,0.11299465596675873,-0.17559733986854553,0.10936901718378067
1782845663753298400,0.80929833984375,0.11524209380149841,-0.1764812469482422,0.16394758224487305
1782845663763302700,0.819302734375,0.1054363027215004,-0.18530769646167755,0.20556481182575226
1782845663773307600,0.8293076171875,0.08180687576532364,-0.18841294944286346,0.23750783503055573
1782845663783312600,0.839312744140625,0.04448261857032776,-0.19469691812992096,0.25735190510749817
1782845663793317600,0.849317626953125,0.015607296489179134,-0.19901496171951294,0.24020913243293762
1782845663803322600,0.859322509765625,-0.00660385936498642,-0.17469269037246704,0.2075333446264267
1782845663813327600,0.86932763671875,-0.02544199675321579,-0.13883669674396515,0.17710620164871216
1782845663823332600,0.87933251953125,-0.03352746739983559,-0.10331076383590698,0.14771725237369537
1782845663833337600,0.889337646484375,-0.04126181825995445,-0.06381368637084961,0.12303455173969269
1782845663843342600,0.899342529296875,-0.04475134238600731,-0.03706685081124306,0.09175917506217957
1782845663853346600,0.9093466796875,-0.03914006054401398,-0.008141724392771721,0.04244382306933403
1782845663863351600,0.9193515625,-0.024581220000982285,0.013691546395421028,-0.007907906547188759
1782845663873356500,0.9293564453125,-0.008837143890559673,0.018411999568343163,-0.05237283930182457
1782845663883361500,0.939361572265625,0.007031232118606567,0.020475955680012703,-0.11488808691501617
1782845663893366500,0.949366455078125,0.011206801980733871,0.02708565630018711,-0.1845494508743286
1782845663903371500,0.95937158203125,0.0030468194745481014,0.034663815051317215,-0.2530357837677002
1782845663913376500,0.96937646484375,-0.012849057093262672,0.03185924142599106,-0.2885362505912781
1782845663923381500,0.979381591796875,-0.03785547986626625,0.013057181611657143,-0.27806055545806885
1782845663933386500,0.989386474609375,-0.058765020221471786,-0.003328183200210333,-0.2510577142238617
1782845663943390700,0.999390625,-0.07939842343330383,-0.010093717835843563,-0.22720907628536224
1782845663953395700,1.009395751953125,-0.10871929675340652,-0.01086337212473154,-0.21414120495319366
1782845663963400700,1.019400634765625,-0.13941843807697296,-0.005047643091529608,-0.21574194729328156
1782845663973405700,1.02940576171875,-0.1656031757593155,-0.015614001080393791,-0.22268053889274597
1782845663983410400,1.039410400390625,-0.20087546110153198,-0.03430215269327164,-0.26013678312301636
1782845663993415400,1.04941552734375,-0.18065087497234344,-0.040914781391620636,-0.16170156002044678
1782845664003420400,1.05942041015625,-0.18103918433189392,0.01003892533481121,-0.09795026481151581
1782845664013425400,1.06942529296875,-0.17786788940429688,0.03621646761894226,-0.0204477496445179
1782845664023430400,1.079430419921875,-0.17366288602352142,0.06251055002212524,0.03133060410618782
1782845664033435400,1.089435302734375,-0.14780011773109436,0.09728797525167465,0.058051697909832
1782845664043439400,1.099439453125,-0.10190516710281372,0.09808193892240524,0.06384869664907455
1782845664053444400,1.1094443359375,-0.045649345964193344,0.087396539747715,0.06772679835557938
1782845664063449300,1.119449462890625,0.0058729397132992744,0.06645126640796661,0.060975708067417145
1782845664073454300,1.129454345703125,0.0613337978720665,0.054606325924396515,0.04862689599394798
1782845664083459300,1.139459228515625,0.10632394999265671,0.036349084228277206,0.041621673852205276
1782845664093464300,1.14946435546875,0.14147129654884338,0.018707774579524994,0.042523954063653946
1782845664103469300,1.15946923828125,0.15649670362472534,-0.0060967858880758286,0.03742999956011772
1782845664113474300,1.169474365234375,0.1338164210319519,-0.06090916693210602,0.030718568712472916
1782845664123479300,1.179479248046875,0.10385545343160629,-0.03917312249541283,0.029324010014533997
1782845664133483500,1.1894833984375,0.07742837071418762,0.01846354268491268,0.018618902191519737
1782845664143488500,1.199488525390625,0.0581834502518177,0.05185360088944435,0.006619357503950596
1782845664153493500,1.209493408203125,0.03384455293416977,0.09716036170721054,0.0004658574762288481
1782845664163498500,1.21949853515625,0.016910787671804428,0.14220616221427917,-0.011175029911100864
1782845664173503500,1.22950341796875,0.016230084002017975,0.16087785363197327,-0.029725544154644012
1782845664183508500,1.239508544921875,0.023944756016135216,0.1604057103395462,-0.03929564356803894
1782845664193513500,1.249513427734375,0.03310549631714821,0.15284205973148346,-0.04856211319565773
1782845664203518500,1.2595185546875,0.03959067165851593,0.14146007597446442,-0.05814054608345032
1782845664213523500,1.2695234375,0.05155998468399048,0.12462598085403442,-0.07209977507591248
1782845664223528400,1.279528564453125,0.061296623200178146,0.10873688757419586,-0.07819534838199615
1782845664233532200,1.2895322265625,0.06857558339834213,0.09927760064601898,-0.08083560317754745
1782845664243537400,1.299537353515625,0.07095396518707275,0.10707224160432816,-0.07836835831403732
1782845664253542400,1.30954248046875,0.07362884283065796,0.12592048943042755,-0.08259426802396774
1782845664263547400,1.31954736328125,0.0914851725101471,0.14227968454360962,-0.08704318106174469
1782845664273552400,1.329552490234375,0.10626412183046341,0.15307480096817017,-0.08260928094387054
1782845664283557400,1.339557373046875,0.12338827550411224,0.15772221982479095,-0.07136357575654984
1782845664293562400,1.349562255859375,0.1367408186197281,0.15293705463409424,-0.045659277588129044
1782845664303567400,1.3595673828125,0.15484648942947388,0.15165401995182037,-0.016539113596081734
1782845664313572400,1.369572265625,0.1638445109128952,0.1566607654094696,0.01296631433069706
1782845664323576300,1.379576416015625,0.17312243580818176,0.16329389810562134,0.03126542642712593
1782845664333581300,1.389581298828125,0.181753471493721,0.15017063915729523,0.05155471712350845
1782845664343586300,1.39958642578125,0.19233252108097076,0.15272852778434753,0.06789011508226395
1782845664353591300,1.40959130859375,0.20142561197280884,0.15476344525814056,0.08800496906042099
1782845664363596300,1.41959619140625,0.19143788516521454,0.14297443628311157,0.11332318186759949
1782845664373601300,1.429601318359375,0.16566835343837738,0.12623779475688934,0.14330877363681793
1782845664383606300,1.439606201171875,0.11885295063257217,0.11483941972255707,0.14949871599674225
1782845664393611300,1.449611328125,0.06900310516357422,0.10902521014213562,0.117836132645607
1782845664403616300,1.4596162109375,0.024318931624293327,0.09696964174509048,0.03647155687212944
1782845664413621500,1.46962158203125,-0.020098866894841194,0.07213832437992096,-0.07879005372524261
1782845664423625200,1.479625244140625,-0.0812268927693367,0.0342785120010376,-0.1910196989774704
1782845664433630200,1.489630126953125,-0.1508600264787674,-0.0012784162536263466,-0.2725755572319031
1782845664443635200,1.49963525390625,-0.20281966030597687,-0.006537006236612797,-0.3066680133342743
1782845664453640200,1.50964013671875,-0.19837138056755066,-0.009477135725319386,-0.3012865483760834
1782845664463645200,1.519645263671875,-0.16307677328586578,-0.035611532628536224,-0.25521573424339294
1782845664473650200,1.529650146484375,-0.1118340864777565,-0.06839211285114288,-0.18430611491203308
1782845664483655200,1.5396552734375,-0.05970823019742966,-0.1101418137550354,-0.08802120387554169
1782845664493660200,1.54966015625,-0.0018622407224029303,-0.1487206369638443,0.02712935581803322
1782845664503665200,1.5596650390625,0.06353235244750977,-0.17832551896572113,0.13739873468875885
1782845664513669400,1.56966943359375,0.13193830847740173,-0.19096779823303223,0.22905515134334564
1782845664523674400,1.57967431640625,0.19250249862670898,-0.1864054650068283,0.3087913691997528
1782845664533679400,1.589679443359375,0.23677568137645721,-0.1623547226190567,0.36664825677871704
1782845664543684400,1.599684326171875,0.26002490520477295,-0.13796024024486542,0.4039348065853119
1782845664553689300,1.609689453125,0.27396175265312195,-0.11551805585622787,0.4271999001502991
1782845664563694300,1.6196943359375,0.2621229887008667,-0.09212622791528702,0.4451458752155304
1782845664573699300,1.62969921875,0.2532504200935364,-0.08587099611759186,0.43722614645957947
1782845664583704300,1.639704345703125,0.22776660323143005,-0.0886465460062027,0.4100366234779358
1782845664593709300,1.649709228515625,0.19621746242046356,-0.09651459008455276,0.3587864637374878
1782845664603713300,1.65971337890625,0.1441577672958374,-0.09854784607887268,0.29654380679130554
1782845664613718300,1.66971826171875,0.07906238734722137,-0.07462653517723083,0.22474634647369385
1782845664623723300,1.67972314453125,0.0064764381386339664,-0.0459202416241169,0.14486737549304962
1782845664633728300,1.689728271484375,-0.059915900230407715,-0.012931399047374725,0.05716230347752571
1782845664643733200,1.699733154296875,-0.12122922390699387,0.021471774205565453,-0.015107999555766582
1782845664653738200,1.70973828125,-0.17207004129886627,0.05112234130501747,-0.07909497618675232
1782845664663743200,1.7197431640625,-0.21713128685951233,0.05825859680771828,-0.13013175129890442
1782845664673748200,1.729748291015625,-0.24731209874153137,0.055112872272729874,-0.1627645343542099
1782845664683753200,1.739753173828125,-0.27141088247299194,0.0588751956820488,-0.17193715274333954
1782845664693758200,1.74975830078125,-0.2913145422935486,0.07850322127342224,-0.15874917805194855
1782845664703762200,1.75976220703125,-0.31717002391815186,0.0646110400557518,-0.14328724145889282
1782845664713767200,1.76976708984375,-0.33273085951805115,0.09483072906732559,-0.14972569048404694
1782845664723772200,1.779772216796875,-0.34220242500305176,0.11768258363008499,-0.12008601427078247
1782845664733777400,1.78977734375,-0.33697518706321716,0.1312607079744339,-0.056371212005615234
1782845664743782400,1.799782470703125,-0.3212607204914093,0.12375088036060333,0.017728902399539948
1782845664753787400,1.809787353515625,-0.2891584634780884,0.10031559318304062,0.07007599622011185
1782845664763792400,1.81979248046875,-0.2535659074783325,0.07893972098827362,0.08730380237102509
1782845664773797400,1.82979736328125,-0.21283765137195587,0.08198238164186478,0.0647023543715477
1782845664783802400,1.83980224609375,-0.16383683681488037,0.1000424325466156,0.017951108515262604
1782845664793806300,1.849806396484375,-0.11392014473676682,0.1134791448712349,-0.03636326640844345
1782845664803811300,1.859811279296875,-0.0647401213645935,0.09889732301235199,-0.0807780921459198
1782845664813816300,1.86981640625,-0.01782427541911602,0.09713297337293625,-0.13224101066589355
1782845664823821300,1.8798212890625,0.028640272095799446,0.08768535405397415,-0.1889890879392624
1782845664833826300,1.889826416015625,0.06527231633663177,0.07126377522945404,-0.2378181517124176
1782845664843831300,1.899831298828125,0.07413484156131744,0.05653342977166176,-0.26473212242126465
1782845664853836300,1.909836181640625,0.06471896916627884,0.030591577291488647,-0.25627845525741577
1782845664863841300,1.91984130859375,0.055158503353595734,0.016533037647604942,-0.2181079089641571
1782845664873846300,1.92984619140625,0.04334498941898346,0.02048303745687008,-0.1695808470249176
1782845664883851300,1.939851318359375,0.023372245952486992,0.04293329641222954,-0.1256239414215088
1782845664893855200,1.949855224609375,-0.000980230513960123,0.048385851085186005,-0.09129872918128967
1782845664903860200,1.959860107421875,-0.020027944818139076,0.05744567885994911,-0.05877089127898216
1782845664913865200,1.969865234375,-0.04842815920710564,0.08653059601783752,-0.03178614377975464
1782845664923870200,1.9798701171875,-0.07124754041433334,0.11256735026836395,-0.02996419370174408
1782845664933875200,1.989875244140625,-0.0950908213853836,0.1429164558649063,-0.036853525787591934
1782845664943880200,1.999880126953125,-0.12609869241714478,0.16266097128391266,-0.04917847737669945
1782845664953885400,2.009885498046875,-0.1613333821296692,0.1587812751531601,-0.062399741262197495
1782845664963890400,2.019890380859375,-0.1923178881406784,0.14415806531906128,-0.06142132356762886
1782845664973895400,2.0298955078125,-0.2203149050474167,0.13052986562252045,-0.05246245115995407
1782845664983900400,2.039900390625,-0.2433137148618698,0.12214232981204987,-0.044439397752285004
1782845664993904400,2.049904296875,-0.2523152232170105,0.11259835958480835,-0.033689018338918686
1782845665003909400,2.059909423828125,-0.2481864094734192,0.12156780064105988,-0.02898462489247322
1782845665013914400,2.069914306640625,-0.2370820939540863,0.12336064130067825,-0.025766195729374886
1782845665023919400,2.07991943359375,-0.22457198798656464,0.12419403344392776,-0.024006027728319168
1782845665033924400,2.08992431640625,-0.1999278962612152,0.14222577214241028,-0.03394468128681183
1782845665043929300,2.099929443359375,-0.16324582695960999,0.17036689817905426,-0.051028814166784286
1782845665053934300,2.109934326171875,-0.11851776391267776,0.1849956512451172,-0.06144257262349129
1782845665063939300,2.119939208984375,-0.0827120989561081,0.18425048887729645,-0.06600190699100494
1782845665073944300,2.1299443359375,-0.05571510270237923,0.17631001770496368,-0.0615304559469223
1782845665083948300,2.1399482421875,-0.04223555326461792,0.16742469370365143,-0.06361514329910278
1782845665093953300,2.149953369140625,-0.027000142261385918,0.15035675466060638,-0.07426965236663818
1782845665103958300,2.159958251953125,-0.00807417742908001,0.13513441383838654,-0.09219479560852051
1782845665113963300,2.16996337890625,0.012250535190105438,0.12183539569377899,-0.118739053606987
1782845665123968300,2.17996826171875,0.032756440341472626,0.10562758892774582,-0.14323383569717407
1782845665133973200,2.18997314453125,0.05659892410039902,0.08354519307613373,-0.1648230254650116
1782845665143978200,2.199978271484375,0.07948047667741776,0.06172434240579605,-0.17056474089622498
1782845665153983200,2.209983154296875,0.10676909238100052,0.042433466762304306,-0.15838131308555603
1782845665163988200,2.21998828125,0.12997978925704956,0.015056000091135502,-0.12719854712486267
1782845665173993500,2.229993408203125,0.14324261248111725,-0.009768656454980373,-0.08542606234550476
1782845665183997400,2.23999755859375,0.14557093381881714,-0.021471377462148666,-0.04202285781502724
1782845665194002400,2.25000244140625,0.12516473233699799,-0.02998204156756401,-0.00041948986472561955
1782845665204007400,2.26000732421875,0.09798269718885422,-0.03365909680724144,0.04348292946815491
1782845665214012400,2.270012451171875,0.07030019909143448,-0.031816720962524414,0.08043269068002701
1782845665224017400,2.280017333984375,0.05258183926343918,-0.03890995308756828,0.11788108199834824
1782845665234022400,2.2900224609375,0.040772050619125366,-0.044230684638023376,0.14801901578903198
1782845665244027400,2.30002734375,0.03136952593922615,-0.05250173062086105,0.1703202873468399
1782845665254032400,2.310032470703125,0.020160011947155,-0.07222483307123184,0.1785433292388916
1782845665264037400,2.320037353515625,0.00739001389592886,-0.08622537553310394,0.17320464551448822
1782845665274041300,2.330041259765625,-0.017106806859374046,-0.08714975416660309,0.15878096222877502
1782845665284046300,2.34004638671875,-0.049141157418489456,-0.08864627778530121,0.1367560625076294
1782845665294051300,2.35005126953125,-0.08413109928369522,-0.08351383358240128,0.10635928064584732
1782845665304056300,2.360056396484375,-0.1139778420329094,-0.06403554975986481,0.0712435394525528
1782845665314061300,2.370061279296875,-0.1315523087978363,-0.04447782412171364,0.0321723036468029
1782845665324066300,2.38006640625,-0.14087137579917908,-0.032252442091703415,0.004687275737524033
1782845665334071300,2.3900712890625,-0.13214713335037231,-0.03089715726673603,-0.014125293120741844
1782845665344076300,2.400076171875,-0.11139282584190369,-0.045131999999284744,-0.03526148572564125
1782845665354081300,2.410081298828125,-0.08414735645055771,-0.06414883583784103,-0.03374801203608513
1782845665364086300,2.420086181640625,-0.06574997305870056,-0.09141533821821213,-0.012592392973601818
1782845665374090500,2.430090576171875,-0.056572459638118744,-0.12354212254285812,0.026565928012132645
1782845665384095500,2.440095458984375,-0.04196735844016075,-0.1517677754163742,0.06306609511375427
1782845665394100500,2.4501005859375,-0.04058544337749481,-0.19511525332927704,0.11538203060626984
1782845665404105500,2.46010546875,-0.05223381891846657,-0.240300253033638,0.15329129993915558
1782845665414110500,2.4701103515625,-0.09483613818883896,-0.26089903712272644,0.1681075245141983
1782845665424115500,2.480115478515625,-0.15056529641151428,-0.2486196607351303,0.15180137753486633
1782845665434120400,2.490120361328125,-0.20788398385047913,-0.21539485454559326,0.12254174798727036
1782845665444125400,2.50012548828125,-0.2497243583202362,-0.1873660385608673,0.08574245870113373
1782845665454130400,2.51013037109375,-0.26983150839805603,-0.12747687101364136,0.02806238643825054
1782845665464135400,2.520135498046875,-0.2698127031326294,-0.09034864604473114,-0.060713693499565125
1782845665474139400,2.530139404296875,-0.2604213356971741,-0.04646774008870125,-0.17437101900577545
1782845665484144400,2.540144287109375,-0.2619105577468872,-0.040061306208372116,-0.2749421298503876
1782845665494149400,2.5501494140625,-0.2458796501159668,-0.08420160412788391,-0.3185628354549408
1782845665504154400,2.560154296875,-0.22192814946174622,-0.16095653176307678,-0.3302169442176819
1782845665514159400,2.570159423828125,-0.2071731686592102,-0.2192789614200592,-0.315268337726593
1782845665524164400,2.580164306640625,-0.17644403874874115,-0.27881085872650146,-0.28478604555130005
1782845665534169300,2.59016943359375,-0.13394132256507874,-0.3126292824745178,-0.23413725197315216
1782845665544174300,2.60017431640625,-0.09051940590143204,-0.32845550775527954,-0.14572978019714355
1782845665554179300,2.610179443359375,-0.04888461157679558,-0.3460318148136139,-0.034270886331796646
1782845665564183600,2.62018359375,-0.019171949476003647,-0.36092764139175415,0.10249623656272888
1782845665574188500,2.6301884765625,0.007623179815709591,-0.360637903213501,0.24737140536308289
1782845665584193500,2.640193603515625,0.014895545318722725,-0.33462634682655334,0.39645054936408997
1782845665594198500,2.650198486328125,0.004633054137229919,-0.28699466586112976,0.5228886604309082
1782845665604203500,2.66020361328125,-0.012538434937596321,-0.22728078067302704,0.608698308467865
1782845665614208500,2.67020849609375,-0.028965609148144722,-0.18122248351573944,0.6674282550811768
1782845665624213500,2.680213623046875,-0.05345341935753822,-0.1293504536151886,0.6691817045211792
1782845665634218500,2.690218505859375,-0.08382384479045868,-0.07104133069515228,0.6197909712791443
1782845665644223500,2.700223388671875,-0.09941674768924713,-0.028613906353712082,0.539825439453125
1782845665654228500,2.710228515625,-0.11975743621587753,0.00498639652505517,0.44530344009399414
1782845665664232400,2.720232421875,-0.13729038834571838,0.024500509724020958,0.3566843569278717
1782845665674237400,2.730237548828125,-0.1456199586391449,0.047054290771484375,0.281982421875
1782845665684242400,2.740242431640625,-0.14598451554775238,0.05309959873557091,0.2221377044916153
1782845665694247400,2.750247314453125,-0.14156393706798553,0.04360915720462799,0.1675303876399994
1782845665704252400,2.76025244140625,-0.12240301072597504,0.021188557147979736,0.11393372714519501
1782845665714257400,2.77025732421875,-0.09580361843109131,-0.010075623169541359,0.05522247776389122
1782845665724262400,2.780262451171875,-0.06480780243873596,-0.043751925230026245,-0.003477933583781123
1782845665734267400,2.790267333984375,-0.029805347323417664,-0.060846757143735886,-0.0539696030318737
1782845665744272400,2.8002724609375,-0.00408047204837203,-0.06981001049280167,-0.08416752517223358
1782845665754276400,2.8102763671875,0.020551903173327446,-0.073867067694664,-0.11405564844608307
1782845665764281300,2.82028125,0.0462869256734848,-0.062462419271469116,-0.16050447523593903
1782845665774286600,2.83028662109375,0.07167430967092514,-0.04815991222858429,-0.21122011542320251
1782845665784291600,2.84029150390625,0.09783361852169037,-0.03503651171922684,-0.2561589479446411
1782845665794296600,2.850296630859375,0.1204233467578888,-0.027130117639899254,-0.29056432843208313
1782845665804301600,2.860301513671875,0.14058515429496765,-0.028845177963376045,-0.3139269948005676
1782845665814306600,2.870306640625,0.15445569157600403,-0.03032483346760273,-0.30371350049972534
1782845665824311600,2.8803115234375,0.1557212918996811,-0.03420679271221161,-0.2733530104160309
1782845665834316500,2.890316650390625,0.14431257545948029,-0.0407286062836647,-0.23105747997760773
1782845665844321500,2.900321533203125,0.1221126988530159,-0.05502172186970711,-0.19040429592132568
1782845665854325200,2.9103251953125,0.10688314586877823,-0.0772378146648407,-0.15297730267047882
1782845665864330200,2.920330322265625,0.07835092395544052,-0.10194096714258194,-0.10712067782878876
1782845665874335200,2.930335205078125,0.02953970804810524,-0.12393547594547272,-0.062161996960639954
1782845665884340200,2.94034033203125,-0.021805407479405403,-0.1347314715385437,-0.030589783564209938
1782845665894345200,2.95034521484375,-0.07157216966152191,-0.13078254461288452,-0.0026300533208996058
1782845665904350200,2.96035009765625,-0.11356011778116226,-0.1107776090502739,0.01628267951309681
1782845665914355200,2.970355224609375,-0.14222745597362518,-0.08793408423662186,0.045568399131298065
1782845665924360200,2.980360107421875,-0.16119274497032166,-0.059213608503341675,0.07763750851154327
1782845665934365400,2.990365478515625,-0.1635589599609375,-0.019085096195340157,0.09699123352766037
1782845665944369400,3.000369384765625,-0.16069313883781433,0.004190398380160332,0.10330238938331604
1782845665954374400,3.01037451171875,-0.15205571055412292,0.0031421780586242676,0.09489558637142181
1782845665964379400,3.02037939453125,-0.11944340914487839,0.018227320164442062,0.06930844485759735
1782845665974384400,3.03038427734375,-0.09022480994462967,0.033292822539806366,0.041177742183208466
1782845665984390000,3.040389892578125,-0.04864417016506195,0.03827913478016853,0.018318330869078636
1782845665994395000,3.050394775390625,-0.00970529206097126,0.03519093245267868,0.005766584537923336
1782845666004399900,3.06039990234375,0.027106713503599167,0.04499441012740135,0.003007087856531143
1782845666014404900,3.07040478515625,0.06543918699026108,0.05227229371666908,-0.002361312508583069
1782845666024409900,3.080409912109375,0.10591919720172882,0.05821571871638298,-0.003333057975396514
1782845666034414800,3.090414794921875,0.13440090417861938,0.06635381281375885,-0.01080295816063881
1782845666044418800,3.100418701171875,0.16099444031715393,0.056624479591846466,-0.02554488554596901
1782845666054423800,3.110423828125,0.18190531432628632,0.044277265667915344,-0.05829750746488571
1782845666064428800,3.1204287109375,0.19327738881111145,0.02686537802219391,-0.08620676398277283
1782845666074433800,3.130433837890625,0.19088214635849,0.00981688592582941,-0.10502678900957108
1782845666084438800,3.140438720703125,0.17885573208332062,-0.007831452414393425,-0.11301881819963455
1782845666094443800,3.15044384765625,0.1589779108762741,-0.013870968483388424,-0.09821617603302002
1782845666104448800,3.16044873046875,0.13184967637062073,-0.017694052308797836,-0.07312047481536865
1782845666114453800,3.170453857421875,0.10492005944252014,-0.012691836804151535,-0.06028777360916138
1782845666124458800,3.180458740234375,0.07805877178907394,-0.0031355617102235556,-0.051520802080631256
1782845666134463700,3.190463623046875,0.06198552995920181,-0.003230636240914464,-0.045314304530620575
1782845666144467700,3.2004677734375,0.05161352455615997,-0.00507340719923377,-0.03513964265584946
1782845666154472700,3.21047265625,0.0405195951461792,-0.010592542588710785,-0.014222373254597187
1782845666164478000,3.22047802734375,0.03364007547497749,-0.008830014616250992,-0.00018933659885078669
1782845666174483000,3.23048291015625,0.020312553271651268,-0.005155119113624096,0.01119594369083643
1782845666184488000,3.240488037109375,0.010841232724487782,0.010083249770104885,0.022472890093922615
1782845666194493000,3.250492919921875,0.0013148393481969833,0.027096055448055267,0.03236200287938118
1782845666204498000,3.260497802734375,-0.008515505120158195,0.05011118948459625,0.046383365988731384
1782845666214503000,3.2705029296875,-0.0036808024160563946,0.07104070484638214,0.058539099991321564
1782845666224508000,3.2805078125,0.01634448766708374,0.08652281761169434,0.06307508051395416
1782845666234513000,3.290512939453125,0.039706531912088394,0.09951824694871902,0.05497374013066292
1782845666244516900,3.300516845703125,0.07544753700494766,0.10256248712539673,0.02988324500620365
1782845666254521900,3.31052197265625,0.1073135957121849,0.09868013113737106,0.013560465537011623
1782845666264526800,3.32052685546875,0.14450141787528992,0.09064453095197678,-0.004807860124856234
1782845666274531800,3.33053173828125,0.17698213458061218,0.08389341831207275,-0.019950062036514282
1782845666284536800,3.340536865234375,0.20193830132484436,0.08198663592338562,-0.02476927451789379
1782845666294541800,3.350541748046875,0.20595301687717438,0.07948379963636398,-0.032502830028533936
1782845666304546800,3.360546875,0.19727791845798492,0.07833561301231384,-0.0399976521730423
1782845666314551800,3.3705517578125,0.18902026116847992,0.08019476383924484,-0.04957597702741623
1782845666324556800,3.380556884765625,0.17826266586780548,0.08174017071723938,-0.045001983642578125
1782845666334560800,3.390560791015625,0.1628565490245819,0.0733988881111145,-0.035737112164497375
1782845666344565800,3.400565673828125,0.1435011476278305,0.06465183198451996,-0.03165573626756668
1782845666354570800,3.41057080078125,0.1217108964920044,0.05896038934588432,-0.024459607899188995
1782845666364575700,3.42057568359375,0.10037244111299515,0.06241836026310921,-0.02852451428771019
1782845666374580700,3.430580810546875,0.08429387211799622,0.06209185719490051,-0.024876249954104424
1782845666384586000,3.4405859375,0.07715413719415665,0.059927087277173996,-0.03041023015975952
1782845666394591000,3.450591064453125,0.0724954679608345,0.06390638649463654,-0.026204565539956093
1782845666404596000,3.460595947265625,0.07878483831882477,0.060639433562755585,-0.03152294084429741
1782845666414601000,3.47060107421875,0.08864784985780716,0.04575715959072113,-0.028138330206274986
1782845666424606000,3.48060595703125,0.09609158337116241,0.03987743705511093,-0.01871306635439396
1782845666434610000,3.49060986328125,0.10414338856935501,0.022696854546666145,0.0018420108826830983
1782845666444615000,3.500614990234375,0.11048264801502228,0.016598358750343323,0.03797723725438118
1782845666454620000,3.510619873046875,0.11456101387739182,0.021010417491197586,0.07560424506664276
1782845666464625000,3.520625,0.1018902063369751,0.02920425496995449,0.13228005170822144
1782845666474630000,3.5306298828125,0.09649943560361862,0.041324831545352936,0.18500451743602753
1782845666484635000,3.540634765625,0.10169345885515213,0.055122800171375275,0.23082014918327332
1782845666494639900,3.550639892578125,0.12117475271224976,0.07321924716234207,0.2726381719112396
1782845666504644900,3.560644775390625,0.14132903516292572,0.08452081680297852,0.3115285634994507
1782845666514649900,3.57064990234375,0.1619749367237091,0.09148231893777847,0.3364538848400116
1782845666524654800,3.58065478515625,0.16710588335990906,0.09904619306325912,0.3459104001522064
1782845666534658800,3.590658935546875,0.16510212421417236,0.09206924587488174,0.31910619139671326
1782845666544663800,3.600663818359375,0.15139548480510712,0.07704085856676102,0.2548128366470337
1782845666554668800,3.610668701171875,0.13923870027065277,0.05184922367334366,0.13974325358867645
1782845666564673800,3.620673828125,0.13332661986351013,0.045602407306432724,-0.009137725457549095
1782845666574678800,3.6306787109375,0.1295159012079239,0.04437229409813881,-0.17073993384838104
1782845666584683800,3.640683837890625,0.14082729816436768,0.023690329864621162,-0.3124178647994995
1782845666594688800,3.650688720703125,0.1521020531654358,-0.007785304915159941,-0.4101819694042206
1782845666604694000,3.660694091796875,0.15978185832500458,-0.06717917323112488,-0.46887725591659546
1782845666614699000,3.670698974609375,0.16559819877147675,-0.14100465178489685,-0.49834728240966797
1782845666624704000,3.6807041015625,0.16469846665859222,-0.2129942774772644,-0.4987376034259796
1782845666634708000,3.6907080078125,0.1554543673992157,-0.2675270140171051,-0.47128573060035706
1782845666644713000,3.700712890625,0.14700525999069214,-0.29454296827316284,-0.4309695065021515
1782845666654718000,3.710718017578125,0.13323672115802765,-0.2741263806819916,-0.39126071333885193
1782845666664723000,3.720722900390625,0.11543387919664383,-0.21537159383296967,-0.31868675351142883
1782845666674728000,3.73072802734375,0.08952585607767105,-0.15440064668655396,-0.21210946142673492
1782845666684733000,3.74073291015625,0.055769674479961395,-0.10319659858942032,-0.08323101699352264
1782845666694738000,3.750738037109375,0.024164874106645584,-0.058479197323322296,0.054985977709293365
1782845666704743000,3.760742919921875,0.0107969269156456,-0.025807831436395645,0.17461912333965302
1782845666714748000,3.770747802734375,0.011633425951004028,-0.01551684271544218,0.2718591094017029
1782845666724751600,3.780751708984375,0.017648931592702866,-0.010034944862127304,0.330379456281662
1782845666734756600,3.790756591796875,0.019687049090862274,-0.0059674992226064205,0.34959256649017334
1782845666744761600,3.80076171875,0.022254785522818565,0.002647547982633114,0.34459468722343445
1782845666754766600,3.8107666015625,0.0256657637655735,0.015054150484502316,0.31772926449775696
1782845666764771600,3.820771484375,0.029435984790325165,0.035401321947574615,0.2818290889263153
1782845666774776600,3.830776611328125,0.02807590924203396,0.0430576428771019,0.2445293664932251
1782845666784781600,3.840781494140625,0.02651313692331314,0.07036576420068741,0.20723502337932587
1782845666794786800,3.850786865234375,0.019386516883969307,0.09596886485815048,0.18662214279174805
1782845666804791800,3.860791748046875,0.019929073750972748,0.11880028992891312,0.1829703450202942
1782845666814796800,3.870796875,0.01771651953458786,0.12999674677848816,0.1961873471736908
1782845666824800800,3.88080078125,0.020299406722187996,0.13811689615249634,0.2218044102191925
1782845666834805800,3.8908056640625,0.02135295420885086,0.1300256848335266,0.23450396955013275
1782845666844810800,3.900810791015625,0.019107503816485405,0.1024429127573967,0.2393617033958435
1782845666854815700,3.910815673828125,0.009193086065351963,0.06393333524465561,0.24134176969528198
1782845666864820700,3.92082080078125,-0.007002436555922031,0.008149214088916779,0.24227763712406158
1782845666874825700,3.93082568359375,-0.029311204329133034,-0.029667403548955917,0.23583625257015228
1782845666884830700,3.940830810546875,-0.0540643073618412,-0.03811059892177582,0.20828461647033691
1782845666894835700,3.950835693359375,-0.07513044029474258,-0.039164941757917404,0.15402723848819733
1782845666904840700,3.9608408203125,-0.09417330473661423,-0.02872014045715332,0.11690668761730194
1782845666914844700,3.9708447265625,-0.10440783202648163,-0.005611625500023365,0.10342177003622055
1782845666924849700,3.980849609375,-0.0981888473033905,0.03185965120792389,0.08461376279592514
1782845666934854700,3.990854736328125,-0.08435293287038803,0.07673151791095734,0.06472980231046677
1782845666944859600,4.000859619140625,-0.05331050604581833,0.1267668902873993,0.04173891246318817
1782845666954864600,4.01086474609375,-0.026195796206593513,0.17128828167915344,0.008740214630961418
1782845666964869600,4.02086962890625,0.004982937593013048,0.18496888875961304,-0.02571953274309635
1782845666974874600,4.03087451171875,0.03294825926423073,0.1980207860469818,-0.05831209570169449
1782845666984879600,4.040879638671875,0.059138473123311996,0.20453611016273499,-0.09610970318317413
1782845666994884600,4.050884521484375,0.07425057888031006,0.18805406987667084,-0.10716448724269867
1782845667004889600,4.0608896484375,0.0825769230723381,0.15690287947654724,-0.10922893136739731
1782845667014893600,4.0708935546875,0.08977358788251877,0.1416616141796112,-0.09952996671199799
1782845667024898600,4.080898681640625,0.0827144980430603,0.12053906172513962,-0.10036448389291763
1782845667034903600,4.090903564453125,0.06737921386957169,0.10102235525846481,-0.10632410645484924
1782845667044908500,4.100908447265625,0.041741859167814255,0.08086907863616943,-0.0910017117857933
1782845667054913500,4.11091357421875,0.014892138540744781,0.06833597272634506,-0.07480889558792114
1782845667064918500,4.12091845703125,0.001458439277485013,0.06044306606054306,-0.05272737890481949
1782845667074923500,4.130923583984375,-0.01559591107070446,0.0508173368871212,-0.03505517542362213
1782845667084928500,4.140928466796875,-0.028409935534000397,0.043080274015665054,-0.02342013269662857
1782845667094933500,4.15093359375,-0.04058244824409485,0.02819133922457695,-0.0024477392435073853
1782845667104938500,4.1609384765625,-0.05545518919825554,0.013777805492281914,0.014479635283350945
1782845667114942500,4.1709423828125,-0.07751042395830154,0.009860828518867493,0.030774984508752823
1782845667124947500,4.180947509765625,-0.10915219783782959,0.014812661334872246,0.05588828772306442
1782845667134952400,4.190952392578125,-0.14097245037555695,0.019939780235290527,0.0660754069685936
1782845667144957400,4.20095751953125,-0.1694290041923523,0.03104049153625965,0.06586328893899918
1782845667154962400,4.21096240234375,-0.19913442432880402,0.054045140743255615,0.07406875491142273
1782845667164967400,4.220967529296875,-0.22208033502101898,0.07427120953798294,0.05797671899199486
1782845667174972400,4.230972412109375,-0.24315445125102997,0.0906166285276413,0.02436629869043827
1782845667184977400,4.240977294921875,-0.25824832916259766,0.1007428914308548,-0.010161444544792175
1782845667194982700,4.250982666015625,-0.25870558619499207,0.10838882625102997,-0.04929286614060402
1782845667204986600,4.260986572265625,-0.24786709249019623,0.10612466186285019,-0.08242122083902359
1782845667214991600,4.27099169921875,-0.23129025101661682,0.10651987046003342,-0.1068916767835617
1782845667224996600,4.28099658203125,-0.21712002158164978,0.109945148229599,-0.12252293527126312
1782845667235001600,4.291001708984375,-0.20361246168613434,0.10635201632976532,-0.11357364803552628
1782845667245006600,4.301006591796875,-0.18917176127433777,0.10596395283937454,-0.09239163249731064
1782845667255011600,4.311011474609375,-0.18321694433689117,0.10752802342176437,-0.07290767878293991
1782845667265016600,4.3210166015625,-0.17160825431346893,0.10396638512611389,-0.06201851740479469
1782845667275021600,4.331021484375,-0.1554258167743683,0.0906606987118721,-0.04624754190444946
1782845667285026600,4.341026611328125,-0.1308460682630539,0.05874130502343178,-0.03957002982497215
1782845667295031600,4.351031494140625,-0.11528841406106949,0.029956528916954994,-0.0485835000872612
1782845667305035500,4.361035400390625,-0.09805253148078918,0.007855297066271305,-0.06916271895170212
1782845667315040500,4.37104052734375,-0.07680636644363403,-0.012143444269895554,-0.08339598029851913
1782845667325045500,4.38104541015625,-0.06791173666715622,-0.02938445657491684,-0.09124931693077087
1782845667335050500,4.391050537109375,-0.061184320598840714,-0.05107484012842178,-0.09220166504383087
1782845667345055500,4.401055419921875,-0.07221104204654694,-0.06310920417308807,-0.09076657891273499
1782845667355060500,4.411060546875,-0.0810367614030838,-0.04901282489299774,-0.0793413519859314
1782845667365065500,4.4210654296875,-0.09251286834478378,-0.022974323481321335,-0.06378208845853806
1782845667375070500,4.431070556640625,-0.0989350825548172,-0.011375989764928818,-0.04118356853723526
1782845667385075500,4.441075439453125,-0.0928572416305542,-0.009911981411278248,-0.012347366660833359
1782845667395080400,4.45108056640625,-0.08043279498815536,-0.01338713988661766,0.015788396820425987
1782845667405084700,4.461084716796875,-0.06513924151659012,-0.0283677838742733,0.04064998775720596
1782845667415089700,4.471089599609375,-0.04055054485797882,-0.037170860916376114,0.05444728955626488
1782845667425094700,4.4810947265625,-0.014908183366060257,-0.04569394141435623,0.0701044350862503
1782845667435099600,4.491099609375,0.005631979089230299,-0.05361738055944443,0.07875864207744598
1782845667445104600,4.501104736328125,0.014997923746705055,-0.05411737412214279,0.0802682489156723
1782845667455109600,4.511109619140625,0.020106133073568344,-0.041867900639772415,0.06942359358072281
1782845667465114600,4.521114501953125,0.015374058857560158,-0.0370497852563858,0.054651208221912384
1782845667475119600,4.53111962890625,0.005543000530451536,-0.037534747272729874,0.04232822731137276
1782845667485124600,4.54112451171875,-0.0006488203071057796,-0.04919067397713661,0.039949994534254074
1782845667495128600,4.551128662109375,-0.008244155906140804,-0.06357599794864655,0.03757951408624649
1782845667505133600,4.561133544921875,-0.008773552253842354,-0.08744825422763824,0.026446660980582237
1782845667515138600,4.571138671875,-0.008825483731925488,-0.1020255982875824,0.005484654102474451
1782845667525143600,4.5811435546875,-0.00028155697509646416,-0.10278117656707764,-0.011582450941205025
1782845667535148500,4.5911484375,0.021715620532631874,-0.11414408683776855,-0.015905294567346573
1782845667545153500,4.601153564453125,0.037947919219732285,-0.11891913414001465,-0.013166836462914944
1782845667555158500,4.611158447265625,0.048596303910017014,-0.12617360055446625,0.0031689931638538837
1782845667565163500,4.62116357421875,0.05493292212486267,-0.13351906836032867,0.024553224444389343
1782845667575168500,4.63116845703125,0.06358073651790619,-0.1465403288602829,0.05719638988375664
1782845667585173500,4.641173583984375,0.06441287696361542,-0.15546797215938568,0.1033589169383049
1782845667595177500,4.651177490234375,0.04864829406142235,-0.17062854766845703,0.14586004614830017
1782845667605182500,4.661182373046875,0.020978065207600594,-0.1756669580936432,0.18648068606853485
1782845667615187500,4.6711875,-0.009618725627660751,-0.1736820936203003,0.2049901932477951
1782845667625192400,4.6811923828125,-0.037692759186029434,-0.16051486134529114,0.20612822473049164
1782845667635197400,4.691197509765625,-0.08479209989309311,-0.12291743606328964,0.19111305475234985
1782845667645202400,4.701202392578125,-0.1256968230009079,-0.08170908689498901,0.15752249956130981
1782845667655207700,4.711207763671875,-0.16499628126621246,-0.04202399030327797,0.09667433053255081
1782845667665212700,4.721212646484375,-0.21259917318820953,0.0015788549790158868,0.0015368405729532242
1782845667675217700,4.7312177734375,-0.26873114705085754,0.043755337595939636,-0.12555666267871857
1782845667685222700,4.74122265625,-0.31095483899116516,0.05201331526041031,-0.22581878304481506
1782845667695226400,4.751226318359375,-0.3055528700351715,0.04364992305636406,-0.25718948245048523
1782845667705231400,4.7612314453125,-0.27493342757225037,0.04907316341996193,-0.21208004653453827
1782845667715236400,4.771236328125,-0.24442027509212494,0.05913272127509117,-0.12489694356918335
1782845667725241300,4.781241455078125,-0.20750313997268677,0.05491654574871063,-0.03815126791596413
1782845667735246300,4.791246337890625,-0.16427390277385712,0.0452098585665226,0.03260093554854393
1782845667745251300,4.801251220703125,-0.1280371993780136,0.039127055555582047,0.10956908762454987
1782845667755256300,4.81125634765625,-0.0805828720331192,0.03109709359705448,0.19030547142028809
1782845667765261300,4.82126123046875,-0.032370418310165405,0.0128561332821846,0.28644487261772156
1782845667775266300,4.831266357421875,0.009107515215873718,0.004003253299742937,0.36490878462791443
1782845667785270500,4.8412705078125,0.04803740605711937,0.011345205828547478,0.43667852878570557
1782845667795275500,4.851275634765625,0.08704845607280731,0.020496094599366188,0.49331358075141907
1782845667805280500,4.861280517578125,0.12645293772220612,0.025881709530949593,0.5310414433479309
1782845667815285500,4.871285400390625,0.15450294315814972,0.030303088948130608,0.5400226712226868
1782845667825290500,4.88129052734375,0.17296196520328522,0.03246445581316948,0.5093474388122559
1782845667835295500,4.89129541015625,0.18172748386859894,0.027319228276610374,0.45080503821372986
1782845667845300500,4.901300537109375,0.18129712343215942,0.02970648556947708,0.3620879650115967
1782845667855305500,4.911305419921875,0.16458472609519958,0.019148383289575577,0.23308952152729034
1782845667865310500,4.921310546875,0.15755422413349152,0.012878483161330223,0.10374751687049866
1782845667875315500,4.9313154296875,0.14744752645492554,0.029488086700439453,-0.02626161277294159
1782845667885319400,4.9413193359375,0.13057170808315277,0.06011567637324333,-0.1449289619922638
1782845667895324400,4.951324462890625,0.10292968899011612,0.07375665009021759,-0.24873284995555878
1782845667905329400,4.961329345703125,0.08073927462100983,0.061966247856616974,-0.3218737542629242
1782845667915334400,4.97133447265625,0.06392140686511993,0.044162217527627945,-0.35997453331947327
1782845667925339400,4.98133935546875,0.0464521124958992,0.03104185126721859,-0.3682313859462738
1782845667935344400,4.991344482421875,0.03478853404521942,0.012434076517820358,-0.3804329037666321
1782845667945349400,5.001349365234375,0.022938290610909462,-0.007120409049093723,-0.3847126364707947
1782845667955354400,5.011354248046875,0.025439798831939697,-0.010858421213924885,-0.3721425235271454
1782845667965359400,5.021359375,0.03297562152147293,-0.017800714820623398,-0.34768497943878174
1782845667975364400,5.0313642578125,0.03815200552344322,-0.04044211283326149,-0.3044682741165161
1782845667985368800,5.041368896484375,0.03835608810186386,-0.061686404049396515,-0.2640452980995178
1782845667995373800,5.051373779296875,0.03379276022315025,-0.07155634462833405,-0.2133411169052124
1782845668005378800,5.06137890625,0.03152818977832794,-0.07835689187049866,-0.1769084483385086
1782845668015383800,5.0713837890625,0.03339080512523651,-0.07538747042417526,-0.15969057381153107
1782845668025388800,5.081388916015625,0.03785472735762596,-0.07448145747184753,-0.15758287906646729
1782845668035393800,5.091393798828125,0.03413562476634979,-0.07619547098875046,-0.15516020357608795
1782845668045398800,5.101398681640625,0.024092745035886765,-0.07962607592344284,-0.14865906536579132
1782845668055403800,5.11140380859375,-0.0007106056436896324,-0.08776895701885223,-0.14601613581180573
1782845668065408800,5.12140869140625,-0.02833099290728569,-0.0866997241973877,-0.14847509562969208
1782845668075412700,5.131412841796875,-0.057964786887168884,-0.08262775093317032,-0.16058102250099182
1782845668085417700,5.141417724609375,-0.09176561236381531,-0.07417991757392883,-0.18425627052783966
1782845668095422700,5.151422607421875,-0.11238140612840652,-0.07532641291618347,-0.2014123499393463
1782845668105427700,5.161427734375,-0.142562136054039,-0.07735425233840942,-0.202273428440094
1782845668115432700,5.1714326171875,-0.16647866368293762,-0.0701243057847023,-0.18936535716056824
1782845668125437700,5.181437744140625,-0.18088820576667786,-0.05020543560385704,-0.17452597618103027
1782845668135442700,5.191442626953125,-0.18584862351417542,-0.032187022268772125,-0.14872020483016968
1782845668145447700,5.20144775390625,-0.17205719649791718,-0.008120609447360039,-0.1178959533572197
1782845668155452700,5.21145263671875,-0.15159906446933746,0.009748668409883976,-0.08502189815044403
1782845668165457700,5.221457763671875,-0.12581618130207062,0.023338908329606056,-0.06155999377369881
1782845668175462000,5.2314619140625,-0.09705857932567596,0.029637817293405533,-0.03799661248922348
1782845668185467000,5.241466796875,-0.06733468174934387,0.011587664484977722,-0.0009997989982366562
1782845668195472000,5.251471923828125,-0.03303369879722595,-0.00852825678884983,0.01846258156001568
1782845668205476900,5.261476806640625,0.009068479761481285,-0.019238317385315895,0.021181674674153328
1782845668215481900,5.27148193359375,0.049810584634542465,-0.02932743728160858,0.014324036426842213
1782845668225486800,5.28148681640625,0.08548668026924133,-0.03705303743481636,-0.003707288531586528
1782845668235491800,5.291491943359375,0.1189141497015953,-0.040440045297145844,-0.030242493376135826
1782845668245496800,5.301496826171875,0.14950792491436005,-0.03559059649705887,-0.049763910472393036
1782845668255501800,5.311501708984375,0.17649880051612854,-0.03178946673870087,-0.06792507320642471
1782845668265506800,5.3215068359375,0.18835796415805817,-0.023841161280870438,-0.081192247569561
1782845668275510800,5.3315107421875,0.1939287632703781,-0.00941082276403904,-0.08990691602230072
1782845668285515800,5.341515869140625,0.1842586100101471,-0.0034474998246878386,-0.10397139191627502
1782845668295520800,5.351520751953125,0.16318900883197784,0.0003456403501331806,-0.12559732794761658
1782845668305525800,5.36152587890625,0.14101222157478333,-0.0017597998958081007,-0.14453893899917603
1782845668315530800,5.37153076171875,0.10729528218507767,-0.007264020852744579,-0.16292859613895416
1782845668325535700,5.38153564453125,0.06472020596265793,-0.01584695279598236,-0.18182940781116486
1782845668335540700,5.391540771484375,0.02410353720188141,-0.025219682604074478,-0.20100337266921997
1782845668345545700,5.401545654296875,-0.010155074298381805,-0.03215610980987549,-0.21002885699272156
1782845668355550700,5.41155078125,-0.04530666768550873,-0.03937726840376854,-0.212221160531044
1782845668365555700,5.4215556640625,-0.07452057301998138,-0.04143688455224037,-0.20626384019851685
1782845668375559700,5.4315595703125,-0.10184647142887115,-0.0419577993452549,-0.20556369423866272
1782845668385565000,5.44156494140625,-0.1265164613723755,-0.03917530179023743,-0.19929136335849762
1782845668395570000,5.45156982421875,-0.14329063892364502,-0.03283138573169708,-0.19645828008651733
1782845668405575000,5.461574951171875,-0.14689001441001892,-0.026713674888014793,-0.17911460995674133
1782845668415580000,5.471579833984375,-0.13888110220432281,-0.015942519530653954,-0.16005676984786987
1782845668425585000,5.4815849609375,-0.13389219343662262,0.003441722597926855,-0.13531813025474548
1782845668435590000,5.49158984375,-0.11807168275117874,0.02725331112742424,-0.10704122483730316
1782845668445595000,5.501594970703125,-0.09307251125574112,0.04985131323337555,-0.07199622690677643
1782845668455599900,5.511599853515625,-0.06360463052988052,0.07704005390405655,-0.03920499607920647
1782845668465603800,5.521603759765625,-0.030495833605527878,0.09804717451334,-0.014919210225343704
1782845668475608800,5.53160888671875,-0.003501767059788108,0.10371065139770508,0.002040332183241844
1782845668485613800,5.54161376953125,0.02641821838915348,0.09811089932918549,0.013254734687507153
1782845668495618800,5.551618896484375,0.06819815188646317,0.08862844854593277,0.0056130606681108475
1782845668505623800,5.561623779296875,0.12071523070335388,0.08462703973054886,-0.0232375655323267
1782845668515628800,5.57162890625,0.1633249968290329,0.0723424106836319,-0.054022639989852905
1782845668525633800,5.5816337890625,0.18807487189769745,0.05978555977344513,-0.07320809364318848
1782845668535638800,5.591638671875,0.19808435440063477,0.06363116204738617,-0.09140601009130478
1782845668545643800,5.601643798828125,0.19690857827663422,0.06934177875518799,-0.09438715130090714
1782845668555648800,5.611648681640625,0.19195349514484406,0.07731129229068756,-0.08430388569831848
1782845668565652700,5.62165283203125,0.19331516325473785,0.0844259262084961,-0.06301777809858322
1782845668575657700,5.63165771484375,0.196812704205513,0.09504155069589615,-0.02991175465285778
1782845668585662700,5.641662841796875,0.1869625747203827,0.10143308341503143,0.0101540582254529
1782845668595667700,5.651667724609375,0.17279642820358276,0.10431462526321411,0.04623909294605255
1782845668605673000,5.6616728515625,0.1588231772184372,0.10533735901117325,0.08131681382656097
1782845668615678000,5.671677978515625,0.15556107461452484,0.09884697198867798,0.10714388638734818
1782845668625683000,5.681682861328125,0.16301269829273224,0.09813129901885986,0.1278059333562851
1782845668635688000,5.69168798828125,0.17245067656040192,0.09684286266565323,0.15198183059692383
1782845668645693000,5.70169287109375,0.1808343082666397,0.09276982396841049,0.17267780005931854
1782845668655698000,5.711697998046875,0.19365184009075165,0.10188315808773041,0.19263924658298492
1782845668665702000,5.721701904296875,0.21433454751968384,0.10719615966081619,0.21005386114120483
1782845668675707000,5.731706787109375,0.24780568480491638,0.10013558715581894,0.22616811096668243
1782845668685712000,5.7417119140625,0.28498971462249756,0.08870156109333038,0.23583734035491943
1782845668695716900,5.751716796875,0.32133495807647705,0.07903668284416199,0.2500375807285309
1782845668705721900,5.761721923828125,0.36454343795776367,0.08722032606601715,0.26394325494766235
1782845668715726800,5.771726806640625,0.39104321599006653,0.08713750541210175,0.29843732714653015
1782845668725731800,5.78173193359375,0.3979560136795044,0.078212670981884,0.3372853398323059
1782845668735736800,5.79173681640625,0.3990500569343567,0.0651935413479805,0.3599643111228943
1782845668745741800,5.801741943359375,0.3958777189254761,0.05840030312538147,0.36046916246414185
1782845668755745800,5.811745849609375,0.38260746002197266,0.041348349303007126,0.32313138246536255
1782845668765750800,5.821750732421875,0.3668556213378906,0.029829183593392372,0.23430195450782776
1782845668775755800,5.831755859375,0.3337376117706299,0.03358397260308266,0.11030223965644836
1782845668785760800,5.8417607421875,0.30078989267349243,0.03476358950138092,-0.04002398997545242
1782845668795765800,5.851765869140625,0.2841688394546509,0.02194313332438469,-0.1949930638074875
1782845668805770800,5.861770751953125,0.29164764285087585,0.02482275292277336,-0.3360983729362488
1782845668815775700,5.871775634765625,0.31010308861732483,0.015597297810018063,-0.4377267360687256
1782845668825781000,5.881781005859375,0.3386000394821167,-0.017256660386919975,-0.5018551349639893
1782845668835786000,5.891785888671875,0.3625815510749817,-0.06794407218694687,-0.5077623128890991
1782845668845791000,5.901791015625,0.37223097681999207,-0.13436675071716309,-0.43845438957214355
1782845668855795000,5.911794921875,0.3871031403541565,-0.18048444390296936,-0.3303050100803375
1782845668865800000,5.921800048828125,0.4136502146720886,-0.20710818469524384,-0.21487069129943848
1782845668875805000,5.931804931640625,0.4410317540168762,-0.2089119404554367,-0.09362335503101349
1782845668885810000,5.941809814453125,0.459342896938324,-0.1879073977470398,0.02267313189804554
1782845668895815000,5.95181494140625,0.4671395421028137,-0.18677502870559692,0.12516461312770844
1782845668905820000,5.96181982421875,0.48438239097595215,-0.13065490126609802,0.2032456398010254
1782845668915825000,5.971824951171875,0.49491971731185913,-0.07900234311819077,0.28069087862968445
1782845668925830000,5.981829833984375,0.4820573627948761,-0.07505638152360916,0.3578062653541565
1782845668935835000,5.9918349609375,0.43392711877822876,-0.06055040657520294,0.41668716073036194
1782845668945839900,6.00183984375,0.3684452474117279,-0.057880181819200516,0.46731579303741455
1782845668955843800,6.01184375,0.28524065017700195,-0.06351489573717117,0.49285924434661865
1782845668965848800,6.021848876953125,0.22029267251491547,-0.07697758823633194,0.4740917980670929
1782845668975853800,6.031853759765625,0.1578892022371292,-0.1146642416715622,0.4169107973575592
1782845668985858000,6.041858154296875,0.09517231583595276,-0.14973273873329163,0.31852349638938904
1782845668995863000,6.051863037109375,0.02333461306989193,-0.14660590887069702,0.21089796721935272
1782845669005868000,6.061867919921875,-0.07209116220474243,-0.1060471385717392,0.11206504702568054
1782845669015873000,6.071873046875,-0.16979508101940155,-0.06910695880651474,0.023509616032242775
1782845669025878000,6.0818779296875,-0.2692038416862488,-0.0367656946182251,-0.041943009942770004
1782845669035883000,6.091883056640625,-0.3518814146518707,-0.008978803642094135,-0.08804792165756226
1782845669045887000,6.101886962890625,-0.4254130721092224,0.018656034022569656,-0.1134156733751297
1782845669055892000,6.11189208984375,-0.48705965280532837,0.054263561964035034,-0.11751002073287964
1782845669065897000,6.12189697265625,-0.5367482900619507,0.07785452157258987,-0.08925394713878632
1782845669075902000,6.13190185546875,-0.5704790949821472,0.1074339896440506,-0.045880112797021866
1782845669085907000,6.141906982421875,-0.5791363716125488,0.13804125785827637,0.001750874682329595
1782845669095912000,6.151911865234375,-0.5784900188446045,0.16393303871154785,0.07107482105493546
1782845669105917000,6.1619169921875,-0.5631245374679565,0.1669428050518036,0.143965944647789
1782845669115922000,6.171921875,-0.5407467484474182,0.1684003472328186,0.2275327444076538
1782845669125927000,6.181927001953125,-0.5106547474861145,0.14540168642997742,0.30968019366264343
1782845669135932000,6.191931884765625,-0.4731540083885193,0.11554818600416183,0.37347277998924255
1782845669145936100,6.20193603515625,-0.4336771070957184,0.07713845372200012,0.408092200756073
1782845669155941000,6.211941162109375,-0.3978551924228668,0.047193337231874466,0.4129024147987366
1782845669165946000,6.221946044921875,-0.356894314289093,0.029258910566568375,0.3941997289657593
1782845669175951000,6.231951171875,-0.2967606782913208,0.028375806286931038,0.33801689743995667
1782845669185956000,6.2419560546875,-0.2507638931274414,0.04157258942723274,0.26899704337120056
1782845669195961000,6.251961181640625,-0.20041123032569885,0.0530388280749321,0.17788338661193848
1782845669205966000,6.261966064453125,-0.16217562556266785,0.07683494687080383,0.06122409552335739
1782845669215971000,6.27197119140625,-0.13828228414058685,0.08166219294071198,-0.02981846034526825
1782845669225976000,6.28197607421875,-0.12191037833690643,0.08707758039236069,-0.09427773952484131
1782845669235980000,6.29197998046875,-0.11033068597316742,0.09480687230825424,-0.13580547273159027
1782845669245985000,6.301985107421875,-0.1046898365020752,0.11494092643260956,-0.16882522404193878
1782845669255990000,6.311989990234375,-0.11368785798549652,0.13951045274734497,-0.18786762654781342
1782845669265995000,6.3219951171875,-0.12784595787525177,0.15260587632656097,-0.1722879260778427
1782845669276000000,6.332,-0.14774270355701447,0.15396834909915924,-0.14582888782024384
1782845669286005000,6.3420048828125,-0.17346413433551788,0.14792679250240326,-0.11166923493146896
1782845669296010000,6.352010009765625,-0.19698117673397064,0.1258196383714676,-0.07913445681333542
1782845669306015000,6.362014892578125,-0.21222254633903503,0.09903132915496826,-0.03837093710899353
1782845669316020000,6.37202001953125,-0.2193736732006073,0.07907120138406754,-0.005511256866157055
1782845669326025000,6.38202490234375,-0.22864945232868195,0.06294418126344681,0.011668513529002666
1782845669336029000,6.39202880859375,-0.23046013712882996,0.07174619287252426,0.0029133716598153114
1782845669346034200,6.4020341796875,-0.2317294180393219,0.09747468680143356,-0.02617870457470417
1782845669356039200,6.4120390625,-0.2306061089038849,0.12027055025100708,-0.06294657289981842
1782845669366044200,6.422044189453125,-0.23703841865062714,0.14233911037445068,-0.06701376289129257
1782845669376049200,6.432049072265625,-0.2388933151960373,0.15727359056472778,-0.04631488025188446
1782845669386054100,6.44205419921875,-0.23147718608379364,0.1570945680141449,-0.02165829762816429
1782845669396059100,6.45205908203125,-0.21528729796409607,0.1578378528356552,-0.007137145381420851
1782845669406064000,6.462064208984375,-0.19668324291706085,0.16144299507141113,-0.009154503233730793
1782845669416069000,6.472069091796875,-0.1644962728023529,0.1569337248802185,-0.01633784919977188
1782845669426074000,6.48207421875,-0.13247807323932648,0.15206670761108398,-0.03265112638473511
1782845669436078000,6.492078125,-0.09537278115749359,0.14555367827415466,-0.04982292279601097
1782845669446083000,6.5020830078125,-0.06514985114336014,0.1465616226196289,-0.0817369595170021
1782845669456088000,6.512088134765625,-0.0360468290746212,0.1457403153181076,-0.11973387748003006
1782845669466093000,6.522093017578125,-0.0241774283349514,0.15188615024089813,-0.1595456898212433
1782845669476098000,6.53209814453125,-0.01833738386631012,0.151298388838768,-0.16918127238750458
1782845669486103000,6.54210302734375,-0.01641165092587471,0.14677314460277557,-0.1682654172182083
1782845669496108000,6.55210791015625,-0.009862937964498997,0.13306745886802673,-0.16179099678993225
1782845669506113000,6.562113037109375,0.009035609662532806,0.11647733300924301,-0.16084499657154083
1782845669516118000,6.572117919921875,0.02585240639746189,0.11367356032133102,-0.16748346388339996
1782845669526122000,6.5821220703125,0.047247737646102905,0.08347190916538239,-0.16393457353115082
1782845669536127000,6.592126953125,0.06616603583097458,0.05217684060335159,-0.1483478844165802
1782845669546132000,6.602132080078125,0.08187610656023026,0.015624167397618294,-0.12330040335655212
1782845669556137000,6.612136962890625,0.09267576038837433,-0.02153012342751026,-0.0907730907201767
1782845669566142200,6.62214208984375,0.09683358669281006,-0.04652461037039757,-0.05572305619716644
1782845669576147200,6.632147216796875,0.0941733568906784,-0.05892055854201317,-0.013016605749726295
1782845669586152200,6.642152099609375,0.08744265884160995,-0.0658649206161499,0.023767059668898582
1782845669596157200,6.6521572265625,0.08115919679403305,-0.06237831339240074,0.062233760952949524
1782845669606162200,6.662162109375,0.06819455325603485,-0.054731786251068115,0.08929850906133652
1782845669616167200,6.672167236328125,0.06043623387813568,-0.05704687163233757,0.11409972608089447
1782845669626171100,6.682171142578125,0.05832453817129135,-0.05117688700556755,0.12409330904483795
1782845669636176100,6.692176025390625,0.059969305992126465,-0.05470690503716469,0.12492021918296814
1782845669646181000,6.70218115234375,0.06645616143941879,-0.05804372951388359,0.11664266139268875
1782845669656186000,6.71218603515625,0.06918350607156754,-0.05557524412870407,0.10579373687505722
1782845669666191000,6.722191162109375,0.06834070384502411,-0.06836768239736557,0.09932536631822586
1782845669676196000,6.732196044921875,0.05047009140253067,-0.08119026571512222,0.09756528586149216
1782845669686201000,6.742201171875,0.036026481539011,-0.09527486562728882,0.10313205420970917
1782845669696206000,6.7522060546875,0.012912106700241566,-0.11146528273820877,0.09742862731218338
1782845669706211000,6.762211181640625,-0.02224637009203434,-0.12583841383457184,0.07316132634878159
1782845669716215000,6.772215087890625,-0.06179138273000717,-0.12274409085512161,0.037101056426763535
1782845669726220000,6.782219970703125,-0.09668831527233124,-0.10879163444042206,0.0023944061249494553
1782845669736225000,6.79222509765625,-0.11944156140089035,-0.09182969480752945,-0.02424306422472
1782845669746230000,6.80222998046875,-0.12870058417320251,-0.0794467106461525,-0.022647548466920853
1782845669756235000,6.812235107421875,-0.1267293095588684,-0.06761268526315689,-0.01063163299113512
1782845669766240000,6.822239990234375,-0.10359671711921692,-0.06721071153879166,0.017747698351740837
1782845669776245000,6.832244873046875,-0.07168831676244736,-0.08295265585184097,0.048241160809993744
1782845669786250200,6.842250244140625,-0.03729408234357834,-0.09858226776123047,0.07684320211410522
1782845669796255200,6.852255126953125,0.004392375238239765,-0.11925824731588364,0.10690256953239441
1782845669806260200,6.86226025390625,0.04380260035395622,-0.1390441358089447,0.14464491605758667
1782845669816264000,6.872263916015625,0.07737600803375244,-0.14897745847702026,0.1857484132051468
1782845669826269000,6.88226904296875,0.09977013617753983,-0.1554061770439148,0.23106567561626434
1782845669836274000,6.89227392578125,0.10212144255638123,-0.14768008887767792,0.2747572362422943
1782845669846279000,6.90227880859375,0.08301182836294174,-0.12678910791873932,0.30043044686317444
1782845669856284000,6.912283935546875,0.03678122162818909,-0.10096097737550735,0.30165550112724304
1782845669866289000,6.922288818359375,-0.018485568463802338,-0.08530733734369278,0.2555999755859375
1782845669876294100,6.932294189453125,-0.06749172508716583,-0.08158024400472641,0.1940138190984726
1782845669886299100,6.942299072265625,-0.10827373713254929,-0.053943708539009094,0.06642359495162964
1782845669896304000,6.95230419921875,-0.1524910032749176,-0.04563065245747566,-0.10339739918708801
1782845669906307800,6.962307861328125,-0.20361308753490448,-0.06078789755702019,-0.2902175784111023
1782845669916312800,6.972312744140625,-0.26209399104118347,-0.06386624276638031,-0.443192720413208
1782845669926317800,6.98231787109375,-0.3215644359588623,-0.06424657255411148,-0.5604280829429626
1782845669936322800,6.99232275390625,-0.3684597909450531,-0.09357942640781403,-0.6533069014549255
1782845669946327800,7.002327880859375,-0.39369356632232666,-0.14044837653636932,-0.6657573580741882
1782845669956332800,7.012332763671875,-0.39088791608810425,-0.17280791699886322,-0.5546414852142334
1782845669966337800,7.022337890625,-0.36092570424079895,-0.18123206496238708,-0.36963972449302673
1782845669976343000,7.032343017578125,-0.29912811517715454,-0.1631486713886261,-0.16266442835330963
1782845669986348500,7.0423486328125,-0.21574239432811737,-0.14583073556423187,0.03247041255235672
1782845669996353500,7.052353515625,-0.1162102073431015,-0.14106208086013794,0.20760494470596313
1782845670006357500,7.062357421875,-0.030535107478499413,-0.1496848315000534,0.3562810719013214
1782845670016362500,7.072362548828125,0.035773877054452896,-0.14946138858795166,0.46375295519828796
1782845670026367500,7.082367431640625,0.07906185835599899,-0.1449330449104309,0.5322695374488831
1782845670036372500,7.09237255859375,0.106277234852314,-0.14406244456768036,0.5470268726348877
1782845670046377500,7.10237744140625,0.10362036526203156,-0.12347283214330673,0.5091754794120789
1782845670056382500,7.112382568359375,0.07746386528015137,-0.0829901173710823,0.424429714679718
1782845670066387500,7.122387451171875,0.039179202169179916,-0.05563116446137428,0.3081836700439453
1782845670076392400,7.132392333984375,0.007892917841672897,-0.029002483934164047,0.18883275985717773
1782845670086397400,7.1423974609375,-0.023255905136466026,0.024914495646953583,0.08574043214321136
1782845670096402400,7.15240234375,-0.05583435297012329,0.050979387015104294,0.013364499434828758
1782845670106406400,7.162406494140625,-0.08469511568546295,0.06387370824813843,-0.03264684975147247
1782845670116411400,7.172411376953125,-0.11131767183542252,0.07728751748800278,-0.04712672531604767
1782845670126416400,7.18241650390625,-0.12396520376205444,0.08503174036741257,-0.055549055337905884
1782845670136421400,7.19242138671875,-0.12345094978809357,0.05843421816825867,-0.06635989248752594
1782845670146426400,7.20242626953125,-0.1162848100066185,0.019941234961152077,-0.07473563402891159
1782845670156431400,7.212431396484375,-0.10553682595491409,-0.008244330994784832,-0.07599637657403946
1782845670166436400,7.222436279296875,-0.08408419787883759,-0.04219682142138481,-0.06957236677408218
1782845670176441300,7.23244140625,-0.06584127992391586,-0.07673855870962143,-0.06008565425872803
1782845670186446300,7.2424462890625,-0.031861405819654465,-0.1018175482749939,-0.0464218407869339
1782845670196450600,7.252450439453125,-0.0015149513492360711,-0.12303575128316879,-0.021497048437595367
1782845670206455600,7.26245556640625,0.015133659355342388,-0.1422007977962494,0.004262249451130629
1782845670216460500,7.27246044921875,0.021599017083644867,-0.1500597894191742,0.013544430956244469
1782845670226465500,7.282465576171875,0.022943617776036263,-0.1319212019443512,0.0020683654583990574
1782845670236470500,7.292470458984375,0.02997569367289543,-0.0980047732591629,-0.035624150186777115
1782845670246475500,7.3024755859375,0.043507833033800125,-0.05091165751218796,-0.08336219191551208
1782845670256480500,7.31248046875,0.051580142229795456,-0.0034160471986979246,-0.14439891278743744
1782845670266485500,7.322485595703125,0.04076336324214935,0.02172364667057991,-0.1943509429693222
1782845670276490500,7.332490478515625,0.0200990978628397,0.039625152945518494,-0.239662766456604
1782845670286495500,7.34249560546875,-0.0012830478372052312,0.0405874028801918,-0.3010873794555664
1782845670296499500,7.35249951171875,-0.008676249533891678,0.035082653164863586,-0.35924282670021057
1782845670306504400,7.36250439453125,-0.00875732023268938,0.014117501676082611,-0.3957730233669281
1782845670316509400,7.372509521484375,-0.004635279532521963,-0.016068097203969955,-0.40138402581214905
1782845670326514400,7.382514404296875,0.0026034321635961533,-0.035419199615716934,-0.3728700876235962
1782845670336519400,7.39251953125,0.008559325709939003,-0.05350792407989502,-0.3104245364665985
1782845670346524400,7.4025244140625,0.015255212783813477,-0.06587903201580048,-0.23033279180526733
1782845670356529400,7.412529296875,0.024407964199781418,-0.04675620049238205,-0.1372332125902176
1782845670366534400,7.422534423828125,0.032352425158023834,-0.026703841984272003,-0.03484423831105232
1782845670376539400,7.432539306640625,0.03484247997403145,-0.014271405525505543,0.05255644768476486
1782845670386544400,7.44254443359375,0.03285384550690651,0.011822273954749107,0.11344382166862488
1782845670396548600,7.452548583984375,0.034504737704992294,0.04612938314676285,0.1387140303850174
1782845670406553600,7.4625537109375,0.03793169558048248,0.05756685882806778,0.12457743287086487
1782845670416558600,7.47255859375,0.051532723009586334,0.06209556385874748,0.07784748077392578
1782845670426563600,7.4825634765625,0.07969335466623306,0.05238054320216179,0.006469870451837778
1782845670436568600,7.492568603515625,0.11293919384479523,0.04240221157670021,-0.06547436118125916
1782845670446573600,7.502573486328125,0.14803381264209747,0.03445882350206375,-0.12065374106168747
1782845670456578600,7.51257861328125,0.17779943346977234,0.01988547295331955,-0.15355896949768066
1782845670466583600,7.52258349609375,0.2100304365158081,0.013329937122762203,-0.1642945408821106
1782845670476588500,7.532588623046875,0.22971786558628082,0.006596666760742664,-0.15780708193778992
1782845670486592500,7.542592529296875,0.23519596457481384,0.006178529933094978,-0.15286822617053986
1782845670496597500,7.552597412109375,0.23214025795459747,0.023967115208506584,-0.15577054023742676
1782845670506602500,7.5626025390625,0.22940601408481598,0.03186635673046112,-0.17193062603473663
1782845670516607500,7.572607421875,0.22451326251029968,0.03413483873009682,-0.1941903978586197
1782845670526612500,7.582612548828125,0.21651606261730194,0.028550898656249046,-0.21453909575939178
1782845670536617500,7.592617431640625,0.20541734993457794,0.005361957475543022,-0.21641689538955688
1782845670546622500,7.60262255859375,0.18575645983219147,-0.004150669556111097,-0.20531222224235535
1782845670556627500,7.61262744140625,0.15783561766147614,-0.01832454651594162,-0.18157093226909637
1782845670566632400,7.622632568359375,0.13345284759998322,-0.02689460664987564,-0.15659375488758087
1782845670576637400,7.632637451171875,0.10604385286569595,-0.019332293421030045,-0.11474376916885376
1782845670586641700,7.6426416015625,0.06875286996364594,-0.0020470386371016502,-0.06915277242660522
1782845670596646700,7.652646728515625,0.02649889513850212,0.008700946345925331,-0.013809625059366226
1782845670606651600,7.662651611328125,-0.012795863673090935,0.014545083045959473,0.039731983095407486
1782845670616656600,7.67265673828125,-0.03938087075948715,0.023877063766121864,0.0636221319437027
1782845670626661600,7.68266162109375,-0.05388236790895462,0.043695006519556046,0.06428825110197067
1782845670636666600,7.69266650390625,-0.05401099845767021,0.05377640202641487,0.04601256921887398
1782845670646671600,7.702671630859375,-0.03987983241677284,0.06230844557285309,0.01636742427945137
1782845670656676600,7.712676513671875,-0.016735896468162537,0.06733329594135284,-0.014566789381206036
1782845670666681600,7.722681640625,0.00448391679674387,0.07256270200014114,-0.04003700986504555
1782845670676686600,7.7326865234375,0.03141273558139801,0.08985035121440887,-0.05369263514876366
1782845670686690600,7.742690673828125,0.05987807363271713,0.09940297901630402,-0.06819421797990799
1782845670696695600,7.752695556640625,0.08473575115203857,0.10820100456476212,-0.0650452971458435
1782845670706700500,7.762700439453125,0.11016916483640671,0.11022265255451202,-0.05634284391999245
1782845670716705500,7.77270556640625,0.1233653873205185,0.09326470643281937,-0.03128436207771301
1782845670726710500,7.78271044921875,0.13571254909038544,0.07451474666595459,0.0023769838735461235
1782845670736715500,7.792715576171875,0.13975442945957184,0.06556279957294464,0.035755183547735214
1782845670746720500,7.802720458984375,0.14927300810813904,0.06980369985103607,0.06639734655618668
1782845670756725500,7.8127255859375,0.15245309472084045,0.07767760008573532,0.07787903398275375
1782845670766730500,7.82273046875,0.15634311735630035,0.07871319353580475,0.08818124234676361
1782845670776734500,7.832734375,0.16447587311267853,0.08280433714389801,0.08891867101192474
1782845670786739700,7.84273974609375,0.168360635638237,0.08936093002557755,0.08986063301563263
1782845670796744700,7.85274462890625,0.16760243475437164,0.099366694688797,0.09313205629587173
1782845670806749700,7.862749755859375,0.16736964881420135,0.1086118146777153,0.09852498769760132
1782845670816754700,7.872754638671875,0.15808241069316864,0.09568510204553604,0.10670009255409241
1782845670826759700,7.882759765625,0.15215834975242615,0.08430024981498718,0.1286153644323349
1782845670836764700,7.8927646484375,0.14456194639205933,0.07700824737548828,0.15167780220508575
1782845670846769700,7.902769775390625,0.14303617179393768,0.06887855380773544,0.1756119430065155
1782845670856774700,7.912774658203125,0.1479896605014801,0.07548133283853531,0.18702785670757294
1782845670866779600,7.922779541015625,0.1746092587709427,0.09450851380825043,0.1822270005941391
1782845670876783600,7.93278369140625,0.2184976190328598,0.12016647309064865,0.15598714351654053
1782845670886788600,7.94278857421875,0.26364850997924805,0.13281305134296417,0.12305055558681488
1782845670896793600,7.952793701171875,0.3133779764175415,0.12539002299308777,0.10776561498641968
1782845670906798600,7.962798583984375,0.3614768087863922,0.11657015979290009,0.11267594993114471
1782845670916803600,7.972803466796875,0.39297106862068176,0.10905072093009949,0.1396079659461975
1782845670926808600,7.98280859375,0.40461739897727966,0.10909126698970795,0.15954674780368805
1782845670936813600,7.9928134765625,0.41029447317123413,0.09686842560768127,0.17896758019924164
1782845670946818600,8.002818603515625,0.4098816514015198,0.0873388797044754,0.19664275646209717
1782845670956823600,8.012823486328125,0.40535640716552734,0.08908511698246002,0.22786591947078705
1782845670966828500,8.02282861328125,0.38756662607192993,0.09821368753910065,0.2736250162124634
1782845670976832500,8.03283251953125,0.35981491208076477,0.09616012126207352,0.3314147889614105
1782845670986837200,8.042837158203126,0.3128957152366638,0.07847899198532104,0.3900875747203827
1782845670996842200,8.05284228515625,0.2584577798843384,0.05858810618519783,0.44423577189445496
1782845671006847200,8.06284716796875,0.19729678332805634,0.03523840755224228,0.47464868426322937
1782845671016852200,8.072852294921875,0.151689350605011,0.026916565373539925,0.478039413690567
1782845671026857200,8.082857177734375,0.12717226147651672,0.04649219661951065,0.4392542243003845
1782845671036862200,8.0928623046875,0.12070212513208389,0.0748245045542717,0.370400071144104
1782845671046867200,8.1028671875,0.13524964451789856,0.10878406465053558,0.2504827082157135
1782845671056872200,8.1128720703125,0.1553346812725067,0.1399979144334793,0.10724939405918121
1782845671066876200,8.122876220703125,0.1779048889875412,0.14714941382408142,-0.0351545549929142
1782845671076881200,8.132881103515626,0.1934255212545395,0.13396650552749634,-0.15871590375900269
1782845671086886100,8.14288623046875,0.19023658335208893,0.10699508339166641,-0.25997212529182434
1782845671096891100,8.15289111328125,0.1698777824640274,0.06308887153863907,-0.3183172047138214
1782845671106896100,8.162896240234375,0.1398707777261734,0.0009572252165526152,-0.327900767326355
1782845671116901000,8.172901123046875,0.11336033046245575,-0.04383821040391922,-0.3083856403827667
1782845671126906000,8.182906005859374,0.10847921669483185,-0.06492751091718674,-0.2519252300262451
1782845671136911000,8.1929111328125,0.11306039243936539,-0.08022736757993698,-0.1760491132736206
1782845671146916000,8.202916015625,0.1198226660490036,-0.07688849419355392,-0.08400756865739822
1782845671156921000,8.212921142578125,0.1306995451450348,-0.07775562256574631,0.024010781198740005
1782845671166925300,8.22292529296875,0.14043943583965302,-0.0760367214679718,0.1310236006975174
1782845671176930300,8.232930419921875,0.14451754093170166,-0.07680903375148773,0.20736870169639587
1782845671186935300,8.242935302734375,0.15636207163333893,-0.07843663543462753,0.24556948244571686
1782845671196940300,8.252940185546874,0.17464786767959595,-0.0771348848938942,0.2485535591840744
1782845671206945300,8.2629453125,0.18565410375595093,-0.07240768522024155,0.23879875242710114
1782845671216950300,8.2729501953125,0.17890404164791107,-0.06325146555900574,0.21083876490592957
1782845671226955300,8.282955322265625,0.1732437163591385,-0.05365684628486633,0.1748991757631302
1782845671236960300,8.292960205078124,0.16962555050849915,-0.023906143382191658,0.13019989430904388
1782845671246965200,8.30296533203125,0.157649427652359,0.013410814106464386,0.07545369863510132
1782845671256970200,8.31297021484375,0.1421719342470169,0.03870951384305954,0.017994936555624008
1782845671266974200,8.32297412109375,0.12728194892406464,0.07418004423379898,-0.03604219853878021
1782845671276979200,8.332979248046875,0.10265541821718216,0.043816547840833664,-0.0716574490070343
1782845671286984200,8.342984130859374,0.10271824896335602,0.012622743844985962,-0.10543083399534225
1782845671296989200,8.3529892578125,0.10464450716972351,-0.005898475181311369,-0.13781008124351501
1782845671306994200,8.362994140625,0.10559245944023132,-0.0031944450456649065,-0.1640644371509552
1782845671316999200,8.372999267578125,0.11212146282196045,0.010523498058319092,-0.18025006353855133
1782845671327004200,8.383004150390626,0.12430259585380554,0.026603076606988907,-0.1944086104631424
1782845671337009200,8.393009033203125,0.14527712762355804,0.025977233424782753,-0.20571665465831757
1782845671347014100,8.40301416015625,0.16058723628520966,0.04282078519463539,-0.20776450634002686
1782845671357018000,8.41301806640625,0.16331511735916138,0.044882871210575104,-0.17844469845294952
1782845671367023000,8.423023193359375,0.13782916963100433,0.18301577866077423,-0.011498549021780491
1782845671377028400,8.4330283203125,0.030103765428066254,0.14706763625144958,0.11544554680585861
1782845671387033300,8.443033447265625,-0.009435640648007393,0.03116011433303356,0.1105775460600853
1782845671397038300,8.453038330078124,-0.016083955764770508,-0.10012999922037125,0.06036843731999397
1782845671407043300,8.463043212890625,-0.023290667682886124,-0.24260300397872925,0.0496978797018528
1782845671417048300,8.47304833984375,-0.03993116319179535,-0.36305296421051025,0.04074592888355255
1782845671427053300,8.48305322265625,-0.06427942961454391,-0.4065748453140259,0.009130270220339298
1782845671437058300,8.493058349609376,-0.09336594492197037,-0.3935844898223877,-0.015540987253189087
1782845671447063300,8.503063232421875,-0.11081939190626144,-0.3222372531890869,-0.010418243706226349
1782845671457067300,8.5130673828125,-0.1410350799560547,-0.26086896657943726,0.000797126442193985
