time,seconds_elapsed,z,y,x
1782845663005433600,0.06143359375,-0.1747925877571106,-0.07566200196743011,0.02580576390028
1782845663015438600,0.0714384765625,-0.15568892657756805,-0.06091341748833656,0.04740346968173981
1782845663025443600,0.081443603515625,-0.1385733187198639,-0.038058437407016754,0.08281205594539642
1782845663035448600,0.091448486328125,-0.12686634063720703,-0.0005491438205353916,0.1085754781961441
1782845663045453600,0.10145361328125,-0.11358914524316788,0.03207511082291603,0.11380299925804138
1782845663055457500,0.11145751953125,-0.09275203943252563,0.04965969920158386,0.0949195846915245
1782845663065462500,0.121462646484375,-0.06774789094924927,0.05345363914966583,0.050880223512649536
1782845663075467500,0.131467529296875,-0.04117166996002197,0.05537191405892372,-0.0059899818152189255
1782845663085472500,0.141472412109375,-0.014932343736290932,0.04754887521266937,-0.06159838289022446
1782845663095477500,0.1514775390625,0.003230147995054722,0.02827557921409607,-0.10721513628959656
1782845663105482500,0.161482421875,0.014964834786951542,0.022608106955885887,-0.16032949090003967
1782845663115487500,0.171487548828125,0.026340527459979057,0.01870897226035595,-0.20604397356510162
1782845663125492500,0.181492431640625,0.031078822910785675,0.015060442499816418,-0.22310605645179749
1782845663135497500,0.19149755859375,0.03055977262556553,0.0020743361674249172,-0.20918330550193787
1782845663145502500,0.20150244140625,0.027030019089579582,-0.02738421969115734,-0.17402932047843933
1782845663155506700,0.211506591796875,0.023505326360464096,-0.05537963658571243,-0.13954564929008484
1782845663165511700,0.22151171875,0.019520703703165054,-0.07463322579860687,-0.09204710274934769
1782845663175516700,0.2315166015625,0.014519820921123028,-0.08659987151622772,-0.0438566692173481
1782845663185521700,0.241521728515625,0.005106078926473856,-0.10120038688182831,0.00977246928960085
1782845663195526700,0.251526611328125,-0.011354653164744377,-0.11463683098554611,0.08271592110395432
1782845663205531600,0.26153173828125,-0.022818762809038162,-0.11059734970331192,0.15300686657428741
1782845663215536600,0.27153662109375,-0.030797859653830528,-0.09761950373649597,0.20990289747714996
1782845663225541600,0.281541748046875,-0.030979754403233528,-0.09048089385032654,0.26132747530937195
1782845663235546600,0.291546630859375,-0.02297802083194256,-0.09384234249591827,0.3213042616844177
1782845663245550600,0.301550537109375,-0.008417187258601189,-0.10510911047458649,0.38355350494384766
1782845663255555600,0.3115556640625,-0.003108175238594413,-0.1130376085639,0.4475977420806885
1782845663265560600,0.321560546875,-0.011285677552223206,-0.09741896390914917,0.4896567761898041
1782845663275565600,0.331565673828125,-0.03015444055199623,-0.057383131235837936,0.4958963096141815
1782845663285570600,0.341570556640625,-0.061398379504680634,-0.00010146643762709573,0.46770328283309937
1782845663295575600,0.351575439453125,-0.10170532017946243,0.06605145335197449,0.4140608310699463
1782845663305580500,0.36158056640625,-0.15184785425662994,0.1316230148077011,0.3120785355567932
1782845663315585500,0.37158544921875,-0.20935775339603424,0.17115896940231323,0.1601579785346985
1782845663325590500,0.381590576171875,-0.24541614949703217,0.1997101753950119,-0.02803642861545086
1782845663335594500,0.391594482421875,-0.24042032659053802,0.19542674720287323,-0.2338809370994568
1782845663345599500,0.401599609375,-0.2245369702577591,0.13146881759166718,-0.3911035656929016
1782845663355604500,0.4116044921875,-0.18476931750774384,0.03346048668026924,-0.48723968863487244
1782845663365609500,0.421609375,-0.11891919374465942,-0.09247400611639023,-0.49119502305984497
1782845663375614500,0.431614501953125,-0.04866207763552666,-0.19283683598041534,-0.4044414758682251
1782845663385619500,0.441619384765625,0.0009353021741844714,-0.2302664965391159,-0.294576495885849
1782845663395624400,0.45162451171875,0.03014937974512577,-0.225909024477005,-0.19763317704200745
1782845663405629700,0.461629638671875,0.04893318936228752,-0.1902114897966385,-0.116512231528759
1782845663415634700,0.471634765625,0.04194798320531845,-0.16062749922275543,-0.029035380110144615
1782845663425638400,0.481638427734375,0.06666158139705658,-0.16411863267421722,0.08754103630781174
1782845663435643400,0.491643310546875,0.10697678476572037,-0.18544256687164307,0.19457560777664185
1782845663445648400,0.5016484375,0.13691045343875885,-0.22744274139404297,0.2757146656513214
1782845663455653400,0.5116533203125,0.15519703924655914,-0.2759980261325836,0.31663572788238525
1782845663465658400,0.521658447265625,0.15609505772590637,-0.3247370719909668,0.338548481464386
1782845663475663400,0.531663330078125,0.1502358466386795,-0.3382755219936371,0.32902076840400696
1782845663485668400,0.54166845703125,0.14128735661506653,-0.31093311309814453,0.30285173654556274
1782845663495673300,0.55167333984375,0.1299116611480713,-0.24088478088378906,0.26475921273231506
1782845663505678300,0.56167822265625,0.10917682200670242,-0.13269013166427612,0.22985050082206726
1782845663515683300,0.571683349609375,0.07603298127651215,-0.013324594125151634,0.20383302867412567
1782845663525687600,0.5816875,0.03904593735933304,0.07126352936029434,0.18463508784770966
1782845663535692500,0.591692626953125,0.007396397180855274,0.14775696396827698,0.15134131908416748
1782845663545697500,0.601697509765625,-0.01629961095750332,0.17752844095230103,0.11089056730270386
1782845663555702500,0.61170263671875,-0.021137775853276253,0.17192675173282623,0.05354125425219536
1782845663565707500,0.62170751953125,-0.0010426276130601764,0.14337287843227386,-0.006976683158427477
1782845663575712500,0.63171240234375,0.037143904715776443,0.08496389538049698,-0.0707564577460289
1782845663585717500,0.641717529296875,0.08403205126523972,0.009588711895048618,-0.14330576360225677
1782845663595722500,0.651722412109375,0.12530438601970673,-0.062256716191768646,-0.22397184371948242
1782845663605727500,0.6617275390625,0.17586477100849152,-0.13674160838127136,-0.2755197286605835
1782845663615731500,0.6717314453125,0.21271999180316925,-0.19736473262310028,-0.3137938678264618
1782845663625736400,0.681736328125,0.2187400609254837,-0.2530900537967682,-0.362489253282547
1782845663635741400,0.691741455078125,0.23214055597782135,-0.27559083700180054,-0.4267236292362213
1782845663645746400,0.701746337890625,0.2416459172964096,-0.2759578227996826,-0.49459215998649597
1782845663655751400,0.71175146484375,0.23565086722373962,-0.3004399836063385,-0.5334092974662781
1782845663665756400,0.72175634765625,0.2170678675174713,-0.3365521728992462,-0.5430966019630432
1782845663675761400,0.731761474609375,0.1965266466140747,-0.34371501207351685,-0.5189265012741089
1782845663685766400,0.741766357421875,0.17766161262989044,-0.3327971398830414,-0.46670645475387573
1782845663695771400,0.751771484375,0.15525883436203003,-0.3105464279651642,-0.37424948811531067
1782845663705776400,0.7617763671875,0.14089107513427734,-0.2766624987125397,-0.26680558919906616
1782845663715780600,0.771780517578125,0.12584981322288513,-0.24054549634456635,-0.1504470258951187
1782845663725785600,0.78178564453125,0.11897832155227661,-0.2080962061882019,-0.04561914876103401
1782845663735790600,0.79179052734375,0.11939803510904312,-0.1910248100757599,0.04736591875553131
1782845663745795600,0.801795654296875,0.11546640843153,-0.180742084980011,0.12177250534296036
1782845663755800600,0.811800537109375,0.11439768224954605,-0.1813892275094986,0.17453745007514954
1782845663765805600,0.8218056640625,0.10259988158941269,-0.19099605083465576,0.21209494769573212
1782845663775810600,0.831810546875,0.07391470670700073,-0.191125750541687,0.24566355347633362
1782845663785815600,0.841815673828125,0.042332544922828674,-0.20037171244621277,0.24958692491054535
1782845663795820500,0.851820556640625,0.016022376716136932,-0.2018955796957016,0.23182711005210876
1782845663805824500,0.861824462890625,-0.007130613550543785,-0.16748806834220886,0.1991242915391922
1782845663815829500,0.87182958984375,-0.02365899085998535,-0.13268373906612396,0.16855253279209137
1782845663825834500,0.88183447265625,-0.033186182379722595,-0.097712442278862,0.1399480551481247
1782845663835839500,0.891839599609375,-0.04169951006770134,-0.05992245674133301,0.11440327763557434
1782845663845844500,0.901844482421875,-0.04189392179250717,-0.028530178591609,0.07920534163713455
1782845663855849500,0.911849365234375,-0.03369857370853424,-0.003919906914234161,0.02538924664258957
1782845663865854500,0.9218544921875,-0.019930299371480942,0.01489292923361063,-0.021450696513056755
1782845663875859500,0.931859375,-0.00010439591278554872,0.015367770567536354,-0.06982142478227615
1782845663885864400,0.941864501953125,0.009169530123472214,0.015054583549499512,-0.1300663948059082
1782845663895868400,0.951868408203125,0.009518936276435852,0.024115456268191338,-0.20394806563854218
1782845663905873700,0.961873779296875,0.004156661685556173,0.03099440038204193,-0.2629256248474121
1782845663915878700,0.971878662109375,-0.018020546063780785,0.026396187022328377,-0.2891753613948822
1782845663925883600,0.981883544921875,-0.03939960524439812,0.00777509855106473,-0.27282726764678955
1782845663935888600,0.991888671875,-0.05970460921525955,-0.010480604134500027,-0.2427617758512497
1782845663945893600,1.0018935546875,-0.08783265203237534,-0.015564578585326672,-0.2213401049375534
1782845663955898600,1.011898681640625,-0.11244425177574158,-0.009837983176112175,-0.21751101315021515
1782845663965903600,1.021903564453125,-0.14593137800693512,-0.009309612214565277,-0.2181461751461029
1782845663975908600,1.03190869140625,-0.17465676367282867,-0.022402243688702583,-0.25607597827911377
1782845663985913300,1.041913330078125,-0.1890926957130432,-0.04078338295221329,-0.2274363487958908
1782845663995917300,1.051917236328125,-0.18131546676158905,-0.0359627939760685,-0.14813168346881866
1782845664005922300,1.06192236328125,-0.17972369492053986,0.019757725298404694,-0.07881731539964676
1782845664015927300,1.07192724609375,-0.17415449023246765,0.03767760470509529,-0.007956726476550102
1782845664025932300,1.081932373046875,-0.16662733256816864,0.07120520621538162,0.03997191786766052
1782845664035937300,1.091937255859375,-0.1349615454673767,0.09685304015874863,0.05908835306763649
1782845664045942300,1.1019423828125,-0.08509998023509979,0.09443116188049316,0.061585333198308945
1782845664055947300,1.111947265625,-0.029888922348618507,0.07578077912330627,0.05897596850991249
1782845664065952300,1.1219521484375,0.02485954388976097,0.06187934800982475,0.05450931563973427
1782845664075957200,1.131957275390625,0.07458555698394775,0.0484791174530983,0.042753856629133224
1782845664085961200,1.141961181640625,0.11986861377954483,0.029996514320373535,0.0429123118519783
1782845664095966500,1.151966552734375,0.15155038237571716,0.012414857745170593,0.04339354485273361
1782845664105971500,1.161971435546875,0.15695632994174957,-0.02124563418328762,0.034866638481616974
1782845664115976400,1.1719765625,0.1325913369655609,-0.07124514877796173,0.027712587267160416
1782845664125981400,1.1819814453125,0.0975252240896225,-0.02664945460855961,0.02617248147726059
1782845664135986400,1.191986328125,0.0787840262055397,0.021503960713744164,0.015607988461852074
1782845664145991400,1.201991455078125,0.05290715768933296,0.05866198241710663,0.005273325368762016
1782845664155996400,1.211996337890625,0.028181036934256554,0.10568541288375854,-0.001734783174470067
1782845664166001400,1.22200146484375,0.01787380501627922,0.14636147022247314,-0.01805010624229908
1782845664176005400,1.23200537109375,0.019953468814492226,0.15833531320095062,-0.032713472843170166
1782845664186010400,1.24201025390625,0.024284034967422485,0.15604445338249207,-0.04127660021185875
1782845664196015400,1.252015380859375,0.033299632370471954,0.1467428356409073,-0.05413620546460152
1782845664206020400,1.262020263671875,0.04478797689080238,0.13395726680755615,-0.06513319909572601
1782845664216025300,1.272025390625,0.05531172454357147,0.11842118203639984,-0.07448621839284897
1782845664226030300,1.2820302734375,0.06609033793210983,0.10169227421283722,-0.08115823566913605
1782845664236035300,1.292035400390625,0.06755907088518143,0.09590549021959305,-0.08005888015031815
1782845664246040300,1.302040283203125,0.0726073607802391,0.10893847048282623,-0.08199233561754227
1782845664256045300,1.31204541015625,0.08255666494369507,0.1278676837682724,-0.08198940753936768
1782845664266050300,1.32205029296875,0.09650097042322159,0.14251480996608734,-0.08768004924058914
1782845664276054300,1.33205419921875,0.11101892590522766,0.14998842775821686,-0.07810252159833908
1782845664286059300,1.342059326171875,0.13121181726455688,0.15354454517364502,-0.06487061083316803
1782845664296064300,1.352064208984375,0.14201653003692627,0.15063318610191345,-0.0405397042632103
1782845664306069200,1.3620693359375,0.16000084578990936,0.14674577116966248,-0.00782836228609085
1782845664316074500,1.372074462890625,0.16877463459968567,0.15870362520217896,0.01697259210050106
1782845664326079500,1.38207958984375,0.17673908174037933,0.1563749611377716,0.03590819984674454
1782845664336084500,1.39208447265625,0.18609291315078735,0.14542829990386963,0.058151453733444214
1782845664346089500,1.40208935546875,0.19566456973552704,0.14988963305950165,0.06931036710739136
1782845664356094500,1.412094482421875,0.2034205049276352,0.15089310705661774,0.09071552008390427
1782845664366098400,1.422098388671875,0.19097581505775452,0.13539190590381622,0.12179327756166458
1782845664376103400,1.432103515625,0.15695393085479736,0.11992693692445755,0.14796842634677887
1782845664386108400,1.4421083984375,0.10975313186645508,0.10794750601053238,0.14476729929447174
1782845664396113400,1.452113525390625,0.060149356722831726,0.1006895899772644,0.09908770024776459
1782845664406118400,1.462118408203125,0.016172578558325768,0.0889088362455368,0.00803395826369524
1782845664416123400,1.472123291015625,-0.030589867383241653,0.061233796179294586,-0.10847694426774979
1782845664426128400,1.48212841796875,-0.09314645826816559,0.02232341468334198,-0.2185424566268921
1782845664436133400,1.49213330078125,-0.16610188782215118,-0.006748982705175877,-0.287208616733551
1782845664446138400,1.502138427734375,-0.2026447206735611,-0.009692574851214886,-0.31095096468925476
1782845664456143400,1.512143310546875,-0.19156570732593536,-0.019278889521956444,-0.2943134009838104
1782845664466147300,1.522147216796875,-0.15140949189662933,-0.04542287439107895,-0.23709803819656372
1782845664476152300,1.53215234375,-0.09657048434019089,-0.0825292319059372,-0.16154494881629944
1782845664486157300,1.5421572265625,-0.0447019562125206,-0.12286440283060074,-0.06052672863006592
1782845664496162300,1.552162353515625,0.014672951772809029,-0.16011962294578552,0.054068826138973236
1782845664506167300,1.562167236328125,0.08307784050703049,-0.1868084967136383,0.15783649682998657
1782845664516172300,1.57217236328125,0.15044836699962616,-0.19531969726085663,0.24763642251491547
1782845664526177300,1.58217724609375,0.20558911561965942,-0.18443775177001953,0.32752299308776855
1782845664536182500,1.5921826171875,0.24609552323818207,-0.15725167095661163,0.3781140148639679
1782845664546187500,1.6021875,0.2659933269023895,-0.13602042198181152,0.4122125804424286
1782845664556191200,1.612191162109375,0.2747335731983185,-0.10816455632448196,0.4295572340488434
1782845664566196200,1.6221962890625,0.26150456070899963,-0.09570761770009995,0.4467993378639221
1782845664576201200,1.632201171875,0.24935203790664673,-0.08840949088335037,0.43004512786865234
1782845664586206200,1.642206298828125,0.22523339092731476,-0.09054534882307053,0.3969992995262146
1782845664596211200,1.652211181640625,0.18649370968341827,-0.1022573933005333,0.3433475196361542
1782845664606216200,1.66221630859375,0.13324406743049622,-0.09929969161748886,0.27629363536834717
1782845664616221200,1.67222119140625,0.06481015682220459,-0.07166113704442978,0.20438456535339355
1782845664626226400,1.682226318359375,-0.009321063756942749,-0.042147986590862274,0.1214502677321434
1782845664636231400,1.6922314453125,-0.07516825199127197,-0.006149771623313427,0.03555320203304291
1782845664646236400,1.702236328125,-0.12789352238178253,0.023813720792531967,-0.032646894454956055
1782845664656240000,1.712240234375,-0.18490514159202576,0.047935035079717636,-0.09002922475337982
1782845664666245000,1.7222451171875,-0.22295024991035461,0.05427016317844391,-0.13947826623916626
1782845664676250000,1.73225,-0.24780261516571045,0.055513594299554825,-0.17025987803936005
1782845664686255000,1.742255126953125,-0.2711135149002075,0.060925137251615524,-0.17220744490623474
1782845664696260000,1.752260009765625,-0.3004458546638489,0.07389765977859497,-0.15537893772125244
1782845664706265000,1.76226513671875,-0.3181433379650116,0.06476274877786636,-0.14892396330833435
1782845664716270300,1.772270263671875,-0.3344879746437073,0.09650683403015137,-0.14820091426372528
1782845664726275300,1.782275390625,-0.34252700209617615,0.12069312483072281,-0.10950971394777298
1782845664736280300,1.7922802734375,-0.3329193592071533,0.12912629544734955,-0.03990480676293373
1782845664746284300,1.8022841796875,-0.3112287223339081,0.11560409516096115,0.0343523807823658
1782845664756289300,1.812289306640625,-0.2781546711921692,0.0869775116443634,0.07915899902582169
1782845664766294300,1.822294189453125,-0.24070341885089874,0.07420472055673599,0.08633995056152344
1782845664776299300,1.83229931640625,-0.19849924743175507,0.08580252528190613,0.05663425102829933
1782845664786304300,1.84230419921875,-0.14925633370876312,0.10616904497146606,0.0024535702541470528
1782845664796309200,1.852309326171875,-0.09708526730537415,0.10821036249399185,-0.04908472299575806
1782845664806314200,1.862314208984375,-0.04993400350213051,0.09261249005794525,-0.09514862298965454
1782845664816319200,1.8723193359375,-0.004046939779073,0.09461811929941177,-0.14692872762680054
1782845664826324200,1.88232421875,0.043293677270412445,0.08165837824344635,-0.20433050394058228
1782845664836329200,1.8923291015625,0.07070932537317276,0.06448498368263245,-0.2512325048446655
1782845664846333200,1.902333251953125,0.07204329967498779,0.045644715428352356,-0.2699313461780548
1782845664856338200,1.912338134765625,0.06485223025083542,0.022705845534801483,-0.24824149906635284
1782845664866343200,1.92234326171875,0.05612052604556084,0.01534646563231945,-0.20770099759101868
1782845664876348200,1.93234814453125,0.04091121256351471,0.02293141558766365,-0.1567573845386505
1782845664886353200,1.942353271484375,0.018741995096206665,0.04424389451742172,-0.11598146706819534
1782845664896358100,1.952358154296875,-0.00019867181254085153,0.0495462492108345,-0.08726593106985092
1782845664906363100,1.962363037109375,-0.0254030954092741,0.05544115602970123,-0.04952547326683998
1782845664916368100,1.9723681640625,-0.050822701305150986,0.09404847025871277,-0.029825806617736816
1782845664926373000,1.982373046875,-0.0747983381152153,0.11525681614875793,-0.031854867935180664
1782845664936377300,1.99237744140625,-0.10031116008758545,0.14512044191360474,-0.04134584218263626
1782845664946382300,2.00238232421875,-0.13543984293937683,0.15957234799861908,-0.055265653878450394
1782845664956387300,2.01238720703125,-0.16620895266532898,0.15393604338169098,-0.06055469065904617
1782845664966392300,2.022392333984375,-0.1960800290107727,0.13711898028850555,-0.060319267213344574
1782845664976397300,2.032397216796875,-0.2232392132282257,0.1269717961549759,-0.05264004319906235
1782845664986402300,2.04240234375,-0.24565716087818146,0.1160416528582573,-0.04307582974433899
1782845664996407600,2.052407470703125,-0.2506199777126312,0.11000186949968338,-0.03481843322515488
1782845665006412500,2.06241259765625,-0.2444467544555664,0.11962999403476715,-0.030703317373991013
1782845665016417500,2.07241748046875,-0.2341131567955017,0.11515295505523682,-0.023358318954706192
1782845665026422500,2.082422607421875,-0.2149738222360611,0.12312139570713043,-0.022118352353572845
1782845665036426200,2.09242626953125,-0.18979735672473907,0.14751195907592773,-0.03821742534637451
1782845665046431200,2.10243115234375,-0.1492595225572586,0.16993683576583862,-0.052386775612831116
1782845665056436200,2.112436279296875,-0.10659701377153397,0.18143238127231598,-0.06552921235561371
1782845665066441200,2.122441162109375,-0.07191973179578781,0.17956416308879852,-0.06869091093540192
1782845665076446200,2.1324462890625,-0.04944664612412453,0.1712428480386734,-0.0622979961335659
1782845665086451200,2.142451171875,-0.03478221595287323,0.15855182707309723,-0.0634455531835556
1782845665096456200,2.152456298828125,-0.020540429279208183,0.14481231570243835,-0.08163334429264069
1782845665106461200,2.162461181640625,-0.0012551478575915098,0.12808100879192352,-0.09687381237745285
1782845665116466200,2.172466064453125,0.021102622151374817,0.11643952876329422,-0.12548229098320007
1782845665126470400,2.182470458984375,0.04204625263810158,0.09837077558040619,-0.153451070189476
1782845665136475400,2.192475341796875,0.06611057370901108,0.07778693735599518,-0.16774345934391022
1782845665146480400,2.20248046875,0.0904151201248169,0.05517883226275444,-0.16697300970554352
1782845665156485400,2.2124853515625,0.11742036789655685,0.03347380459308624,-0.15403591096401215
1782845665166490400,2.222490478515625,0.13739193975925446,0.007115167565643787,-0.1191980317234993
1782845665176495400,2.232495361328125,0.14849333465099335,-0.0167976226657629,-0.07578743994235992
1782845665186500400,2.242500244140625,0.14281414449214935,-0.02678048051893711,-0.034149181097745895
1782845665196505300,2.25250537109375,0.12165852636098862,-0.03447142243385315,0.009673666208982468
1782845665206510300,2.26251025390625,0.09279491752386093,-0.03743711858987808,0.05447815731167793
1782845665216515300,2.272515380859375,0.06793830543756485,-0.0386403352022171,0.091295026242733
1782845665226519300,2.282519287109375,0.05174442008137703,-0.044130709022283554,0.12802428007125854
1782845665236524300,2.292524169921875,0.03895432502031326,-0.04840188845992088,0.15523725748062134
1782845665246529300,2.302529296875,0.03195606917142868,-0.06162980943918228,0.17370840907096863
1782845665256534300,2.3125341796875,0.021771341562271118,-0.0790114626288414,0.1768043339252472
1782845665266539300,2.322539306640625,0.005249356850981712,-0.09140634536743164,0.17222529649734497
1782845665276544300,2.332544189453125,-0.021396102383732796,-0.08990432322025299,0.15388889610767365
1782845665286549200,2.34254931640625,-0.05598017945885658,-0.09126759320497513,0.12931111454963684
1782845665296554200,2.35255419921875,-0.0898265615105629,-0.08541077375411987,0.09958650916814804
1782845665306559200,2.362559326171875,-0.11702249199151993,-0.05998504161834717,0.06037386134266853
1782845665316563500,2.3725634765625,-0.13356365263462067,-0.040354348719120026,0.025586320087313652
1782845665326568400,2.382568359375,-0.13633334636688232,-0.03506557643413544,-0.002460494404658675
1782845665336573400,2.392573486328125,-0.12706100940704346,-0.03658810630440712,-0.024458471685647964
1782845665346578400,2.402578369140625,-0.10421402007341385,-0.05167464539408684,-0.035233888775110245
1782845665356583400,2.41258349609375,-0.07597599178552628,-0.07245129346847534,-0.02900928072631359
1782845665366588400,2.42258837890625,-0.062317170202732086,-0.10723404586315155,-0.0035449336282908916
1782845665376593400,2.432593505859375,-0.05061604082584381,-0.1340419501066208,0.03425917029380798
1782845665386598400,2.442598388671875,-0.04173732548952103,-0.16607525944709778,0.07710437476634979
1782845665396603400,2.452603271484375,-0.0381401963531971,-0.21258150041103363,0.1229645386338234
1782845665406608400,2.4626083984375,-0.05584302544593811,-0.2505754828453064,0.1575973480939865
1782845665416612400,2.4726123046875,-0.10445956140756607,-0.26288115978240967,0.16515539586544037
1782845665426617300,2.482617431640625,-0.1662243902683258,-0.24373888969421387,0.14589542150497437
1782845665436622300,2.492622314453125,-0.21654029190540314,-0.21360522508621216,0.10998109728097916
1782845665446627300,2.50262744140625,-0.255456805229187,-0.1787247359752655,0.07270243018865585
1782845665456632300,2.51263232421875,-0.2684338390827179,-0.1175394132733345,0.007345797028392553
1782845665466637300,2.52263720703125,-0.2675968110561371,-0.08418305218219757,-0.0865711122751236
1782845665476642300,2.532642333984375,-0.2604193389415741,-0.046791207045316696,-0.19931283593177795
1782845665486647300,2.542647216796875,-0.2598875164985657,-0.04911667853593826,-0.28881263732910156
1782845665496652300,2.55265234375,-0.23664289712905884,-0.10293170809745789,-0.322888046503067
1782845665506657300,2.5626572265625,-0.21901996433734894,-0.1808062642812729,-0.3275909125804901
1782845665516661500,2.57266162109375,-0.19971896708011627,-0.23384125530719757,-0.3110601305961609
1782845665526666500,2.58266650390625,-0.16336388885974884,-0.2934981882572174,-0.2754424810409546
1782845665536671500,2.59267138671875,-0.12135998159646988,-0.3181508183479309,-0.21679489314556122
1782845665546676500,2.602676513671875,-0.07823754847049713,-0.33369994163513184,-0.12246226519346237
1782845665556681500,2.612681396484375,-0.037811294198036194,-0.3530432879924774,-0.0001131843455368653
1782845665566686500,2.6226865234375,-0.009168997406959534,-0.36461684107780457,0.13454316556453705
1782845665576691500,2.63269140625,0.012346148490905762,-0.36192119121551514,0.28464317321777344
1782845665586696400,2.642696533203125,0.015589878894388676,-0.32775256037712097,0.43290507793426514
1782845665596701400,2.652701416015625,0.003952663857489824,-0.27741163969039917,0.5461613535881042
1782845665606705400,2.662705322265625,-0.014089986681938171,-0.21654002368450165,0.626427948474884
1782845665616710400,2.67271044921875,-0.03357340767979622,-0.1717166304588318,0.6728878617286682
1782845665626715400,2.68271533203125,-0.05871950462460518,-0.11793302744626999,0.6627705097198486
1782845665636720400,2.692720458984375,-0.0886654183268547,-0.06289214640855789,0.5964583158493042
1782845665646725400,2.702725341796875,-0.10341347008943558,-0.02130821719765663,0.516299843788147
1782845665656730400,2.71273046875,-0.12310408800840378,0.004907673224806786,0.42206788063049316
1782845665666735400,2.7227353515625,-0.1356222778558731,0.026506708934903145,0.3373953402042389
1782845665676740400,2.732740234375,-0.14339257776737213,0.047087881714105606,0.2651613652706146
1782845665686745300,2.742745361328125,-0.14187857508659363,0.04623247683048248,0.2103324681520462
1782845665696750300,2.752750244140625,-0.13748089969158173,0.034690335392951965,0.1549893170595169
1782845665706754600,2.762754638671875,-0.11433296650648117,0.014503574930131435,0.1016552522778511
1782845665716759600,2.772759521484375,-0.08439557254314423,-0.01866183429956436,0.039688024669885635
1782845665726764500,2.7827646484375,-0.053156960755586624,-0.05329171568155289,-0.018161959946155548
1782845665736769500,2.79276953125,-0.021325794979929924,-0.06732870638370514,-0.06338775902986526
1782845665746774500,2.8027744140625,0.005047755315899849,-0.07315810024738312,-0.09040499478578568
1782845665756779500,2.812779541015625,0.03271693363785744,-0.0750577300786972,-0.1255589872598648
1782845665766784500,2.822784423828125,0.05362780764698982,-0.06139704957604408,-0.17435476183891296
1782845665776789500,2.83278955078125,0.07869028300046921,-0.04803197458386421,-0.22500382363796234
1782845665786794500,2.84279443359375,0.10491123795509338,-0.03525253012776375,-0.27055051922798157
1782845665796799500,2.852799560546875,0.12893907725811005,-0.030281472951173782,-0.3022533357143402
1782845665806803500,2.862803466796875,0.1460445523262024,-0.03247138857841492,-0.31706875562667847
1782845665816808400,2.872808349609375,0.1574428826570511,-0.035116709768772125,-0.2991875112056732
1782845665826813400,2.8828134765625,0.15597282350063324,-0.03909840062260628,-0.26412272453308105
1782845665836818400,2.892818359375,0.14154541492462158,-0.04734567925333977,-0.22048257291316986
1782845665846823400,2.902823486328125,0.12503035366535187,-0.06254087388515472,-0.17997749149799347
1782845665856828400,2.912828369140625,0.10611045360565186,-0.08707045018672943,-0.14111770689487457
1782845665866833400,2.92283349609375,0.07139988243579865,-0.11189351230859756,-0.09693480283021927
1782845665876838400,2.93283837890625,0.01824212074279785,-0.13199079036712646,-0.05270608887076378
1782845665886843400,2.942843505859375,-0.032893501222133636,-0.1365559846162796,-0.025225462391972542
1782845665896847400,2.952847412109375,-0.08065223693847656,-0.12931671738624573,0.0024884575977921486
1782845665906852600,2.9628525390625,-0.12011522054672241,-0.11179257929325104,0.023912789300084114
1782845665916857600,2.972857666015625,-0.14757268130779266,-0.08497560769319534,0.054497864097356796
1782845665926862600,2.982862548828125,-0.16063176095485687,-0.05182911083102226,0.08179393410682678
1782845665936867600,2.99286767578125,-0.16144002974033356,-0.012516590766608715,0.10174527019262314
1782845665946872600,3.00287255859375,-0.15687189996242523,0.003049319377169013,0.10175032913684845
1782845665956877600,3.012877685546875,-0.14153581857681274,0.001820536912418902,0.09140235185623169
1782845665966882600,3.022882568359375,-0.11369620263576508,0.01757100410759449,0.061887070536613464
1782845665976887600,3.032887451171875,-0.07696535438299179,0.033814687281847,0.03479126840829849
1782845665986892800,3.042892822265625,-0.03464799001812935,0.03141624480485916,0.013014867901802063
1782845665996896800,3.052896728515625,0.006305033806711435,0.0375971756875515,0.005653092171996832
1782845666006901800,3.06290185546875,0.03808027505874634,0.045878540724515915,-0.002118544653058052
1782845666016906800,3.07290673828125,0.07834859937429428,0.052013132721185684,-0.007449127733707428
1782845666026911700,3.082911865234375,0.11609624326229095,0.05884573981165886,-0.0025867284275591373
1782845666036916700,3.092916748046875,0.1456674486398697,0.060082778334617615,-0.015045261941850185
1782845666046921700,3.102921630859375,0.16792455315589905,0.052196890115737915,-0.03484027087688446
1782845666056926700,3.1129267578125,0.1865624189376831,0.03803526610136032,-0.06760913878679276
1782845666066931700,3.122931640625,0.19598788022994995,0.018128138035535812,-0.08887314796447754
1782845666076936700,3.132936767578125,0.19051721692085266,0.0023182816803455353,-0.11072438210248947
1782845666086941700,3.142941650390625,0.17684055864810944,-0.014338458888232708,-0.11108151078224182
1782845666096945700,3.152945556640625,0.15482260286808014,-0.017896708101034164,-0.09158610552549362
1782845666106950700,3.16295068359375,0.12760908901691437,-0.020903417840600014,-0.0698200911283493
1782845666116955600,3.17295556640625,0.09861818701028824,-0.0110470587387681,-0.05860818549990654
1782845666126960600,3.182960693359375,0.07580794394016266,-0.003624029690399766,-0.05212844908237457
1782845666136965600,3.192965576171875,0.06161036714911461,-0.006147907115519047,-0.045045237988233566
1782845666146970600,3.202970703125,0.048419464379549026,-0.00944782979786396,-0.030584806576371193
1782845666156975900,3.212975830078125,0.040104541927576065,-0.013064669445157051,-0.011268899776041508
1782845666166980900,3.22298095703125,0.03068414330482483,-0.011976235546171665,0.001913214917294681
1782845666176985900,3.23298583984375,0.02112339437007904,-0.0031260184478014708,0.01531983446329832
1782845666186989800,3.24298974609375,0.009765811264514923,0.009250489994883537,0.025010811164975166
1782845666196994800,3.252994873046875,-0.00304612354375422,0.030952855944633484,0.03567570447921753
1782845666206999800,3.262999755859375,-0.00848696194589138,0.05299663916230202,0.04953666031360626
1782845666217004800,3.2730048828125,0.0007363640470430255,0.07231387495994568,0.058764245361089706
1782845666227009800,3.283009765625,0.02466939389705658,0.0870283767580986,0.06172221899032593
1782845666237014800,3.293014892578125,0.050818171352148056,0.09850899875164032,0.04801785945892334
1782845666247019800,3.303019775390625,0.08394762873649597,0.10125977545976639,0.027719246223568916
1782845666257024800,3.313024658203125,0.11528903990983963,0.09449321776628494,0.007699198555201292
1782845666267029800,3.32302978515625,0.15250378847122192,0.08413778245449066,-0.012166384607553482
1782845666277034800,3.33303466796875,0.18309925496578217,0.07837043702602386,-0.019758790731430054
1782845666287038700,3.343038818359375,0.20517605543136597,0.07867137342691422,-0.029085181653499603
1782845666297043700,3.353043701171875,0.20898863673210144,0.07466758042573929,-0.035895947366952896
1782845666307048700,3.363048583984375,0.19735302031040192,0.07575681060552597,-0.04266197606921196
1782845666317053700,3.3730537109375,0.19003145396709442,0.08190605044364929,-0.04788336902856827
1782845666327058700,3.38305859375,0.1793236881494522,0.07412455976009369,-0.043472375720739365
1782845666337063700,3.393063720703125,0.15996569395065308,0.0652003064751625,-0.03640807420015335
1782845666347068700,3.403068603515625,0.14134381711483002,0.059596750885248184,-0.03226339817047119
1782845666357073700,3.41307373046875,0.11683580279350281,0.056059274822473526,-0.027087276801466942
1782845666367078700,3.42307861328125,0.09711829572916031,0.05724118649959564,-0.027580760419368744
1782845666377084000,3.433083984375,0.083077572286129,0.06131768599152565,-0.027127757668495178
1782845666387088000,3.443087890625,0.07669131457805634,0.056657686829566956,-0.028931783512234688
1782845666397092900,3.4530927734375,0.07705270498991013,0.061048440635204315,-0.026044117286801338
1782845666407097900,3.463097900390625,0.08210206031799316,0.05420278385281563,-0.0331030935049057
1782845666417102800,3.473102783203125,0.09172539412975311,0.04121534526348114,-0.02876853197813034
1782845666427107800,3.48310791015625,0.09960275888442993,0.029801571741700172,-0.014364291913807392
1782845666437112800,3.49311279296875,0.11051639169454575,0.015290805138647556,0.009900568053126335
1782845666447117800,3.503117919921875,0.11579664051532745,0.016078036278486252,0.04386173188686371
1782845666457122800,3.513122802734375,0.11176328361034393,0.016450079157948494,0.08862334489822388
1782845666467127800,3.5231279296875,0.10129572451114655,0.0268369410187006,0.14393825829029083
1782845666477131800,3.5331318359375,0.09826318919658661,0.043046269565820694,0.19759562611579895
1782845666487136800,3.54313671875,0.10674775391817093,0.056891512125730515,0.24150477349758148
1782845666497141800,3.553141845703125,0.1291332244873047,0.07128190249204636,0.28373023867607117
1782845666507146800,3.563146728515625,0.15027552843093872,0.08157235383987427,0.3192184567451477
1782845666517151700,3.57315185546875,0.16461718082427979,0.09072723984718323,0.3398055136203766
1782845666527156700,3.58315673828125,0.16738367080688477,0.09340744465589523,0.345530241727829
1782845666537161700,3.59316162109375,0.16198676824569702,0.0852120965719223,0.3033047616481781
1782845666547166700,3.603166748046875,0.1511136144399643,0.06777558475732803,0.22946861386299133
1782845666557171700,3.613171630859375,0.1431153416633606,0.04572141543030739,0.10405529290437698
1782845666567176700,3.6231767578125,0.13210371136665344,0.0417674221098423,-0.048174452036619186
1782845666577181000,3.633180908203125,0.13519324362277985,0.038425154983997345,-0.21235807240009308
1782845666587186000,3.64318603515625,0.14344185590744019,0.012139220722019672,-0.344036728143692
1782845666597191000,3.65319091796875,0.15887939929962158,-0.023208649829030037,-0.427453875541687
1782845666607196000,3.66319580078125,0.16330450773239136,-0.08806833624839783,-0.4797138571739197
1782845666617201000,3.673200927734375,0.16781429946422577,-0.16373033821582794,-0.5011160969734192
1782845666627206000,3.683205810546875,0.16447976231575012,-0.2294672727584839,-0.4950198531150818
1782845666637211000,3.6932109375,0.15672516822814941,-0.2808833420276642,-0.4604980945587158
1782845666647215900,3.7032158203125,0.1476304680109024,-0.3010684847831726,-0.42153286933898926
1782845666657220900,3.713220947265625,0.13042378425598145,-0.26380234956741333,-0.377924382686615
1782845666667225900,3.723225830078125,0.11037471145391464,-0.20341037213802338,-0.2981643080711365
1782845666677229800,3.733229736328125,0.0848187506198883,-0.14624269306659698,-0.18094635009765625
1782845666687234800,3.74323486328125,0.04956435784697533,-0.09398028999567032,-0.04386812075972557
1782845666697239800,3.75323974609375,0.02382250875234604,-0.05094600468873978,0.08529119193553925
1782845666707244800,3.763244873046875,0.011968778446316719,-0.022975889965891838,0.1982659548521042
1782845666717249800,3.773249755859375,0.01600879430770874,-0.015036207623779774,0.2881005108356476
1782845666727254800,3.7832548828125,0.020594757050275803,-0.012455604039132595,0.3358429968357086
1782845666737259800,3.793259765625,0.022096779197454453,-0.005562810692936182,0.3488607704639435
1782845666747264800,3.8032646484375,0.024449417367577553,0.0011835087789222598,0.3396390676498413
1782845666757269800,3.813269775390625,0.03051130287349224,0.016288692131638527,0.3103903532028198
1782845666767274800,3.823274658203125,0.032039158046245575,0.03357793390750885,0.27149301767349243
1782845666777279000,3.833279052734375,0.028834844008088112,0.04603113979101181,0.23674675822257996
1782845666787284000,3.843283935546875,0.024533038958907127,0.07436850666999817,0.19952882826328278
1782845666797289000,3.8532890625,0.022462697699666023,0.10289442539215088,0.18334506452083588
1782845666807294000,3.8632939453125,0.022104769945144653,0.11978525668382645,0.18214529752731323
1782845666817299000,3.873298828125,0.020446686074137688,0.13132153451442719,0.20121513307094574
1782845666827304000,3.883303955078125,0.023207318037748337,0.13423743844032288,0.22381338477134705
1782845666837309000,3.893308837890625,0.024529311805963516,0.12122922390699387,0.23390251398086548
1782845666847314000,3.90331396484375,0.018325211480259895,0.08986171334981918,0.24063950777053833
1782845666857319000,3.91331884765625,0.009764746762812138,0.04732011258602142,0.23930738866329193
1782845666867323000,3.923322998046875,-0.01184840314090252,-0.005313272587954998,0.23851829767227173
1782845666877328000,3.933327880859375,-0.035178493708372116,-0.03900865092873573,0.22925715148448944
1782845666887332900,3.943332763671875,-0.06278961151838303,-0.04386679083108902,0.1962488740682602
1782845666897337900,3.953337890625,-0.07918030768632889,-0.04146594926714897,0.14149028062820435
1782845666907342800,3.9633427734375,-0.0963696762919426,-0.02985510043799877,0.11061573028564453
1782845666917347800,3.973347900390625,-0.09848050028085709,-0.0032533176708966494,0.09887465089559555
1782845666927352800,3.983352783203125,-0.09432543814182281,0.038669098168611526,0.07851798087358475
1782845666937357800,3.99335791015625,-0.07537944614887238,0.08597695827484131,0.05759219080209732
1782845666947362800,4.00336279296875,-0.04687642678618431,0.13853737711906433,0.03003113530576229
1782845666957367800,4.013367919921875,-0.015061507001519203,0.17237123847007751,0.001333178486675024
1782845666967371800,4.023371826171875,0.013935256749391556,0.18566280603408813,-0.03562430664896965
1782845666977376800,4.033376708984375,0.04228593781590462,0.19970166683197021,-0.07176819443702698
1782845666987381500,4.043381591796875,0.06700672954320908,0.2014518827199936,-0.10134340077638626
1782845666997386500,4.053386474609375,0.07882024347782135,0.1769406944513321,-0.10680394619703293
1782845667007391500,4.0633916015625,0.08695486932992935,0.14773114025592804,-0.10673150420188904
1782845667017396500,4.073396484375,0.08999940007925034,0.1334531307220459,-0.10132875293493271
1782845667027401500,4.0834013671875,0.08632263541221619,0.11098191142082214,-0.10337059944868088
1782845667037406500,4.093406494140625,0.0627954751253128,0.09252593666315079,-0.10666705667972565
1782845667047411500,4.103411376953125,0.03621446341276169,0.07364971935749054,-0.08875729888677597
1782845667057416400,4.11341650390625,0.015631424263119698,0.06579765677452087,-0.06709301471710205
1782845667067420400,4.12342041015625,-0.0008436894277110696,0.057014018297195435,-0.0482756532728672
1782845667077425400,4.13342529296875,-0.016565393656492233,0.04699893295764923,-0.03446929529309273
1782845667087430400,4.143430419921875,-0.02731391228735447,0.040405746549367905,-0.020207000896334648
1782845667097435400,4.153435302734375,-0.043892089277505875,0.022066419944167137,-0.0003587277897167951
1782845667107440400,4.1634404296875,-0.05588483810424805,0.007405984681099653,0.01997770369052887
1782845667117445400,4.1734453125,-0.08049830794334412,0.005126318894326687,0.0347188301384449
1782845667127450400,4.183450439453125,-0.11480860412120819,0.011709919199347496,0.06103858724236488
1782845667137455400,4.193455322265625,-0.14643098413944244,0.018977154046297073,0.0668267011642456
1782845667147460400,4.20346044921875,-0.17070862650871277,0.03328445181250572,0.06554944813251495
1782845667157464600,4.213464599609375,-0.20257121324539185,0.056719470769166946,0.07185075432062149
1782845667167469600,4.223469482421875,-0.22591088712215424,0.07660423219203949,0.04927673563361168
1782845667177474600,4.233474609375,-0.2467261552810669,0.08769629895687103,0.01769883558154106
1782845667187479600,4.2434794921875,-0.2573186159133911,0.1008395254611969,-0.023624636232852936
1782845667197484500,4.253484619140625,-0.25475212931632996,0.10432747006416321,-0.05366535857319832
1782845667207489500,4.263489501953125,-0.24264833331108093,0.10343105345964432,-0.09141992777585983
1782845667217494500,4.27349462890625,-0.2244967520236969,0.10320787876844406,-0.11398915201425552
1782845667227499500,4.28349951171875,-0.20906266570091248,0.10441216081380844,-0.12245720624923706
1782845667237504500,4.29350439453125,-0.19698816537857056,0.1043357253074646,-0.10995552688837051
1782845667247509500,4.303509521484375,-0.18532884120941162,0.1002536341547966,-0.08897195011377335
1782845667257513500,4.313513427734375,-0.17489564418792725,0.10387793183326721,-0.07533097267150879
1782845667267518500,4.3235185546875,-0.16500306129455566,0.10094525665044785,-0.05848275125026703
1782845667277523500,4.3335234375,-0.14708025753498077,0.08061734586954117,-0.04532673582434654
1782845667287528400,4.343528564453125,-0.12922456860542297,0.04653234779834747,-0.03953222930431366
1782845667297533400,4.353533447265625,-0.10895657539367676,0.017553426325321198,-0.052874401211738586
1782845667307538400,4.363538330078125,-0.0883980393409729,-0.00009853696246864274,-0.07586919516324997
1782845667317543400,4.37354345703125,-0.06922993808984756,-0.019296465441584587,-0.08599214255809784
1782845667327548400,4.38354833984375,-0.059906475245952606,-0.04067472368478775,-0.08975065499544144
1782845667337553400,4.393553466796875,-0.05748273432254791,-0.060149356722831726,-0.09201540797948837
1782845667347558400,4.403558349609375,-0.07262866199016571,-0.06477074325084686,-0.08779430389404297
1782845667357562600,4.413562744140625,-0.08322910964488983,-0.04604632034897804,-0.07641248404979706
1782845667367567600,4.423567626953125,-0.09060925990343094,-0.024387631565332413,-0.06057599559426308
1782845667377572600,4.433572509765625,-0.09418215602636337,-0.012615127488970757,-0.03941851109266281
1782845667387577600,4.44357763671875,-0.08803345263004303,-0.011907259002327919,-0.0036218990571796894
1782845667397582600,4.45358251953125,-0.07514854520559311,-0.020241089165210724,0.02340199612081051
1782845667407587600,4.463587646484375,-0.05630534887313843,-0.03423919528722763,0.04393044114112854
1782845667417592600,4.473592529296875,-0.028720594942569733,-0.04238021373748779,0.058758389204740524
1782845667427597600,4.48359765625,-0.007848868146538734,-0.056122392416000366,0.07279165089130402
1782845667437602600,4.4936025390625,0.011461446061730385,-0.05765477567911148,0.0803757980465889
1782845667447606500,4.5036064453125,0.017673535272479057,-0.05249037221074104,0.07769745588302612
1782845667457611500,4.513611572265625,0.019049057736992836,-0.04778376594185829,0.06664694100618362
1782845667467616500,4.523616455078125,0.016170714050531387,-0.038661908358335495,0.04944451525807381
1782845667477621500,4.53362158203125,0.0043444144539535046,-0.045275334268808365,0.040530115365982056
1782845667487626500,4.54362646484375,0.0002825613773893565,-0.05179448798298836,0.04115302860736847
1782845667497631500,4.553631591796875,-0.004789162427186966,-0.07288965582847595,0.03352520242333412
1782845667507636500,4.563636474609375,-0.007291468791663647,-0.09677208214998245,0.021314343437552452
1782845667517641500,4.573641357421875,-0.006607835181057453,-0.1055823490023613,0.0014642059104517102
1782845667527646500,4.583646484375,0.008045409806072712,-0.10856243222951889,-0.017233315855264664
1782845667537651500,4.5936513671875,0.029092371463775635,-0.11848430335521698,-0.014792261645197868
1782845667547655700,4.60365576171875,0.04361618682742119,-0.12524500489234924,-0.00863503385335207
1782845667557660700,4.61366064453125,0.0521518848836422,-0.12929433584213257,0.006987069267779589
1782845667567665700,4.623665771484375,0.0566323846578598,-0.13941168785095215,0.03146205097436905
1782845667577670700,4.633670654296875,0.06721258908510208,-0.15330886840820312,0.06738676130771637
1782845667587675600,4.643675537109375,0.06455954909324646,-0.16581933200359344,0.11188072711229324
1782845667597680600,4.6536806640625,0.0453680157661438,-0.1776815801858902,0.1558828055858612
1782845667607685600,4.663685546875,0.015393603593111038,-0.18031464517116547,0.18992173671722412
1782845667617690600,4.673690673828125,-0.012146411463618279,-0.1733558028936386,0.20419281721115112
1782845667627695600,4.683695556640625,-0.049914829432964325,-0.15478211641311646,0.20231156051158905
1782845667637700600,4.69370068359375,-0.09268812835216522,-0.11462138593196869,0.18658266961574554
1782845667647704600,4.70370458984375,-0.13446779549121857,-0.07786417007446289,0.14718173444271088
1782845667657709600,4.71370947265625,-0.17564532160758972,-0.036012597382068634,0.07637307047843933
1782845667667714600,4.723714599609375,-0.22088444232940674,0.010263556614518166,-0.029381856322288513
1782845667677719600,4.733719482421875,-0.2794281840324402,0.04571902006864548,-0.156289741396904
1782845667687724500,4.743724609375,-0.3116321861743927,0.045768022537231445,-0.24585583806037903
1782845667697729500,4.7537294921875,-0.29879307746887207,0.04129284620285034,-0.2546733021736145
1782845667707734500,4.763734619140625,-0.26616349816322327,0.04969378560781479,-0.1920165717601776
1782845667717739500,4.773739501953125,-0.2341584414243698,0.05590321123600006,-0.10188588500022888
1782845667727744500,4.78374462890625,-0.19580385088920593,0.04851960018277168,-0.018075939267873764
1782845667737748700,4.793748779296875,-0.1535959541797638,0.038668032735586166,0.05245335400104523
1782845667747753700,4.803753662109375,-0.11604510992765427,0.03663790598511696,0.12645381689071655
1782845667757758700,4.8137587890625,-0.0661928653717041,0.021703697741031647,0.21432241797447205
1782845667767763700,4.823763671875,-0.018439726904034615,0.006066148169338703,0.3059210479259491
1782845667777768700,4.833768798828125,0.022422485053539276,-0.0002892192860599607,0.3861490488052368
1782845667787773700,4.843773681640625,0.06069556996226311,0.00765978405252099,0.4502614438533783
1782845667797778700,4.85377880859375,0.0985470786690712,0.016349678859114647,0.5045768618583679
1782845667807783700,4.86378369140625,0.1341751217842102,0.023455258458852768,0.5350255966186523
1782845667817788700,4.87378857421875,0.1628325879573822,0.028391961008310318,0.5369449257850647
1782845667827793700,4.883793701171875,0.178722083568573,0.0280928872525692,0.500309407711029
1782845667837797400,4.89379736328125,0.1830853968858719,0.02455833926796913,0.429627001285553
1782845667847802400,4.90380224609375,0.18141506612300873,0.024712003767490387,0.330586701631546
1782845667857807400,4.913807373046875,0.16354551911354065,0.013133911415934563,0.19942602515220642
1782845667867812600,4.9238125,0.15803037583827972,0.009315471164882183,0.07106751948595047
1782845667877817600,4.933817626953125,0.1478365957736969,0.03351534903049469,-0.05621879920363426
1782845667887822600,4.943822509765625,0.1266956329345703,0.06202235817909241,-0.175212562084198
1782845667897827600,4.95382763671875,0.10147256404161453,0.07030079513788223,-0.27291780710220337
1782845667907832600,4.96383251953125,0.07849720865488052,0.05626966431736946,-0.338767945766449
1782845667917837600,4.973837646484375,0.06143619492650032,0.03780170902609825,-0.3644844889640808
1782845667927842600,4.983842529296875,0.04782291501760483,0.02412078157067299,-0.37149977684020996
1782845667937846500,4.993846435546875,0.03279469907283783,0.004422178957611322,-0.3820032775402069
1782845667947851500,5.0038515625,0.025133315473794937,-0.012864399701356888,-0.3837588429450989
1782845667957856500,5.0138564453125,0.03007614240050316,-0.0165408942848444,-0.36885687708854675
1782845667967861500,5.023861572265625,0.035599008202552795,-0.02480122074484825,-0.33687707781791687
1782845667977866500,5.033866455078125,0.039151664823293686,-0.04859576374292374,-0.29719704389572144
1782845667987872000,5.0438720703125,0.04078764468431473,-0.06943447142839432,-0.253252774477005
1782845667997877000,5.053876953125,0.03633110970258713,-0.07603058218955994,-0.2032279521226883
1782845668007882000,5.063882080078125,0.03506051376461983,-0.07971000671386719,-0.17698489129543304
1782845668017887000,5.073886962890625,0.034996598958969116,-0.0788159891963005,-0.15944159030914307
1782845668027891000,5.083890869140625,0.03975300490856171,-0.07771183550357819,-0.15681491792201996
1782845668037896000,5.09389599609375,0.034935347735881805,-0.0811569020152092,-0.15782637894153595
1782845668047901000,5.10390087890625,0.022419288754463196,-0.08484671264886856,-0.1488747000694275
1782845668057906000,5.113906005859375,-0.006494917441159487,-0.09223059564828873,-0.1464565545320511
1782845668067911000,5.123910888671875,-0.03710608929395676,-0.08611863851547241,-0.151600182056427
1782845668077916000,5.133916015625,-0.06589485704898834,-0.0848909243941307,-0.16512849926948547
1782845668087921000,5.1439208984375,-0.09426072239875793,-0.07497091591358185,-0.19276438653469086
1782845668097926000,5.15392578125,-0.11620410531759262,-0.08053185790777206,-0.20661255717277527
1782845668107931000,5.163930908203125,-0.14658650755882263,-0.07722261548042297,-0.20198531448841095
1782845668117935900,5.173935791015625,-0.16933630406856537,-0.06899610906839371,-0.1878143697977066
1782845668127939600,5.183939697265625,-0.1801932007074356,-0.048411473631858826,-0.16621454060077667
1782845668137944600,5.193944580078125,-0.1787271350622177,-0.028603948652744293,-0.14277765154838562
1782845668147949600,5.203949462890625,-0.1667274683713913,-0.011597267352044582,-0.10978429019451141
1782845668157954800,5.213954833984375,-0.14502643048763275,0.010085923597216606,-0.08182455599308014
1782845668167959800,5.223959716796875,-0.11649545282125473,0.02309732884168625,-0.05584941804409027
1782845668177964800,5.23396484375,-0.08690080791711807,0.02160436101257801,-0.03154274448752403
1782845668187970000,5.243969970703125,-0.054902128875255585,0.0007358313887380064,0.0043654534965753555
1782845668197975000,5.25397509765625,-0.02021259441971779,-0.01728125289082527,0.01804983988404274
1782845668207980000,5.26397998046875,0.021869879215955734,-0.025358885526657104,0.022781211882829666
1782845668217983700,5.273983642578125,0.05980634316802025,-0.03489380329847336,0.006969226058572531
1782845668227988700,5.28398876953125,0.09578857570886612,-0.04430275037884712,-0.00911520142108202
1782845668237993700,5.29399365234375,0.13221023976802826,-0.043350670486688614,-0.03682459518313408
1782845668247998700,5.303998779296875,0.15982374548912048,-0.03966858237981796,-0.056951966136693954
1782845668258003700,5.314003662109375,0.18367423117160797,-0.03562670201063156,-0.07351735979318619
1782845668268008700,5.3240087890625,0.1919630467891693,-0.0223202183842659,-0.08505231142044067
1782845668278013700,5.334013671875,0.19346719980239868,-0.009799900464713573,-0.09661681950092316
1782845668288018700,5.344018798828125,0.18063315749168396,-0.001794171635992825,-0.10965698957443237
1782845668298023700,5.354023681640625,0.1611582636833191,-0.004734834190458059,-0.13168159127235413
1782845668308028700,5.364028564453125,0.1386345773935318,-0.0018809906905516982,-0.15205956995487213
1782845668318032600,5.37403271484375,0.09927252680063248,-0.014051903039216995,-0.1686694473028183
1782845668328037600,5.38403759765625,0.057628143578767776,-0.021281853318214417,-0.1909281462430954
1782845668338042600,5.394042724609375,0.01841842196881771,-0.031030885875225067,-0.20755159854888916
1782845668348047600,5.404047607421875,-0.01703251339495182,-0.03648264333605766,-0.21179534494876862
1782845668358052600,5.414052490234375,-0.05114227905869484,-0.04268195107579231,-0.2103886604309082
1782845668368057600,5.4240576171875,-0.08086501806974411,-0.0438593327999115,-0.2070692926645279
1782845668378062800,5.434062744140625,-0.10548408329486847,-0.046128079295158386,-0.2042311578989029
1782845668388067800,5.44406787109375,-0.12997451424598694,-0.039439551532268524,-0.20168517529964447
1782845668398072800,5.45407275390625,-0.14117203652858734,-0.03398086875677109,-0.19372153282165527
1782845668408077800,5.464077880859375,-0.14328818023204803,-0.024811074137687683,-0.1757768839597702
1782845668418081800,5.474081787109375,-0.13869556784629822,-0.016139289364218712,-0.1542268544435501
1782845668428086800,5.484086669921875,-0.1306738555431366,0.005572131834924221,-0.124553382396698
1782845668438091800,5.494091796875,-0.10858799517154694,0.028205005452036858,-0.09711643308401108
1782845668448096800,5.5040966796875,-0.08269354701042175,0.05339531600475311,-0.06310999393463135
1782845668458101800,5.514101806640625,-0.05017954856157303,0.07992545515298843,-0.035240545868873596
1782845668468106800,5.524106689453125,-0.022118618711829185,0.10050903260707855,-0.012380236759781837
1782845668478111700,5.53411181640625,0.008075769990682602,0.10044112056493759,0.0024703482631593943
1782845668488116700,5.54411669921875,0.036725789308547974,0.09023668617010117,0.017178453505039215
1782845668498121700,5.554121826171875,0.08633542060852051,0.08617829531431198,-0.0015792545164003968
1782845668508126700,5.564126708984375,0.13520176708698273,0.07875153422355652,-0.032349150627851486
1782845668518130700,5.574130615234375,0.17223940789699554,0.06721845269203186,-0.05919647961854935
1782845668528135700,5.5841357421875,0.19531835615634918,0.055993229150772095,-0.08138486742973328
1782845668538140700,5.594140625,0.20127852261066437,0.05901138857007027,-0.0958186686038971
1782845668548145700,5.604145751953125,0.1982736736536026,0.06715559959411621,-0.09398987889289856
1782845668558150700,5.614150634765625,0.19596391916275024,0.07529688626527786,-0.08074890822172165
1782845668568155600,5.62415576171875,0.19570398330688477,0.08571117371320724,-0.0539548434317112
1782845668578160600,5.63416064453125,0.19748671352863312,0.09353181719779968,-0.01660401001572609
1782845668588166000,5.644165771484375,0.18711502850055695,0.09946826845407486,0.018993664532899857
1782845668598171000,5.6541708984375,0.17041167616844177,0.1028779149055481,0.05127064511179924
1782845668608175900,5.66417578125,0.15860535204410553,0.10578182339668274,0.08407333493232727
1782845668618179800,5.674179931640625,0.16023974120616913,0.09670364111661911,0.10651712119579315
1782845668628184800,5.684184814453125,0.16599403321743011,0.0958157405257225,0.13105681538581848
1782845668638189800,5.69418994140625,0.175715371966362,0.09135574847459793,0.15752677619457245
1782845668648194800,5.70419482421875,0.1859576255083084,0.09073203057050705,0.1783905178308487
1782845668658199800,5.71419970703125,0.2003812938928604,0.10142356157302856,0.20201168954372406
1782845668668204800,5.724204833984375,0.22558093070983887,0.10470137745141983,0.21287818253040314
1782845668678209800,5.734209716796875,0.25782808661460876,0.09655264019966125,0.22695033252239227
1782845668688214800,5.74421484375,0.29807668924331665,0.08394630253314972,0.23751375079154968
1782845668698219800,5.7542197265625,0.33351007103919983,0.07658106088638306,0.2507382035255432
1782845668708223700,5.7642236328125,0.3775571584701538,0.08536576479673386,0.2667757570743561
1782845668718228700,5.774228759765625,0.39803633093833923,0.08402592688798904,0.30548134446144104
1782845668728233700,5.784233642578125,0.3995298147201538,0.07011943310499191,0.34394699335098267
1782845668738238700,5.79423876953125,0.40193411707878113,0.062074288725852966,0.3626959025859833
1782845668748243700,5.80424365234375,0.39364397525787354,0.04963599517941475,0.3552561104297638
1782845668758248700,5.814248779296875,0.3788653016090393,0.036675188690423965,0.3072419762611389
1782845668768253700,5.824253662109375,0.35975390672683716,0.027057450264692307,0.20506499707698822
1782845668778258700,5.8342587890625,0.3243114948272705,0.031382422894239426,0.06915590167045593
1782845668788263700,5.844263671875,0.29780906438827515,0.029806364327669144,-0.08225412666797638
1782845668798268000,5.854267822265625,0.2888432443141937,0.019046396017074585,-0.234126478433609
1782845668808273000,5.86427294921875,0.2930198907852173,0.020083431154489517,-0.366226464509964
1782845668818278000,5.87427783203125,0.3199596405029297,0.004733502399176359,-0.45713692903518677
1782845668828283000,5.884282958984375,0.34928715229034424,-0.029086513444781303,-0.5136779546737671
1782845668838288000,5.894287841796875,0.3697759211063385,-0.08936556428670883,-0.49405527114868164
1782845668848292900,5.90429296875,0.3777097463607788,-0.15056607127189636,-0.4163926839828491
1782845668858297900,5.9142978515625,0.3938612937927246,-0.19261018931865692,-0.29981493949890137
1782845668868302800,5.924302734375,0.4233613908290863,-0.2125045359134674,-0.1865895837545395
1782845668878307800,5.934307861328125,0.4504430592060089,-0.20837265253067017,-0.06560617685317993
1782845668888312800,5.944312744140625,0.4598437547683716,-0.1877182275056839,0.04717496782541275
1782845668898316800,5.95431689453125,0.47541099786758423,-0.1852513551712036,0.14755643904209137
1782845668908321800,5.96432177734375,0.49107810854911804,-0.1130080446600914,0.2199169099330902
1782845668918326800,5.974326904296875,0.4979274868965149,-0.07835845649242401,0.298495888710022
1782845668928331800,5.984331787109375,0.4740826189517975,-0.0761038213968277,0.3731485605239868
1782845668938336800,5.994336669921875,0.4249510169029236,-0.06375474482774734,0.4295385777950287
1782845668948341800,6.004341796875,0.3495366871356964,-0.060740843415260315,0.4782339632511139
1782845668958346800,6.0143466796875,0.26554378867149353,-0.0707191750407219,0.48972681164741516
1782845668968351700,6.024351806640625,0.20870207250118256,-0.08798179030418396,0.4633820354938507
1782845668978356700,6.034356689453125,0.14353692531585693,-0.13012045621871948,0.39510205388069153
1782845668988361200,6.044361328125,0.07831291109323502,-0.1567472666501999,0.291136234998703
1782845668998365000,6.054364990234375,0.0017052220646291971,-0.1434413194656372,0.18419939279556274
1782845669008370000,6.064369873046875,-0.09634517878293991,-0.0981670469045639,0.08987849205732346
1782845669018375000,6.074375,-0.19492635130882263,-0.06437446177005768,0.0036783581599593163
1782845669028380000,6.0843798828125,-0.288188636302948,-0.03249029815196991,-0.05447202920913696
1782845669038385000,6.094385009765625,-0.3711101710796356,-0.008292817510664463,-0.09656701982021332
1782845669048390000,6.104389892578125,-0.4409358501434326,0.0236992035061121,-0.11572632938623428
1782845669058395000,6.114394775390625,-0.49949583411216736,0.057256631553173065,-0.11362723261117935
1782845669068399900,6.12439990234375,-0.5454239249229431,0.08268449455499649,-0.0815553143620491
1782845669078404900,6.13440478515625,-0.5694214105606079,0.10911263525485992,-0.0323273129761219
1782845669088408800,6.144408935546875,-0.5771000981330872,0.14471350610256195,0.011825766414403915
1782845669098413800,6.154413818359375,-0.5737833976745605,0.1607699692249298,0.08707604557275772
1782845669108418800,6.164418701171875,-0.5583394169807434,0.1668020337820053,0.16269171237945557
1782845669118424000,6.174424072265625,-0.5297631621360779,0.16468295454978943,0.24601802229881287
1782845669128429000,6.184428955078125,-0.49966174364089966,0.13310132920742035,0.32433944940567017
1782845669138434000,6.19443408203125,-0.4642007052898407,0.10029198229312897,0.3841889500617981
1782845669148439000,6.20443896484375,-0.4223611056804657,0.06700033694505692,0.40984052419662476
1782845669158444000,6.214444091796875,-0.3859833776950836,0.04181695356965065,0.4142267405986786
1782845669168449000,6.224448974609375,-0.34239304065704346,0.02473091334104538,0.38443103432655334
1782845669178454000,6.2344541015625,-0.28212568163871765,0.0341891273856163,0.3251248300075531
1782845669188458000,6.2444580078125,-0.2371494323015213,0.03846297040581703,0.24734774231910706
1782845669198463000,6.254462890625,-0.18700850009918213,0.05481824278831482,0.14750583469867706
1782845669208468000,6.264468017578125,-0.1532774418592453,0.07574243098497391,0.0386403352022171
1782845669218473000,6.274472900390625,-0.13104882836341858,0.08257876336574554,-0.0471201092004776
1782845669228478000,6.28447802734375,-0.11629731208086014,0.08643954992294312,-0.10930358618497849
1782845669238483000,6.29448291015625,-0.1062081977725029,0.09567911922931671,-0.14601179957389832
1782845669248488000,6.304488037109375,-0.10533121973276138,0.11735592037439346,-0.1753779500722885
1782845669258493000,6.314492919921875,-0.11297395825386047,0.14118508994579315,-0.18487797677516937
1782845669268498000,6.324497802734375,-0.12960432469844818,0.15132586658000946,-0.1701618731021881
1782845669278503000,6.3345029296875,-0.1517072319984436,0.1545991599559784,-0.13834109902381897
1782845669288507000,6.3445068359375,-0.18008747696876526,0.14260534942150116,-0.10480178147554398
1782845669298512000,6.354511962890625,-0.20003642141819,0.1152576133608818,-0.06947601586580276
1782845669308516900,6.364516845703125,-0.21321479976177216,0.09025825560092926,-0.028548287227749825
1782845669318521900,6.37452197265625,-0.2190346121788025,0.0710693821310997,-0.0031521173659712076
1782845669328526800,6.38452685546875,-0.22820733487606049,0.060442306101322174,0.011173025704920292
1782845669338532000,6.394531982421875,-0.22918099164962769,0.07641301304101944,-0.0021193434949964285
1782845669348537000,6.404537109375,-0.22877326607704163,0.09906133264303207,-0.04002171754837036
1782845669358542000,6.4145419921875,-0.23299942910671234,0.11632367968559265,-0.06431693583726883
1782845669368547000,6.424547119140625,-0.23636619746685028,0.142842635512352,-0.06414729356765747
1782845669378551000,6.434551025390625,-0.23688018321990967,0.15756192803382874,-0.03784351795911789
1782845669388556000,6.44455615234375,-0.22740013897418976,0.15281563997268677,-0.016931045800447464
1782845669398561000,6.45456103515625,-0.20937319099903107,0.15538187325000763,-0.007191333919763565
1782845669408566000,6.46456591796875,-0.18787509202957153,0.155209019780159,-0.009285643696784973
1782845669418571000,6.474571044921875,-0.15579678118228912,0.151022270321846,-0.019043732434511185
1782845669428576000,6.484575927734375,-0.11908324807882309,0.14543814957141876,-0.03677479177713394
1782845669438581000,6.4945810546875,-0.08495190739631653,0.1457390934228897,-0.060028981417417526
1782845669448586000,6.5045859375,-0.05512450635433197,0.14253903925418854,-0.0914020836353302
1782845669458591000,6.514591064453125,-0.028789570555090904,0.14542803168296814,-0.1309817135334015
1782845669468596000,6.524595947265625,-0.019706061109900475,0.15201988816261292,-0.16518975794315338
1782845669478600000,6.534599853515625,-0.014517157338559628,0.14759264886379242,-0.1725161075592041
1782845669488605000,6.54460498046875,-0.013847638852894306,0.13784414529800415,-0.166845440864563
1782845669498610000,6.55460986328125,-0.0037997981999069452,0.12478640675544739,-0.16002215445041656
1782845669508615000,6.564614990234375,0.014334730803966522,0.11104395985603333,-0.16086611151695251
1782845669518620000,6.574619873046875,0.03133049234747887,0.10308218002319336,-0.16393594443798065
1782845669528625000,6.584625,0.052983056753873825,0.07763674110174179,-0.16451969742774963
1782845669538630000,6.5946298828125,0.07408834248781204,0.039507195353507996,-0.14237286150455475
1782845669548635000,6.604634765625,0.08797326683998108,0.0035049861762672663,-0.11612394452095032
1782845669558640000,6.61464013671875,0.10079425573348999,-0.030588269233703613,-0.08250606060028076
1782845669568644000,6.62464404296875,0.09908051043748856,-0.05409519374370575,-0.04446972906589508
1782845669578649000,6.634649169921875,0.09546207636594772,-0.06514198333024979,-0.003224022686481476
1782845669588654000,6.644654052734375,0.08831228315830231,-0.06819076836109161,0.03404425457119942
1782845669598659000,6.6546591796875,0.08086156100034714,-0.06126522272825241,0.06499497592449188
1782845669608664000,6.6646640625,0.0701814815402031,-0.06082659959793091,0.09424208104610443
1782845669618669000,6.6746689453125,0.05837169662117958,-0.058580223470926285,0.11760306358337402
1782845669628674000,6.684674072265625,0.060626596212387085,-0.057861968874931335,0.12350409477949142
1782845669638679000,6.694678955078125,0.06490789353847504,-0.05790990591049194,0.12137755751609802
1782845669648684000,6.70468408203125,0.06948533654212952,-0.05961938947439194,0.11040746420621872
1782845669658689000,6.71468896484375,0.07057642936706543,-0.0650293305516243,0.10440177470445633
1782845669668693000,6.72469287109375,0.06517340987920761,-0.07512164860963821,0.0966503769159317
1782845669678698000,6.734697998046875,0.051291417330503464,-0.08498679846525192,0.09649351239204407
1782845669688703000,6.744702880859375,0.030603982508182526,-0.101652592420578,0.10203342139720917
1782845669698708000,6.7547080078125,0.008191084489226341,-0.11744087934494019,0.09203831106424332
1782845669708713000,6.764712890625,-0.030176810920238495,-0.13008449971675873,0.06667756289243698
1782845669718718000,6.774718017578125,-0.0692318007349968,-0.12267931550741196,0.026390062645077705
1782845669728723000,6.784722900390625,-0.10204833745956421,-0.10439964383840561,-0.010387393645942211
1782845669738728000,6.79472802734375,-0.12089073657989502,-0.08718284219503403,-0.027632959187030792
1782845669748733000,6.80473291015625,-0.1281161606311798,-0.07845938950777054,-0.021046696230769157
1782845669758738000,6.814738037109375,-0.11956128478050232,-0.06727917492389679,-0.0015635418239980936
1782845669768742100,6.8247421875,-0.09415312856435776,-0.07136925309896469,0.024218520149588585
1782845669778747100,6.8347470703125,-0.061221811920404434,-0.09221834689378738,0.05284696817398071
1782845669788752100,6.844752197265625,-0.024753816425800323,-0.10572589933872223,0.08068898320198059
1782845669798757000,6.854757080078125,0.015383750200271606,-0.1269558221101761,0.11399687826633453
1782845669808762000,6.86476220703125,0.055202800780534744,-0.14401230216026306,0.15224279463291168
1782845669818767000,6.87476708984375,0.08588375151157379,-0.15497520565986633,0.19634607434272766
1782845669828772000,6.884772216796875,0.10245739668607712,-0.1598285436630249,0.24104803800582886
1782845669838777000,6.894777099609375,0.10282491892576218,-0.1481764167547226,0.28105831146240234
1782845669848782000,6.904781982421875,0.0753307044506073,-0.12440451234579086,0.3044818639755249
1782845669858787000,6.914787109375,0.025431590154767036,-0.09701629728078842,0.2901671230792999
1782845669868791000,6.924791015625,-0.030421821400523186,-0.08804517239332199,0.24117720127105713
1782845669878796000,6.934796142578125,-0.07580288499593735,-0.07989057153463364,0.16720816493034363
1782845669888801000,6.944801025390625,-0.1164746806025505,-0.04880189523100853,0.025141306221485138
1782845669898806000,6.954805908203125,-0.16298891603946686,-0.05339398235082626,-0.1528255045413971
1782845669908811000,6.96481103515625,-0.21553948521614075,-0.06520989537239075,-0.33145570755004883
1782845669918816000,6.97481591796875,-0.2745961546897888,-0.06569911539554596,-0.4776960015296936
1782845669928821000,6.984821044921875,-0.3327454626560211,-0.07328140735626221,-0.5890283584594727
1782845669938826000,6.994825927734375,-0.3748314082622528,-0.1110551506280899,-0.6646006107330322
1782845669948831000,7.0048310546875,-0.3930943012237549,-0.14762966334819794,-0.6505428552627563
1782845669958835200,7.014835205078125,-0.38484862446784973,-0.1787702739238739,-0.5176641941070557
1782845669968840200,7.024840087890625,-0.3458133339881897,-0.18184223771095276,-0.3182200491428375
1782845669978845200,7.03484521484375,-0.2767588794231415,-0.16009752452373505,-0.11132173240184784
1782845669988850700,7.0448505859375,-0.18509581685066223,-0.1435539722442627,0.07647453248500824
1782845669998855700,7.054855712890625,-0.09175548702478409,-0.14230841398239136,0.24797651171684265
1782845670008860700,7.064860595703125,-0.008452873677015305,-0.1534564048051834,0.3871152400970459
1782845670018865700,7.07486572265625,0.05097077414393425,-0.15099723637104034,0.4810371994972229
1782845670028870700,7.08487060546875,0.09029634296894073,-0.14796869456768036,0.5391018390655518
1782845670038875600,7.094875732421875,0.10936324298381805,-0.14754071831703186,0.539462149143219
1782845670048880600,7.104880615234375,0.10238629579544067,-0.11692715436220169,0.49291887879371643
1782845670058884600,7.114884521484375,0.06817799061536789,-0.08132894337177277,0.3966195285320282
1782845670068889600,7.1248896484375,0.03224262595176697,-0.05263737961649895,0.2752605974674225
1782845670078894600,7.13489453125,-0.0002468750171829015,-0.018629077821969986,0.15943919122219086
1782845670088899600,7.144899658203125,-0.027723772451281548,0.030705714598298073,0.06371186673641205
1782845670098904600,7.154904541015625,-0.06322530657052994,0.048649560660123825,-0.00023089606838766485
1782845670108909600,7.16490966796875,-0.08731067180633545,0.06328310072422028,-0.04044169932603836
1782845670118914600,7.17491455078125,-0.11360565572977066,0.07655762135982513,-0.049313221126794815
1782845670128919600,7.18491943359375,-0.12298211455345154,0.07460206747055054,-0.0581330768764019
1782845670138924500,7.194924560546875,-0.11994557827711105,0.043769851326942444,-0.07022462785243988
1782845670148928500,7.204928466796875,-0.11471779644489288,0.009241435676813126,-0.07658292353153229
1782845670158933500,7.21493359375,-0.09888583421707153,-0.0202738456428051,-0.07083076238632202
1782845670168938500,7.2249384765625,-0.08025622367858887,-0.051482632756233215,-0.06820808351039886
1782845670178943700,7.23494384765625,-0.054601725190877914,-0.08932428807020187,-0.05777088925242424
1782845670188948700,7.24494873046875,-0.02003549411892891,-0.11049056053161621,-0.04049496352672577
1782845670198953700,7.25495361328125,0.006448311731219292,-0.13200516998767853,-0.01528707705438137
1782845670208958700,7.264958740234375,0.019901003688573837,-0.1494414210319519,0.006317817140370607
1782845670218963700,7.274963623046875,0.025605227798223495,-0.1518063098192215,0.010758904740214348
1782845670228968700,7.28496875,0.024806279689073563,-0.12624981999397278,-0.007892810739576817
1782845670238973700,7.2949736328125,0.03735296428203583,-0.08859431743621826,-0.04217008873820305
1782845670248977400,7.304977294921875,0.048530250787734985,-0.03963316231966019,-0.09819234907627106
1782845670258982400,7.314982421875,0.05390877276659012,0.003865312086418271,-0.15916621685028076
1782845670268987400,7.3249873046875,0.039870984852313995,0.025239309296011925,-0.2073095142841339
1782845670278992400,7.334992431640625,0.018397383391857147,0.03743312507867813,-0.25411295890808105
1782845670288997400,7.344997314453125,-0.001714010490104556,0.03694390133023262,-0.3152977526187897
1782845670299002400,7.35500244140625,-0.009272327646613121,0.028629513457417488,-0.36798095703125
1782845670309007400,7.36500732421875,-0.00788402184844017,0.002591521944850683,-0.40002888441085815
1782845670319012400,7.375012451171875,-0.0005091963685117662,-0.02449948340654373,-0.3969516158103943
1782845670329017300,7.385017333984375,0.006360427476465702,-0.0428614467382431,-0.3592684268951416
1782845670339021600,7.395021484375,0.011750132776796818,-0.0612066313624382,-0.2934156358242035
1782845670349026600,7.405026611328125,0.01949806697666645,-0.06717530637979507,-0.20738860964775085
1782845670359031600,7.415031494140625,0.02972700260579586,-0.04362231120467186,-0.11218246072530746
1782845670369036500,7.42503662109375,0.034701522439718246,-0.025258218869566917,-0.010810037143528461
1782845670379041500,7.43504150390625,0.03624322637915611,-0.013766944408416748,0.07206141203641891
1782845670389046500,7.445046630859375,0.03442135825753212,0.01883227750658989,0.12066223472356796
1782845670399051500,7.455051513671875,0.037165213376283646,0.04416772723197937,0.13755227625370026
1782845670409056500,7.465056396484375,0.042205244302749634,0.05747341364622116,0.11252681165933609
1782845670419061500,7.4750615234375,0.05817702040076256,0.05624676123261452,0.062733955681324
1782845670429066500,7.48506640625,0.08923959732055664,0.04273920878767967,-0.01107555441558361
1782845670439070500,7.495070556640625,0.12513262033462524,0.0366528183221817,-0.08122508227825165
1782845670449075500,7.505075439453125,0.15834462642669678,0.024115988984704018,-0.13185390830039978
1782845670459080400,7.51508056640625,0.18814407289028168,0.011539476923644543,-0.1579986810684204
1782845670469085400,7.52508544921875,0.21812275052070618,0.007237140089273453,-0.1625889092683792
1782845670479090400,7.53509033203125,0.2336535006761551,0.0006799050024710596,-0.15991537272930145
1782845670489095400,7.545095458984375,0.23742321133613586,0.006731139495968819,-0.1507255882024765
1782845670499100400,7.555100341796875,0.23065797984600067,0.021253356710076332,-0.1625814586877823
1782845670509105400,7.56510546875,0.2303599715232849,0.030216757208108902,-0.18093782663345337
1782845670519110400,7.5751103515625,0.2248714566230774,0.03254702314734459,-0.20137625932693481
1782845670529114400,7.5851142578125,0.21701353788375854,0.02046000212430954,-0.21828946471214294
1782845670539119400,7.595119384765625,0.20141993463039398,0.0008535431115888059,-0.21661220490932465
1782845670549124400,7.605124267578125,0.18168404698371887,-0.011578358709812164,-0.19923746585845947
1782845670559129600,7.615129638671875,0.15375174582004547,-0.023457389324903488,-0.1786794662475586
1782845670569134600,7.625134521484375,0.12884266674518585,-0.02972753532230854,-0.1477961242198944
1782845670579139600,7.6351396484375,0.09868849068880081,-0.019360914826393127,-0.10231758654117584
1782845670589144600,7.64514453125,0.06161516159772873,-0.0007621967233717442,-0.05138915404677391
1782845670599149600,7.655149658203125,0.01955133117735386,0.009726929478347301,0.0011504855938255787
1782845670609154600,7.665154541015625,-0.0194860827177763,0.01447001937776804,0.049073271453380585
1782845670619159600,7.67515966796875,-0.04219938442111015,0.025061411783099174,0.06618408113718033
1782845670629163500,7.68516357421875,-0.050813380628824234,0.04596642777323723,0.060450293123722076
1782845670639168500,7.69516845703125,-0.04727590084075928,0.05634103715419769,0.0348418690264225
1782845670649173500,7.705173583984375,-0.032515332102775574,0.0640554130077362,0.006341519299894571
1782845670659178500,7.715178466796875,-0.008477107621729374,0.06518299877643585,-0.023392673581838608
1782845670669183500,7.72518359375,0.011085674166679382,0.07463588565587997,-0.04731079190969467
1782845670679188500,7.7351884765625,0.03977617621421814,0.08757033199071884,-0.05753200128674507
1782845670689193500,7.745193359375,0.0662703663110733,0.0960807278752327,-0.06815987825393677
1782845670699198500,7.755198486328125,0.09576354175806046,0.10753844678401947,-0.06430069357156754
1782845670709203500,7.765203369140625,0.1140165850520134,0.10343344509601593,-0.04959817975759506
1782845670719208400,7.77520849609375,0.13162752985954285,0.08171910047531128,-0.02286962978541851
1782845670729212400,7.78521240234375,0.13966920971870422,0.06677716225385666,0.00965795386582613
1782845670739217400,7.795217529296875,0.14439445734024048,0.06552228331565857,0.041968487203121185
1782845670749222400,7.805222412109375,0.15126675367355347,0.06944805383682251,0.06728743016719818
1782845670759227400,7.815227294921875,0.15755952894687653,0.07739678770303726,0.0771765410900116
1782845670769232400,7.825232421875,0.16100113093852997,0.0763283297419548,0.08605046570301056
1782845670779237600,7.835237548828125,0.168003112077713,0.07821863889694214,0.09230303019285202
1782845670789242600,7.84524267578125,0.1699506938457489,0.08946250379085541,0.09214270859956741
1782845670799247600,7.85524755859375,0.16944628953933716,0.10140278935432434,0.0891495794057846
1782845670809252600,7.865252685546875,0.16866357624530792,0.1039399802684784,0.0996946319937706
1782845670819257600,7.875257568359375,0.16054679453372955,0.08974826335906982,0.10931424051523209
1782845670829261600,7.885261474609375,0.15293735265731812,0.07954861968755722,0.13072392344474792
1782845670839266600,7.8952666015625,0.14693166315555573,0.07141106575727463,0.15812864899635315
1782845670849271600,7.905271484375,0.14630554616451263,0.06601283699274063,0.17901502549648285
1782845670859276500,7.915276611328125,0.15529930591583252,0.07359592616558075,0.18519915640354156
1782845670869281500,7.925281494140625,0.18593259155750275,0.09590895473957062,0.17602616548538208
1782845670879286500,7.93528662109375,0.22969470918178558,0.11976475268602371,0.1461936980485916
1782845670889291500,7.94529150390625,0.27768033742904663,0.12840378284454346,0.1141742393374443
1782845670899296500,7.955296630859375,0.3279522955417633,0.11745365709066391,0.10722046345472336
1782845670909301500,7.965301513671875,0.3735637366771698,0.112542524933815,0.11645790189504623
1782845670919305500,7.975305419921875,0.39925816655158997,0.10770941525697708,0.14314649999141693
1782845670929310500,7.985310546875,0.41028207540512085,0.10345448553562164,0.1631694883108139
1782845670939315500,7.9953154296875,0.4119345545768738,0.08901190012693405,0.18544788658618927
1782845670949320400,8.005320556640624,0.4112170934677124,0.07996487617492676,0.2052871137857437
1782845670959325400,8.015325439453125,0.4033626317977905,0.0856587141752243,0.23594409227371216
1782845670969330400,8.025330322265624,0.38585662841796875,0.09561360627412796,0.28487515449523926
1782845670979335400,8.03533544921875,0.3550398647785187,0.09063109755516052,0.3446924090385437
1782845670989340200,8.045340087890626,0.30416736006736755,0.0714116021990776,0.40590304136276245
1782845670999345200,8.05534521484375,0.2450859248638153,0.046238336712121964,0.4525110125541687
1782845671009350100,8.06535009765625,0.18562045693397522,0.027635622769594193,0.4788459539413452
1782845671019354000,8.07535400390625,0.14422082901000977,0.02689526416361332,0.4683368504047394
1782845671029359000,8.085359130859375,0.12237571179866791,0.0489872507750988,0.4244402348995209
1782845671039364000,8.095364013671874,0.12593981623649597,0.08295773714780807,0.3417479991912842
1782845671049369000,8.105369140625,0.14418354630470276,0.1157231405377388,0.21286725997924805
1782845671059374000,8.1153740234375,0.1665857881307602,0.14179548621177673,0.0675785094499588
1782845671069379000,8.125379150390625,0.1818227916955948,0.14218589663505554,-0.06937827169895172
1782845671079384000,8.135384033203126,0.1958182454109192,0.12386202067136765,-0.19051454961299896
1782845671089389000,8.14538916015625,0.18433281779289246,0.09540321677923203,-0.2773096263408661
1782845671099394000,8.15539404296875,0.16544301807880402,0.04765939712524414,-0.3235383927822113
1782845671109398000,8.16539794921875,0.1359993815422058,-0.01841575838625431,-0.3271227180957794
1782845671119403000,8.175403076171875,0.11385945975780487,-0.05476018413901329,-0.2981469929218292
1782845671129408000,8.185407958984374,0.10913021862506866,-0.07128137350082397,-0.23716381192207336
1782845671139413000,8.1954130859375,0.11598172783851624,-0.08322005718946457,-0.15470728278160095
1782845671149418200,8.205418212890624,0.12435870617628098,-0.08114438503980637,-0.056646768003702164
1782845671159423200,8.21542333984375,0.1333543211221695,-0.08185172080993652,0.05143416300415993
1782845671169428200,8.22542822265625,0.1402716189622879,-0.07838082313537598,0.15190696716308594
1782845671179433200,8.23543310546875,0.1473204791545868,-0.08374150097370148,0.22281603515148163
1782845671189438200,8.245438232421876,0.16412928700447083,-0.08345042169094086,0.24954432249069214
1782845671199443200,8.255443115234375,0.17929385602474213,-0.08057846873998642,0.24899303913116455
1782845671209447200,8.265447265625,0.1860138177871704,-0.07278285920619965,0.23547562956809998
1782845671219452200,8.2754521484375,0.17945684492588043,-0.06379682570695877,0.20105721056461334
1782845671229457200,8.28545703125,0.175586998462677,-0.051052264869213104,0.16543050110340118
1782845671239462100,8.295462158203126,0.16954508423805237,-0.015618907287716866,0.1179886907339096
1782845671249467100,8.305467041015625,0.15770120918750763,0.021836057305336,0.059294216334819794
1782845671259472100,8.31547216796875,0.1405927985906601,0.036323387175798416,0.0018610169645398855
1782845671269477000,8.32547705078125,0.12394990772008896,0.07188031822443008,-0.049008287489414215
1782845671279482000,8.335482177734375,0.09996015578508377,0.029923010617494583,-0.08005674928426743
1782845671289487000,8.345487060546875,0.10627477616071701,0.005268797744065523,-0.11564803868532181
1782845671299492000,8.3554921875,0.10367153584957123,-0.007493868935853243,-0.1462746560573578
1782845671309496000,8.36549609375,0.11267541348934174,-0.005089567042887211,-0.172430619597435
1782845671319501000,8.3755009765625,0.11653779447078705,0.009594570845365524,-0.18687587976455688
1782845671329506000,8.385506103515626,0.13265444338321686,0.025171665474772453,-0.1975705921649933
1782845671339511000,8.395510986328125,0.15296664834022522,0.024348482489585876,-0.2071143090724945
1782845671349516000,8.40551611328125,0.16403846442699432,0.04003610089421272,-0.2043403536081314
1782845671359521000,8.41552099609375,0.16548030078411102,0.04158579185605049,-0.16699591279029846
1782845671369526300,8.4255263671875,0.11026791483163834,0.2054857760667801,0.03645174950361252
1782845671379531300,8.43553125,0.013456153683364391,0.11289086192846298,0.12050271034240723
1782845671389536300,8.445536376953125,-0.012108594179153442,-0.005876797717064619,0.09580641984939575
1782845671399540200,8.455540283203124,-0.013617807999253273,-0.13586275279521942,0.05089433863759041
1782845671409545200,8.465545166015625,-0.025665948167443275,-0.2830202579498291,0.05198037624359131
1782845671419550200,8.47555029296875,-0.041426535695791245,-0.3818216621875763,0.0340767428278923
1782845671429555200,8.48555517578125,-0.07055433094501495,-0.41187357902526855,0.0001395496365148574
1782845671439560200,8.495560302734376,-0.09518563747406006,-0.3829537630081177,-0.01489479374140501
1782845671449565200,8.505565185546875,-0.11590263247489929,-0.3119176924228668,-0.004924451000988483
1782845671459570200,8.515570068359375,-0.1487383395433426,-0.25606080889701843,0.0068331388756632805
