time,seconds_elapsed,z,y,x
1782846801665994200,0.059994140625,-1.9718170166015625,-0.71234130859375,0.1858367919921875
1782846801675999200,0.069999267578125,-2.0791015625,-0.8119964599609375,0.1460418701171875
1782846801686003200,0.080003173828125,-2.1377410888671875,-0.9491424560546875,0.1627960205078125
1782846801696008200,0.09000830078125,-2.2140045166015625,-1.015655517578125,0.2505035400390625
1782846801706013200,0.10001318359375,-2.266448974609375,-0.981719970703125,0.329345703125
1782846801716017200,0.11001708984375,-2.27850341796875,-0.8780059814453125,0.3712158203125
1782846801726022100,0.120022216796875,-2.310821533203125,-0.7655487060546875,0.449951171875
1782846801736027100,0.130027099609375,-2.309539794921875,-0.6456298828125,0.43206787109375
1782846801746031400,0.14003125,-2.1663665771484375,-0.5186004638671875,0.3759307861328125
1782846801756036400,0.150036376953125,-1.980682373046875,-0.4062652587890625,0.3414306640625
1782846801766040000,0.1600400390625,-1.7382354736328125,-0.3085479736328125,0.266326904296875
1782846801776045000,0.170045166015625,-1.4862060546875,-0.233062744140625,0.2165374755859375
1782846801786050000,0.180050048828125,-1.214874267578125,-0.1926727294921875,0.176666259765625
1782846801796054000,0.190053955078125,-0.92364501953125,-0.164276123046875,0.12445068359375
1782846801806059000,0.20005908203125,-0.670745849609375,-0.131103515625,0.0794525146484375
1782846801816064000,0.21006396484375,-0.46881103515625,-0.0995941162109375,0.0390167236328125
1782846801826069000,0.220069091796875,-0.325225830078125,-0.07293701171875,0.0035552978515625
1782846801836074200,0.23007421875,-0.23114013671875,-0.0382232666015625,-0.0240478515625
1782846801846079200,0.240079345703125,-0.1692047119140625,-0.0041656494140625,-0.04779052734375
1782846801856083200,0.250083251953125,-0.1233062744140625,0.0246124267578125,-0.0605621337890625
1782846801866088200,0.260088134765625,-0.087890625,0.047882080078125,-0.0607757568359375
1782846801876093200,0.27009326171875,-0.0626068115234375,0.071868896484375,-0.058319091796875
1782846801886097200,0.28009716796875,-0.0651092529296875,0.1071014404296875,-0.0692138671875
1782846801896102100,0.29010205078125,-0.0908050537109375,0.13983154296875,-0.0747528076171875
1782846801906106000,0.300106201171875,-0.0872650146484375,0.146453857421875,-0.0594940185546875
1782846801916111000,0.310111083984375,-0.0446624755859375,0.1207427978515625,-0.0523529052734375
1782846801926116400,0.320116455078125,0.00665283203125,0.076934814453125,-0.0471649169921875
1782846801936120000,0.3301201171875,0.063079833984375,0.033905029296875,-0.0289764404296875
1782846801946125000,0.340125,0.117431640625,0.001556396484375,0.00018310546875
1782846801956130000,0.350130126953125,0.148284912109375,-0.02557373046875,0.007232666015625
1782846801966134000,0.360134033203125,0.1773681640625,-0.037109375,0.005340576171875
1782846801976139000,0.370138916015625,0.189910888671875,-0.033111572265625,-0.009490966796875
1782846801986144000,0.38014404296875,0.1757354736328125,-0.017822265625,-0.0308074951171875
1782846801996148200,0.390148193359375,0.1566314697265625,0.0004119873046875,-0.04852294921875
1782846802006153200,0.4001533203125,0.1371307373046875,0.0109100341796875,-0.0451202392578125
1782846802016158200,0.410158203125,0.103363037109375,0.0091400146484375,-0.026641845703125
1782846802026162200,0.420162109375,0.0626678466796875,0.0052032470703125,0.0042877197265625
1782846802036167200,0.430167236328125,0.0252532958984375,0.01617431640625,0.037017822265625
1782846802046172200,0.440172119140625,-0.0594024658203125,0.0362396240234375,0.0741119384765625
1782846802056176000,0.450176025390625,-0.212188720703125,0.0406036376953125,0.095001220703125
1782846802066181000,0.46018115234375,-0.40826416015625,0.0242919921875,0.1006317138671875
1782846802076185300,0.470185302734375,-0.6403961181640625,0.003997802734375,0.1226959228515625
1782846802086190300,0.4801904296875,-0.885284423828125,-0.03582763671875,0.17889404296875
1782846802096195300,0.4901953125,-1.0703887939453125,-0.138702392578125,0.2392578125
1782846802106199000,0.500198974609375,-1.20556640625,-0.2543792724609375,0.2835693359375
1782846802116204000,0.5102041015625,-1.3766937255859375,-0.3229522705078125,0.286468505859375
1782846802126209000,0.520208984375,-1.5502471923828125,-0.344390869140625,0.2593994140625
1782846802136213000,0.530212890625,-1.627197265625,-0.335693359375,0.2750091552734375
1782846802146218000,0.540218017578125,-1.67620849609375,-0.3868255615234375,0.3173980712890625
1782846802156223000,0.550222900390625,-1.766876220703125,-0.53759765625,0.307373046875
1782846802166227200,0.560227294921875,-1.78887939453125,-0.7114410400390625,0.219757080078125
1782846802176232200,0.570232177734375,-1.69671630859375,-0.857696533203125,0.112060546875
1782846802186237200,0.5802373046875,-1.6958465576171875,-0.8931121826171875,0.0741424560546875
1782846802196241200,0.5902412109375,-1.9105224609375,-0.780670166015625,0.109771728515625
1782846802206246100,0.60024609375,-2.2014007568359375,-0.6108551025390625,0.17059326171875
1782846802216250000,0.61025,-2.3542938232421875,-0.4353790283203125,0.2288360595703125
1782846802226255000,0.620255126953125,-2.385986328125,-0.2623443603515625,0.26959228515625
1782846802236260000,0.630260009765625,-2.3914642333984375,-0.14404296875,0.266082763671875
1782846802246264300,0.640264404296875,-2.2889556884765625,-0.1775970458984375,0.1921234130859375
1782846802256269300,0.650269287109375,-2.0493927001953125,-0.3665924072265625,0.11444091796875
1782846802266274300,0.6602744140625,-1.73345947265625,-0.59222412109375,0.1162109375
1782846802276278000,0.670278076171875,-1.4009857177734375,-0.7106781005859375,0.179534912109375
1782846802286283000,0.680282958984375,-1.129730224609375,-0.6548614501953125,0.2517852783203125
1782846802296288000,0.6902880859375,-0.9603729248046875,-0.5175323486328125,0.278228759765625
1782846802306292000,0.7002919921875,-0.859527587890625,-0.3716278076171875,0.2360382080078125
1782846802316297000,0.710296875,-0.7969207763671875,-0.2573394775390625,0.159393310546875
1782846802326302000,0.720302001953125,-0.7535552978515625,-0.169097900390625,0.0890350341796875
1782846802336306200,0.73030615234375,-0.6955108642578125,-0.0955810546875,0.0493011474609375
1782846802346311200,0.740311279296875,-0.603057861328125,-0.042144775390625,0.018341064453125
1782846802356315100,0.750315185546875,-0.522064208984375,-0.00201416015625,-0.003143310546875
1782846802366320000,0.760320068359375,-0.475830078125,0.025238037109375,-0.0274200439453125
1782846802376325000,0.7703251953125,-0.43511962890625,0.0449981689453125,-0.060791015625
1782846802386329000,0.7803291015625,-0.4110565185546875,0.057861328125,-0.1006011962890625
1782846802396334000,0.790333984375,-0.40155029296875,0.0621490478515625,-0.1414642333984375
1782846802406339000,0.800339111328125,-0.3906097412109375,0.060211181640625,-0.1934356689453125
1782846802416343300,0.81034326171875,-0.3571014404296875,0.056610107421875,-0.22808837890625
1782846802426348300,0.820348388671875,-0.3388214111328125,0.0251312255859375,-0.198455810546875
1782846802436353300,0.830353271484375,-0.3195953369140625,-0.0067291259765625,-0.15008544921875
1782846802446357000,0.84035693359375,-0.294403076171875,-0.048095703125,-0.0930328369140625
1782846802456362000,0.850362060546875,-0.2970733642578125,-0.063140869140625,-0.04376220703125
1782846802466367000,0.860366943359375,-0.35614013671875,-0.043304443359375,-0.016448974609375
1782846802476371000,0.870370849609375,-0.4178466796875,-0.0222930908203125,0.00299072265625
1782846802486376000,0.8803759765625,-0.48040771484375,0.0134124755859375,0.03546142578125
1782846802496381000,0.890380859375,-0.5315093994140625,0.03887939453125,0.0791015625
1782846802506385200,0.90038525390625,-0.562286376953125,0.045135498046875,0.115875244140625
1782846802516390100,0.91039013671875,-0.58935546875,0.04840087890625,0.1508941650390625
1782846802526394000,0.92039404296875,-0.613922119140625,0.047332763671875,0.17333984375
1782846802536399000,0.930399169921875,-0.657958984375,0.0350341796875,0.1702117919921875
1782846802546404000,0.940404052734375,-0.7488861083984375,0.007659912109375,0.1516876220703125
1782846802556408000,0.950407958984375,-0.8427734375,-0.0280914306640625,0.1298370361328125
1782846802566413000,0.9604130859375,-0.9366302490234375,-0.07684326171875,0.1262359619140625
1782846802576418000,0.97041796875,-1.053131103515625,-0.134033203125,0.1126708984375
1782846802586422300,0.98042236328125,-1.218048095703125,-0.2093963623046875,0.0787200927734375
1782846802596427300,0.99042724609375,-1.4656524658203125,-0.30718994140625,0.0445098876953125
1782846802606432300,1.000432373046875,-1.743255615234375,-0.3751068115234375,0.051483154296875
1782846802616436000,1.01043603515625,-2.0000762939453125,-0.3921356201171875,0.1424560546875
1782846802626441000,1.02044091796875,-2.2184295654296875,-0.3974456787109375,0.2778167724609375
1782846802636446000,1.030446044921875,-2.3953704833984375,-0.4089813232421875,0.411163330078125
1782846802646450000,1.040449951171875,-2.515655517578125,-0.45745849609375,0.54425048828125
1782846802656455000,1.050454833984375,-2.6088104248046875,-0.5892486572265625,0.635528564453125
1782846802666459100,1.060459228515625,-2.6522979736328125,-0.69207763671875,0.66278076171875
1782846802676464000,1.070464111328125,-2.6221160888671875,-0.705780029296875,0.6232452392578125
1782846802686469000,1.08046923828125,-2.5394439697265625,-0.7119598388671875,0.4976654052734375
1782846802696473000,1.09047314453125,-2.4033355712890625,-0.7396087646484375,0.346435546875
1782846802706478000,1.10047802734375,-2.2358551025390625,-0.75146484375,0.20880126953125
1782846802716483000,1.110483154296875,-2.0870208740234375,-0.73870849609375,0.0893402099609375
1782846802726487000,1.120487060546875,-1.9514617919921875,-0.735443115234375,-0.0235748291015625
1782846802736492000,1.130491943359375,-1.8555908203125,-0.667266845703125,-0.0638427734375
1782846802746497300,1.140497314453125,-1.7808685302734375,-0.5168914794921875,-0.03717041015625
1782846802756501200,1.150501220703125,-1.6785125732421875,-0.34979248046875,0.0091552734375
1782846802766506200,1.16050634765625,-1.5485076904296875,-0.1740570068359375,0.076141357421875
1782846802776511200,1.17051123046875,-1.4016876220703125,-0.0085296630859375,0.1417999267578125
1782846802786515000,1.180514892578125,-1.229766845703125,0.10546875,0.1821136474609375
1782846802796520000,1.19052001953125,-1.0284576416015625,0.1364898681640625,0.1732940673828125
1782846802806525200,1.200525146484375,-0.7987823486328125,0.1129913330078125,0.1282958984375
1782846802816529200,1.210529052734375,-0.556793212890625,0.0790863037109375,0.071807861328125
1782846802826533400,1.220533447265625,-0.3305816650390625,0.0547943115234375,0.02410888671875
1782846802836537300,1.230537353515625,-0.1414337158203125,0.0348052978515625,-0.01495361328125
1782846802846542300,1.240542236328125,0.010101318359375,0.0138702392578125,-0.0473480224609375
1782846802856547300,1.25054736328125,0.135406494140625,-0.0047607421875,-0.091552734375
1782846802866551300,1.26055126953125,0.22381591796875,-0.029449462890625,-0.129852294921875
1782846802876556300,1.270556396484375,0.262451171875,-0.03045654296875,-0.148834228515625
1782846802886561300,1.280561279296875,0.289764404296875,-0.018463134765625,-0.1722564697265625
1782846802896565500,1.2905654296875,0.3081512451171875,-0.009735107421875,-0.19091796875
1782846802906570500,1.300570556640625,0.3147430419921875,0.011474609375,-0.172760009765625
1782846802916575500,1.310575439453125,0.30828857421875,0.030059814453125,-0.148681640625
1782846802926579500,1.320579345703125,0.2922515869140625,0.03131103515625,-0.1207733154296875
1782846802936584400,1.33058447265625,0.2592315673828125,0.033966064453125,-0.0704193115234375
1782846802946589400,1.34058935546875,0.2228851318359375,0.0321044921875,-0.0341949462890625
1782846802956593200,1.35059326171875,0.2190093994140625,0.0201263427734375,-0.0080718994140625
1782846802966598400,1.360598388671875,0.2332763671875,0.013671875,0.0221710205078125
1782846802976603400,1.370603271484375,0.2359771728515625,0.0164947509765625,0.044189453125
1782846802986607400,1.380607421875,0.21295166015625,0.0165557861328125,0.054901123046875
1782846802996612400,1.3906123046875,0.1703948974609375,0.0215301513671875,0.0567779541015625
1782846803006617300,1.400617431640625,0.1237945556640625,0.0315093994140625,0.0496673583984375
1782846803016621300,1.410621337890625,0.0697021484375,0.0305023193359375,0.0538787841796875
1782846803026626300,1.420626220703125,0.024200439453125,0.0289459228515625,0.07452392578125
1782846803036630300,1.43063037109375,-0.005645751953125,0.028350830078125,0.074981689453125
1782846803046635300,1.44063525390625,-0.0448760986328125,0.0299224853515625,0.061279296875
1782846803056640500,1.450640625,-0.116912841796875,0.030670166015625,0.0534820556640625
1782846803066644500,1.46064453125,-0.2494659423828125,0.0092315673828125,0.027069091796875
1782846803076649500,1.4706494140625,-0.42913818359375,-0.035888671875,-0.006011962890625
1782846803086654500,1.480654541015625,-0.631256103515625,-0.07647705078125,0.0241241455078125
1782846803096658400,1.490658447265625,-0.8472900390625,-0.137481689453125,0.082489013671875
1782846803106663400,1.500663330078125,-1.0739288330078125,-0.215362548828125,0.1531829833984375
1782846803116668400,1.51066845703125,-1.2904052734375,-0.30010986328125,0.2293548583984375
1782846803126672400,1.52067236328125,-1.4855499267578125,-0.402099609375,0.2863922119140625
1782846803136677400,1.530677490234375,-1.6191558837890625,-0.4729461669921875,0.3369140625
1782846803146682400,1.540682373046875,-1.6739501953125,-0.6043701171875,0.371429443359375
1782846803156686300,1.550686279296875,-1.6861114501953125,-0.684967041015625,0.39801025390625
1782846803166691300,1.56069140625,-1.74920654296875,-0.6379547119140625,0.38427734375
1782846803176696300,1.5706962890625,-2.0494384765625,-0.6970672607421875,0.358245849609375
1782846803186700300,1.5807001953125,-2.4856109619140625,-0.6272125244140625,0.389984130859375
1782846803196705300,1.590705322265625,-2.6887664794921875,-0.4409332275390625,0.4240875244140625
1782846803206709500,1.60070947265625,-2.674407958984375,-0.2299346923828125,0.4316558837890625
1782846803216714500,1.610714599609375,-2.6362762451171875,-0.0929718017578125,0.3681182861328125
1782846803226719500,1.620719482421875,-2.5840911865234375,-0.08233642578125,0.2595367431640625
1782846803236723500,1.630723388671875,-2.443267822265625,-0.1475372314453125,0.1510772705078125
1782846803246728400,1.640728515625,-2.2157135009765625,-0.279144287109375,0.0805511474609375
1782846803256733400,1.6507333984375,-1.9706268310546875,-0.4505462646484375,0.07720947265625
1782846803266737400,1.6607373046875,-1.7082061767578125,-0.6004638671875,0.1312408447265625
1782846803276742400,1.670742431640625,-1.4683837890625,-0.6539459228515625,0.19512939453125
1782846803286747400,1.680747314453125,-1.32470703125,-0.578948974609375,0.243865966796875
1782846803296751400,1.69075146484375,-1.27264404296875,-0.40496826171875,0.268341064453125
1782846803306756400,1.70075634765625,-1.262969970703125,-0.2483062744140625,0.26934814453125
1782846803316761300,1.71076123046875,-1.2281646728515625,-0.1231536865234375,0.24267578125
1782846803326765300,1.720765380859375,-1.150238037109375,-0.0820770263671875,0.186248779296875
1782846803336770300,1.730770263671875,-1.035369873046875,-0.052764892578125,0.13226318359375
1782846803346775300,1.740775390625,-0.8732757568359375,0.0005340576171875,0.0961456298828125
1782846803356779300,1.750779296875,-0.7248077392578125,0.02471923828125,0.0490264892578125
1782846803366784300,1.7607841796875,-0.6007843017578125,0.0410614013671875,-0.0040283203125
1782846803376788500,1.77078857421875,-0.469207763671875,0.0559234619140625,-0.0530548095703125
1782846803386793500,1.78079345703125,-0.34039306640625,0.066192626953125,-0.098846435546875
1782846803396798500,1.790798583984375,-0.2400360107421875,0.069976806640625,-0.1424407958984375
1782846803406802400,1.800802490234375,-0.1689910888671875,0.0709991455078125,-0.1825714111328125
1782846803416807400,1.810807373046875,-0.1263275146484375,0.075836181640625,-0.2087554931640625
1782846803426812400,1.8208125,-0.117645263671875,0.0814208984375,-0.19342041015625
1782846803436816400,1.83081640625,-0.1376190185546875,0.0825958251953125,-0.1581878662109375
1782846803446821400,1.8408212890625,-0.15106201171875,0.0792388916015625,-0.12042236328125
1782846803456826400,1.850826416015625,-0.158782958984375,0.0690155029296875,-0.066650390625
1782846803466830300,1.860830322265625,-0.1764984130859375,0.05731201171875,-0.0096893310546875
1782846803476835300,1.87083544921875,-0.2008209228515625,0.038787841796875,0.04156494140625
1782846803486840300,1.88084033203125,-0.2177276611328125,0.0106964111328125,0.0814056396484375
1782846803496844300,1.89084423828125,-0.2359466552734375,-0.010284423828125,0.1139678955078125
1782846803506849300,1.900849365234375,-0.257232666015625,-0.01739501953125,0.1409149169921875
1782846803516854300,1.910854248046875,-0.2996978759765625,-0.0042724609375,0.1638031005859375
1782846803526858200,1.920858154296875,-0.372802734375,0.0082550048828125,0.1802978515625
1782846803536863200,1.93086328125,-0.4537506103515625,0.0210723876953125,0.170013427734375
1782846803546868200,1.9408681640625,-0.52392578125,0.0450286865234375,0.1660003662109375
1782846803556872400,1.95087255859375,-0.62799072265625,0.0725860595703125,0.191558837890625
1782846803566877400,1.96087744140625,-0.7808074951171875,0.10205078125,0.1871490478515625
1782846803576881400,1.97088134765625,-0.95111083984375,0.119873046875,0.147857666015625
1782846803586886400,1.980886474609375,-1.0844573974609375,0.089080810546875,0.1045074462890625
1782846803596891400,1.990891357421875,-1.1863250732421875,0.011505126953125,0.058868408203125
1782846803606895400,2.000895263671875,-1.30364990234375,-0.1021575927734375,0.0270538330078125
1782846803616900400,2.010900390625,-1.4495697021484375,-0.2122802734375,0.0096282958984375
1782846803626905300,2.0209052734375,-1.6158905029296875,-0.29473876953125,0.0136260986328125
1782846803636909300,2.030909423828125,-1.8093414306640625,-0.33624267578125,0.067474365234375
1782846803646914600,2.04091455078125,-2.0588836669921875,-0.33612060546875,0.15643310546875
1782846803656919600,2.05091943359375,-2.31756591796875,-0.2909088134765625,0.2613983154296875
1782846803666923300,2.06092333984375,-2.514251708984375,-0.268646240234375,0.37408447265625
1782846803676928300,2.07092822265625,-2.677093505859375,-0.339111328125,0.455230712890625
1782846803686933200,2.080933349609375,-2.8177490234375,-0.43939208984375,0.4802398681640625
1782846803696937200,2.090937255859375,-2.876251220703125,-0.522796630859375,0.4364776611328125
1782846803706942200,2.100942138671875,-2.835601806640625,-0.5838775634765625,0.355926513671875
1782846803716947200,2.110947265625,-2.71832275390625,-0.6326904296875,0.2822113037109375
1782846803726951400,2.120951416015625,-2.5733795166015625,-0.6739349365234375,0.214599609375
1782846803736956400,2.130956298828125,-2.447784423828125,-0.663818359375,0.154266357421875
1782846803746960400,2.14096044921875,-2.3192596435546875,-0.6034088134765625,0.100738525390625
1782846803756965400,2.15096533203125,-2.136688232421875,-0.508331298828125,0.068756103515625
1782846803766970400,2.160970458984375,-1.913787841796875,-0.3979949951171875,0.0660552978515625
1782846803776974300,2.170974365234375,-1.68792724609375,-0.2925262451171875,0.06427001953125
1782846803786979300,2.180979248046875,-1.4689483642578125,-0.1881866455078125,0.0718536376953125
1782846803796984300,2.190984375,-1.26422119140625,-0.101348876953125,0.08697509765625
1782846803806988500,2.200988525390625,-1.0750732421875,-0.02423095703125,0.1138458251953125
1782846803816993500,2.21099365234375,-0.8874969482421875,0.0295562744140625,0.1272125244140625
1782846803826998800,2.220998779296875,-0.71826171875,0.04791259765625,0.1197052001953125
1782846803837002500,2.23100244140625,-0.5599517822265625,0.0416412353515625,0.101593017578125
1782846803847007500,2.241007568359375,-0.41455078125,0.0342559814453125,0.0694732666015625
1782846803857012500,2.251012451171875,-0.2871551513671875,0.040985107421875,0.0299835205078125
1782846803867016400,2.261016357421875,-0.1687774658203125,0.058380126953125,-0.0115966796875
1782846803877021400,2.271021484375,-0.0627288818359375,0.0744171142578125,-0.05224609375
1782846803887026400,2.2810263671875,0.0120697021484375,0.095550537109375,-0.084564208984375
1782846803897030700,2.29103076171875,0.0714263916015625,0.1273956298828125,-0.100555419921875
1782846803907035600,2.30103564453125,0.1244964599609375,0.1426849365234375,-0.1027984619140625
1782846803917040600,2.31104052734375,0.1527862548828125,0.1294097900390625,-0.1003875732421875
1782846803927044600,2.321044677734375,0.1681365966796875,0.099945068359375,-0.0957489013671875
1782846803937049600,2.331049560546875,0.18682861328125,0.0712890625,-0.097747802734375
1782846803947053600,2.341053466796875,0.220123291015625,0.044403076171875,-0.0983428955078125
1782846803957058600,2.35105859375,0.2592010498046875,0.01885986328125,-0.0915985107421875
1782846803967063600,2.3610634765625,0.29547119140625,0.0032196044921875,-0.0685882568359375
1782846803977067800,2.37106787109375,0.3126068115234375,-0.007110595703125,-0.0319976806640625
1782846803987072800,2.38107275390625,0.32318115234375,-0.0025787353515625,0.0033111572265625
1782846803997077800,2.391077880859375,0.3280029296875,0.0121612548828125,0.0216217041015625
1782846804007081500,2.40108154296875,0.3194732666015625,0.020172119140625,0.018463134765625
1782846804017086500,2.41108642578125,0.288055419921875,0.0225830078125,0.0128936767578125
1782846804027091500,2.421091552734375,0.234832763671875,0.020416259765625,0.00201416015625
1782846804037095400,2.431095458984375,0.1918182373046875,0.0162353515625,-0.0121917724609375
1782846804047100400,2.441100341796875,0.1595306396484375,0.02069091796875,-0.0208282470703125
1782846804057105700,2.451105712890625,0.1019744873046875,0.0196533203125,-0.00762939453125
1782846804067109600,2.461109619140625,0.02606201171875,0.008209228515625,0.0191497802734375
1782846804077114600,2.471114501953125,-0.02032470703125,-0.0028839111328125,0.039886474609375
1782846804087119600,2.48111962890625,-0.0705108642578125,-0.015777587890625,0.0579681396484375
1782846804097123600,2.49112353515625,-0.18743896484375,-0.0380859375,0.0703582763671875
1782846804107128600,2.501128662109375,-0.3721466064453125,-0.0777435302734375,0.0296478271484375
1782846804117133600,2.511133544921875,-0.5753173828125,-0.1353607177734375,-0.0081024169921875
1782846804127137500,2.521137451171875,-0.81097412109375,-0.2250213623046875,0.0123748779296875
1782846804137142800,2.531142822265625,-1.0934295654296875,-0.331817626953125,0.0644378662109375
1782846804147147800,2.541147705078125,-1.3523406982421875,-0.4273529052734375,0.1368255615234375
1782846804157151700,2.55115185546875,-1.549163818359375,-0.50433349609375,0.2090911865234375
1782846804167156700,2.56115673828125,-1.7003173828125,-0.5902099609375,0.2820281982421875
1782846804177160400,2.571160400390625,-1.813873291015625,-0.6716461181640625,0.3564300537109375
1782846804187165400,2.58116552734375,-1.8731536865234375,-0.58184814453125,0.4437255859375
1782846804197170400,2.59117041015625,-2.055084228515625,-0.589935302734375,0.4422454833984375
1782846804207174700,2.601174560546875,-2.46380615234375,-0.79150390625,0.4036407470703125
1782846804217179600,2.6111796875,-2.7669677734375,-0.7965087890625,0.3748779296875
1782846804227184600,2.6211845703125,-2.874969482421875,-0.5228729248046875,0.4189910888671875
1782846804237188600,2.631188720703125,-2.9398345947265625,-0.2187652587890625,0.49493408203125
1782846804247193600,2.641193603515625,-2.9172821044921875,-0.0107879638671875,0.5330810546875
1782846804257198600,2.651198486328125,-2.7650604248046875,0.063934326171875,0.507659912109375
1782846804267202600,2.66120263671875,-2.5047454833984375,-0.0691986083984375,0.4222564697265625
1782846804277207600,2.67120751953125,-2.1177215576171875,-0.4134368896484375,0.3344573974609375
1782846804287212500,2.681212646484375,-1.6418609619140625,-0.7486572265625,0.2850494384765625
1782846804297216800,2.691216796875,-1.1644287109375,-0.809844970703125,0.2994384765625
1782846804307221800,2.7012216796875,-0.84033203125,-0.6543426513671875,0.3108367919921875
1782846804317226800,2.711226806640625,-0.7374267578125,-0.4900970458984375,0.274169921875
1782846804327230700,2.721230712890625,-0.7925262451171875,-0.36761474609375,0.196319580078125
1782846804337235700,2.731235595703125,-0.862213134765625,-0.253021240234375,0.1219024658203125
1782846804347240700,2.74124072265625,-0.8419189453125,-0.160400390625,0.087615966796875
1782846804357244700,2.75124462890625,-0.8045654296875,-0.11346435546875,0.0620880126953125
1782846804367249700,2.761249755859375,-0.7979278564453125,-0.05657958984375,0.042694091796875
1782846804377254700,2.771254638671875,-0.8036041259765625,0.017913818359375,-0.014434814453125
1782846804387258600,2.781258544921875,-0.7639007568359375,0.0711212158203125,-0.0768280029296875
1782846804397263600,2.791263671875,-0.678375244140625,0.088592529296875,-0.119659423828125
1782846804407267600,2.801267578125,-0.573760986328125,0.0799102783203125,-0.1568756103515625
1782846804417272600,2.8112724609375,-0.4643707275390625,0.0679168701171875,-0.1776275634765625
1782846804427277600,2.821277587890625,-0.375579833984375,0.036529541015625,-0.1785125732421875
1782846804437281500,2.831281494140625,-0.319915771484375,0.000732421875,-0.1629791259765625
1782846804447286500,2.84128662109375,-0.29095458984375,-0.007720947265625,-0.136962890625
1782846804457291500,2.85129150390625,-0.2957763671875,-0.019134521484375,-0.0984344482421875
1782846804467295700,2.861295654296875,-0.28070068359375,-0.04443359375,-0.068023681640625
1782846804477300700,2.87130078125,-0.23419189453125,-0.0556640625,-0.039276123046875
1782846804487305700,2.8813056640625,-0.1724395751953125,-0.0582275390625,-0.0074920654296875
1782846804497309700,2.891309814453125,-0.148406982421875,-0.0736083984375,0.0227203369140625
1782846804507314700,2.901314697265625,-0.2151947021484375,-0.0878143310546875,0.0306243896484375
1782846804517319700,2.911319580078125,-0.286224365234375,-0.0881500244140625,0.0279541015625
1782846804527323600,2.92132373046875,-0.3266754150390625,-0.0635223388671875,0.031890869140625
1782846804537328600,2.93132861328125,-0.39398193359375,-0.0385284423828125,0.064453125
1782846804547333600,2.941333740234375,-0.4614715576171875,-0.0257110595703125,0.1177215576171875
1782846804557337600,2.951337646484375,-0.520263671875,-0.0079803466796875,0.1671905517578125
1782846804567342600,2.961342529296875,-0.57952880859375,0.003021240234375,0.206024169921875
1782846804577346600,2.9713466796875,-0.6360015869140625,0.0096282958984375,0.22686767578125
1782846804587351600,2.9813515625,-0.6792755126953125,0.0161895751953125,0.2431640625
1782846804597356500,2.9913564453125,-0.71905517578125,0.0098724365234375,0.2303924560546875
1782846804607360500,3.001360595703125,-0.7807159423828125,-0.037353515625,0.180145263671875
1782846804617365500,3.011365478515625,-0.8562774658203125,-0.0841064453125,0.13116455078125
1782846804627370500,3.02137060546875,-0.9773101806640625,-0.1258087158203125,0.0530853271484375
1782846804637374700,3.031374755859375,-1.161956787109375,-0.19512939453125,-0.0651397705078125
1782846804647379700,3.041379638671875,-1.3661651611328125,-0.3093414306640625,-0.1616363525390625
1782846804657384700,3.051384765625,-1.5928802490234375,-0.41546630859375,-0.1814422607421875
1782846804667388700,3.061388671875,-1.8114776611328125,-0.5323486328125,-0.0943145751953125
1782846804677393700,3.0713935546875,-1.9480438232421875,-0.6559906005859375,0.109283447265625
1782846804687398700,3.081398681640625,-2.075836181640625,-0.7057037353515625,0.348175048828125
1782846804697402600,3.091402587890625,-2.28857421875,-0.719207763671875,0.5011749267578125
1782846804707407600,3.10140771484375,-2.54693603515625,-0.76953125,0.5528411865234375
1782846804717412600,3.11141259765625,-2.799652099609375,-0.77313232421875,0.532928466796875
1782846804727416600,3.12141650390625,-2.9339752197265625,-0.7274017333984375,0.48419189453125
1782846804737421600,3.131421630859375,-2.9021759033203125,-0.73577880859375,0.4110260009765625
1782846804747426600,3.141426513671875,-2.759674072265625,-0.79241943359375,0.3006439208984375
1782846804757430500,3.151430419921875,-2.578338623046875,-0.83172607421875,0.1754913330078125
1782846804767435500,3.161435546875,-2.4328155517578125,-0.8287506103515625,0.0516815185546875
1782846804777439500,3.171439453125,-2.25970458984375,-0.8008575439453125,-0.0530548095703125
1782846804787444500,3.181444580078125,-2.0604705810546875,-0.7388458251953125,-0.129425048828125
1782846804797449500,3.191449462890625,-1.8575897216796875,-0.6392364501953125,-0.1671905517578125
1782846804807453700,3.20145361328125,-1.6375885009765625,-0.5040435791015625,-0.1644287109375
1782846804817458700,3.211458740234375,-1.402862548828125,-0.3723602294921875,-0.1337127685546875
1782846804827464000,3.2214638671875,-1.21087646484375,-0.2572021484375,-0.1001739501953125
1782846804837468000,3.231468017578125,-1.0550384521484375,-0.147003173828125,-0.05499267578125
1782846804847473000,3.241472900390625,-0.8996124267578125,-0.058441162109375,0.0052490234375
1782846804857478000,3.251477783203125,-0.7431182861328125,-0.0033721923828125,0.0659027099609375
1782846804867481600,3.261481689453125,-0.583740234375,0.0147857666015625,0.101348876953125
1782846804877486600,3.271486572265625,-0.409759521484375,-0.00439453125,0.1363983154296875
1782846804887491600,3.28149169921875,-0.2321014404296875,-0.043060302734375,0.16790771484375
1782846804897495800,3.291495849609375,-0.0768890380859375,-0.06744384765625,0.1739959716796875
1782846804907500800,3.301500732421875,0.0299072265625,-0.06201171875,0.1633148193359375
1782846804917505800,3.311505859375,0.09307861328125,-0.0383453369140625,0.1375579833984375
1782846804927509800,3.321509765625,0.107421875,-0.0141448974609375,0.0978851318359375
1782846804937514800,3.3315146484375,0.1161346435546875,-0.0000762939453125,0.054443359375
1782846804947519700,3.341519775390625,0.1339569091796875,0.0158538818359375,0.021209716796875
1782846804957523700,3.351523681640625,0.1529083251953125,0.022918701171875,0.0024566650390625
1782846804967528700,3.36152880859375,0.182586669921875,0.0262603759765625,0.0003662109375
1782846804977533000,3.371532958984375,0.2186737060546875,0.02032470703125,0.0044097900390625
1782846804987538000,3.381537841796875,0.2368621826171875,0.0017547607421875,-0.0024871826171875
1782846804997543000,3.39154296875,0.24078369140625,-0.0140228271484375,-0.0013427734375
1782846805007547000,3.401546875,0.2288818359375,-0.018829345703125,0.0069122314453125
1782846805017552000,3.4115517578125,0.2155914306640625,-0.02239990234375,0.007232666015625
1782846805027556900,3.421556884765625,0.2058563232421875,-0.0184478759765625,0.0039520263671875
1782846805037560800,3.431560791015625,0.182647705078125,-0.0047454833984375,-0.0027008056640625
1782846805047565800,3.44156591796875,0.1630096435546875,0.0181121826171875,-0.009307861328125
1782846805057570800,3.45157080078125,0.1502685546875,0.0513153076171875,-0.014678955078125
1782846805067574800,3.46157470703125,0.0955963134765625,0.067596435546875,-0.00494384765625
1782846805077579800,3.471579833984375,0.03607177734375,0.0760498046875,-0.004241943359375
1782846805087584800,3.481584716796875,-0.009552001953125,0.07763671875,0.00048828125
1782846805097588700,3.491588623046875,-0.0504150390625,0.0777587890625,0.0254669189453125
1782846805107593700,3.50159375,-0.1136016845703125,0.067962646484375,0.0405120849609375
1782846805117598700,3.5115986328125,-0.19317626953125,0.0361785888671875,0.044891357421875
1782846805127602700,3.521602783203125,-0.279693603515625,-0.0083160400390625,0.0563812255859375
1782846805137608000,3.53160791015625,-0.4180755615234375,-0.0718231201171875,0.0552978515625
1782846805147613000,3.541613037109375,-0.6014862060546875,-0.1420135498046875,0.049072265625
1782846805157617000,3.551616943359375,-0.8353118896484375,-0.2327423095703125,0.0519866943359375
1782846805167622000,3.561621826171875,-1.1137542724609375,-0.3407745361328125,0.0926513671875
1782846805177625900,3.5716259765625,-1.38616943359375,-0.428619384765625,0.1555328369140625
1782846805187630800,3.581630859375,-1.517547607421875,-0.494842529296875,0.2399749755859375
1782846805197635800,3.5916357421875,-1.5441436767578125,-0.5141143798828125,0.3777618408203125
1782846805207639800,3.601639892578125,-1.590972900390625,-0.479217529296875,0.5292816162109375
1782846805217645000,3.61164501953125,-1.7491302490234375,-0.43182373046875,0.5767669677734375
1782846805227650000,3.621650146484375,-1.9917755126953125,-0.5297393798828125,0.4369049072265625
1782846805237653800,3.63165380859375,-2.2551116943359375,-0.743133544921875,0.2157745361328125
1782846805247658800,3.64165869140625,-2.4553375244140625,-0.837005615234375,0.0416259765625
1782846805257663700,3.651663818359375,-2.6060333251953125,-0.7148590087890625,0.01373291015625
1782846805267667700,3.661667724609375,-2.759307861328125,-0.46990966796875,0.1010284423828125
1782846805277672700,3.671672607421875,-2.820892333984375,-0.1675262451171875,0.261627197265625
1782846805287677700,3.681677734375,-2.7770843505859375,0.1048126220703125,0.3964080810546875
1782846805297682000,3.691681884765625,-2.6705780029296875,0.205535888671875,0.4107666015625
1782846805307687000,3.70168701171875,-2.4861297607421875,0.1363372802734375,0.355621337890625
1782846805317692000,3.71169189453125,-2.2085113525390625,-0.0593109130859375,0.2878875732421875
1782846805327696000,3.72169580078125,-1.8335723876953125,-0.34771728515625,0.242706298828125
1782846805337700900,3.731700927734375,-1.3640594482421875,-0.610687255859375,0.23443603515625
1782846805347705900,3.741705810546875,-0.9456329345703125,-0.7270965576171875,0.3077239990234375
1782846805357709800,3.751709716796875,-0.6784210205078125,-0.62872314453125,0.3617706298828125
1782846805367714800,3.76171484375,-0.544677734375,-0.4393768310546875,0.353790283203125
1782846805377719000,3.771718994140625,-0.517730712890625,-0.2806854248046875,0.2878570556640625
1782846805387724000,3.78172412109375,-0.5684051513671875,-0.1920166015625,0.1711883544921875
1782846805397729000,3.79172900390625,-0.6292877197265625,-0.1130523681640625,0.0606231689453125
1782846805407732700,3.801732666015625,-0.6415557861328125,-0.0334014892578125,-0.010833740234375
1782846805417737700,3.81173779296875,-0.5980224609375,0.02386474609375,-0.0518035888671875
1782846805427742700,3.82174267578125,-0.5267486572265625,0.0583953857421875,-0.077178955078125
1782846805437746700,3.83174658203125,-0.4593353271484375,0.0669097900390625,-0.1009674072265625
1782846805447751700,3.841751708984375,-0.39630126953125,0.060699462890625,-0.1170806884765625
1782846805457756700,3.851756591796875,-0.337615966796875,0.04473876953125,-0.1290740966796875
1782846805467761000,3.861760986328125,-0.2874755859375,0.0221405029296875,-0.1221923828125
1782846805477766000,3.871765869140625,-0.2594451904296875,0.0005035400390625,-0.1340484619140625
1782846805487771000,3.88177099609375,-0.24542236328125,-0.014923095703125,-0.1609954833984375
1782846805497774800,3.89177490234375,-0.2508697509765625,-0.0115966796875,-0.16998291015625
1782846805507779800,3.90177978515625,-0.27410888671875,-0.0232696533203125,-0.1718597412109375
1782846805517784800,3.911784912109375,-0.281280517578125,-0.0440826416015625,-0.1567535400390625
1782846805527788800,3.921788818359375,-0.2830047607421875,-0.0537872314453125,-0.113189697265625
1782846805537793800,3.931793701171875,-0.2933349609375,-0.0578155517578125,-0.0459442138671875
1782846805547798800,3.941798828125,-0.325103759765625,-0.0562591552734375,0.024505615234375
1782846805557803000,3.951802978515625,-0.3776092529296875,-0.05364990234375,0.0850982666015625
1782846805567808000,3.96180810546875,-0.4254913330078125,-0.031097412109375,0.1315155029296875
1782846805577811700,3.971811767578125,-0.47076416015625,0.0081329345703125,0.1684722900390625
1782846805587816700,3.981816650390625,-0.5363616943359375,0.0299224853515625,0.1923980712890625
1782846805597821700,3.99182177734375,-0.6040191650390625,0.04339599609375,0.21380615234375
1782846805607825700,4.00182568359375,-0.65252685546875,0.0569305419921875,0.2161102294921875
1782846805617830700,4.01183056640625,-0.7037200927734375,0.067596435546875,0.1885986328125
1782846805627835600,4.021835693359375,-0.783355712890625,0.071014404296875,0.1541595458984375
1782846805637840000,4.03183984375,-0.8988800048828125,0.056396484375,0.108673095703125
1782846805647844900,4.041844970703125,-1.0598602294921875,0.0210113525390625,0.05487060546875
1782846805657849900,4.051849853515625,-1.2582244873046875,-0.035552978515625,0.005615234375
1782846805667853800,4.061853759765625,-1.4940948486328125,-0.1036376953125,-0.0326995849609375
1782846805677858800,4.07185888671875,-1.7771148681640625,-0.1673736572265625,-0.032806396484375
1782846805687863800,4.08186376953125,-2.109466552734375,-0.207427978515625,0.040771484375
1782846805697867800,4.09186767578125,-2.37884521484375,-0.23321533203125,0.199371337890625
1782846805707872800,4.101872802734375,-2.504150390625,-0.2176055908203125,0.37908935546875
1782846805717877800,4.111877685546875,-2.60418701171875,-0.2659759521484375,0.4878692626953125
1782846805727882000,4.121882080078125,-2.826568603515625,-0.3737335205078125,0.5567626953125
1782846805737887000,4.131886962890625,-3.013275146484375,-0.393646240234375,0.589630126953125
1782846805747890700,4.141890625,-3.0287628173828125,-0.3840484619140625,0.568756103515625
1782846805757895700,4.151895751953125,-2.9734039306640625,-0.415283203125,0.4917755126953125
1782846805767900700,4.161900634765625,-2.8005828857421875,-0.4909210205078125,0.383148193359375
1782846805777904600,4.171904541015625,-2.53887939453125,-0.5537567138671875,0.2705535888671875
1782846805787909600,4.18190966796875,-2.3259429931640625,-0.5531158447265625,0.17022705078125
1782846805797914600,4.19191455078125,-2.141387939453125,-0.5203094482421875,0.0640106201171875
1782846805807918800,4.2019189453125,-1.9728851318359375,-0.43145751953125,-0.0254058837890625
1782846805817923800,4.211923828125,-1.8035736083984375,-0.2771453857421875,-0.0581512451171875
1782846805827928800,4.2219287109375,-1.594390869140625,-0.09857177734375,-0.0478515625
1782846805837932800,4.231932861328125,-1.3570556640625,0.062347412109375,-0.035552978515625
1782846805847937800,4.241937744140625,-1.137542724609375,0.178802490234375,-0.04119873046875
1782846805857942800,4.25194287109375,-0.9174957275390625,0.2479248046875,-0.0462188720703125
1782846805867946800,4.26194677734375,-0.696685791015625,0.2831573486328125,-0.0474395751953125
1782846805877951700,4.27195166015625,-0.4958953857421875,0.26885986328125,-0.0649871826171875
1782846805887956700,4.281956787109375,-0.320892333984375,0.20391845703125,-0.0818328857421875
1782846805897961000,4.2919609375,-0.1550140380859375,0.111907958984375,-0.08648681640625
1782846805907966000,4.301966064453125,0.0100555419921875,0.0201873779296875,-0.0688934326171875
1782846805917970000,4.311969970703125,0.1441650390625,-0.0518646240234375,-0.0377960205078125
1782846805927975000,4.321974853515625,0.2445526123046875,-0.100921630859375,-0.015960693359375
1782846805937980000,4.33197998046875,0.3132171630859375,-0.1179962158203125,0.0069732666015625
1782846805947984000,4.34198388671875,0.3315277099609375,-0.1312255859375,0.029754638671875
1782846805957988900,4.35198876953125,0.304595947265625,-0.124176025390625,0.047027587890625
1782846805967993900,4.361993896484375,0.23052978515625,-0.10369873046875,0.0442962646484375
1782846805977997800,4.371997802734375,0.1947021484375,-0.0735931396484375,0.064361572265625
1782846805988002800,4.3820029296875,0.1971588134765625,-0.0491943359375,0.092803955078125
1782846805998007800,4.3920078125,0.211212158203125,-0.0343475341796875,0.12896728515625
1782846806008011800,4.40201171875,0.220245361328125,-0.02105712890625,0.1446990966796875
1782846806018016800,4.412016845703125,0.219818115234375,-0.0127410888671875,0.1361083984375
1782846806028021800,4.422021728515625,0.2079925537109375,-0.006622314453125,0.1204071044921875
1782846806038026000,4.43202587890625,0.210235595703125,-0.0042266845703125,0.08740234375
1782846806048031000,4.442031005859375,0.1966552734375,0.0117340087890625,0.04400634765625
1782846806058036000,4.452035888671875,0.1512908935546875,0.0410919189453125,0.0039825439453125
1782846806068040000,4.4620400390625,0.1112518310546875,0.0646514892578125,-0.03460693359375
1782846806078045000,4.472044921875,0.07763671875,0.0740966796875,-0.06304931640625
1782846806088050000,4.4820498046875,0.0542144775390625,0.0805206298828125,-0.076873779296875
1782846806098054000,4.492053955078125,0.0209197998046875,0.093353271484375,-0.0574493408203125
1782846806108059000,4.502058837890625,-0.024871826171875,0.1095733642578125,-0.0349578857421875
1782846806118062800,4.512062744140625,-0.0922698974609375,0.1203155517578125,-0.022674560546875
1782846806128068000,4.522068115234375,-0.16778564453125,0.1060333251953125,-0.015411376953125
1782846806138073000,4.532072998046875,-0.23321533203125,0.0720977783203125,0.000244140625
1782846806148076800,4.542076904296875,-0.354339599609375,0.0072174072265625,0.0425262451171875
1782846806158081800,4.552081787109375,-0.504486083984375,-0.062530517578125,0.072296142578125
1782846806168086800,4.562086669921875,-0.7030487060546875,-0.0936431884765625,0.08160400390625
1782846806178090800,4.5720908203125,-0.993133544921875,-0.1118316650390625,0.1114044189453125
1782846806188095700,4.582095703125,-1.3502960205078125,-0.1837615966796875,0.159088134765625
1782846806198100700,4.592100830078125,-1.66473388671875,-0.285614013671875,0.227203369140625
1782846806208105000,4.60210498046875,-1.8959503173828125,-0.374542236328125,0.311920166015625
1782846806218110000,4.61210986328125,-2.0169525146484375,-0.47503662109375,0.403411865234375
1782846806228115000,4.622114990234375,-2.013641357421875,-0.604583740234375,0.497222900390625
1782846806238119000,4.632118896484375,-2.011138916015625,-0.69293212890625,0.511993408203125
1782846806248124000,4.6421240234375,-2.197723388671875,-0.8541717529296875,0.4203643798828125
1782846806258129000,4.65212890625,-2.5580902099609375,-0.861236572265625,0.395477294921875
1782846806268132900,4.6621328125,-2.8559722900390625,-0.6021728515625,0.496337890625
1782846806278137900,4.672137939453125,-2.91632080078125,-0.247039794921875,0.6394195556640625
1782846806288142800,4.682142822265625,-2.8536529541015625,-0.007659912109375,0.669189453125
1782846806298147000,4.69214697265625,-2.7523345947265625,0.0010833740234375,0.526580810546875
1782846806308152000,4.702152099609375,-2.51641845703125,-0.1341400146484375,0.3380584716796875
1782846806318155800,4.71215576171875,-2.1226959228515625,-0.3830718994140625,0.2251129150390625
1782846806328160800,4.722160888671875,-1.6639251708984375,-0.7096405029296875,0.2185211181640625
1782846806338165800,4.732165771484375,-1.229705810546875,-0.898193359375,0.2891082763671875
1782846806348169700,4.742169677734375,-0.927642822265625,-0.794036865234375,0.3741607666015625
1782846806358174700,4.7521748046875,-0.7896728515625,-0.5523681640625,0.4149017333984375
1782846806368179700,4.7621796875,-0.7829437255859375,-0.337005615234375,0.375823974609375
1782846806378184000,4.772183837890625,-0.8337860107421875,-0.18414306640625,0.272369384765625
1782846806388189000,4.78218896484375,-0.8343505859375,-0.0489959716796875,0.1762847900390625
1782846806398194000,4.79219384765625,-0.8062896728515625,0.039398193359375,0.06866455078125
1782846806408198000,4.802197998046875,-0.774658203125,0.0622406005859375,-0.014434814453125
1782846806418203000,4.812202880859375,-0.7033843994140625,0.086090087890625,-0.062347412109375
1782846806428207900,4.822207763671875,-0.59820556640625,0.1092681884765625,-0.0987548828125
1782846806438211800,4.8322119140625,-0.498138427734375,0.1000823974609375,-0.1178131103515625
1782846806448216800,4.842216796875,-0.4020538330078125,0.0762481689453125,-0.1192169189453125
1782846806458221800,4.852221923828125,-0.299285888671875,0.0407257080078125,-0.1232147216796875
1782846806468226000,4.86222607421875,-0.2047119140625,0.0157470703125,-0.113616943359375
1782846806478231000,4.87223095703125,-0.1499481201171875,-0.002685546875,-0.1091156005859375
1782846806488234800,4.88223486328125,-0.13751220703125,-0.0279388427734375,-0.111785888671875
1782846806498239700,4.89223974609375,-0.1398162841796875,-0.0402984619140625,-0.1114044189453125
1782846806508244700,4.90224462890625,-0.17852783203125,-0.0250244140625,-0.102447509765625
1782846806518248700,4.912248779296875,-0.2410430908203125,-0.0192413330078125,-0.08441162109375
1782846806528253700,4.922253662109375,-0.286651611328125,-0.031585693359375,-0.0497589111328125
1782846806538258700,4.9322587890625,-0.3100128173828125,-0.0556182861328125,-0.0010833740234375
1782846806548263000,4.942262939453125,-0.310638427734375,-0.0742340087890625,0.0338592529296875
1782846806558268000,4.952267822265625,-0.3269500732421875,-0.0947418212890625,0.07891845703125
1782846806568273000,4.96227294921875,-0.37261962890625,-0.106536865234375,0.1024017333984375
1782846806578276900,4.97227685546875,-0.4283447265625,-0.0775299072265625,0.1190948486328125
1782846806588281900,4.98228173828125,-0.501556396484375,-0.007354736328125,0.146942138671875
1782846806598286800,4.992286865234375,-0.6173095703125,0.0545806884765625,0.14361572265625
1782846806608290800,5.002290771484375,-0.7421112060546875,0.1115875244140625,0.12127685546875
1782846806618295800,5.0122958984375,-0.8561553955078125,0.1949615478515625,0.11712646484375
1782846806628300000,5.022300048828125,-0.9709625244140625,0.2587890625,0.1329345703125
1782846806638305000,5.032304931640625,-1.05426025390625,0.2517242431640625,0.1561431884765625
1782846806648310000,5.04231005859375,-1.1142425537109375,0.192718505859375,0.173675537109375
1782846806658313700,5.052313720703125,-1.1603546142578125,0.09515380859375,0.1787872314453125
1782846806668318700,5.062318603515625,-1.2314605712890625,-0.0292510986328125,0.1690521240234375
1782846806678323700,5.07232373046875,-1.3490753173828125,-0.1560211181640625,0.1678314208984375
1782846806688327700,5.08232763671875,-1.52435302734375,-0.280670166015625,0.2138671875
1782846806698332700,5.092332763671875,-1.78326416015625,-0.37945556640625,0.2627105712890625
1782846806708337700,5.102337646484375,-2.1103668212890625,-0.4368133544921875,0.32623291015625
1782846806718342000,5.112341796875,-2.3789520263671875,-0.461578369140625,0.4456787109375
1782846806728347000,5.122346923828125,-2.55987548828125,-0.406890869140625,0.6349945068359375
1782846806738351900,5.132351806640625,-2.8130035400390625,-0.4126129150390625,0.79559326171875
1782846806748355800,5.14235595703125,-3.0510711669921875,-0.469879150390625,0.8597869873046875
1782846806758360800,5.15236083984375,-3.1409454345703125,-0.48529052734375,0.7745819091796875
1782846806768365800,5.16236572265625,-3.045928955078125,-0.4967498779296875,0.5998077392578125
1782846806778369800,5.172369873046875,-2.8442535400390625,-0.4972991943359375,0.4397430419921875
1782846806788374800,5.182374755859375,-2.6327667236328125,-0.489013671875,0.3120574951171875
1782846806798379000,5.19237890625,-2.3857574462890625,-0.4998016357421875,0.165130615234375
1782846806808384000,5.202384033203125,-2.1429290771484375,-0.4744415283203125,0.018310546875
1782846806818389000,5.212388916015625,-1.8942413330078125,-0.41839599609375,-0.1041107177734375
1782846806828392400,5.222392333984375,-1.6524505615234375,-0.3297882080078125,-0.1443328857421875
1782846806838397400,5.2323974609375,-1.405792236328125,-0.2105255126953125,-0.11029052734375
1782846806848402400,5.24240234375,-1.163848876953125,-0.0906829833984375,-0.05120849609375
1782846806858406700,5.25240673828125,-0.94488525390625,-0.001983642578125,-0.0118865966796875
1782846806868411600,5.26241162109375,-0.7371826171875,0.062530517578125,0.0130157470703125
1782846806878416600,5.272416748046875,-0.549407958984375,0.1027374267578125,0.0236663818359375
1782846806888420600,5.282420654296875,-0.3949127197265625,0.1112213134765625,0.023101806640625
1782846806898425600,5.292425537109375,-0.2649993896484375,0.0973358154296875,0.02435302734375
1782846806908430600,5.3024306640625,-0.1580810546875,0.079437255859375,0.024200439453125
1782846806918434300,5.312434326171875,-0.0652008056640625,0.06695556640625,0.0207366943359375
1782846806928439300,5.322439208984375,0.023590087890625,0.056182861328125,0.0202178955078125
1782846806938444300,5.3324443359375,0.0882720947265625,0.05523681640625,0.023468017578125
1782846806948448500,5.342448486328125,0.1476287841796875,0.07080078125,0.02288818359375
1782846806958453500,5.35245361328125,0.192047119140625,0.0862274169921875,0.014404296875
1782846806968457500,5.36245751953125,0.1951446533203125,0.1025543212890625,-0.006195068359375
1782846806978462500,5.37246240234375,0.1957855224609375,0.1077880859375,-0.0295257568359375
1782846806988467500,5.382467529296875,0.2006378173828125,0.087310791015625,-0.050994873046875
1782846806998471400,5.392471435546875,0.198516845703125,0.0440216064453125,-0.079803466796875
1782846807008476400,5.402476318359375,0.2115020751953125,0.006195068359375,-0.0974884033203125
1782846807018481400,5.4124814453125,0.239776611328125,-0.0227203369140625,-0.09881591796875
1782846807028485600,5.422485595703125,0.282135009765625,-0.0433502197265625,-0.0805206298828125
1782846807038490600,5.43249072265625,0.3024139404296875,-0.0598907470703125,-0.060516357421875
1782846807048495600,5.44249560546875,0.2945709228515625,-0.07171630859375,-0.0363616943359375
1782846807058499600,5.45249951171875,0.2550048828125,-0.064361572265625,-0.0031890869140625
1782846807068504600,5.462504638671875,0.1873016357421875,-0.047393798828125,0.0359954833984375
1782846807078509600,5.472509521484375,0.1307373046875,-0.0267181396484375,0.056060791015625
1782846807088513300,5.48251318359375,0.070220947265625,-0.0019683837890625,0.05877685546875
1782846807098518300,5.492518310546875,-0.009307861328125,0.0322113037109375,0.0678253173828125
1782846807108522500,5.5025224609375,-0.111053466796875,0.0658416748046875,0.0674591064453125
1782846807118527500,5.512527587890625,-0.247406005859375,0.0801849365234375,0.047210693359375
1782846807128532500,5.522532470703125,-0.3846588134765625,0.055419921875,0.0209808349609375
1782846807138536400,5.532536376953125,-0.51910400390625,0.0174102783203125,0.0337982177734375
1782846807148541400,5.54254150390625,-0.642059326171875,-0.0420989990234375,0.087890625
1782846807158546400,5.55254638671875,-0.7820892333984375,-0.1203460693359375,0.1445465087890625
1782846807168550400,5.56255029296875,-0.9969482421875,-0.17987060546875,0.190887451171875
1782846807178555400,5.572555419921875,-1.2798309326171875,-0.224395751953125,0.204193115234375
1782846807188560400,5.582560302734375,-1.543182373046875,-0.30364990234375,0.167022705078125
1782846807198564600,5.592564697265625,-1.7095184326171875,-0.3811187744140625,0.137115478515625
1782846807208569600,5.602569580078125,-1.8101348876953125,-0.4441375732421875,0.1977081298828125
1782846807218574600,5.61257470703125,-1.8397674560546875,-0.515899658203125,0.300933837890625
1782846807228578600,5.62257861328125,-1.804290771484375,-0.527862548828125,0.39385986328125
1782846807238583600,5.63258349609375,-1.8765716552734375,-0.659454345703125,0.384796142578125
1782846807248587300,5.642587158203125,-2.116729736328125,-0.895233154296875,0.3074188232421875
1782846807258592500,5.652592529296875,-2.3592681884765625,-0.9093475341796875,0.310638427734375
1782846807268597500,5.662597412109375,-2.567474365234375,-0.645751953125,0.4107208251953125
1782846807278601500,5.6726015625,-2.690673828125,-0.2890167236328125,0.5622100830078125
1782846807288606500,5.6826064453125,-2.6718597412109375,0.0009765625,0.666473388671875
1782846807298611500,5.692611572265625,-2.5445709228515625,0.14349365234375,0.6442413330078125
1782846807308615400,5.702615478515625,-2.35028076171875,0.134124755859375,0.5036773681640625
1782846807318620400,5.712620361328125,-2.06097412109375,0.0059051513671875,0.3125152587890625
1782846807328625400,5.72262548828125,-1.7009429931640625,-0.2124176025390625,0.1661834716796875
1782846807338629400,5.73262939453125,-1.257293701171875,-0.50390625,0.09393310546875
1782846807348634400,5.74263427734375,-0.806610107421875,-0.72271728515625,0.09393310546875
1782846807358639400,5.752639404296875,-0.4646148681640625,-0.7322235107421875,0.117431640625
1782846807368643600,5.7626435546875,-0.3191375732421875,-0.5706634521484375,0.0967559814453125
1782846807378648600,5.772648681640625,-0.3859405517578125,-0.402374267578125,0.0227813720703125
1782846807388652500,5.782652587890625,-0.5350494384765625,-0.2772369384765625,-0.0551300048828125
1782846807398657500,5.792657470703125,-0.6144866943359375,-0.1294708251953125,-0.09246826171875
1782846807408662500,5.80266259765625,-0.645538330078125,-0.001739501953125,-0.139251708984375
1782846807418666500,5.81266650390625,-0.669036865234375,0.0755767822265625,-0.1700286865234375
1782846807428671500,5.82267138671875,-0.65625,0.119873046875,-0.1750946044921875
1782846807438676500,5.832676513671875,-0.62408447265625,0.134918212890625,-0.1496734619140625
1782846807448680400,5.842680419921875,-0.5647125244140625,0.1156768798828125,-0.099945068359375
1782846807458685400,5.852685546875,-0.4809722900390625,0.0724029541015625,-0.0567779541015625
1782846807468690400,5.8626904296875,-0.436279296875,0.0091400146484375,-0.02880859375
1782846807478694400,5.8726943359375,-0.4195404052734375,-0.0540771484375,-0.004119873046875
1782846807488699400,5.882699462890625,-0.40020751953125,-0.101165771484375,0.027191162109375
1782846807498704400,5.892704345703125,-0.3990478515625,-0.1336212158203125,0.0705108642578125
1782846807508708400,5.902708251953125,-0.40966796875,-0.159912109375,0.1037750244140625
1782846807518713600,5.912713623046875,-0.4227294921875,-0.17205810546875,0.1236724853515625
1782846807528717600,5.922717529296875,-0.432403564453125,-0.1715240478515625,0.1286163330078125
1782846807538722600,5.93272265625,-0.46588134765625,-0.163787841796875,0.134307861328125
1782846807548727600,5.9427275390625,-0.51837158203125,-0.16314697265625,0.140228271484375
1782846807558731500,5.9527314453125,-0.5876312255859375,-0.1609649658203125,0.1584930419921875
1782846807568736500,5.962736572265625,-0.6504058837890625,-0.1216888427734375,0.19549560546875
1782846807578741500,5.972741455078125,-0.6993865966796875,-0.0602569580078125,0.2172088623046875
1782846807588745500,5.982745361328125,-0.7711334228515625,0.0114593505859375,0.2277069091796875
1782846807598750500,5.99275048828125,-0.86212158203125,0.0832672119140625,0.211456298828125
1782846807608755700,6.002755615234375,-0.92181396484375,0.128448486328125,0.15869140625
1782846807618759400,6.012759521484375,-0.945831298828125,0.1371612548828125,0.0796661376953125
1782846807628764400,6.022764404296875,-0.9499969482421875,0.116943359375,0.0125732421875
1782846807638769400,6.032769287109375,-0.9596405029296875,0.0820159912109375,-0.020294189453125
1782846807648773400,6.0427734375,-0.953460693359375,0.0273284912109375,-0.0383453369140625
1782846807658778400,6.0527783203125,-0.933685302734375,-0.0528717041015625,-0.0212249755859375
1782846807668782600,6.062782470703125,-0.9326019287109375,-0.13531494140625,0.0209197998046875
1782846807678787600,6.07278759765625,-0.9811248779296875,-0.2205657958984375,0.039825439453125
1782846807688792600,6.08279248046875,-1.098785400390625,-0.32855224609375,0.0291900634765625
1782846807698796500,6.092796630859375,-1.2396240234375,-0.4146575927734375,0.032867431640625
1782846807708801500,6.102801513671875,-1.4322662353515625,-0.4842376708984375,0.101593017578125
1782846807718806500,6.112806640625,-1.658966064453125,-0.5260162353515625,0.223602294921875
1782846807728810500,6.122810546875,-1.8675384521484375,-0.5162506103515625,0.3734283447265625
1782846807738815500,6.1328154296875,-2.0535888671875,-0.476654052734375,0.527252197265625
1782846807748820500,6.142820556640625,-2.2601470947265625,-0.440948486328125,0.6260528564453125
1782846807758824700,6.15282470703125,-2.4662322998046875,-0.4368743896484375,0.6348419189453125
1782846807768829700,6.16282958984375,-2.611297607421875,-0.441864013671875,0.561798095703125
1782846807778834700,6.172834716796875,-2.66900634765625,-0.4297332763671875,0.4286651611328125
1782846807788838400,6.18283837890625,-2.6094970703125,-0.444305419921875,0.2755279541015625
1782846807798843400,6.192843505859375,-2.4799957275390625,-0.4802703857421875,0.1669464111328125
1782846807808847400,6.202847412109375,-2.353363037109375,-0.5259857177734375,0.0779571533203125
1782846807818852400,6.212852294921875,-2.2118682861328125,-0.5628204345703125,0.004730224609375
1782846807828857000,6.222857177734375,-2.053741455078125,-0.561370849609375,-0.02606201171875
1782846807838861300,6.232861328125,-1.8842315673828125,-0.4984588623046875,0.00018310546875
1782846807848866300,6.2428662109375,-1.68548583984375,-0.4096221923828125,0.06121826171875
1782846807858871300,6.252871337890625,-1.47265625,-0.3401336669921875,0.1173553466796875
1782846807868875000,6.262875,-1.2334442138671875,-0.290863037109375,0.16094970703125
1782846807878880000,6.2728798828125,-0.9886322021484375,-0.255767822265625,0.191986083984375
1782846807888885000,6.282885009765625,-0.777801513671875,-0.2348785400390625,0.2131500244140625
1782846807898889000,6.292888916015625,-0.6033935546875,-0.215911865234375,0.2208099365234375
1782846807908894000,6.30289404296875,-0.4732818603515625,-0.1898040771484375,0.20904541015625
1782846807918899000,6.31289892578125,-0.390869140625,-0.1412506103515625,0.182708740234375
1782846807928903200,6.322903076171875,-0.3499908447265625,-0.098602294921875,0.1479949951171875
1782846807938908200,6.332908203125,-0.3045806884765625,-0.0545654296875,0.1132354736328125
1782846807948912000,6.342912109375,-0.243072509765625,-0.022979736328125,0.0749359130859375
1782846807958917000,6.352917236328125,-0.2002105712890625,-0.0088653564453125,0.02301025390625
1782846807968922000,6.362922119140625,-0.169464111328125,0.0211334228515625,-0.0353546142578125
1782846807978926000,6.372926025390625,-0.14404296875,0.0678558349609375,-0.0753631591796875
1782846807988931000,6.38293115234375,-0.1317138671875,0.108642578125,-0.104095458984375
1782846807998936000,6.39293603515625,-0.0965728759765625,0.1220855712890625,-0.12701416015625
1782846808008940300,6.402940185546875,-0.0573272705078125,0.1139068603515625,-0.134490966796875
1782846808018945300,6.4129453125,-0.013641357421875,0.07763671875,-0.1414642333984375
1782846808028950300,6.4229501953125,0.0531005859375,0.030670166015625,-0.13372802734375
1782846808038954000,6.4329541015625,0.108978271484375,-0.0184173583984375,-0.0960693359375
1782846808048959000,6.442958984375,0.1535797119140625,-0.065765380859375,-0.03973388671875
1782846808058964000,6.4529638671875,0.1993255615234375,-0.0908660888671875,0.01483154296875
1782846808068968000,6.462968017578125,0.22296142578125,-0.074920654296875,0.070953369140625
1782846808078973000,6.472972900390625,0.2005157470703125,-0.0406646728515625,0.1204071044921875
1782846808088977200,6.48297705078125,0.146392822265625,-0.0015106201171875,0.1447296142578125
1782846808098982100,6.492982177734375,0.077239990234375,0.027618408203125,0.1125640869140625
1782846808108987100,6.502987060546875,0.021331787109375,0.0609130859375,0.0615997314453125
1782846808118991000,6.5129912109375,-0.018768310546875,0.087371826171875,0.000885009765625
1782846808128996000,6.52299609375,-0.050872802734375,0.1001434326171875,-0.05047607421875
1782846808139001000,6.5330009765625,-0.06744384765625,0.1028900146484375,-0.072265625
1782846808149005000,6.543005126953125,-0.07366943359375,0.09442138671875,-0.0757904052734375
1782846808159010000,6.553010009765625,-0.1103515625,0.052825927734375,-0.077789306640625
1782846808169015300,6.563015380859375,-0.1812591552734375,-0.0082550048828125,-0.080535888671875
1782846808179019300,6.573019287109375,-0.25982666015625,-0.059844970703125,-0.074920654296875
1782846808189024300,6.583024169921875,-0.3754119873046875,-0.125946044921875,-0.085906982421875
1782846808199028000,6.593028076171875,-0.5400238037109375,-0.2168121337890625,-0.118133544921875
1782846808209033000,6.603032958984375,-0.767974853515625,-0.2761688232421875,-0.125762939453125
1782846808219038000,6.613037841796875,-1.0705718994140625,-0.321990966796875,-0.139556884765625
1782846808229042200,6.623042236328125,-1.3436126708984375,-0.3418121337890625,-0.09912109375
1782846808239047200,6.633047119140625,-1.528717041015625,-0.3308258056640625,0.0421600341796875
1782846808249052200,6.64305224609375,-1.707672119140625,-0.4119720458984375,0.1851043701171875
1782846808259056000,6.65305615234375,-1.87841796875,-0.6746673583984375,0.2081146240234375
1782846808269061000,6.66306103515625,-1.878662109375,-0.8086700439453125,0.175811767578125
1782846808279066000,6.673066162109375,-2.0357666015625,-0.784912109375,0.163330078125
1782846808289070000,6.683070068359375,-2.4863739013671875,-0.6429595947265625,0.28076171875
1782846808299075000,6.693074951171875,-2.7054901123046875,-0.255218505859375,0.55584716796875
1782846808309079300,6.703079345703125,-2.6954345703125,0.2462005615234375,0.790496826171875
1782846808319084300,6.713084228515625,-2.7273406982421875,0.50189208984375,0.7401580810546875
1782846808329089300,6.72308935546875,-2.76007080078125,0.4474639892578125,0.471405029296875
1782846808339093200,6.73309326171875,-2.6434326171875,0.2157135009765625,0.1867828369140625
1782846808349098200,6.74309814453125,-2.250152587890625,-0.132049560546875,0.02447509765625
1782846808359103200,6.753103271484375,-1.6484222412109375,-0.665130615234375,-0.007537841796875
1782846808369107000,6.76310693359375,-1.0940399169921875,-1.0989227294921875,0.1003265380859375
1782846808379112000,6.77311181640625,-0.7840423583984375,-0.95819091796875,0.299102783203125
1782846808389117000,6.783116943359375,-0.770538330078125,-0.555572509765625,0.4060821533203125
1782846808399121200,6.79312109375,-0.9794769287109375,-0.308807373046875,0.3579864501953125
1782846808409126100,6.803126220703125,-1.1751708984375,-0.1739959716796875,0.298187255859375
1782846808419131100,6.813131103515625,-1.1782073974609375,-0.0436248779296875,0.2569122314453125
1782846808429135000,6.823135009765625,-1.104522705078125,0.066497802734375,0.2211456298828125
1782846808439140000,6.83314013671875,-1.006927490234375,0.1108551025390625,0.1680145263671875
1782846808449144000,6.84314404296875,-0.89569091796875,0.1192169189453125,0.095428466796875
1782846808459149000,6.853149169921875,-0.7811279296875,0.1131439208984375,0.026641845703125
1782846808469154000,6.863154052734375,-0.6618499755859375,0.080322265625,-0.0383758544921875
1782846808479158300,6.873158203125,-0.5587310791015625,0.0251922607421875,-0.100067138671875
1782846808489163300,6.883163330078125,-0.462677001953125,-0.0263824462890625,-0.1455841064453125
1782846808499168300,6.893168212890625,-0.378662109375,-0.0657806396484375,-0.177520751953125
1782846808509172200,6.903172119140625,-0.3260498046875,-0.0989532470703125,-0.2030487060546875
1782846808519177200,6.91317724609375,-0.2972869873046875,-0.1201934814453125,-0.208770751953125
1782846808529182200,6.92318212890625,-0.2848968505859375,-0.13726806640625,-0.201629638671875
1782846808539186000,6.93318603515625,-0.275604248046875,-0.144287109375,-0.1922760009765625
1782846808549191000,6.94319091796875,-0.3062896728515625,-0.1371612548828125,-0.168914794921875
1782846808559195100,6.953195068359375,-0.3582763671875,-0.141357421875,-0.138427734375
1782846808569200000,6.9632001953125,-0.39093017578125,-0.1328582763671875,-0.10546875
1782846808579205000,6.973205078125,-0.4058380126953125,-0.0949554443359375,-0.05908203125
1782846808589209000,6.983208984375,-0.4487762451171875,-0.0442657470703125,-0.012420654296875
1782846808599214000,6.993214111328125,-0.51373291015625,-0.0040130615234375,0.01788330078125
1782846808609219000,7.003218994140625,-0.5513153076171875,0.0321502685546875,0.030364990234375
1782846808619223000,7.01322314453125,-0.577545166015625,0.0638885498046875,0.0265045166015625
1782846808629228000,7.02322802734375,-0.6216888427734375,0.100006103515625,0.0314483642578125
1782846808639233000,7.03323291015625,-0.671051025390625,0.140899658203125,0.059967041015625
1782846808649237200,7.0432373046875,-0.7149810791015625,0.163238525390625,0.09552001953125
1782846808659242200,7.0532421875,-0.7215576171875,0.1538238525390625,0.13677978515625
1782846808669247200,7.063247314453125,-0.69427490234375,0.1211700439453125,0.1623687744140625
1782846808679251200,7.073251220703125,-0.6753387451171875,0.0630645751953125,0.155059814453125
1782846808689256200,7.083256103515625,-0.68170166015625,-0.0095672607421875,0.1376190185546875
1782846808699260000,7.093260009765625,-0.697265625,-0.0750579833984375,0.12664794921875
1782846808709265200,7.10326513671875,-0.77313232421875,-0.1401214599609375,0.102386474609375
1782846808719270100,7.113270263671875,-0.9466094970703125,-0.1915740966796875,0.0726318359375
1782846808729274000,7.123274169921875,-1.1962738037109375,-0.22857666015625,0.0385284423828125
1782846808739279000,7.133279052734375,-1.509613037109375,-0.258880615234375,-0.0125579833984375
1782846808749284000,7.1432841796875,-1.802642822265625,-0.2769317626953125,-0.037933349609375
1782846808759288000,7.1532880859375,-2.0030364990234375,-0.31591796875,0.00970458984375
1782846808769293000,7.16329296875,-2.2120208740234375,-0.37969970703125,0.1094207763671875
1782846808779298000,7.173298095703125,-2.3719482421875,-0.4553985595703125,0.2683258056640625
1782846808789302000,7.183302001953125,-2.48468017578125,-0.5115203857421875,0.4498443603515625
1782846808799307000,7.19330712890625,-2.5948944091796875,-0.5458221435546875,0.5709075927734375
1782846808809311200,7.203311279296875,-2.6736602783203125,-0.5392303466796875,0.6156768798828125
1782846808819316200,7.213316162109375,-2.7220611572265625,-0.5021820068359375,0.5655975341796875
1782846808829321500,7.223321533203125,-2.6937103271484375,-0.484466552734375,0.412506103515625
1782846808839325400,7.233325439453125,-2.542938232421875,-0.4905242919921875,0.256103515625
1782846808849330400,7.243330322265625,-2.37115478515625,-0.506378173828125,0.1201171875
1782846808859335400,7.25333544921875,-2.199005126953125,-0.5394439697265625,-0.002838134765625
1782846808869339100,7.263339111328125,-2.0141754150390625,-0.5427703857421875,-0.05426025390625
1782846808879344000,7.27334423828125,-1.8521270751953125,-0.4797821044921875,-0.014556884765625
1782846808889349000,7.28334912109375,-1.6920318603515625,-0.3545684814453125,0.0841827392578125
1782846808899353300,7.293353271484375,-1.52569580078125,-0.2310943603515625,0.1685333251953125
1782846808909358300,7.3033583984375,-1.3500518798828125,-0.1505584716796875,0.1990814208984375
1782846808919362300,7.3133623046875,-1.1368865966796875,-0.0886077880859375,0.2065582275390625
1782846808929367300,7.3233671875,-0.9387359619140625,-0.0460357666015625,0.2101593017578125
1782846808939372300,7.333372314453125,-0.787628173828125,-0.028167724609375,0.196014404296875
1782846808949376300,7.343376220703125,-0.63629150390625,-0.023468017578125,0.1710968017578125
1782846808959381200,7.35338134765625,-0.4920806884765625,-0.011505126953125,0.1435546875
1782846808969386200,7.36338623046875,-0.3698577880859375,0.0084075927734375,0.103973388671875
1782846808979390500,7.373390380859375,-0.284271240234375,0.018829345703125,0.0477447509765625
1782846808989395500,7.3833955078125,-0.23077392578125,0.038543701171875,-0.0169677734375
1782846808999400400,7.393400390625,-0.1847686767578125,0.064544677734375,-0.069549560546875
1782846809009404400,7.403404296875,-0.1454620361328125,0.085906982421875,-0.1038970947265625
1782846809019409400,7.413409423828125,-0.0771026611328125,0.1120452880859375,-0.11834716796875
1782846809029414400,7.423414306640625,0.012054443359375,0.1199951171875,-0.10693359375
1782846809039418000,7.433418212890625,0.0728302001953125,0.0996246337890625,-0.0921478271484375
1782846809049423000,7.443423095703125,0.1314239501953125,0.0695037841796875,-0.0734710693359375
1782846809059427300,7.45342724609375,0.19500732421875,0.03338623046875,-0.0604248046875
1782846809069432300,7.463432373046875,0.248077392578125,0.0057830810546875,-0.0569915771484375
1782846809079437300,7.473437255859375,0.2932891845703125,-0.0255584716796875,-0.0640869140625
1782846809089441300,7.483441162109375,0.339141845703125,-0.05303955078125,-0.0753021240234375
1782846809099446300,7.4934462890625,0.3767852783203125,-0.0630645751953125,-0.075531005859375
1782846809109451300,7.503451171875,0.37945556640625,-0.063568115234375,-0.0599365234375
1782846809119455200,7.513455322265625,0.349822998046875,-0.0556640625,-0.05340576171875
1782846809129460200,7.523460205078125,0.2764892578125,-0.039764404296875,-0.0606231689453125
1782846809139465200,7.53346533203125,0.2003326416015625,-0.0074005126953125,-0.0650177001953125
1782846809149469400,7.543469482421875,0.1393280029296875,0.03167724609375,-0.0597991943359375
1782846809159474400,7.553474365234375,0.0397491455078125,0.07366943359375,-0.0629730224609375
1782846809169478400,7.563478515625,-0.083404541015625,0.1178131103515625,-0.06884765625
1782846809179483400,7.5734833984375,-0.190704345703125,0.1540374755859375,-0.0926513671875
1782846809189488400,7.58348828125,-0.2914276123046875,0.16802978515625,-0.0927276611328125
1782846809199492000,7.5934921875,-0.3817291259765625,0.1571807861328125,-0.051727294921875
1782846809209497000,7.6034970703125,-0.5031280517578125,0.0838623046875,-0.019439697265625
1782846809219502300,7.61350244140625,-0.6518707275390625,0.010345458984375,0.0563201904296875
1782846809229506300,7.62350634765625,-0.824859619140625,-0.02008056640625,0.174591064453125
1782846809239511300,7.63351123046875,-1.01629638671875,-0.102569580078125,0.2618560791015625
1782846809249516300,7.643516357421875,-1.17413330078125,-0.2279510498046875,0.323333740234375
1782846809259520300,7.653520263671875,-1.2772979736328125,-0.3341217041015625,0.378814697265625
1782846809269525200,7.663525146484375,-1.393707275390625,-0.3506622314453125,0.4567718505859375
1782846809279529200,7.673529296875,-1.5876922607421875,-0.317779541015625,0.504730224609375
1782846809289534200,7.6835341796875,-1.8607025146484375,-0.4155120849609375,0.43914794921875
1782846809299539200,7.693539306640625,-2.0745697021484375,-0.6287384033203125,0.32379150390625
1782846809309543400,7.70354345703125,-2.045654296875,-0.6459808349609375,0.321624755859375
1782846809319548400,7.71354833984375,-2.2016448974609375,-0.7165069580078125,0.566741943359375
1782846809329553400,7.723553466796875,-2.4057769775390625,-0.73321533203125,0.6261749267578125
1782846809339557400,7.733557373046875,-2.4278411865234375,-0.5119171142578125,0.775970458984375
1782846809349562400,7.743562255859375,-2.388031005859375,-0.2817535400390625,0.85955810546875
1782846809359567400,7.7535673828125,-2.3150482177734375,-0.2056121826171875,0.659454345703125
1782846809369571300,7.7635712890625,-2.2592926025390625,-0.2312164306640625,0.542999267578125
1782846809379576300,7.773576416015625,-2.062469482421875,-0.3833770751953125,0.4326934814453125
1782846809389580300,7.783580322265625,-1.713592529296875,-0.6383056640625,0.3647918701171875
1782846809399585300,7.793585205078125,-1.3247833251953125,-0.8321075439453125,0.3857269287109375
1782846809409590300,7.80359033203125,-1.028839111328125,-0.782470703125,0.3932037353515625
1782846809419594200,7.81359423828125,-0.92364501953125,-0.5335693359375,0.34912109375
1782846809429599200,7.82359912109375,-0.977630615234375,-0.3377227783203125,0.238067626953125
1782846809439604200,7.833604248046875,-1.0556182861328125,-0.2024688720703125,0.1342926025390625
1782846809449608400,7.8436083984375,-1.0127716064453125,-0.0941619873046875,0.0449066162109375
1782846809459613400,7.853613525390625,-0.9278106689453125,-0.004486083984375,-0.012969970703125
1782846809469618400,7.863618408203125,-0.8796234130859375,0.0641632080078125,-0.04534912109375
1782846809479622400,7.873622314453125,-0.7961273193359375,0.1028289794921875,-0.0980682373046875
1782846809489627400,7.88362744140625,-0.6753387451171875,0.1310272216796875,-0.1273651123046875
1782846809499632400,7.89363232421875,-0.5472259521484375,0.15032958984375,-0.13873291015625
1782846809509636400,7.90363623046875,-0.45166015625,0.144989013671875,-0.140899658203125
1782846809519641300,7.913641357421875,-0.394195556640625,0.1134033203125,-0.1255950927734375
1782846809529645300,7.923645263671875,-0.3523101806640625,0.058013916015625,-0.101593017578125
1782846809539650600,7.933650634765625,-0.32342529296875,0.000091552734375,-0.0684814453125
1782846809549655600,7.943655517578125,-0.3262939453125,-0.0560760498046875,-0.006500244140625
1782846809559659300,7.9536591796875,-0.319915771484375,-0.096649169921875,0.0536956787109375
1782846809569664300,7.963664306640625,-0.3291473388671875,-0.1108245849609375,0.12591552734375
1782846809579669200,7.973669189453125,-0.37921142578125,-0.105743408203125,0.180023193359375
1782846809589673200,7.983673095703125,-0.4293212890625,-0.085968017578125,0.2027740478515625
1782846809599678200,7.99367822265625,-0.4800262451171875,-0.0694427490234375,0.1901092529296875
1782846809609683200,8.00368310546875,-0.503143310546875,-0.0423736572265625,0.178009033203125
1782846809619687400,8.0136875,-0.50811767578125,-0.01556396484375,0.1787872314453125
1782846809629692400,8.0236923828125,-0.48297119140625,-0.0118408203125,0.176300048828125
1782846809639696400,8.0336962890625,-0.4597015380859375,-0.003143310546875,0.167327880859375
1782846809649701400,8.043701416015624,-0.4671783447265625,0.017730712890625,0.1439056396484375
1782846809659706400,8.053706298828125,-0.502593994140625,0.041229248046875,0.1296844482421875
1782846809669710300,8.06371044921875,-0.5833892822265625,0.0613250732421875,0.1286773681640625
1782846809679715300,8.07371533203125,-0.6643218994140625,0.0493927001953125,0.125030517578125
1782846809689720300,8.08372021484375,-0.7491455078125,-0.012939453125,0.1303253173828125
1782846809699724500,8.093724609375,-0.83221435546875,-0.11474609375,0.1324005126953125
1782846809709729500,8.1037294921875,-0.950958251953125,-0.226470947265625,0.128936767578125
1782846809719734500,8.113734619140626,-1.122894287109375,-0.34881591796875,0.119476318359375
1782846809729738200,8.12373828125,-1.3138427734375,-0.4921112060546875,0.1248321533203125
1782846809739743200,8.1337431640625,-1.4886474609375,-0.611602783203125,0.143096923828125
1782846809749747200,8.143747314453124,-1.6526031494140625,-0.6723175048828125,0.2100067138671875
1782846809759752200,8.153752197265625,-1.7954864501953125,-0.6641387939453125,0.2642669677734375
1782846809769757200,8.163757080078126,-1.933074951171875,-0.6184539794921875,0.2918548583984375
1782846809779761400,8.173761474609375,-2.07757568359375,-0.564727783203125,0.293609619140625
1782846809789766400,8.183766357421876,-2.21990966796875,-0.5282135009765625,0.247833251953125
1782846809799771400,8.193771484375,-2.34979248046875,-0.55426025390625,0.2216644287109375
1782846809809775400,8.203775390625,-2.4007720947265625,-0.6253204345703125,0.2465057373046875
1782846809819780400,8.2137802734375,-2.3447418212890625,-0.72711181640625,0.2725830078125
1782846809829785600,8.22378564453125,-2.2484283447265625,-0.82733154296875,0.2639923095703125
1782846809839789600,8.23378955078125,-2.1944580078125,-0.896942138671875,0.242950439453125
1782846809849794600,8.243794677734375,-2.182281494140625,-0.90045166015625,0.236785888671875
1782846809859798800,8.253798828125,-2.1840362548828125,-0.8468475341796875,0.2696075439453125
1782846809869803800,8.2638037109375,-2.153228759765625,-0.7606658935546875,0.310516357421875
1782846809879808800,8.273808837890625,-2.0746307373046875,-0.64208984375,0.3587646484375
1782846809889812500,8.2838125,-1.9745025634765625,-0.497161865234375,0.375762939453125
1782846809899817500,8.2938173828125,-1.8403472900390625,-0.3645477294921875,0.349090576171875
1782846809909822500,8.303822509765626,-1.662109375,-0.2821807861328125,0.292083740234375
1782846809919826400,8.313826416015624,-1.425567626953125,-0.2334136962890625,0.2168121337890625
1782846809929831400,8.32383154296875,-1.145843505859375,-0.227569580078125,0.1450347900390625
1782846809939836400,8.33383642578125,-0.85345458984375,-0.2539825439453125,0.09564208984375
1782846809949840600,8.343840576171875,-0.5769195556640625,-0.286468505859375,0.0587158203125
1782846809959845600,8.353845703125,-0.3420257568359375,-0.2544097900390625,0.064361572265625
1782846809969849600,8.363849609375,-0.2102813720703125,-0.10986328125,0.093505859375
1782846809979854600,8.3738544921875,-0.167877197265625,0.0179901123046875,0.066864013671875
1782846809989859600,8.383859619140624,-0.1930694580078125,0.066070556640625,0.010101318359375
1782846809999863600,8.393863525390625,-0.2110137939453125,0.0718536376953125,-0.0571441650390625
1782846810009868500,8.40386865234375,-0.1441192626953125,0.0665130615234375,-0.0646514892578125
1782846810019873500,8.41387353515625,-0.0939483642578125,0.063201904296875,-0.0492095947265625
1782846810029877800,8.423877685546875,-0.0293121337890625,0.0596160888671875,-0.030975341796875
1782846810039882800,8.4338828125,0.043365478515625,0.06488037109375,-0.0124664306640625
1782846810049887700,8.4438876953125,0.076019287109375,0.07183837890625,-0.009918212890625
1782846810059891500,8.453891357421876,0.0968170166015625,0.0695648193359375,-0.01031494140625
1782846810069896400,8.463896484375,0.1234588623046875,0.06134033203125,-0.0078582763671875
1782846810079900400,8.473900390625,0.1391754150390625,0.052001953125,-0.00091552734375
1782846810089905400,8.483905517578124,0.12982177734375,0.039093017578125,0.01287841796875
1782846810099910400,8.493910400390625,0.1082763671875,0.039886474609375,0.0202484130859375
1782846810109914600,8.50391455078125,0.08740234375,0.0287017822265625,0.0180206298828125
1782846810119919600,8.513919677734375,0.0843353271484375,0.0114288330078125,0.0196380615234375
1782846810129924600,8.523924560546876,0.08856201171875,-0.0040740966796875,0.04486083984375
1782846810139928600,8.533928466796874,0.0828704833984375,-0.0077362060546875,0.0787506103515625
1782846810149933600,8.54393359375,0.06884765625,0.0088653564453125,0.100372314453125
1782846810159938600,8.5539384765625,0.026702880859375,0.035003662109375,0.1053924560546875
1782846810169942500,8.563942626953125,-0.0482940673828125,0.048797607421875,0.1025390625
1782846810179947500,8.573947509765626,-0.1285400390625,0.063385009765625,0.08856201171875
1782846810189952500,8.583952392578125,-0.190826416015625,0.067138671875,0.0638427734375
1782846810199956700,8.593956787109375,-0.256866455078125,0.0355377197265625,0.0439605712890625
1782846810209961700,8.603961669921874,-0.3383331298828125,-0.014404296875,0.0359039306640625
1782846810219965400,8.61396533203125,-0.407928466796875,-0.0721435546875,0.039764404296875
1782846810229970400,8.623970458984376,-0.493865966796875,-0.1402435302734375,0.0480804443359375
1782846810239975400,8.633975341796875,-0.648834228515625,-0.212860107421875,0.039520263671875
1782846810249979400,8.6439794921875,-0.844940185546875,-0.2472991943359375,0.00372314453125
1782846810259984400,8.653984375,-1.05792236328125,-0.2686004638671875,-0.0299072265625
1782846810269989400,8.6639892578125,-1.2520599365234375,-0.33111572265625,0.031524658203125
1782846810279993600,8.67399365234375,-1.220947265625,-0.3765106201171875,0.1992340087890625
1782846810289998600,8.68399853515625,-1.23785400390625,-0.4356231689453125,0.3253326416015625
1782846810300003600,8.694003662109376,-1.3403472900390625,-0.5072021484375,0.3607177734375
1782846810310007600,8.704007568359375,-1.51812744140625,-0.668243408203125,0.2830352783203125
1782846810320012500,8.714012451171875,-1.634735107421875,-0.8973541259765625,0.130401611328125
