time,seconds_elapsed,z,y,x
1782846811899251500,0.07625146484375,-4.564376538261771,-0.34569092173576355,1.483725084208697
1782846811909256400,0.08625634765625,-2.2156927666991946,0.4461687732681632,1.3707311577133834
1782846811919260400,0.096260498046875,-0.010732406416535377,0.9816861012890934,0.8723128495089709
1782846811929265400,0.106265380859375,1.9856097533494232,1.2905714331969618,0.6467049357466399
1782846811939270400,0.1162705078125,3.691094405329227,1.4977482027336955,0.9002714082755148
1782846811949274600,0.126274658203125,5.375734422200918,1.3516826122418044,-0.009658055183291435
1782846811959279600,0.136279541015625,6.73932929829359,1.3627908662334083,-0.7555816361814737
1782846811969284600,0.14628466796875,7.773387684115767,1.355024031624198,-1.18942605766654
1782846811979288600,0.15628857421875,8.691122122237086,1.7168895508304238,-0.7530766676232218
1782846811989293600,0.16629345703125,9.808522808134555,1.9737436667278407,-0.5608733030736446
1782846811999297500,0.176297607421875,10.509453401196001,2.1281384018868206,-0.6225168354295194
1782846812009302500,0.186302490234375,10.575682069385051,2.5027815696015954,-0.433764926508069
1782846812019307500,0.1963076171875,10.265208591502905,2.8244477648884057,-0.6060197280064225
1782846812029311700,0.206311767578125,9.93455157276988,3.010785452274978,-0.9166315914459526
1782846812039316700,0.216316650390625,9.915876098394394,3.1992911313503978,-1.045319930679351
1782846812049321700,0.22632177734375,10.219964259153604,3.239892314068973,-1.13043610855937
1782846812059325400,0.236325439453125,10.600242510145902,3.0692680363819003,-1.1737154244460164
1782846812069330400,0.246330322265625,10.85058855932355,2.9504087249845266,-1.1241102665387093
1782846812079335400,0.25633544921875,10.91022966581583,3.0062802498102186,-0.9733440971404314
1782846812089339400,0.26633935546875,10.938939042949675,2.974277968610823,-0.8826270305134355
1782846812099344400,0.276344482421875,10.816240884041786,2.952090394461155,-0.9272295578278601
1782846812109349400,0.286349365234375,10.56227313723564,2.9894094867691394,-1.040698408358544
1782846812119353600,0.296353515625,10.391256060838698,2.966415272411704,-1.2027831134982407
1782846812129358600,0.306358642578125,10.231749389493466,3.000984773750603,-1.2823523247756063
1782846812139362600,0.316362548828125,10.162107113468647,2.975078471338749,-1.3100377656891942
1782846812149367600,0.326367431640625,10.082393525284528,2.816353598020971,-1.3358905843481421
1782846812159372500,0.33637255859375,10.053603484129905,2.4865719008177516,-1.4021552006334066
1782846812169376500,0.34637646484375,9.761569918301701,2.160741863849759,-1.3617404803976416
1782846812179381500,0.356381591796875,9.118820880573987,1.842607349820435,-1.2950044472083448
1782846812189386500,0.366386474609375,8.069352159652114,1.4211303886078297,-1.252648237515986
1782846812199390700,0.376390625,6.255344004589319,0.93302976853922,-1.2389053972370923
1782846812209395700,0.386395751953125,3.6524329585015773,0.614956921569258,-1.2700474083453417
1782846812219399400,0.3963994140625,0.8110229528963565,0.42699148685038085,-1.3623168189808725
1782846812229404400,0.406404296875,-2.0918641424566506,0.2292122218646109,-1.481633226495981
1782846812239409400,0.416409423828125,-4.428684457746148,0.07515840909779072,-1.207295914747566
1782846812249413400,0.426413330078125,-5.983381166887283,0.1308734281875193,-0.2431630058057606
1782846812259418400,0.43641845703125,-7.260290862217545,0.3569542201586067,1.0546668740868568
1782846812269423400,0.44642333984375,-8.858176140221953,0.24703283297643064,2.0574078922338783
1782846812279427600,0.456427490234375,-10.738842002540826,-0.46458705801218747,2.0589637433737513
1782846812289432600,0.4664326171875,-12.429843955659866,-1.6219069357134401,1.2998175465784967
1782846812299437600,0.4764375,-13.725400483793019,-3.284337312734127,0.4902772334553301
1782846812309441500,0.486441650390625,-14.112179787242411,-4.539615021970868,0.47285365883707997
1782846812319446500,0.496446533203125,-14.048602510344981,-4.582119700223207,1.2910048561781644
1782846812329450500,0.506450439453125,-14.085695100420713,-3.7228380355924364,2.2829593996338544
1782846812339455500,0.51645556640625,-14.257661440366507,-2.4243168124347925,2.7695827867567537
1782846812349460500,0.52646044921875,-13.82696583830118,-1.0786657354421914,2.6799925322026015
1782846812359464700,0.536464599609375,-12.63267538946867,-0.13686127042546867,2.2340578599512577
1782846812369469700,0.5464697265625,-10.998174491250515,-0.0029562194570899006,1.6524676398023963
1782846812379474700,0.556474609375,-8.605407832333444,-0.6701416331745684,1.0651903139278291
1782846812389478400,0.566478515625,-5.3031578462898725,-1.9461302681371568,0.648855099517852
1782846812399483400,0.5764833984375,-1.671504056444764,-3.4411733035653826,0.39413003153838216
1782846812409488400,0.58648828125,1.5751742645025253,-4.0227079941347235,0.44352213121689854
1782846812419492600,0.59649267578125,3.694034550434351,-3.645601358915865,0.5092017872210591
1782846812429497600,0.60649755859375,4.734632567158341,-2.4372927599944174,0.49945788038522004
1782846812439501600,0.61650146484375,4.953001761838793,-0.9031031245701014,0.4105028549946844
1782846812449506600,0.626506591796875,4.204784516945481,0.17044745981544254,-0.023782442125678063
1782846812459511600,0.636511474609375,3.4209903472363945,0.9587671441249549,-0.518229216350615
1782846812469515500,0.646515625,3.0421289773046967,1.354789053824544,-1.0627711239568889
1782846812479520500,0.6565205078125,3.2058371919929978,1.6657343870021402,-1.459382231721282
1782846812489525500,0.666525390625,3.7079163607925176,1.977405988627672,-1.6782476854860782
1782846812499529700,0.67652978515625,4.128997162294388,2.1958032403588295,-1.7865028930217026
1782846812509534700,0.68653466796875,4.616307216507196,2.265388379368931,-1.927888216742873
1782846812519539700,0.696539794921875,4.998928815755248,2.2960788473173976,-2.0777282112069426
1782846812529543700,0.706543701171875,5.219179586398601,2.358899899020046,-2.002616856121272
1782846812539548700,0.716548583984375,5.413236762121319,2.431463615449518,-1.8259739026665687
1782846812549553700,0.7265537109375,5.517719465380907,2.3266027265273035,-1.6046477578766642
1782846812559557400,0.736557373046875,5.668834155955911,2.0693029126890004,-1.357235862454772
1782846812569562400,0.746562255859375,5.886637533447146,1.8272792861767113,-1.11649979153499
1782846812579566600,0.756566650390625,6.027943946713209,1.6015755108244716,-0.8595419230021536
1782846812589571600,0.766571533203125,6.079177290344238,1.442105956619233,-0.4971791217982769
1782846812599576600,0.77657666015625,6.145316526684165,1.374926271315664,-0.08456848086938261
1782846812609580500,0.78658056640625,6.089613928684592,1.3996359112888574,0.4041287899181247
1782846812619585500,0.79658544921875,5.971992926910519,1.3828987114995717,0.9172041306369006
1782846812629590500,0.806590576171875,5.750509399601817,1.3747494534440339,1.2469142239086328
1782846812639594500,0.816594482421875,5.426807606834173,1.5504985267989337,1.351648125450313
1782846812649599500,0.826599609375,4.888820673829317,1.8356886564731596,1.2572061930812894
1782846812659604500,0.8366044921875,4.1630017232269045,2.1570750119052824,0.9904550986781716
1782846812669608700,0.846608642578125,3.2784365642577407,2.241966879510134,0.5907756893843412
1782846812679613700,0.85661376953125,2.3569874895274636,2.1368942475333808,0.257720523468405
1782846812689617700,0.86661767578125,1.5143132608264684,1.7660139394834637,-0.1441293617323041
1782846812699622700,0.87662255859375,0.7226426586538552,1.2968052130199967,-0.4909988257281482
1782846812709627600,0.886627685546875,-0.2131423999428749,0.7735007392317056,-0.5759302946910262
1782846812719631600,0.896631591796875,-1.5115321056753397,0.21733853645846246,-0.28638240819871424
1782846812729636600,0.90663671875,-2.9567946266293523,-0.3267389685064554,0.3767490539528429
1782846812739641600,0.9166416015625,-4.547553413754701,-0.7609796958327293,1.3204961774699389
1782846812749645600,0.9266455078125,-6.386812329930066,-1.1707068172145634,2.186210651627183
1782846812759650600,0.936650634765625,-8.024409440597891,-1.8349072968371212,2.4715415049463507
1782846812769655600,0.946655517578125,-9.194635707753896,-2.629039174556732,2.537342887634039
1782846812779659500,0.956659423828125,-10.200541765803099,-3.200437671037018,2.539030110068619
1782846812789664500,0.96666455078125,-11.505703157627583,-3.7959424347698687,2.496871468774974
1782846812799668500,0.97666845703125,-12.811965788692236,-3.990504929666221,2.3602701644599438
1782846812809673500,0.986673583984375,-14.533297413623332,-3.261106951533258,2.1984688063062725
1782846812819678500,0.996678466796875,-16.846984690606593,-2.2607379232145846,1.893375560157746
1782846812829682700,1.0066826171875,-18.603328007686137,-1.70895174356848,1.6030008674524723
1782846812839687700,1.016687744140625,-18.97147509137988,-1.5681649702623486,1.2392368211485445
1782846812849692700,1.026692626953125,-18.115247553622723,-1.4693720030769706,0.45863764808848495
1782846812859696600,1.036696533203125,-16.57046608929634,-1.3446423383414745,-0.5131595118708908
1782846812869701600,1.04670166015625,-14.699112245202064,-1.2748700061962008,-1.0833527242146432
1782846812879706600,1.05670654296875,-12.652941932427883,-1.0322048669099808,-0.9090646633230149
1782846812889710600,1.066710693359375,-10.39466499249935,-0.5672194572299718,-0.2465681380741298
1782846812899715600,1.076715576171875,-8.22812642506957,-0.17598463567644357,0.2490941494204104
1782846812909719800,1.0867197265625,-5.773019337573647,0.026803251251578328,0.34410189897865057
1782846812919724800,1.096724853515625,-2.968746930229664,0.01205810206234455,0.3038208881251514
1782846812929729800,1.106729736328125,-0.03134264824688435,-0.17336159369647502,0.3643506870854646
1782846812939733800,1.116733642578125,2.629702022379637,-0.1020396940216422,0.7791550386663526
1782846812949738800,1.12673876953125,4.674846499237418,0.29377134940624233,1.2237287978280336
1782846812959743700,1.13674365234375,6.054619772192836,0.7028931253060698,1.3380547766447066
1782846812969747700,1.146747802734375,6.878443169951439,0.9423442709818481,0.9019567310139537
1782846812979752700,1.156752685546875,7.277483404558897,1.0667746605098247,0.04827858547866344
1782846812989757700,1.1667578125,7.873769381797313,1.3601857983015477,-0.673274159046635
1782846812999761700,1.17676171875,8.518224054399132,1.643286554481089,-1.209968348827213
1782846813009766700,1.1867666015625,8.985608926436305,2.0351140812307595,-1.3692708759024739
1782846813019770600,1.1967705078125,9.154580760741233,2.4248040114298464,-1.3855357820048928
1782846813029775600,1.206775634765625,9.074253424572944,2.670471547402441,-1.325536071333289
1782846813039780600,1.216780517578125,9.137023476740717,2.824444842278957,-1.0897118109177797
1782846813049784600,1.22678466796875,9.432594569045305,2.8404546045765278,-0.7893611561864614
1782846813059789600,1.23678955078125,9.837469501155613,2.6149834689363836,-0.4834242988206446
1782846813069794600,1.246794677734375,10.376051477444172,2.317271126819402,-0.1297661975979805
1782846813079798800,1.256798828125,11.071076061332224,2.025669522667676,0.08121464039683342
1782846813089803800,1.2668037109375,11.762438031059503,1.7597488877393304,0.04075739619359374
1782846813099808800,1.276808837890625,12.209738730967045,1.5514786238774656,-0.04910926414914429
1782846813109812700,1.286812744140625,12.514105124145745,1.347046330743283,-0.17796937975287436
1782846813119817700,1.296817626953125,12.66717387139797,1.2951976316928864,-0.2775274860918522
1782846813129821700,1.30682177734375,12.45420916610956,1.3578816130124032,-0.4056123064741492
1782846813139826700,1.31682666015625,11.836133381867407,1.4586369663119316,-0.5286896008927374
1782846813149831700,1.326831787109375,11.207725588703155,1.68844101658985,-0.5492625063873827
1782846813159835600,1.336835693359375,10.68896474969387,1.9655739504061638,-0.5400031681980937
1782846813169840600,1.346840576171875,10.11461587897539,2.1884983241729437,-0.696380090150237
1782846813179845600,1.356845703125,9.298073285874723,2.4868580242827534,-0.8570032713700085
1782846813189849600,1.366849609375,8.13562232889533,2.8423236133188006,-0.8255360468953847
1782846813199854600,1.3768544921875,6.833040432170033,3.0531606589287517,-0.8619191004622727
1782846813209859600,1.386859619140625,5.626524708014727,2.987980623009801,-0.8145920435547829
1782846813219863600,1.396863525390625,4.319100631955266,2.52087281434834,-0.6400024424333125
1782846813229868500,1.40686865234375,2.522970078888535,1.8605264528706669,-0.5094823577281087
1782846813239873500,1.41687353515625,0.019928104785084725,1.2539927839927374,-0.33121114548444747
1782846813249877800,1.426877685546875,-2.9776877770543098,0.9328281084872782,-0.4257936553679406
1782846813259882800,1.4368828125,-5.363683918923139,0.5120367914512753,-0.8227120755158365
1782846813269886700,1.44688671875,-6.359221727693081,-0.706775811958313,-1.110509026687592
1782846813279891700,1.4568916015625,-6.542201044562459,-2.194397757475078,-0.9630392684862017
1782846813289896700,1.466896728515625,-6.006529402762651,-4.2300183269232505,-0.40084859920367594
1782846813299900700,1.476900634765625,-4.5113229934662575,-5.250816833677888,0.6803378868877887
1782846813309905700,1.48690576171875,-3.649547758454084,-4.729895601764321,1.6304298493869602
1782846813319910700,1.49691064453125,-6.918167277574539,-5.871178683030605,2.3308535158395767
1782846813329914600,1.50691455078125,-11.57676465280056,-5.34546144901216,3.8865386514961715
1782846813339919600,1.516919677734375,-13.34346569776535,-3.0223537249937653,5.09336826390624
1782846813349924600,1.526924560546875,-13.543674966377019,0.14826485410183668,5.687567497998476
1782846813359928600,1.536928466796875,-14.223254143851994,1.9366063607275485,4.805332243281603
1782846813369933600,1.54693359375,-14.7947961404562,1.8962110758446156,3.0686814686655994
1782846813379937500,1.5569375,-14.222710538494587,0.9534209607914089,1.6965758077286184
1782846813389942500,1.566942626953125,-11.701686332976818,-0.8504913321927189,1.0108940755948423
1782846813399947500,1.576947509765625,-7.9927131566077465,-3.602506605815887,1.0273742318831383
1782846813409951700,1.58695166015625,-4.434609171620011,-6.0713745076388115,1.5090578245162962
1782846813419956700,1.596956787109375,-1.5465326919078826,-6.4050003130495545,2.2346152015730736
1782846813429961700,1.606961669921875,-0.04376607649028301,-4.498619579237699,2.674383167888224
1782846813439965700,1.616965576171875,0.035569326031208034,-2.215201037659496,2.618798935571313
1782846813449970700,1.626970703125,-0.633783056461811,-0.48012350370958445,2.0887774284876883
1782846813459975700,1.6369755859375,-1.1635855139672755,0.39669732474312186,1.3067843168511986
1782846813469979600,1.646979736328125,-0.9362146821856498,1.0062091326490044,0.692641634274274
1782846813479984600,1.656984619140625,-0.3710445587009191,1.5089667852319777,0.23346944091767072
1782846813489988600,1.666988525390625,0.6626449938088655,1.8940191187582909,-0.1324976683884859
1782846813499993600,1.67699365234375,2.070256706282496,2.111190189695358,-0.5108858678504824
1782846813509998600,1.68699853515625,3.490114152345061,2.231253177794069,-0.834799988194555
1782846813520002600,1.69700244140625,4.727261746129393,2.2523380513988434,-1.1953398117549716
1782846813530007600,1.707007568359375,5.685595905664563,2.1748614284865555,-1.69932335287109
1782846813540012500,1.717012451171875,6.0620478763669725,2.1520279576487837,-2.0917625817783176
1782846813550016800,1.727016845703125,6.21526275409162,2.2327144825182854,-2.3820919740371407
1782846813560021800,1.737021728515625,6.355227689620852,2.3072037601828574,-2.4544191052317617
1782846813570026800,1.74702685546875,6.53988575335741,2.3637508461825547,-2.456121525235474
1782846813580030700,1.75703076171875,6.592801350986957,2.3621447261601687,-2.3732811833329497
1782846813590035700,1.76703564453125,6.617346009656787,2.1801419992379842,-2.2340080294601616
1782846813600040700,1.777040771484375,6.8340873108744615,1.8532336655139923,-1.8738367469511925
1782846813610044700,1.787044677734375,7.184191957399249,1.4913998566202817,-1.3046053653769194
1782846813620049700,1.797049560546875,7.3375512120306485,1.2281488792926072,-0.5715796982660889
1782846813630053600,1.8070537109375,7.302145552128553,1.2708289141118525,0.15647110304161904
1782846813640059000,1.817058837890625,7.1029545206487175,1.2895434053234756,0.5488099403142929
1782846813650064000,1.82706396484375,6.682365302056073,1.2160812787495552,0.5115612828940153
1782846813660067800,1.83706787109375,6.095483112978935,1.5884556247495114,0.25851313515082003
1782846813670072800,1.84707275390625,5.294738977512717,2.106464914739132,-0.3067569415770471
1782846813680077800,1.857077880859375,4.4796822390556335,2.417916443873197,-0.9533050793267785
1782846813690081500,1.86708154296875,3.794565301197767,2.5769044981718063,-1.2070784726046024
1782846813700086500,1.87708642578125,3.1794314156264063,2.8462697205960747,-1.1234108860976992
1782846813710091500,1.887091552734375,2.3318062865197655,2.982612666235864,-0.6024754064630716
1782846813720095700,1.897095703125,1.3949153125077485,2.7885926076531407,0.29331359570138155
1782846813730100700,1.907100830078125,0.3128442986667156,2.169736778949201,1.1618596400227397
1782846813740104700,1.917104736328125,-1.0943822138816117,1.0275447661444543,1.2878192118793725
1782846813750109700,1.927109619140625,-2.9759944171398875,-0.32164296054169533,0.5836657112486661
1782846813760114700,1.93711474609375,-4.947442958667874,-1.6978218622669576,-0.13277604693844913
1782846813770118700,1.94711865234375,-6.613714375156164,-3.1229400053367016,-0.5655380800142884
1782846813780123600,1.95712353515625,-7.973657743003964,-4.123325546398759,-0.3841087690658867
1782846813790128600,1.967128662109375,-9.704606506586074,-4.51394983483851,0.6133966865152121
1782846813800132900,1.9771328125,-11.175399190115929,-4.534026408183575,2.0790148900166154
1782846813810137900,1.987137939453125,-12.508794158256054,-4.488946911007166,3.757901165667176
1782846813820142800,1.997142822265625,-14.891934326171874,-4.857951488313079,4.947661569854617
1782846813830146800,2.007146728515625,-16.972186941289902,-4.96919594079256,5.640045283845066
1782846813840151300,2.0171513671875,-18.008066112798453,-4.339974200896918,5.568792065492272
1782846813850156300,2.02715625,-18.544931932818887,-3.509928275361657,4.433439543318748
1782846813860160300,2.03716015625,-18.225876504552364,-2.9011636325612664,2.5289567520827054
1782846813870165200,2.047165283203125,-17.157706005769967,-2.5757722792714834,0.7630661467179656
1782846813880169500,2.05716943359375,-15.698011054837703,-2.1746811034835876,-0.29251857286617156
1782846813890174500,2.067174560546875,-13.648808242499827,-1.5706374978557227,-0.6773685156881809
1782846813900179500,2.077179443359375,-11.292855356717109,-0.7996710994072258,-0.46352337430343027
1782846813910183400,2.087183349609375,-8.792166667741537,-0.060290071920305485,-0.1696950340129435
1782846813920188400,2.0971884765625,-6.113491063356399,0.3956166898995638,-0.22851576403304932
1782846813930193400,2.107193359375,-3.3579648590028284,0.6317749315097928,-0.5434309506896883
1782846813940197000,2.117197021484375,-0.6984586499899625,0.7485512991532683,-0.8708332784757018
1782846813950202000,2.1272021484375,1.5994710858911274,0.8486455581955611,-1.0447731104515492
1782846813960207400,2.137207275390625,3.3970839864701032,0.921562033585459,-1.004352764192596
1782846813970211300,2.14721142578125,4.824985622778534,1.0113334899254143,-0.9310755657315254
1782846813980216300,2.15721630859375,5.830979943633079,1.0975029762506485,-1.010281569719687
1782846813990221300,2.16722119140625,6.517906561261415,1.23607938003093,-1.2589903000190854
1782846814000225300,2.177225341796875,6.980842637196183,1.5601768941178917,-1.545963075326383
1782846814010230300,2.187230224609375,7.182941080555319,2.0726931396491826,-1.744933449792862
1782846814020234200,2.197234130859375,7.44896400681436,2.5329066587522626,-1.6691817509770392
1782846814030239200,2.2072392578125,7.895655050390959,3.022387919524312,-1.3954114254616201
1782846814040244200,2.217244140625,8.382888532236217,3.492285651165247,-1.051523899886012
1782846814050248400,2.22724853515625,8.940181054213642,3.798267370586097,-0.7360922150745988
1782846814060253400,2.23725341796875,9.468924358054995,3.9501650282323357,-0.522328468362987
1782846814070258400,2.247258544921875,9.961623119568824,3.9423417872607707,-0.36781774214152246
1782846814080262400,2.257262451171875,10.631824227845668,3.803354464592039,-0.21011212886888533
1782846814090267400,2.267267333984375,11.291763469827174,3.4305677383989095,-0.26683928414322433
1782846814100272400,2.2772724609375,11.877990994387865,2.800391474257409,-0.33153391116540876
1782846814110276400,2.2872763671875,12.457431050765514,2.1174863672301174,-0.25585995376091447
1782846814120281300,2.29728125,13.068429443967341,1.540194721058011,-0.1474575928395614
1782846814130286300,2.307286376953125,13.567010249257088,1.3297460902437568,0.1146125041404739
1782846814140290300,2.317290283203125,13.717183275067805,1.4682722251415252,0.47081349477898327
1782846814150295300,2.32729541015625,13.494272345304488,1.7346747983679174,0.6620039924915879
1782846814160299300,2.33729931640625,12.790818955767154,1.8823893251106143,0.6320543329730629
1782846814170304300,2.34730419921875,11.611141554176807,1.8699290719881652,0.27617044545970854
1782846814180309200,2.357309326171875,10.678120699596404,2.0334163374021648,-0.1148177809216082
1782846814190313200,2.367313232421875,9.728992759823798,2.293206360621005,-0.4195360197452828
1782846814200318500,2.377318359375,8.418013621631264,2.6176258001387116,-0.6718509213104844
1782846814210323500,2.387323486328125,6.327113355770707,2.9714976902425287,-1.0780800445087253
1782846814220327400,2.397327392578125,3.908497969847917,3.057553925451636,-1.4999047962456942
1782846814230332400,2.40733251953125,2.143042541030049,2.7806968859672545,-1.3595102371275425
1782846814240337400,2.41733740234375,0.5837643493175506,2.123651027339697,-0.6738603614367544
1782846814250341400,2.42734130859375,-1.2471119384378193,1.0924135441571474,0.08507599200010299
1782846814260346400,2.437346435546875,-3.240048673674464,0.12545067248642444,0.6023161242481321
1782846814270350300,2.447350341796875,-4.780286649352312,-0.6165376148894429,0.6644150722213089
1782846814280355300,2.457355224609375,-5.806156468021869,-1.2689999451190233,0.39837431804463264
1782846814290360600,2.467360595703125,-6.513761716541648,-1.635998151038587,0.40276919200271366
1782846814300364300,2.4773642578125,-7.6196747937411065,-2.2801140932053325,0.7495128376618028
1782846814310369300,2.487369384765625,-9.37193347185552,-3.8055660031616685,0.6981425697781145
1782846814320374300,2.497374267578125,-10.689957267862559,-5.661065860041975,0.4795682079143822
1782846814330378200,2.507378173828125,-11.087592311847208,-7.1538277987956995,0.5161458342052996
1782846814340383200,2.51738330078125,-11.627823808908461,-7.386032626605034,0.9005088702931999
1782846814350388200,2.52738818359375,-13.252118954932689,-5.8543076277285815,1.8595066083036362
1782846814360392400,2.537392333984375,-14.616689982581137,-3.3956454780995844,3.1260973003238437
1782846814370397400,2.5473974609375,-14.095139805114268,-0.7708423336774111,4.033716294883192
1782846814380402400,2.55740234375,-12.973952001893519,0.7526356458574534,3.7836712744787335
1782846814390406400,2.567406494140625,-11.767896296465397,0.2627633399412036,2.117411548428237
1782846814400411400,2.577411376953125,-9.79881623763442,-1.446761527340114,0.20942980916053056
1782846814410415400,2.587415283203125,-6.213044493520259,-3.565776419311762,-0.9270705678738653
1782846814420420400,2.59742041015625,-1.6190981619030236,-5.149312853968143,-1.0592691071853042
1782846814430425300,2.60742529296875,2.104626008874178,-5.251004465204477,-0.4210241028785705
1782846814440429600,2.6174296875,4.004083080902696,-4.393286981150507,0.17122531232014299
1782846814450434600,2.6274345703125,4.237011546811461,-3.1029490644484756,0.3884302855268121
1782846814460439600,2.637439453125,3.601870645999908,-1.6019947591498493,0.4655808913551271
1782846814470443300,2.647443359375,2.792950802862644,-0.08334609946757554,0.43754619861245153
1782846814480448300,2.6574482421875,2.2773434594482183,1.2948933880493043,0.41282837533280253
1782846814490453200,2.667453369140625,1.7692448842287063,2.275796230006218,0.05024637842029333
1782846814500457200,2.677457275390625,1.4127391384899615,2.9339480040490624,-0.23889416938014327
1782846814510462200,2.687462158203125,1.5809458336412905,3.3326065458625553,-0.5503435065571218
1782846814520467200,2.69746728515625,2.335557748007774,3.381615491442382,-0.899109086497873
1782846814530471400,2.707471435546875,3.3518945991784332,3.1802649438410997,-1.1568491914495824
1782846814540476400,2.717476318359375,4.379716720959544,2.791161873619258,-1.30288862458691
1782846814550481400,2.7274814453125,5.256228337332606,2.3963547465369106,-1.386269210845977
1782846814560485400,2.7374853515625,5.96589227194786,2.1354609998598693,-1.3715939120225606
1782846814570490400,2.747490478515625,6.437071275570989,1.8260551512092351,-1.4525050394281744
1782846814580494300,2.757494384765625,6.680347532492876,1.6171508272275328,-1.5137947899103164
1782846814590499300,2.767499267578125,6.811925163426995,1.4625816122844815,-1.5323947148315609
1782846814600504300,2.77750439453125,6.79563278479576,1.2526494065597653,-1.5212757933154701
1782846814610508500,2.787508544921875,6.675127167496084,1.1079589038133622,-1.4281737312480807
1782846814620513500,2.797513427734375,6.469808008524775,1.0029399017199874,-1.2177468738742172
1782846814630518500,2.8075185546875,6.188598034527898,0.9201970288425684,-0.9440387999400496
1782846814640522200,2.817522216796875,5.873862807548046,0.8694479615971445,-0.6299754808723926
1782846814650527200,2.82752734375,5.542834032893181,0.9240864374965428,-0.36072044082432986
1782846814660532200,2.8375322265625,5.133456528666615,1.1063555602699517,-0.21879384983330963
1782846814670536200,2.8475361328125,4.629098893541097,1.4468014209590851,-0.23223566133901474
1782846814680541200,2.857541259765625,4.04176603808701,1.908276776691526,-0.28703685351945457
1782846814690545400,2.86754541015625,3.3358488887846467,2.425562720842659,-0.335678280961141
1782846814700550400,2.87755029296875,2.7301322353780266,2.8698347205787895,-0.3361930255502462
1782846814710555400,2.887555419921875,2.1858231136143207,3.1459441565662623,-0.215229143089056
1782846814720559400,2.897559326171875,1.6701508882701397,3.0989398288071155,-0.10556282664649187
1782846814730564400,2.907564453125,1.2792670721113681,2.725887145154178,-0.06192476045005023
1782846814740569300,2.9175693359375,0.8349497719287872,2.1085605718441305,0.022045316134765743
1782846814750573300,2.9275732421875,0.12119827573895453,1.2432663689255714,0.17445077717266977
1782846814760578300,2.937578369140625,-0.8729203138828278,0.23988792965784667,0.12432356815263629
1782846814770583300,2.947583251953125,-2.5126380699664352,-0.7774269727647304,0.012705898446589708
1782846814780587500,2.95758740234375,-4.742734625071287,-1.556872445745021,0.14698738151192664
1782846814790592500,2.967592529296875,-7.294167997378111,-2.346928744588792,0.7937224201358855
1782846814800597500,2.977597412109375,-10.174762012380361,-3.2885055383294817,1.5176158095031975
1782846814810601200,2.987601318359375,-12.9184107319355,-4.36318059670031,2.211569695419818
1782846814820606200,2.997606201171875,-13.807263943487404,-4.747335981386899,3.423710127589106
1782846814830610200,3.007610107421875,-13.932224202108383,-5.204395274242758,4.6731256667941805
1782846814840615400,3.017615478515625,-16.086992836767433,-6.138977386790514,5.25403813381195
1782846814850620400,3.027620361328125,-18.695002082777023,-6.064241587018967,4.886796182264387
1782846814860624600,3.037624755859375,-19.72754363429546,-5.006648596352338,3.9233305050596594
1782846814870629600,3.047629638671875,-19.476263519138097,-4.028820924057066,2.668577696479857
1782846814880634600,3.057634521484375,-18.211777836573123,-3.431241692137718,1.5510985385186968
1782846814890638600,3.067638671875,-16.59081680340767,-2.940976295250654,0.68461571033746
1782846814900643600,3.0776435546875,-14.777917486369608,-2.4200313902005552,0.19594547368735074
1782846814910648600,3.087648681640625,-12.473081039839983,-1.8599014528401194,-0.0020540099203586576
1782846814920652500,3.097652587890625,-10.024058240693806,-1.0525751625046134,0.17298253125101326
1782846814930657500,3.107657470703125,-7.617942270860076,-0.11392112434282899,0.5316895864263177
1782846814940662500,3.11766259765625,-5.597010444238782,0.9102394061908126,0.8427717707913368
1782846814950666800,3.127666748046875,-3.540428043043613,1.6833783263728022,1.0088738948788494
1782846814960671700,3.137671630859375,-1.3666764754951,2.217873471739143,1.1971738222490995
1782846814970676700,3.1476767578125,0.7806734073400498,2.1901194956339896,1.2283954013995826
1782846814980680400,3.157680419921875,2.9617472806006666,1.8427097872816025,1.0144132626969367
1782846814990685400,3.167685546875,5.0671284917563195,1.6243860391780733,0.6898012962818145
1782846815000689400,3.177689453125,6.940051777124404,1.7175655503958462,0.32393224052265285
1782846815010694400,3.1876943359375,8.420723465111852,2.095477949039638,-0.14718648428060113
1782846815020699400,3.197699462890625,9.396991925266384,2.4162493874438105,-0.6928432943262159
1782846815030703600,3.20770361328125,10.018137033951282,2.5961995657503603,-1.1924958935659378
1782846815040708600,3.21770849609375,10.660993039184808,2.8710855974227187,-1.5938517847046254
1782846815050713600,3.227713623046875,11.228742657768725,3.2650273398473857,-2.020910783833265
1782846815060717600,3.237717529296875,11.2443470541358,3.6850101169794796,-2.509904553349316
1782846815070722600,3.24772265625,11.092871713554858,4.1112630604222415,-2.750206762896478
1782846815080727600,3.2577275390625,11.226993768274783,4.306436965215206,-2.679390182395279
1782846815090731500,3.2677314453125,11.579767926269769,4.366120157283544,-2.5188199734717607
1782846815100736500,3.277736572265625,12.002708091902733,4.198039718860388,-2.3060022754386065
1782846815110740700,3.28774072265625,12.243947290039062,3.8827825138330456,-2.0687603302448987
1782846815120745700,3.297745849609375,12.54253743790388,3.571547988450527,-1.7617219413779674
1782846815130750700,3.307750732421875,12.937890508431195,3.3071284057348964,-1.3144191956438123
1782846815140754400,3.31775439453125,13.171720307093858,3.1268086634635925,-0.7961218094278126
1782846815150759400,3.327759521484375,13.175799100840091,2.9868042727068063,-0.46310938667505974
1782846815160764400,3.337764404296875,12.78543550916314,3.00630567651242,-0.2298513965509832
1782846815170768400,3.347768310546875,12.126470080649852,3.142453391841054,-0.07520056773908436
1782846815180773400,3.3577734375,11.393180355775355,3.1487349563285707,-0.13513824602514504
1782846815190778400,3.3677783203125,10.680489182293414,3.1489518139496444,-0.1388645000066608
1782846815200782600,3.377782470703125,10.198415275168419,3.194775115230679,-0.1135708496004343
1782846815210787600,3.38778759765625,9.629646250408888,3.2165339425742623,-0.12496522705703973
1782846815220792600,3.39779248046875,9.011557022163272,3.1587413865581153,-0.21678893975168465
1782846815230796500,3.407796630859375,8.09142195264101,3.0179832548245784,-0.44077071361690756
1782846815240801500,3.417801513671875,6.898911372962593,2.7104315096080303,-0.6955987305141985
1782846815250806500,3.427806640625,5.465737933731079,2.2684306696742773,-1.0041146445877849
1782846815260810500,3.437810546875,3.58013987570703,1.7816005079329014,-1.0840258742358535
1782846815270815500,3.4478154296875,1.2711644296765328,1.087083873566985,-0.7052746136151253
1782846815280819700,3.45781982421875,-1.2602455607771872,0.4981143568217754,-0.35463717538788914
1782846815290824700,3.46782470703125,-4.075713315874338,0.1195177753061056,-0.4337358465440571
1782846815300829700,3.47782958984375,-6.49685909705758,-0.3441138816773891,-0.5668922711022197
1782846815310833400,3.48783349609375,-8.128713864681124,-0.9256465264201164,-0.15520269054099917
1782846815320838400,3.49783837890625,-9.581480477654933,-1.5313760393083096,0.8219194638334214
1782846815330843400,3.507843505859375,-10.492539675796031,-2.6862255813732743,1.7927702828533947
1782846815340847600,3.51784765625,-10.528784709131717,-4.441829478262364,2.358236612805724
1782846815350852600,3.5278525390625,-10.676074872982502,-7.999911543679237,2.073630566629767
1782846815360857600,3.537857666015625,-12.508233017241954,-9.975679701972007,2.0563509305268526
1782846815370861600,3.547861572265625,-15.869867504668235,-7.456059518033266,3.09656316280365
1782846815380866600,3.557866455078125,-17.618118700706958,-3.6606846540182825,4.613337845307588
1782846815390871600,3.56787158203125,-17.04792811871171,-0.5288097932063043,5.662292186966538
1782846815400875500,3.57787548828125,-15.837900002521275,1.5163234316051006,5.337582678461074
1782846815410880500,3.587880615234375,-14.634877965700625,1.7289428305871783,3.262252322176099
1782846815420884700,3.597884765625,-13.11500297909379,0.2994207534700632,0.758131466794759
1782846815430889700,3.6078896484375,-10.396346077454089,-1.755337939429283,-0.8166485376931727
1782846815440894700,3.617894775390625,-5.806050669559836,-4.573845792874693,-1.2533775747038423
1782846815450898700,3.627898681640625,-1.0833329966008662,-6.827607301205396,-0.6140300159826875
1782846815460903700,3.637903564453125,1.8758330353349446,-6.657058426842093,0.3504898464500904
1782846815470908700,3.64790869140625,2.6454578099161385,-4.562834277255833,0.8557021987088024
1782846815480912400,3.657912353515625,1.9306465755403042,-2.2810922905877233,0.6086192429803311
1782846815490917400,3.66791748046875,0.7273556586503982,-0.5816755603447556,0.048115723067149514
1782846815500922400,3.67792236328125,-0.05293021067678928,1.008877182814479,0.017218699695914982
1782846815510926600,3.687926513671875,-0.1845727235406637,2.4848805867299437,0.04427015355490148
1782846815520931600,3.697931640625,-0.014046061009168625,3.177326552301645,-0.32164690606445073
1782846815530936600,3.7079365234375,0.6263724879443645,3.309623145160079,-0.665467284687981
1782846815540940500,3.7179404296875,1.6782529461830853,3.244029852265119,-0.9884602715991437
1782846815550945500,3.727945556640625,2.8388451235532757,3.087662355728447,-1.1490372025243938
1782846815560949500,3.737949462890625,4.102335949862003,2.7237995252251626,-1.3026251513451337
1782846815570954500,3.74795458984375,5.3757291615039104,2.2765201603665948,-1.4471020113408564
1782846815580959500,3.75795947265625,6.3914715539127585,1.8738842393547295,-1.552350730536878
1782846815590963700,3.767963623046875,7.039813881602883,1.661718575489521,-1.6579074927687645
1782846815600968700,3.77796875,7.373930685400962,1.63121851554662,-1.7918240880444645
1782846815610973700,3.7879736328125,7.585593075919151,1.6398878519535063,-1.8576862610086797
1782846815620977700,3.797977783203125,7.665593664351105,1.6865242231830953,-1.8023764617189764
1782846815630982700,3.807982666015625,7.644353307923674,1.741382187052071,-1.5883533334188162
1782846815640987600,3.817987548828125,7.586027375683188,1.7460700526073574,-1.2413529365196823
1782846815650991400,3.827991455078125,7.542735346445441,1.869616352777183,-0.61850584622249
1782846815660996400,3.837996337890625,7.447747616761922,2.0975988867163657,-0.015054945790767668
1782846815671001300,3.84800146484375,7.290239425757527,2.394269172434509,0.45376945753023024
1782846815681005600,3.858005615234375,6.964645535632967,2.3149431222632524,0.5948898467049002
1782846815691010600,3.868010498046875,6.694416974377631,2.1878394218727943,0.573636630795896
1782846815701015600,3.878015625,6.640076896902919,2.135845907524228,0.3574450724154711
1782846815711019500,3.88801953125,6.32738691201508,2.1971423800081014,0.06502718344479799
1782846815721024500,3.8980244140625,5.519892717766761,2.3927491232603786,-0.15625439155101775
1782846815731029500,3.908029541015625,4.178073035630583,2.615398479478061,-0.3153752784490585
1782846815741033500,3.918033447265625,2.7790765912890434,2.637219558402896,-0.3354555050559342
1782846815751038500,3.92803857421875,1.7732804233551025,2.52843506629616,-0.32554844354763623
1782846815761042700,3.938042724609375,0.6323509778320789,2.2339663822755216,-0.06943681658059359
1782846815771047700,3.948047607421875,-1.029447677156329,1.6612562186747788,0.2554337277054787
1782846815781052700,3.958052734375,-3.3273353274613617,0.9233408798262477,0.20649097922965884
1782846815791056600,3.968056640625,-6.075922087940573,0.0051370706275105475,-0.21981281761750576
1782846815801061600,3.9780615234375,-8.471331954842805,-1.2378463897034526,-0.3081051413156092
1782846815811066600,3.988066650390625,-10.316091222000122,-2.946395982211828,0.2011149852797389
1782846815821070600,3.998070556640625,-11.406349633949995,-4.809053309631348,1.5341927041642367
1782846815831075600,4.00807568359375,-11.5778845967412,-5.709584099495411,3.7407740897774695
1782846815841080000,4.018080078125,-11.988950784707068,-5.947642329508066,5.828434350803494
1782846815851084000,4.028083984375,-14.56877555423975,-6.48841158670783,7.290157592692971
1782846815861089000,4.038089111328125,-18.516984772229193,-5.9102796903193,8.082437851196527
1782846815871094000,4.048093994140625,-20.915119095659254,-4.850834934306144,7.265179218780994
1782846815881098000,4.058097900390625,-21.09534356086254,-4.061263057978451,5.309005987796187
1782846815891103000,4.06810302734375,-19.573063851201532,-3.8239030393630262,2.9772926402568816
1782846815901107200,4.078107177734375,-16.760760697615147,-4.136809589610993,0.7810154987759887
1782846815911112200,4.0881123046875,-14.068992971944809,-4.4930154756203295,-1.135351206999272
1782846815921117200,4.0981171875,-11.437550243377684,-4.860433952778577,-2.621530990883708
1782846815931121200,4.10812109375,-9.093497054225207,-4.967691381448507,-3.3201118059486148
1782846815941126100,4.118126220703125,-6.9790399716883895,-4.341435213360191,-2.966057252754271
1782846815951131100,4.128131103515625,-5.109111776483059,-2.930194788995385,-1.8169350022949278
1782846815961135000,4.138135009765625,-3.3789643924117088,-1.2094035545513033,-0.5498458592332899
1782846815971140000,4.14814013671875,-1.362226510348916,0.6092977267637848,0.4897559860602021
1782846815981145000,4.15814501953125,1.0598854855179787,2.2521640100061893,1.2394568936400114
1782846815991149000,4.168149169921875,3.643291036146879,3.454872743093967,1.4413753042571247
1782846816001154000,4.178154052734375,5.644447902718186,3.8554406256601212,1.388861273165792
1782846816011159000,4.188158935546875,7.16406686873734,3.6828169908493753,1.1146202613987028
1782846816021163000,4.1981630859375,8.673854176571965,3.6459266453474757,0.6731676299322397
1782846816031168000,4.20816796875,10.08681134172678,3.8460289464533326,0.213735762726143
1782846816041172000,4.218171875,10.933103176403044,3.9011896926611658,-0.2996982552371919
1782846816051177000,4.228177001953125,11.250716004645824,3.7181685824766753,-0.7859488635249435
1782846816061182000,4.238181884765625,11.547004305309057,3.5961782795771953,-1.063791845306754
1782846816071186200,4.248186279296875,11.716252618467808,3.6506311697766183,-1.1407240591440349
1782846816081191200,4.258191162109375,11.395499738633632,3.916523455393314,-1.1212276237744838
1782846816091196200,4.268196044921875,10.868412969827652,4.230355303792655,-1.2776435625627636
1782846816101200100,4.2782001953125,10.476159034359455,4.538776525320112,-1.4789303972780703
1782846816111205000,4.288205078125,10.123852493876218,4.549358125089109,-1.5727296478293835
1782846816121210000,4.298210205078125,10.345638803523778,4.173098169827461,-1.6205062751352786
1782846816131214000,4.308214111328125,11.128396615922451,3.7826632664799686,-1.5014724839538336
1782846816141219000,4.318218994140625,11.679262904244661,3.4397076149269936,-1.3853025577709077
1782846816151224000,4.32822412109375,11.911604510176181,3.180449360497296,-1.1485654202941804
1782846816161228000,4.33822802734375,12.115255443674325,3.160151837877929,-0.8805258204504847
1782846816171233000,4.34823291015625,12.035772157114744,3.311189079302549,-0.6371176807772367
1782846816181238000,4.358238037109375,11.709466319328547,3.4569577326744794,-0.4142454755891114
1782846816191242000,4.368241943359375,10.97164421172142,3.669323010765016,-0.25869039141386746
1782846816201247000,4.3782470703125,9.850655145943165,3.994785091203451,-0.4122537903152406
1782846816211251000,4.3882509765625,9.052055621290206,4.223811288976669,-0.8476369656749069
1782846816221256000,4.398255859375,8.377266600701212,4.279166388712823,-1.2041519176334141
1782846816231261000,4.408260986328125,7.499930808463692,4.190793985515833,-1.3703963728010653
1782846816241265200,4.41826513671875,6.313650647607445,3.6833261094152925,-1.2861302358791231
1782846816251270100,4.428270263671875,5.024454302155971,2.8653584519475697,-1.0747741348311304
1782846816261275100,4.438275146484375,3.2592133928716183,2.520479723377526,-0.6223427940368652
1782846816271279000,4.448279052734375,0.9554927986294031,2.436729719284177,-0.10280870563276112
1782846816281284000,4.4582841796875,-1.2520149080485106,2.2177467766195536,0.4482371770400554
1782846816291289000,4.4682890625,-2.9980279697716234,1.4340221650153397,0.6843246915016323
1782846816301293000,4.47829296875,-4.237303807756304,0.18301058879047633,0.5362996375050395
1782846816311298000,4.488298095703125,-5.436278615012765,-1.3201859424769877,0.16865633861497042
1782846816321303000,4.498302978515625,-6.317679172471165,-2.950223139284551,-0.12200111655443906
1782846816331307000,4.50830712890625,-6.643394643148779,-4.872652798360586,-0.09228373142182826
1782846816341312300,4.518312255859375,-7.145375612270832,-5.3652673887223,0.8355435000382363
1782846816351317200,4.528317138671875,-8.46781722472012,-4.697417227485776,2.202648283948004
1782846816361321000,4.538321044921875,-12.426668832755087,-4.670950368581712,3.7897932644903656
1782846816371326000,4.548325927734375,-16.15938353471756,-3.658167410500347,5.332624179270863
1782846816381330000,4.558329833984375,-16.61921872202754,-1.3904238463073968,6.2678422516345975
1782846816391335000,4.5683349609375,-16.022577355480195,0.6741941234357655,6.02085486523509
1782846816401340000,4.57833984375,-15.359662897080183,0.7594646150946617,4.206022826568782
1782846816411344100,4.58834423828125,-13.763579115539788,-0.5216809642396867,2.356354598451406
1782846816421349000,4.59834912109375,-10.846998425877093,-2.433723669335991,1.366702486719191
1782846816431354000,4.60835400390625,-6.945622270733118,-5.069381823641061,0.942514001525566
1782846816441358000,4.618358154296875,-2.945051581865549,-6.589745470547676,0.9371729327585547
1782846816451363000,4.628363037109375,-0.27431144665479656,-5.754983330145478,0.9559659690991044
1782846816461368000,4.6383681640625,0.7360609431535006,-4.029778955434263,0.6137995682276784
1782846816471372000,4.6483720703125,0.4559563000500202,-2.6666572498112915,-0.11966361351758241
1782846816481377000,4.658376953125,-0.2416764205098152,-1.4569021053433417,-0.5089269158024341
1782846816491382000,4.668382080078125,-0.4390028271615505,-0.17891572069227693,-0.3717578215368092
1782846816501386200,4.67838623046875,-0.335266558355093,0.8967546323262154,-0.23709771441742777
1782846816511391200,4.68839111328125,-0.02941840218603611,1.8072620418034493,-0.17090382528081535
1782846816521395000,4.69839501953125,0.6570084492266177,2.358345333877206,-0.3057835665002465
1782846816531400000,4.70839990234375,1.6876619950413703,2.4932336967945097,-0.6793018218383192
1782846816541405000,4.718405029296875,2.7339894953280686,2.4743618230640885,-1.1069462196394801
1782846816551409000,4.728408935546875,3.811891699051857,2.3751706503413614,-1.507933788922429
1782846816561414000,4.738413818359375,4.7978965403229,2.1837572671256957,-1.886473233423382
1782846816571419000,4.7484189453125,5.605552062612771,1.9191596974946556,-2.20275846632421
1782846816581423000,4.758423095703125,6.1552855475127695,1.7675569311417638,-2.4560616117417813
1782846816591428000,4.768427978515625,6.440750256344676,1.6888719553530216,-2.511681207633018
1782846816601433000,4.77843310546875,6.6815615844577545,1.605169589793682,-2.267284422248602
1782846816611437000,4.78843701171875,6.918786870777606,1.5513023905277252,-1.9320022279329596
1782846816621442000,4.798442138671875,7.047565226382017,1.5199486363649368,-1.8311849153131246
1782846816631447000,4.808447021484375,6.808609170746803,1.5430067097388207,-1.8893503962948917
1782846816641451000,4.818450927734375,6.405029539144039,1.6178715427175163,-1.906986152359098
1782846816651456000,4.8284560546875,5.963778056272864,1.711137270914018,-1.8016151219576597
1782846816661460200,4.838460205078125,5.428924160596728,1.8010615797281264,-1.5222161429055034
1782846816671465200,4.84846533203125,4.9997056453466415,1.8258517375916241,-1.2111230718202888
1782846816681470200,4.85847021484375,4.531301367133856,1.9708548134185373,-0.7999984316654503
1782846816691474000,4.868473876953125,4.05403749063909,2.1777042506970465,-0.3331956703651696
1782846816701479000,4.87847900390625,3.5634207960963247,2.407476444531977,-0.01876417557224631
1782846816711484000,4.88848388671875,2.898812977781892,2.626587105229497,0.1286023414503783
1782846816721488000,4.89848779296875,2.1304940251022577,2.693096928447485,-0.021456775657087562
1782846816731493000,4.9084931640625,1.349911803176999,2.5316502289503813,-0.4667125257335603
1782846816741498000,4.918498046875,0.5281465069919824,2.080712341584265,-0.9230703192565589
1782846816751502000,4.928502197265625,-0.6750579006582498,1.5485717965200543,-1.2011452100981026
1782846816761507000,4.938507080078125,-2.0690029068291187,1.1299914335317909,-1.2008671238090842
1782846816771512000,4.948511962890625,-3.678769176763296,0.7079223516449332,-1.0236637599926441
1782846816781516000,4.95851611328125,-5.398650602886081,0.183209764624387,-0.40467086090557275
1782846816791521000,4.96852099609375,-6.994949488481879,-0.5096005042150616,0.5462071374047547
1782846816801526000,4.978526123046875,-8.420807051742077,-1.3477584245353937,1.6312454035535453
1782846816811530200,4.9885302734375,-9.04997939953804,-2.583281047466397,2.83851106929332
1782846816821535200,4.99853515625,-8.721672743323445,-3.9674879189550873,3.9187364552676676
1782846816831539200,5.008539306640625,-8.50122031262815,-5.138554728588462,4.849346741575002
1782846816841543400,5.01854345703125,-9.615788989970087,-6.147959150147438,5.4240299588143825
1782846816851548700,5.028548583984375,-11.467314098000525,-6.59619040890336,5.59291060770452
1782846816861552400,5.038552490234375,-13.373450501662491,-6.006432956650853,5.569389446863532
1782846816871557400,5.048557373046875,-15.007679012680052,-4.999879832869768,5.118404505485296
1782846816881562400,5.058562255859375,-16.20740668413043,-4.239390550902486,4.267631141480803
1782846816891566600,5.068566650390625,-16.591109064352512,-3.7893437671571966,3.0530349867224693
1782846816901571600,5.078571533203125,-15.939741251361369,-3.8405014152035113,1.4410501639559865
1782846816911576600,5.08857666015625,-14.729046780216693,-4.032829282915592,0.010053776502609251
1782846816921580500,5.09858056640625,-13.163159399497507,-4.054205540682375,-0.7740566195487976
1782846816931585500,5.10858544921875,-10.763643266320228,-3.8164910095408557,-0.8765041637189686
1782846816941590500,5.118590576171875,-8.119146994912624,-2.8326144124701615,-0.2572279176458716
1782846816951594500,5.128594482421875,-5.6893888682067395,-1.4958613660737872,0.6399050464734435
1782846816961599500,5.138599609375,-3.5247067422986027,-0.32318507541716096,1.0363488348469136
1782846816971603700,5.148603759765625,-1.2842939603626726,0.7204167992979288,0.9790217043854296
1782846816981608700,5.158608642578125,0.9121136756300926,1.5750877552628517,0.5371981207147241
1782846816991613700,5.16861376953125,2.926725651580095,2.1910098686024546,-0.13080153199508784
1782846817001617700,5.17861767578125,4.651900507935881,2.60403332811594,-0.8748974591746925
1782846817011622700,5.18862255859375,5.985704056876897,2.781595296111703,-1.702120143982768
1782846817021627600,5.198627685546875,7.077721295192838,2.912960745599866,-2.518501993563771
1782846817031631400,5.20863134765625,7.990335906082391,3.0978134551256895,-3.1015958962738512
1782846817041636400,5.21863623046875,8.923502306613326,3.3204002675011752,-3.3323744906723496
1782846817051641300,5.228641357421875,9.911317996698617,3.4634888880088925,-3.2980987115830183
1782846817061645600,5.2386455078125,10.851326225948332,3.5427880501732227,-2.9243989621981976
1782846817071650600,5.248650634765625,11.385537147545813,3.7263878370285033,-2.3388208414569496
1782846817081655600,5.258655517578125,11.506063223111628,3.8550674084335563,-1.9472336993344126
1782846817091659500,5.268659423828125,11.271976234817505,4.103659307420253,-1.7738704982027411
1782846817101664500,5.27866455078125,10.86479594837427,4.409443166181445,-1.7293765458293258
1782846817111669500,5.28866943359375,10.68695048726201,4.663732692287862,-1.658875314887613
1782846817121673500,5.298673583984375,10.753762508296965,4.630804236154258,-1.6743533083960414
1782846817131678500,5.308678466796875,10.941496910738945,4.306908382119238,-1.778247690373659
1782846817141682700,5.3186826171875,11.273296085244416,3.8058439433202147,-1.807421324018389
1782846817151687700,5.328687744140625,11.66749530956149,3.3772523277968167,-1.6346194100312887
1782846817161692700,5.338692626953125,11.866653607815504,3.071866236181557,-1.2636818188361822
1782846817171696600,5.348696533203125,11.83967324643135,2.905203555601835,-0.9906352775506675
1782846817181701600,5.35870166015625,11.604060656005144,2.772276848146319,-0.8782831560902297
1782846817191706600,5.36870654296875,11.15432366886139,2.7069857530683277,-0.9312446386881172
1782846817201710300,5.37871044921875,10.479627587252855,2.899145862998068,-0.969554203338176
1782846817211715600,5.388715576171875,9.704851421257853,3.1810835667476054,-0.9193833743721246
1782846817221720600,5.398720458984375,8.795596642190217,3.313988939154148,-0.904863558371365
1782846817231724500,5.408724609375,7.859828534728289,3.3023300655424594,-0.9404321537502109
1782846817241729500,5.4187294921875,6.858644244503974,3.296931421369314,-0.8827735993772745
1782846817251734500,5.428734619140625,5.460249857708812,3.160023535323143,-0.8002735953450203
1782846817261738500,5.438738525390625,3.6749931653559207,2.806793450254202,-0.8415991468153894
1782846817271743500,5.448743408203125,1.9656465772509575,2.3177122947156428,-0.467723017950356
1782846817281748500,5.45874853515625,0.40156887630224225,1.9011288046330213,0.2686635038957
1782846817291752700,5.468752685546875,-1.4538760355204343,1.3650802923448384,1.0473382847644388
1782846817301757700,5.4787578125,-3.610754209679365,0.5673766936182976,1.4273016245886683
1782846817311762700,5.4887626953125,-5.402377514454722,-0.011219020889699458,1.3852202863149343
1782846817321766700,5.4987666015625,-6.5534256184101105,-0.031141280455887314,1.7167933969795703
1782846817331771600,5.508771728515625,-7.8052815365046255,-0.12213526432812213,2.1812392929553983
1782846817341775600,5.518775634765625,-9.026711336675286,-1.1551461869239807,1.8506069702722132
1782846817351780600,5.528780517578125,-10.15531146197915,-4.622635542745888,0.11367226414829491
1782846817361785600,5.53878564453125,-8.849291992020607,-7.638795089274645,-1.148397151055187
1782846817371789600,5.54878955078125,-6.911641090676188,-8.46242617933154,-0.8274328204274177
1782846817381794600,5.558794677734375,-9.915076472449302,-8.29661076323092,0.9334517933435738
1782846817391799600,5.568799560546875,-14.113213221943377,-5.841276296719909,3.6459208001285788
1782846817401803500,5.578803466796875,-15.273903014469147,-2.414864655087143,5.889833114618063
1782846817411808500,5.58880859375,-14.720419237124919,0.7631715067885816,6.64341159428358
1782846817421813500,5.5988134765625,-14.162476726806164,1.987356012494862,5.088733589842915
1782846817431817500,5.6088173828125,-13.307143507540225,1.2907285234548151,2.339844485416263
1782846817441822500,5.618822509765625,-11.249558651304245,-0.3674982643961906,-0.08462854049354791
1782846817451827500,5.628827392578125,-7.603020011538267,-2.825752417746186,-1.2921724386528133
1782846817461831700,5.638831787109375,-2.969049712568521,-6.004210019904375,-1.1836482049174606
1782846817471836700,5.648836669921875,1.1203665499657391,-7.5439949911177155,-0.17654942995235323
1782846817481841700,5.658841552734375,3.540730240860581,-5.945812775993347,0.7939046448349952
1782846817491845600,5.668845703125,4.021875342702866,-3.3019965958043933,1.0698805906359106
1782846817501850600,5.6788505859375,2.780466584342718,-1.5848516089081763,0.36917796111144124
1782846817511854600,5.6888544921875,1.4474959790945052,-0.4286104663543403,-0.2697052680335939
1782846817521859600,5.698859619140625,1.0287339759290217,1.198114537165314,-0.5600866827405989
1782846817531864600,5.708864501953125,0.35027298882901664,2.6319851648807524,-1.0054038076154888
1782846817541868500,5.71886865234375,-0.055688569474220274,3.444017294819653,-1.38179191930145
1782846817551873500,5.72887353515625,0.4574368939965963,3.813631236195564,-1.6215262658327816
1782846817561878500,5.73887841796875,1.482284383881092,3.810455528768897,-1.7852055466875434
1782846817571882500,5.748882568359375,2.666480724200606,3.56895943326205,-1.8702507051579653
1782846817581887500,5.758887451171875,3.820180803969502,3.1672903114557265,-1.9164587679728864
1782846817591892500,5.768892578125,5.117505510818958,2.564929398217797,-2.0680872532889247
1782846817601896400,5.778896484375,6.185839091208577,2.0501688808910545,-2.2420823225833475
1782846817611901400,5.7889013671875,6.676432404875755,1.6668081537134944,-2.4029523912362754
1782846817621906400,5.798906494140625,6.960524656310677,1.4017344910033047,-2.521821785636246
1782846817631910700,5.80891064453125,7.1970198747903105,1.28299822146371,-2.4312679467469454
1782846817641915600,5.81891552734375,7.15571229736805,1.2442718927063048,-2.263052191506326
1782846817651920600,5.828920654296875,6.932610813468695,1.3108572653785346,-2.022078950829804
1782846817661924600,5.838924560546875,6.603441402944922,1.4575550162941218,-1.6250889267504214
1782846817671929600,5.8489296875,6.372589158788323,1.571481109073013,-1.1420295887846499
1782846817681934600,5.8589345703125,6.231963129001856,1.6597428915023802,-0.7291261023890226
1782846817691938600,5.8689384765625,6.14549305229485,1.7422544398419557,-0.4910199415814131
1782846817701943600,5.878943603515625,5.958536648488044,1.773903085298091,-0.39053938663527366
1782846817711947500,5.888947509765625,5.605041775003075,1.6627613625407218,-0.4144646712977439
1782846817721952500,5.898952392578125,5.261830395123362,1.7425550302237272,-0.4589795203287154
1782846817731957500,5.90895751953125,4.587287458249926,2.075100346921384,-0.48786125835478306
1782846817741961500,5.91896142578125,3.7613632888197897,2.4277228214859963,-0.502368726330623
1782846817751966500,5.928966552734375,3.025541415119171,2.549785312838852,-0.5543932203393429
1782846817761971500,5.938971435546875,2.1405255897730586,2.3011107040047643,-0.5414679800536483
1782846817771975400,5.948975341796875,1.3326146314173937,1.7237994763493536,-0.5980350859280675
1782846817781980400,5.95898046875,0.5913795004963874,1.1585676858052611,-0.0947661958873272
1782846817791985400,5.9689853515625,-0.5134574719041586,0.48538858463093637,0.8089004077844322
1782846817801989600,5.97898974609375,-2.4885516764581204,-0.6563878331102431,1.3693608922734857
1782846817811994600,5.98899462890625,-4.80641945399642,-2.1151925572045145,1.3696740498758853
1782846817821999600,5.99899951171875,-6.758647746747732,-3.191095842196047,0.9962772289603948
1782846817832003600,6.009003662109375,-8.333008941301703,-3.921542744860053,0.9821230314016342
1782846817842009600,6.019009521484375,-9.872425079202651,-4.153979627859592,1.8118338797636329
1782846817852014600,6.0290146484375,-11.590608469235896,-3.7161543200448155,2.9689573581099507
1782846817862018600,6.0390185546875,-13.383812905722856,-3.326719533650577,3.926829745352268
1782846817872023600,6.0490234375,-14.710017085576057,-3.330996188056469,4.722321367117762
1782846817882027500,6.059027587890625,-15.482411324870586,-3.687073771511018,4.705813884431123
1782846817892032500,6.069032470703125,-15.06391469464302,-4.3201895962357515,3.654732467615604
1782846817902037500,6.07903759765625,-13.930197080194949,-4.796218962499499,2.272165910679847
1782846817912041700,6.089041748046875,-12.799395060932635,-5.128513227045536,1.152745993914455
1782846817922046700,6.099046630859375,-11.519893011021614,-5.60449115538299,0.032235651563853024
1782846817932051700,6.1090517578125,-10.713774196779728,-5.71001430760622,-0.6860347833551466
1782846817942055700,6.1190556640625,-10.361081871849297,-4.9487750840544695,-0.4308268272295594
1782846817952060700,6.129060791015625,-10.04766240364313,-3.5507664817065,0.5094065890781581
1782846817962065700,6.139065673828125,-9.167233321565389,-2.189287574854493,1.3659392472617327
1782846817972069400,6.1490693359375,-7.938662417468428,-1.1044710616976021,1.9076114446505903
1782846817982074600,6.15907470703125,-6.70240329695642,-0.1660793277338147,2.2683147882096466
1782846817992079600,6.16907958984375,-4.8910775128453965,0.6025348085001111,2.461097267821431
1782846818002083600,6.17908349609375,-2.798482718026638,0.9126116882801055,2.4469541761785742
1782846818012088600,6.189088623046875,-0.3706359779000282,0.7840449295997619,2.4129126442365347
1782846818022093600,6.199093505859375,2.1289988181084394,0.20166370520368218,2.3239907904632386
1782846818032097500,6.20909765625,4.503180603542924,-0.48626682877019045,1.9777721915915607
1782846818042102500,6.2191025390625,6.811127875569462,-0.6049079673722386,1.3970814045004545
1782846818052107500,6.229107421875,8.591364109411835,-0.0992353041253984,0.6779995801333337
1782846818062111700,6.23911181640625,9.202508048564194,0.5078370016738772,-0.17094349970407782
1782846818072116700,6.24911669921875,9.048066259393096,0.8801983420617878,-1.0300090373661368
1782846818082121700,6.259121826171875,8.970120849925278,1.3354900407232344,-1.7076126039192079
1782846818092125700,6.269125732421875,8.816580978029966,2.0239228251308203,-2.4477638851262626
1782846818102130700,6.279130615234375,8.615420692303775,2.771363240432739,-2.909398084682226
1782846818112134700,6.289134765625,8.688663623169065,3.3630393857881424,-3.141738521569967
1782846818122139600,6.2991396484375,9.218282540801168,3.7067557925805446,-3.1804888157248494
1782846818132144600,6.30914453125,9.79189666750431,3.726751994165778,-3.0956752740532156
1782846818142148600,6.319148681640625,10.302969874620437,3.490578847247362,-2.9611341171383856
1782846818152153600,6.329153564453125,10.814952597796916,3.1766677961319685,-2.682294379404187
1782846818162158600,6.33915869140625,11.217976933604477,2.8333792593628164,-2.47085352268219
1782846818172162600,6.34916259765625,11.535820063471794,2.5126708031922576,-2.2730758651316165
1782846818182167600,6.35916748046875,11.64571134777665,2.1816005274832246,-1.9971302414037286
1782846818192172500,6.369172607421875,11.588200239050387,1.870424600420147,-1.7105965881660579
1782846818202176500,6.379176513671875,11.46083291928768,1.7194107398711145,-1.4090415991462766
1782846818212181500,6.389181396484375,11.119268722093105,1.696223925551027,-1.1334763530381022
1782846818222186500,6.3991865234375,10.671167227196692,1.7436999624751508,-0.8902684121120721
1782846818232190700,6.409190673828125,10.206341391992568,1.871017597877234,-0.5269597814254462
1782846818242195700,6.41919580078125,9.640461658933758,1.9503212900862097,-0.13501958808153866
1782846818252200700,6.42920068359375,9.067958708342909,2.0673026787824926,0.10425992735438049
1782846818262204700,6.43920458984375,8.221715388983487,2.165345996644348,0.1352102883480489
1782846818272209700,6.449209716796875,7.207278818476199,2.0844716941177843,0.16672084050774574
1782846818282214700,6.459214599609375,5.9978621121823785,1.8114817053250967,0.28912527716606856
1782846818292218600,6.469218505859375,4.397063577079773,1.3771931933343409,0.15690394150093198
1782846818302223600,6.4792236328125,2.351653142762184,0.9364163422375917,0.13224164780080316
1782846818312227600,6.4892275390625,-0.11183832671940326,0.4897235450953245,0.35603593626990915
1782846818322232600,6.499232666015625,-2.6870132246196268,-0.11337401185408234,0.46302784587144846
1782846818332237600,6.509237548828125,-4.869148005110025,-0.3361206909663975,0.6815437555462122
1782846818342241500,6.519241455078125,-6.295033625420928,-0.20580781927108763,1.2326371306225656
1782846818352246500,6.52924658203125,-7.476575651839375,-0.7265674308821558,1.8330450100965796
1782846818362251500,6.53925146484375,-8.493735509830712,-2.512185650023818,1.6223431351736186
1782846818372255500,6.54925537109375,-8.476609018462895,-3.463482166007161,0.9613725043177604
1782846818382260500,6.559260498046875,-9.651472297769784,-4.21043801266253,0.37947833278626203
1782846818392265500,6.569265380859375,-13.63901165562868,-4.539930663791298,0.5133426133528352
1782846818402269700,6.579269775390625,-16.60099683663845,-2.5796675331443546,1.787900046468526
1782846818412274700,6.589274658203125,-17.01142823383212,0.7460644507735967,3.7002106087207793
1782846818422279700,6.59927978515625,-16.38075600286722,3.2781320283532143,4.606451008403301
1782846818432283600,6.60928369140625,-15.283891324520111,3.6427529837474224,3.4184061759620903
1782846818442288600,6.61928857421875,-13.54605981568694,2.5974752847746014,1.6341931474432347
1782846818452293600,6.629293701171875,-11.01345623153448,0.598431757095456,0.18387283164300022
1782846818462297600,6.639297607421875,-7.167004675754904,-2.390251168964803,-0.6549798660084605
1782846818472302600,6.649302490234375,-2.6744647086918354,-5.496400198498368,-0.4768029809847474
1782846818482306600,6.659306640625,1.112804590278864,-6.5734630287885665,0.5983348725922405
1782846818492311600,6.6693115234375,3.3506314473748207,-5.22751837567687,1.6858245504811404
1782846818502316800,6.67931689453125,3.7007027761518954,-3.254209885495901,1.9291852708160877
1782846818512320500,6.689320556640625,3.014722499462962,-1.6405070067651568,1.3889812462836504
1782846818522325500,6.699325439453125,1.9965479114711284,-0.30790143543705345,0.5286531413398683
1782846818532330500,6.70933056640625,1.1480617816209793,0.7719634466618299,0.16367233965732156
1782846818542334500,6.71933447265625,0.8839970036923884,1.4414737961955368,0.024475977347791195
1782846818552339500,6.72933935546875,1.312417646563053,1.7389081981539725,-0.19114764495156705
1782846818562344400,6.739344482421875,2.1228929024487733,1.9723215249702333,-0.4721680146604776
1782846818572348700,6.7493486328125,2.9644430955559016,2.1802419524811207,-0.7094250843580812
1782846818582353700,6.759353759765625,3.7392426424264906,2.194564346213639,-1.035878952312842
1782846818592358700,6.769358642578125,4.47347753919661,1.990591633415222,-1.5137068193659184
1782846818602362600,6.779362548828125,5.147945657268166,1.8277490956455469,-1.9410788299664854
1782846818612367600,6.78936767578125,5.655515240177512,1.7693229179009795,-2.1358692883998156
1782846818622372600,6.79937255859375,5.927687336716056,1.5759892341472208,-2.2623883207701145
1782846818632376600,6.80937646484375,6.047759823295474,1.3396240717880428,-2.299945021226257
1782846818642381600,6.819381591796875,6.078830084341764,1.139391130039841,-2.1279726899310947
1782846818652386600,6.829386474609375,6.016008594247698,0.9450701888144015,-1.8889049906149507
1782846818662390800,6.839390869140625,5.975482522591948,0.7351796302743255,-1.6671461534962058
1782846818672395800,6.849395751953125,5.92389203608632,0.6348970090530812,-1.4470280693218112
1782846818682400800,6.85940087890625,5.580729756045341,0.6848715847946703,-1.232071313433349
1782846818692404500,6.869404541015625,4.8103269828289745,0.8935418077595532,-0.9494548336394131
1782846818702409500,6.879409423828125,4.099477053299546,1.2867926453106104,-0.6034079380728304
1782846818712414500,6.88941455078125,3.478588549724221,1.6635485673956572,-0.27812019128799437
1782846818722418400,6.89941845703125,2.9431834499061105,2.03642779417783,-0.03233648158982396
1782846818732423400,6.90942333984375,2.523556354343891,2.362861203866452,0.04843794075883925
1782846818742427600,6.919427734375,2.3020786722540856,2.60617852345109,0.11161489322707056
1782846818752432600,6.9294326171875,2.459450669658184,2.47131938662827,0.16360804224945605
1782846818762437600,6.939437744140625,3.0416087528228757,1.8753984433099626,0.18765585731305182
1782846818772441600,6.949441650390625,3.6857659037828445,1.0362897981360555,0.04996091254241764
1782846818782446600,6.959446533203125,3.921915669825673,0.4112251779198646,0.015127572635561227
1782846818792451600,6.96945166015625,3.599085399195552,0.021446546524018048,-0.13685359857566654
1782846818802455600,6.97945556640625,2.8314655346959827,-0.5353766043759882,-0.5971075227543712
1782846818812460500,6.98946044921875,1.3423989433288575,-1.4363098375611005,-1.5798162450894713
1782846818822465500,6.999465576171875,-1.074040267598629,-2.321125464159995,-2.293315812344849
1782846818832469800,7.0094697265625,-4.325996236687899,-2.9106892935365436,-2.4169576818436385
1782846818842474800,7.019474853515625,-7.967339061376452,-3.2029771263867617,-1.6037332733802496
1782846818852479700,7.029479736328125,-10.751688624632358,-3.0015672498136756,0.33481603810861704
1782846818862483500,7.0394833984375,-13.46845985865593,-1.833397915187478,2.6846120086967944
1782846818872488400,7.049488525390625,-16.486007352411747,-0.8333489856686442,4.40258847798109
1782846818882493400,7.059493408203125,-19.26638859655857,-0.699588603867963,5.013220960479974
1782846818892497700,7.06949755859375,-20.994095017218587,-0.8020935042485594,4.585671255224943
1782846818902502700,7.079502685546875,-21.23077962079048,-0.9650992697559296,3.4271205205544826
1782846818912507600,7.089507568359375,-20.12179663462639,-1.319870300656557,2.311007682510465
1782846818922511600,7.09951171875,-18.155567873573304,-1.7304053043551741,1.9586570106245575
1782846818932516600,7.1095166015625,-15.711104345166682,-2.1848627441495654,1.9945719352230429
1782846818942520600,7.1195205078125,-13.456416369640827,-2.4838193872392176,2.025077548123896
1782846818952525600,7.129525634765625,-11.130447118711471,-2.4652266227111217,1.9395424141794442
1782846818962530600,7.139530517578125,-8.471481592446565,-2.0706831150010228,1.5690386843569575
1782846818972534800,7.14953466796875,-5.721660906258225,-1.4991244595229625,1.0828718818951397
1782846818982539800,7.159539794921875,-2.876928478232026,-0.8385413666799664,0.8226417867586017
1782846818992544800,7.169544677734375,-0.04941021985709667,-0.3844247031472623,0.8550541100636124
1782846819002548700,7.179548828125,2.3583359815269707,-0.23863266889974474,0.8968427490010857
1782846819012553700,7.1895537109375,4.218454145857692,-0.19673465130366383,0.8797666726462543
1782846819022558700,7.199558837890625,5.797843397706747,-0.03225384480766952,0.8143141764614731
1782846819032562400,7.2095625,6.630023120400309,0.27539361586831507,0.7549520330410451
1782846819042567400,7.2195673828125,6.800875361624359,0.555084636669606,0.5562867059357464
1782846819052572400,7.229572509765625,6.736631145250797,0.8130493441574275,0.1389953598447144
1782846819062576600,7.23957666015625,6.32973669001162,1.3597659654542802,-0.6515363014258444
1782846819072581600,7.24958154296875,6.155289639165997,1.9843349111080169,-1.4666555837251245
1782846819082586600,7.259586669921875,6.243920108777284,2.315179999759048,-1.8299322849035262
1782846819092590600,7.269590576171875,6.6998594576925035,2.459657298146188,-1.9575223075062036
1782846819102595600,7.279595703125,7.448470670339464,2.4978134258002043,-1.8457260663628576
1782846819112600600,7.2896005859375,8.244823877370356,2.2209886811502275,-1.6403899562567472
1782846819122604500,7.2996044921875,8.950618861597777,1.8067710434161126,-1.4845859388217328
1782846819132609500,7.309609619140625,9.617958735224605,1.4670114114254713,-1.3448454596981405
1782846819142614500,7.319614501953125,10.154830984985828,1.1807849244408308,-1.2232446675729005
1782846819152618800,7.32961865234375,10.623533369362354,0.9204561181701719,-1.1091966289147734
1782846819162623700,7.339623779296875,11.069722308635711,0.8095125483334064,-1.0465697846099733
1782846819172627700,7.349627685546875,11.316982082235812,0.8876800761193037,-0.9386373792879283
1782846819182632700,7.3596328125,11.346701513195038,1.086905009868741,-0.8183470121741294
1782846819192637700,7.3696376953125,11.270931109678745,1.1634222862295807,-0.6558839752413332
1782846819202641400,7.379641357421875,11.16812189258933,1.3020081884905694,-0.47395540953390297
1782846819212646400,7.389646484375,11.018913327896595,1.5033588822223245,-0.3223695212505758
1782846819222651400,7.3996513671875,10.708910974657535,1.7885348372407257,-0.23417305914238093
1782846819232655600,7.409655517578125,10.20456678353548,1.9839229693062603,-0.35671449311859904
1782846819242660600,7.41966064453125,9.74047919947803,1.914196814390272,-0.591535275579989
1782846819252665600,7.42966552734375,9.451137356951833,1.7617539439514278,-0.6625104807090014
1782846819262669600,7.439669677734375,9.19168328768909,1.8597857175059616,-0.8084625278238207
1782846819272674600,7.449674560546875,8.387991992855072,2.134759135200828,-1.1324552663620562
1782846819282679600,7.459679443359375,7.048527349412441,2.0075274245165287,-1.632592726509273
1782846819292683500,7.46968359375,5.247516623088718,1.7727949779257177,-1.8702018975801764
1782846819302688500,7.4796884765625,3.0290391941070554,1.5920898895986377,-1.9226080843828617
1782846819312693500,7.489693603515625,0.9323767114579677,1.1123132996305822,-1.4483359370499849
1782846819322697700,7.49969775390625,-0.7553156787216663,0.46216889095455405,-0.2179328490898013
1782846819332702700,7.50970263671875,-1.76412797960639,-0.19218407532721757,1.1021674609303473
1782846819342707700,7.519707763671875,-2.7029391080260274,-0.5846832177281379,2.201677831480652
1782846819352711700,7.529711669921875,-4.398196380501985,-0.9500780801042914,2.432674890935421
1782846819362716700,7.539716552734375,-6.4260068607211105,-1.582250486499071,1.6758622516542672
1782846819372721700,7.5497216796875,-8.26486888653338,-2.522026660558581,0.14950067950710652
1782846819382725400,7.559725341796875,-9.645237787294388,-3.059713733834028,-1.1845236725777386
1782846819392730600,7.569730712890625,-11.32390749758482,-4.4224049390852445,-2.0317356908388433
1782846819402734600,7.579734619140625,-13.072027760720252,-5.158918886703252,-1.3499940746329724
1782846819412739600,7.589739501953125,-13.6120044062376,-3.849198808661103,1.1545024821929633
1782846819422744600,7.59974462890625,-13.135979131627082,-1.39028283040151,4.162756224033236
1782846819432748500,7.60974853515625,-12.780982621407508,0.17362316724210977,5.598124542960524
1782846819442753500,7.61975341796875,-12.05280629402399,-0.04151230621412396,4.835544426193833
1782846819452758500,7.629758544921875,-10.564473277628421,-1.5583156302906571,2.8751763738676903
1782846819462762500,7.639762451171875,-8.17691295518279,-3.6334476875245567,2.8764649523735044
1782846819472767500,7.649767578125,-5.412019203025102,-5.4889557277113195,2.8371277982413767
1782846819482772500,7.6597724609375,-3.3400609535217285,-5.729924292212725,2.6409432551011442
1782846819492776700,7.669776611328125,-2.5995839474916456,-4.886752635383606,2.336083379317075
1782846819502781700,7.67978173828125,-1.4947878916233777,-3.436120696350932,1.3950681649819017
1782846819512786700,7.68978662109375,-1.642710508158803,-2.127808585410565,0.8684095584601164
1782846819522790700,7.699790771484375,-0.8109609935760498,-1.2103240303970872,-0.7246903849638998
1782846819532795600,7.709795654296875,0.7725988219559192,0.038389790279418225,-1.3914941058874128
1782846819542800600,7.719800537109375,0.7799719810724258,1.2659890728652476,-1.1558898448981345
1782846819552804600,7.7298046875,1.0703151095956562,2.3476216952890154,-1.2156700676001608
1782846819562809600,7.7398095703125,1.957905753865838,2.9249828995659946,-1.2871342983551322
1782846819572814600,7.749814697265625,2.5853654525250196,3.1543659479528663,-1.4394514965876937
1782846819582818600,7.759818603515625,3.7085710253089665,3.066512307932973,-1.4729730963088572
1782846819592823600,7.769823486328125,4.819937691739201,2.7157524123698473,-1.371838972824812
1782846819602828500,7.77982861328125,5.688627236184478,1.9503942091919482,-1.382889066888392
1782846819612832500,7.78983251953125,6.345392524304986,1.3332519064076245,-1.1875554414890706
1782846819622837500,7.79983740234375,6.3823080042481415,0.9023794864706695,-0.9634048869282007
1782846819632841500,7.809841552734375,6.31742724353671,0.6606773469977081,-1.042435022892803
1782846819642846500,7.819846435546875,6.477256570965051,0.8544866854391991,-1.1996771103069186
1782846819652851500,7.8298515625,6.3165890391468995,1.0802519817203282,-1.1784973980255424
1782846819662855700,7.839855712890625,6.178209326982498,1.2465030127592385,-1.1025658125981688
1782846819672860700,7.849860595703125,6.053778060671687,1.574298796842247,-0.9117692461065947
1782846819682865700,7.85986572265625,5.916929795858263,1.920871469848603,-0.7012110174380243
1782846819692869600,7.86986962890625,5.799395303323864,2.120871918015182,-0.4639095971420407
1782846819702874600,7.87987451171875,5.575480164954066,2.112076032619178,-0.28735329905748364
1782846819712879600,7.889879638671875,5.334156211143732,2.1217839182935654,-0.25052301317974923
1782846819722883600,7.899883544921875,5.14515982594192,2.060581261572987,-0.2834004697784781
1782846819732888600,7.909888671875,4.952107443347573,2.094408127851039,-0.26065818435549737
1782846819742893600,7.9198935546875,4.583507939711213,2.046458628196269,-0.19833280721530316
1782846819752897500,7.9298974609375,3.785950617587566,1.8692717771232128,-0.01575286492705345
1782846819762902500,7.939902587890625,2.5502619904398918,1.735676230495423,0.07105842643305658
1782846819772907500,7.949907470703125,1.4421908584237098,1.5481407116264103,0.1755500436514616
1782846819782911500,7.959911376953125,0.18071078741550445,1.2468069641418755,0.22258768915832042
1782846819792916500,7.96991650390625,-1.5189637169808148,0.699436847372353,0.1685745055504143
1782846819802921500,7.97992138671875,-3.249280612400174,-0.11653159910216927,0.13155512684136628
1782846819812925700,7.98992578125,-4.597421898773312,-0.9264489288441836,0.2469523150861263
1782846819822930700,7.9999306640625,-5.718901962938904,-1.4846163339599967,0.9294529329657554
1782846819832935700,8.009935791015625,-6.463823088896274,-1.8040813659407198,1.7421020257592201
1782846819842939400,8.019939453125,-7.434895733973383,-1.952635412247479,2.269337993777543
1782846819852944400,8.0299443359375,-8.727959276247024,-1.811282529491186,2.5102082124710083
1782846819862948400,8.0399482421875,-9.918965881103277,-1.600182449030876,2.2304665574610234
1782846819872953300,8.049953369140624,-10.967136378908156,-1.6297465432979166,1.634335332392901
1782846819882958300,8.059958251953125,-11.763168683421611,-2.1263132322862743,1.09382151125893
1782846819892962600,8.069962646484376,-12.039727032220362,-3.03475581818819,0.9508173541642725
1782846819902967600,8.079967529296875,-12.020007601749896,-4.208580402097105,1.0876821317210792
1782846819912972500,8.08997265625,-11.85175999006629,-5.303618449538946,1.4550190680757165
1782846819922976500,8.0999765625,-11.558962454128265,-5.944118831557035,1.9508890069715679
1782846819932981500,8.1099814453125,-11.418116059589385,-6.127398008155822,2.0616173266224562
1782846819942986500,8.119986572265624,-11.268859564101696,-5.916520046013593,1.8111038119234144
1782846819952990500,8.129990478515625,-10.968172151696681,-5.522532418620586,1.3338850897446275
1782846819962995500,8.139995361328126,-10.609287401866911,-4.993493931224942,0.7772565846338868
1782846819973000400,8.15000048828125,-10.182475363236666,-4.326396634182334,0.36467473140805956
1782846819983004700,8.160004638671875,-9.453704577091335,-3.4684473871991037,0.27428017473369837
1782846819993009700,8.170009765625,-8.518871704652906,-2.243968136329949,0.39329745317175985
1782846820003014700,8.1800146484375,-7.1027341558963055,-0.5750435749843716,0.9939650064952671
1782846820013018400,8.190018310546876,-4.959690445822477,0.7822083618223666,1.2559307663179933
1782846820023023400,8.2000234375,-2.658293326091766,1.715814907336235,1.4115641033612192
1782846820033028400,8.2100283203125,-0.3958370546519756,2.3916671732425687,1.354256408252567
1782846820043032300,8.2200322265625,1.6504793885946272,2.708425138221681,1.0086636861942708
1782846820053037300,8.230037353515625,3.180367235171795,2.6262331772252914,0.5150678297102451
1782846820063042300,8.240042236328126,4.42030650550127,2.4553297903358935,0.03556654955223203
1782846820073046500,8.250046630859375,5.694471870559454,2.3230153695598244,-0.3345306452959776
1782846820083051500,8.260051513671876,6.846092805966735,2.1668495330750943,-0.6021200902193784
1782846820093055500,8.270055419921874,7.91254948656857,2.114420257657766,-0.8561258309483528
1782846820103060500,8.280060546875,8.806717171141505,2.1919892350286245,-1.1525994250506162
1782846820113065500,8.2900654296875,9.54181774483025,2.381073006252944,-1.450471926165372
1782846820123069400,8.3000693359375,10.061977344721555,2.541838445487618,-1.7381636633969841
1782846820133074400,8.310074462890626,10.499656814324855,2.714564663890004,-2.036469295231998
1782846820143079400,8.320079345703125,10.972895088565348,2.8699668225258588,-2.29026007803604
1782846820153083600,8.330083740234375,11.242296551346778,2.854035093900561,-2.4979843984529375
1782846820163088600,8.340088623046874,11.388590689897537,2.823897145268321,-2.4174567174069583
1782846820173093600,8.35009375,11.413282063561677,2.8853727737113832,-2.136270124285668
1782846820183097300,8.360097412109376,11.195769777971506,2.771827643074095,-1.6059909891791642
1782846820193102300,8.370102294921875,10.707865849518775,2.73105870257318,-1.0214670536659658
1782846820203107300,8.380107421875,10.249016166114806,3.006421704107523,-0.6579135083075612
1782846820213111300,8.390111328125,9.7338781937778,3.3821289939224717,-0.4908217886608094
1782846820223116300,8.4001162109375,9.094399556022882,3.668016896602511,-0.4597567152462899
1782846820233121300,8.410121337890626,8.529336400043963,3.8382352238371964,-0.5679714446410536
1782846820243125500,8.42012548828125,8.246941600176692,3.999322734633088,-0.6449557539917529
1782846820253130500,8.430130615234376,8.198930725723505,4.009452498981356,-0.7474669379826635
1782846820263135500,8.440135498046875,8.197984384784101,3.8472859607771035,-0.870655218495056
1782846820273139500,8.450139404296875,8.353036999329925,3.682878950169682,-0.9502273523818701
1782846820283144400,8.46014453125,8.5604323800534,3.5167879319980737,-0.9970401761569082
1782846820293149400,8.4701494140625,8.455335344287752,3.183699594464898,-0.9070091920979321
1782846820303153400,8.4801533203125,7.847136226415634,2.723279885265231,-0.843994517519325
1782846820313158400,8.490158447265625,6.903915464860201,2.0273259115725755,-1.0513989583320915
1782846820323163400,8.500163330078125,5.848681020018458,1.403937407875061,-1.2297406785286962
1782846820333167600,8.510167724609374,4.670034130519628,0.7178235679343342,-1.4176301254019141
1782846820343172600,8.520172607421875,3.211045866551995,-0.24899697265624998,-1.4412649757504463
1782846820353176300,8.53017626953125,1.2720043876320124,-0.9429647409677505,-0.9825145149372517
1782846820363181300,8.540181396484375,-1.6489491102874279,-1.1723624024018644,-0.15009543052986263
1782846820373186600,8.5501865234375,-3.834270704120397,-0.9236094676345586,0.9106789666518569
1782846820383190300,8.560190185546874,-4.61203026984036,-0.036332419358193875,2.1019410075739025
1782846820393195300,8.5701953125,-5.671859056735038,0.5588748227328062,2.9163854593515395
1782846820403200500,8.580200439453124,-7.16225777348876,-0.5884960540145635,2.595816119390726
1782846820413204500,8.59020458984375,-8.105311361783743,-3.2450288001745937,1.0884832189708948
1782846820423209500,8.60020947265625,-6.676442926269769,-5.6988224669843905,-0.36518341158255935
1782846820433214500,8.61021435546875,-4.679408692586422,-6.985125429081917,-0.8389007015116512
1782846820443218400,8.620218505859375,-5.697833455947041,-6.196976571294665,0.11623568489551543
1782846820453223400,8.630223388671874,-8.562844117370247,-3.844272750435769,1.8538526741951702
1782846820463228400,8.640228515625,-10.288034171295166,-1.1331801465705036,3.104587479305267
