time,seconds_elapsed,z,y,x
1782846811885496600,0.06249658203125,-1.5837249755859375,-0.400604248046875,0.3517913818359375
1782846811895501600,0.07250146484375,-1.336029052734375,-0.3119659423828125,0.354400634765625
1782846811905506600,0.082506591796875,-1.1040191650390625,-0.2348785400390625,0.328704833984375
1782846811915510500,0.092510498046875,-0.8839111328125,-0.1851959228515625,0.262969970703125
1782846811925515800,0.102515869140625,-0.6903839111328125,-0.151092529296875,0.2628326416015625
1782846811935520800,0.112520751953125,-0.5240020751953125,-0.1375579833984375,0.2408294677734375
1782846811945524500,0.1225244140625,-0.3591766357421875,-0.1433258056640625,0.1369171142578125
1782846811955529500,0.132529541015625,-0.2329559326171875,-0.13604736328125,0.055572509765625
1782846811965534500,0.142534423828125,-0.1397705078125,-0.125946044921875,0.0213470458984375
1782846811975538400,0.152538330078125,-0.0395050048828125,-0.0767669677734375,0.072601318359375
1782846811985543400,0.16254345703125,0.0665435791015625,-0.0537261962890625,0.067657470703125
1782846811995547600,0.172547607421875,0.1201019287109375,-0.0270843505859375,0.0709228515625
1782846812005552600,0.182552734375,0.1130218505859375,0.015655517578125,0.08282470703125
1782846812015557600,0.1925576171875,0.07684326171875,0.0443878173828125,0.05755615234375
1782846812025561600,0.2025615234375,0.0486297607421875,0.062469482421875,0.02886962890625
1782846812035566600,0.212566650390625,0.056976318359375,0.0770263671875,0.019317626953125
1782846812045571600,0.222571533203125,0.0946502685546875,0.071624755859375,0.0123291015625
1782846812055575600,0.232575439453125,0.1320343017578125,0.0477142333984375,0.010528564453125
1782846812065580500,0.24258056640625,0.154144287109375,0.0366668701171875,0.01995849609375
1782846812075585500,0.25258544921875,0.1584930419921875,0.0399627685546875,0.0369110107421875
1782846812085589800,0.26258984375,0.1610107421875,0.031524658203125,0.0421295166015625
1782846812095594800,0.2725947265625,0.143829345703125,0.03167724609375,0.0355377197265625
1782846812105599700,0.282599853515625,0.1182403564453125,0.033721923828125,0.0205078125
1782846812115603500,0.292603515625,0.100555419921875,0.03277587890625,0.001617431640625
1782846812125608400,0.3026083984375,0.085784912109375,0.0373992919921875,-0.005035400390625
1782846812135612400,0.3126123046875,0.07843017578125,0.0338134765625,-0.01141357421875
1782846812145617400,0.322617431640625,0.070556640625,0.0170440673828125,-0.017486572265625
1782846812155622400,0.332622314453125,0.063995361328125,-0.0149688720703125,-0.0262451171875
1782846812165626600,0.342626708984375,0.021759033203125,-0.0443267822265625,-0.022979736328125
1782846812175631600,0.352631591796875,-0.0527801513671875,-0.073272705078125,-0.0173187255859375
1782846812185636600,0.36263671875,-0.177276611328125,-0.1170654296875,-0.0149688720703125
1782846812195640600,0.372640625,-0.3863372802734375,-0.1596832275390625,-0.012786865234375
1782846812205645600,0.3826455078125,-0.6622161865234375,-0.183929443359375,-0.0143280029296875
1782846812215649500,0.3926494140625,-0.9560546875,-0.200897216796875,-0.0228118896484375
1782846812225654500,0.402654541015625,-1.2442169189453125,-0.218841552734375,-0.0243377685546875
1782846812235659500,0.412659423828125,-1.4604034423828125,-0.2302093505859375,0.0236053466796875
1782846812245663700,0.422663818359375,-1.6064453125,-0.2148895263671875,0.139495849609375
1782846812255668700,0.432668701171875,-1.7400360107421875,-0.1918792724609375,0.27142333984375
1782846812265673700,0.442673828125,-1.9149322509765625,-0.2148284912109375,0.35504150390625
1782846812275677400,0.452677490234375,-2.105255126953125,-0.295135498046875,0.32928466796875
1782846812285682400,0.462682373046875,-2.27301025390625,-0.422271728515625,0.243621826171875
1782846812295687400,0.4726875,-2.3846588134765625,-0.589080810546875,0.175323486328125
1782846812305691400,0.48269140625,-2.4077301025390625,-0.6817169189453125,0.1983642578125
1782846812315696400,0.4926962890625,-2.402374267578125,-0.6518707275390625,0.29156494140625
1782846812325700600,0.50270068359375,-2.414215087890625,-0.54425048828125,0.3794403076171875
1782846812335705600,0.51270556640625,-2.42535400390625,-0.4056243896484375,0.4078826904296875
1782846812345710600,0.522710693359375,-2.35882568359375,-0.27447509765625,0.3822479248046875
1782846812355714600,0.532714599609375,-2.22296142578125,-0.2037353515625,0.32733154296875
1782846812365719600,0.542719482421875,-2.0412750244140625,-0.2189178466796875,0.26470947265625
1782846812375724500,0.552724609375,-1.7692413330078125,-0.31561279296875,0.20709228515625
1782846812385728500,0.562728515625,-1.4155731201171875,-0.4688720703125,0.165740966796875
1782846812395733500,0.5727333984375,-1.046142578125,-0.612518310546875,0.14764404296875
1782846812405738500,0.582738525390625,-0.7374114990234375,-0.6468963623046875,0.156280517578125
1782846812415742700,0.59274267578125,-0.5540771484375,-0.588409423828125,0.1601104736328125
1782846812425747700,0.602747802734375,-0.4680328369140625,-0.4420166015625,0.1596832275390625
1782846812435751400,0.61275146484375,-0.4727020263671875,-0.2913360595703125,0.1451263427734375
1782846812445756400,0.62275634765625,-0.562103271484375,-0.1862945556640625,0.1010284423828125
1782846812455761700,0.63276171875,-0.6324615478515625,-0.1143798828125,0.052642822265625
1782846812465765400,0.642765380859375,-0.6568756103515625,-0.0761566162109375,0.0033721923828125
1782846812475770400,0.652770263671875,-0.6282806396484375,-0.044281005859375,-0.02679443359375
1782846812485775400,0.662775390625,-0.5767059326171875,-0.0123443603515625,-0.04083251953125
1782846812495779600,0.672779541015625,-0.5335540771484375,0.0074920654296875,-0.0487823486328125
1782846812505784600,0.68278466796875,-0.4831085205078125,0.01324462890625,-0.063720703125
1782846812515789600,0.69278955078125,-0.450714111328125,0.0180816650390625,-0.0745849609375
1782846812525793500,0.70279345703125,-0.4290924072265625,0.0301055908203125,-0.062286376953125
1782846812535798500,0.712798583984375,-0.4127044677734375,0.0363006591796875,-0.0437469482421875
1782846812545803500,0.722803466796875,-0.40301513671875,0.023406982421875,-0.0202178955078125
1782846812555807500,0.732807373046875,-0.3867034912109375,0.000030517578125,0.003631591796875
1782846812565812500,0.7428125,-0.365081787109375,-0.0204010009765625,0.0273284912109375
1782846812575816700,0.752816650390625,-0.355133056640625,-0.0394134521484375,0.055328369140625
1782846812585821700,0.76282177734375,-0.3492889404296875,-0.0471038818359375,0.09600830078125
1782846812595826700,0.77282666015625,-0.3462371826171875,-0.0464935302734375,0.1396026611328125
1782846812605830700,0.78283056640625,-0.354736328125,-0.0375823974609375,0.1937408447265625
1782846812615835600,0.792835693359375,-0.3708343505859375,-0.0349578857421875,0.2438201904296875
1782846812625840600,0.802840576171875,-0.3967437744140625,-0.023284912109375,0.27227783203125
1782846812635844400,0.81284423828125,-0.4347686767578125,0.0037384033203125,0.2786407470703125
1782846812645849300,0.822849365234375,-0.496551513671875,0.042327880859375,0.2648162841796875
1782846812655854300,0.832854248046875,-0.5743560791015625,0.0769500732421875,0.23382568359375
1782846812665858600,0.842858642578125,-0.6692657470703125,0.08587646484375,0.19537353515625
1782846812675863600,0.852863525390625,-0.7617645263671875,0.0712127685546875,0.1638031005859375
1782846812685867500,0.862867431640625,-0.845001220703125,0.032806396484375,0.12396240234375
1782846812695872500,0.87287255859375,-0.927093505859375,-0.013763427734375,0.0958099365234375
1782846812705877500,0.88287744140625,-1.0301666259765625,-0.0653839111328125,0.0990753173828125
1782846812715881500,0.892881591796875,-1.17034912109375,-0.119415283203125,0.1426849365234375
1782846812725886500,0.902886474609375,-1.3182373046875,-0.1691436767578125,0.21905517578125
1782846812735891500,0.912891357421875,-1.4898529052734375,-0.206268310546875,0.319427490234375
1782846812745895700,0.922895751953125,-1.67767333984375,-0.2490692138671875,0.3907470703125
1782846812755900700,0.932900634765625,-1.8346405029296875,-0.3192596435546875,0.407318115234375
1782846812765905700,0.94290576171875,-1.944427490234375,-0.3912200927734375,0.4091644287109375
1782846812775909600,0.95290966796875,-2.055816650390625,-0.4427947998046875,0.40655517578125
1782846812785914600,0.96291455078125,-2.1902618408203125,-0.4962615966796875,0.399993896484375
1782846812795918600,0.972918701171875,-2.328857421875,-0.4896087646484375,0.38629150390625
1782846812805923600,0.982923583984375,-2.5216522216796875,-0.39410400390625,0.370147705078125
1782846812815928600,0.992928466796875,-2.7577056884765625,-0.3007354736328125,0.3386688232421875
1782846812825932500,1.0029326171875,-2.904144287109375,-0.261077880859375,0.31207275390625
1782846812835937800,1.012937744140625,-2.904144287109375,-0.2581634521484375,0.2660980224609375
1782846812845942800,1.02294287109375,-2.7946929931640625,-0.2526702880859375,0.1774444580078125
1782846812855946800,1.03294677734375,-2.6244049072265625,-0.250640869140625,0.0817718505859375
1782846812865951700,1.04295166015625,-2.4307403564453125,-0.2462921142578125,0.0408782958984375
1782846812875956700,1.052956787109375,-2.2137908935546875,-0.2200927734375,0.0711517333984375
1782846812885960700,1.062960693359375,-1.985382080078125,-0.1742706298828125,0.1338043212890625
1782846812895965700,1.072965576171875,-1.761749267578125,-0.14276123046875,0.1640167236328125
1782846812905969700,1.0829697265625,-1.503570556640625,-0.130096435546875,0.1575164794921875
1782846812915974700,1.092974609375,-1.212249755859375,-0.1396484375,0.1433563232421875
1782846812925979600,1.102979736328125,-0.9159088134765625,-0.157867431640625,0.147308349609375
1782846812935983600,1.112983642578125,-0.659515380859375,-0.140106201171875,0.1847076416015625
1782846812945988600,1.122988525390625,-0.469696044921875,-0.09588623046875,0.2158355712890625
1782846812955993600,1.13299365234375,-0.3439788818359375,-0.0564117431640625,0.2082366943359375
1782846812965997600,1.14299755859375,-0.27508544921875,-0.03631591796875,0.142547607421875
1782846812976002800,1.1530029296875,-0.2329559326171875,-0.020477294921875,0.052978515625
1782846812986007800,1.1630078125,-0.1676177978515625,0.00970458984375,-0.017303466796875
1782846812996011800,1.17301171875,-0.1059722900390625,0.038665771484375,-0.0649566650390625
1782846813006016800,1.183016845703125,-0.063812255859375,0.07940673828125,-0.074188232421875
1782846813016020700,1.193020751953125,-0.055267333984375,0.11279296875,-0.0748138427734375
1782846813026025700,1.203025634765625,-0.06268310546875,0.130615234375,-0.0639190673828125
1782846813036030700,1.21303076171875,-0.0481109619140625,0.1392822265625,-0.0362091064453125
1782846813046034700,1.22303466796875,-0.0137786865234375,0.1271820068359375,-0.0057373046875
1782846813056039700,1.233039794921875,0.0317840576171875,0.0929412841796875,0.0281524658203125
1782846813066044700,1.243044677734375,0.091949462890625,0.0550689697265625,0.0642242431640625
1782846813076048600,1.253048583984375,0.1679534912109375,0.0168304443359375,0.0778656005859375
1782846813086053600,1.2630537109375,0.2334747314453125,-0.0151824951171875,0.072509765625
1782846813096058600,1.27305859375,0.2754669189453125,-0.0428314208984375,0.0646209716796875
1782846813106062600,1.2830625,0.3056488037109375,-0.0642547607421875,0.0542144775390625
1782846813116067600,1.293067626953125,0.3141326904296875,-0.0669403076171875,0.04718017578125
1782846813126071800,1.30307177734375,0.28131103515625,-0.0603485107421875,0.0360260009765625
1782846813136076800,1.313076904296875,0.2125701904296875,-0.0464019775390625,0.0279388427734375
1782846813146081800,1.323081787109375,0.1534271240234375,-0.016387939453125,0.031158447265625
1782846813156085800,1.333085693359375,0.0988616943359375,0.0135040283203125,0.031402587890625
1782846813166090800,1.3430908203125,0.036041259765625,0.0393829345703125,0.0153350830078125
1782846813176095700,1.353095703125,-0.055938720703125,0.0755157470703125,0.0045166015625
1782846813186099700,1.363099609375,-0.18072509765625,0.110382080078125,0.0152435302734375
1782846813196104700,1.373104736328125,-0.311920166015625,0.1253662109375,0.010009765625
1782846813206109700,1.383109619140625,-0.4332733154296875,0.10565185546875,0.028656005859375
1782846813216113700,1.39311376953125,-0.5728302001953125,0.0428466796875,0.0483551025390625
1782846813226118700,1.40311865234375,-0.7714996337890625,-0.033966064453125,0.071319580078125
1782846813236123600,1.41312353515625,-1.0394287109375,-0.10296630859375,0.0908355712890625
1782846813246127600,1.423127685546875,-1.34075927734375,-0.14593505859375,0.078460693359375
1782846813256132600,1.433132568359375,-1.541168212890625,-0.2250213623046875,0.042877197265625
1782846813266136600,1.443136474609375,-1.609954833984375,-0.3820648193359375,0.032012939453125
1782846813276141600,1.4531416015625,-1.60687255859375,-0.552734375,0.068603515625
1782846813286146600,1.463146484375,-1.5267333984375,-0.779693603515625,0.146148681640625
1782846813296150800,1.47315087890625,-1.356597900390625,-0.7922821044921875,0.2804107666015625
1782846813306155800,1.48315576171875,-1.362518310546875,-0.770782470703125,0.3631439208984375
1782846813316160800,1.493160888671875,-1.7837982177734375,-0.8527679443359375,0.460052490234375
1782846813326164700,1.503164794921875,-2.2141265869140625,-0.7266693115234375,0.6195220947265625
1782846813336169700,1.513169677734375,-2.3276214599609375,-0.43841552734375,0.722320556640625
1782846813346174700,1.5231748046875,-2.35968017578125,-0.1148223876953125,0.7436676025390625
1782846813356178700,1.5331787109375,-2.4381256103515625,0.021728515625,0.609649658203125
1782846813366183700,1.54318359375,-2.480377197265625,-0.0086822509765625,0.4275054931640625
1782846813376187600,1.553187744140625,-2.3758697509765625,-0.124603271484375,0.3020172119140625
1782846813386192600,1.563192626953125,-2.0728607177734375,-0.3390350341796875,0.250762939453125
1782846813396198000,1.573197998046875,-1.691070556640625,-0.6284942626953125,0.2648468017578125
1782846813406201600,1.58320166015625,-1.34136962890625,-0.8399658203125,0.3214569091796875
1782846813416206600,1.59320654296875,-1.077178955078125,-0.7996368408203125,0.3886260986328125
1782846813426211600,1.603211669921875,-0.9645233154296875,-0.5712890625,0.419952392578125
1782846813436215600,1.613215576171875,-0.985687255859375,-0.34130859375,0.3970947265625
1782846813446220500,1.623220458984375,-1.059326171875,-0.18212890625,0.3329620361328125
1782846813456225500,1.6332255859375,-1.0971221923828125,-0.1055145263671875,0.2525787353515625
1782846813466229800,1.643229736328125,-1.0594635009765625,-0.04620361328125,0.197021484375
1782846813476234800,1.65323486328125,-0.9930572509765625,-0.0031280517578125,0.1548309326171875
1782846813486238700,1.66323876953125,-0.873046875,0.0258026123046875,0.1209564208984375
1782846813496243700,1.67324365234375,-0.7230224609375,0.0376129150390625,0.0838775634765625
1782846813506248700,1.683248779296875,-0.582061767578125,0.03912353515625,0.054931640625
1782846813516252700,1.693252685546875,-0.4591522216796875,0.0313873291015625,0.0122222900390625
1782846813526257700,1.703257568359375,-0.373077392578125,0.0166778564453125,-0.0393524169921875
1782846813536262700,1.7132626953125,-0.3452301025390625,0.0102996826171875,-0.079254150390625
1782846813546267000,1.723266845703125,-0.329437255859375,0.01458740234375,-0.1059417724609375
1782846813556271900,1.73327197265625,-0.3120880126953125,0.01678466796875,-0.11309814453125
1782846813566276900,1.74327685546875,-0.295928955078125,0.0165557861328125,-0.1142730712890625
1782846813576280600,1.753280517578125,-0.291778564453125,0.0090484619140625,-0.105743408203125
1782846813586285600,1.76328564453125,-0.28582763671875,-0.0194091796875,-0.0890655517578125
1782846813596290600,1.77329052734375,-0.255615234375,-0.05682373046875,-0.046905517578125
1782846813606294500,1.78329443359375,-0.2238006591796875,-0.0963592529296875,0.014556884765625
1782846813616299500,1.793299560546875,-0.213287353515625,-0.1170196533203125,0.0930938720703125
1782846813626303700,1.8033037109375,-0.221466064453125,-0.1062164306640625,0.16192626953125
1782846813636308700,1.813308837890625,-0.2471923828125,-0.1064605712890625,0.1913299560546875
1782846813646313700,1.823313720703125,-0.296417236328125,-0.10113525390625,0.179779052734375
1782846813656317700,1.833317626953125,-0.3623199462890625,-0.04632568359375,0.1485443115234375
1782846813666322700,1.84332275390625,-0.4501800537109375,0.00927734375,0.081451416015625
1782846813676327700,1.85332763671875,-0.531341552734375,0.04339599609375,0.0210113525390625
1782846813686331600,1.86333154296875,-0.5994415283203125,0.0691070556640625,0.002044677734375
1782846813696336600,1.873336669921875,-0.66839599609375,0.1049041748046875,0.019683837890625
1782846813706341600,1.883341552734375,-0.76043701171875,0.117401123046875,0.0814666748046875
1782846813716345900,1.893345947265625,-0.858489990234375,0.09295654296875,0.1761932373046875
1782846813726350800,1.903350830078125,-0.9767913818359375,0.0213775634765625,0.25311279296875
1782846813736354600,1.9133544921875,-1.132232666015625,-0.102752685546875,0.2406463623046875
1782846813746359600,1.923359619140625,-1.33203125,-0.2399749755859375,0.1636962890625
1782846813756364500,1.933364501953125,-1.5270233154296875,-0.3835296630859375,0.10369873046875
1782846813766368500,1.943368408203125,-1.6837615966796875,-0.524566650390625,0.075225830078125
1782846813776373500,1.95337353515625,-1.8287353515625,-0.60833740234375,0.1248626708984375
1782846813786378500,1.96337841796875,-2.0068206787109375,-0.635986328125,0.247589111328125
1782846813796382700,1.9733828125,-2.143096923828125,-0.62396240234375,0.4099884033203125
1782846813806387700,1.9833876953125,-2.30108642578125,-0.6245269775390625,0.57568359375
1782846813816392700,1.993392822265625,-2.55816650390625,-0.6606597900390625,0.6812896728515625
1782846813826396700,2.003396728515625,-2.7404632568359375,-0.6510772705078125,0.7332611083984375
1782846813836401400,2.0134013671875,-2.832366943359375,-0.57696533203125,0.6924591064453125
1782846813846406400,2.023406494140625,-2.8700408935546875,-0.4974365234375,0.5465240478515625
1782846813856410400,2.033410400390625,-2.8134765625,-0.4500732421875,0.3420867919921875
1782846813866415400,2.043415283203125,-2.692657470703125,-0.4236907958984375,0.1738128662109375
1782846813876419300,2.05341943359375,-2.5302581787109375,-0.383331298828125,0.083526611328125
1782846813886424300,2.06342431640625,-2.308013916015625,-0.322509765625,0.05828857421875
1782846813896429300,2.07342919921875,-2.0645294189453125,-0.243408203125,0.0857696533203125
1782846813906433300,2.083433349609375,-1.80572509765625,-0.176971435546875,0.1014862060546875
1782846813916438300,2.093438232421875,-1.5295867919921875,-0.139251708984375,0.0814971923828125
1782846813926443300,2.103443359375,-1.2501220703125,-0.1194305419921875,0.038482666015625
1782846813936447500,2.113447509765625,-0.9856414794921875,-0.1073760986328125,-0.0000762939453125
1782846813946452500,2.123452392578125,-0.765594482421875,-0.0963592529296875,-0.0191802978515625
1782846813956457500,2.13345751953125,-0.5944976806640625,-0.0867919921875,-0.0191497802734375
1782846813966461400,2.14346142578125,-0.4587249755859375,-0.073883056640625,-0.0208282470703125
1782846813976466400,2.153466552734375,-0.3678741455078125,-0.0624542236328125,-0.0389862060546875
1782846813986471400,2.163471435546875,-0.302947998046875,-0.0435638427734375,-0.0692291259765625
1782846813996475400,2.173475341796875,-0.26373291015625,-0.00396728515625,-0.1014556884765625
1782846814006480400,2.18348046875,-0.2445068359375,0.0471343994140625,-0.1161041259765625
1782846814016484400,2.193484375,-0.2115631103515625,0.09033203125,-0.1036224365234375
1782846814026489300,2.2034892578125,-0.163726806640625,0.1373291015625,-0.0726318359375
1782846814036494300,2.213494384765625,-0.111480712890625,0.17431640625,-0.040283203125
1782846814046498300,2.223498291015625,-0.0519561767578125,0.1947784423828125,-0.011627197265625
1782846814056503300,2.23350341796875,-0.00067138671875,0.197021484375,0.0046234130859375
1782846814066508300,2.24350830078125,0.0568084716796875,0.1847381591796875,0.0186920166015625
1782846814076512300,2.25351220703125,0.128387451171875,0.15472412109375,0.02813720703125
1782846814086517200,2.263517333984375,0.19720458984375,0.0972442626953125,0.016754150390625
1782846814096522200,2.273522216796875,0.2582244873046875,0.0200042724609375,0.0136871337890625
1782846814106526500,2.2835263671875,0.3204498291015625,-0.0582122802734375,0.02130126953125
1782846814116531500,2.293531494140625,0.383392333984375,-0.117401123046875,0.0367889404296875
1782846814126536400,2.303536376953125,0.42962646484375,-0.13238525390625,0.0695648193359375
1782846814136540400,2.31354052734375,0.4337615966796875,-0.1142578125,0.106353759765625
1782846814146545400,2.32354541015625,0.4026031494140625,-0.0848236083984375,0.1217803955078125
1782846814156549400,2.33354931640625,0.312469482421875,-0.07220458984375,0.112579345703125
1782846814166554400,2.343554443359375,0.19256591796875,-0.065185546875,0.0733184814453125
1782846814176559400,2.353559326171875,0.1013641357421875,-0.0391845703125,0.0371856689453125
1782846814186563300,2.363563232421875,-0.0050506591796875,-0.004638671875,0.01153564453125
1782846814196568300,2.373568359375,-0.153106689453125,0.0360565185546875,-0.011016845703125
1782846814206573300,2.3835732421875,-0.38897705078125,0.0704498291015625,-0.0515289306640625
1782846814216577300,2.393577392578125,-0.6189117431640625,0.0701446533203125,-0.0769195556640625
1782846814226582300,2.403582275390625,-0.788177490234375,0.0290985107421875,-0.0380096435546875
1782846814236587300,2.413587158203125,-0.9468231201171875,-0.05523681640625,0.0441131591796875
1782846814246591200,2.42359130859375,-1.1410369873046875,-0.1739044189453125,0.124053955078125
1782846814256596200,2.43359619140625,-1.331695556640625,-0.2783660888671875,0.171234130859375
1782846814266600400,2.443600341796875,-1.47161865234375,-0.364105224609375,0.171875
1782846814276605400,2.45360546875,-1.5584564208984375,-0.435699462890625,0.154052734375
1782846814286610400,2.4636103515625,-1.6301422119140625,-0.4795989990234375,0.177001953125
1782846814296614400,2.473614501953125,-1.7581024169921875,-0.571685791015625,0.2194976806640625
1782846814306619400,2.483619384765625,-1.938385009765625,-0.7476043701171875,0.210357666015625
1782846814316624400,2.493624267578125,-2.044189453125,-0.929351806640625,0.2029266357421875
1782846814326628400,2.50362841796875,-2.0779266357421875,-1.053070068359375,0.21490478515625
1782846814336633300,2.51363330078125,-2.158935546875,-1.021759033203125,0.270050048828125
1782846814346638300,2.523638427734375,-2.3448486328125,-0.823974609375,0.3770294189453125
1782846814356642300,2.533642333984375,-2.4419097900390625,-0.55743408203125,0.49969482421875
1782846814366647300,2.543647216796875,-2.3577728271484375,-0.3024749755859375,0.563018798828125
1782846814376652300,2.55365234375,-2.2445220947265625,-0.2013092041015625,0.4912872314453125
1782846814386656300,2.56365625,-2.1056976318359375,-0.305084228515625,0.29571533203125
1782846814396661200,2.5736611328125,-1.8676910400390625,-0.50653076171875,0.1137847900390625
1782846814406665200,2.583665283203125,-1.4577484130859375,-0.73394775390625,0.021484375
1782846814416670200,2.593670166015625,-0.9921112060546875,-0.8657989501953125,0.032928466796875
1782846814426675200,2.60367529296875,-0.6566314697265625,-0.844207763671875,0.103668212890625
1782846814436679400,2.613679443359375,-0.511474609375,-0.736602783203125,0.15338134765625
1782846814446684400,2.623684326171875,-0.5210723876953125,-0.5883331298828125,0.1702117919921875
1782846814456689400,2.633689453125,-0.601806640625,-0.422119140625,0.1708221435546875
1782846814466693400,2.643693359375,-0.6799468994140625,-0.2570343017578125,0.16876220703125
1782846814476698400,2.653698486328125,-0.7338409423828125,-0.1151275634765625,0.1555938720703125
1782846814486703400,2.663703369140625,-0.7877655029296875,-0.016082763671875,0.114898681640625
1782846814496707300,2.673707275390625,-0.8166046142578125,0.0498809814453125,0.0853424072265625
1782846814506712300,2.68371240234375,-0.7826690673828125,0.0845794677734375,0.051055908203125
1782846814516717300,2.69371728515625,-0.6963043212890625,0.080718994140625,0.0159149169921875
1782846814526721300,2.70372119140625,-0.5893402099609375,0.054351806640625,-0.0050811767578125
1782846814536726300,2.713726318359375,-0.4857635498046875,0.00665283203125,-0.018157958984375
1782846814546731300,2.723731201171875,-0.40057373046875,-0.0334014892578125,-0.0232391357421875
1782846814556735200,2.7337353515625,-0.330596923828125,-0.06591796875,-0.0211181640625
1782846814566740200,2.743740234375,-0.28887939453125,-0.101318359375,-0.03057861328125
1782846814576744200,2.753744140625,-0.2657470703125,-0.1218719482421875,-0.032745361328125
1782846814586749400,2.76374951171875,-0.254119873046875,-0.1427459716796875,-0.0335540771484375
1782846814596754400,2.77375439453125,-0.259735107421875,-0.1626129150390625,-0.0295867919921875
1782846814606758400,2.78375830078125,-0.273590087890625,-0.1747283935546875,-0.0143585205078125
1782846814616763400,2.793763427734375,-0.2984771728515625,-0.1814727783203125,0.0092010498046875
1782846814626768400,2.803768310546875,-0.3291778564453125,-0.1844940185546875,0.0399932861328125
1782846814636772400,2.8137724609375,-0.3631439208984375,-0.1822509765625,0.071563720703125
1782846814646777300,2.82377734375,-0.4003753662109375,-0.164886474609375,0.0966033935546875
1782846814656782300,2.8337822265625,-0.448638916015625,-0.1325836181640625,0.1049346923828125
1782846814666786600,2.84378662109375,-0.5035552978515625,-0.0852813720703125,0.100250244140625
1782846814676791600,2.85379150390625,-0.5702667236328125,-0.024169921875,0.092529296875
1782846814686795300,2.863795166015625,-0.644866943359375,0.037506103515625,0.0869598388671875
1782846814696800300,2.87380029296875,-0.7058258056640625,0.0899810791015625,0.0885772705078125
1782846814706805200,2.88380517578125,-0.761932373046875,0.1201934814453125,0.0999603271484375
1782846814716809200,2.893809326171875,-0.8139495849609375,0.1117401123046875,0.109649658203125
1782846814726814200,2.903814208984375,-0.8526763916015625,0.0709991455078125,0.113800048828125
1782846814736819200,2.913819091796875,-0.9051513671875,0.0036163330078125,0.126495361328125
1782846814746823400,2.923823486328125,-0.9836273193359375,-0.087860107421875,0.1416778564453125
1782846814756828400,2.933828369140625,-1.0981903076171875,-0.19317626953125,0.13348388671875
1782846814766833400,2.94383349609375,-1.282440185546875,-0.2935791015625,0.12939453125
1782846814776837400,2.95383740234375,-1.5178680419921875,-0.370819091796875,0.15838623046875
1782846814786842400,2.96384228515625,-1.7855682373046875,-0.4578857421875,0.2379150390625
1782846814796847400,2.973847412109375,-2.083770751953125,-0.5600128173828125,0.3120269775390625
1782846814806851300,2.983851318359375,-2.332275390625,-0.660552978515625,0.4011688232421875
1782846814816856300,2.993856201171875,-2.372894287109375,-0.67694091796875,0.5375518798828125
1782846814826860500,3.003860595703125,-2.425872802734375,-0.737396240234375,0.655670166015625
1782846814836865500,3.013865478515625,-2.6888275146484375,-0.814056396484375,0.6848297119140625
1782846814846870800,3.023870849609375,-2.9214019775390625,-0.769927978515625,0.6268310546875
1782846814856874500,3.03387451171875,-2.9899444580078125,-0.657928466796875,0.5141754150390625
1782846814866879500,3.04387939453125,-2.935546875,-0.5711517333984375,0.38421630859375
1782846814876884500,3.053884521484375,-2.78985595703125,-0.5205230712890625,0.275146484375
1782846814886888400,3.063888427734375,-2.6212158203125,-0.47393798828125,0.1958465576171875
1782846814896893400,3.0738935546875,-2.423309326171875,-0.4246673583984375,0.152679443359375
1782846814906898400,3.0838984375,-2.1808929443359375,-0.36480712890625,0.1404571533203125
1782846814916902700,3.093902587890625,-1.9299468994140625,-0.2794647216796875,0.161041259765625
1782846814926907600,3.10390771484375,-1.6946563720703125,-0.1808624267578125,0.1927490234375
1782846814936912600,3.11391259765625,-1.4931640625,-0.0831298828125,0.212158203125
1782846814946916600,3.12391650390625,-1.27874755859375,-0.0123443603515625,0.2216033935546875
1782846814956921600,3.133921630859375,-1.05804443359375,0.0263214111328125,0.2307891845703125
1782846814966926600,3.143926513671875,-0.837921142578125,0.0050506591796875,0.21905517578125
1782846814976930600,3.1539306640625,-0.615234375,-0.036834716796875,0.185455322265625
1782846814986935600,3.163935546875,-0.403839111328125,-0.0586395263671875,0.1435546875
1782846814996939800,3.173939697265625,-0.221038818359375,-0.0468902587890625,0.0989990234375
1782846815006944800,3.18394482421875,-0.0800323486328125,-0.014312744140625,0.0430145263671875
1782846815016949800,3.19394970703125,0.0099029541015625,0.0048675537109375,-0.01434326171875
1782846815026953500,3.203953369140625,0.0722198486328125,0.0135955810546875,-0.066192626953125
1782846815036958500,3.21395849609375,0.1420745849609375,0.0368804931640625,-0.106201171875
1782846815046963500,3.22396337890625,0.192230224609375,0.0673980712890625,-0.1534423828125
1782846815056967400,3.233967529296875,0.1836700439453125,0.102935791015625,-0.2010040283203125
1782846815066972400,3.243972412109375,0.1793060302734375,0.1317291259765625,-0.213348388671875
1782846815076977400,3.253977294921875,0.2010345458984375,0.135894775390625,-0.2011260986328125
1782846815086981600,3.263981689453125,0.2465667724609375,0.128814697265625,-0.181243896484375
1782846815096986600,3.273986572265625,0.2888031005859375,0.0955047607421875,-0.1561126708984375
1782846815106990600,3.283990478515625,0.3146820068359375,0.054290771484375,-0.1294403076171875
1782846815116995600,3.29399560546875,0.351531982421875,0.0177459716796875,-0.0922698974609375
1782846815127000600,3.30400048828125,0.3905487060546875,-0.0094451904296875,-0.04046630859375
1782846815137004500,3.314004638671875,0.4095306396484375,-0.027618408203125,0.0116424560546875
1782846815147009500,3.324009521484375,0.3994140625,-0.0341949462890625,0.0440216064453125
1782846815157014500,3.3340146484375,0.350006103515625,-0.0218963623046875,0.0691070556640625
1782846815167018800,3.344018798828125,0.27587890625,-0.0013427734375,0.0816650390625
1782846815177023700,3.354023681640625,0.197662353515625,0.004150390625,0.0741119384765625
1782846815187028700,3.36402880859375,0.1277923583984375,0.0162353515625,0.078826904296875
1782846815197032400,3.374032470703125,0.076629638671875,0.0290985107421875,0.0799407958984375
1782846815207037400,3.384037353515625,0.0142974853515625,0.038299560546875,0.078338623046875
1782846815217042400,3.39404248046875,-0.0560760498046875,0.037567138671875,0.0682373046875
1782846815227046400,3.40404638671875,-0.160430908203125,0.0281524658203125,0.04656982421875
1782846815237051400,3.414051513671875,-0.2877960205078125,-0.0043182373046875,0.024322509765625
1782846815247056400,3.424056396484375,-0.443756103515625,-0.0445098876953125,-0.0003814697265625
1782846815257060600,3.434060546875,-0.6480865478515625,-0.09814453125,0.0112762451171875
1782846815267065600,3.444065673828125,-0.889801025390625,-0.171142578125,0.061798095703125
1782846815277069600,3.454069580078125,-1.153564453125,-0.2264251708984375,0.0920562744140625
1782846815287074600,3.464074462890625,-1.43927001953125,-0.2693634033203125,0.0816192626953125
1782846815297079600,3.47407958984375,-1.659515380859375,-0.3285064697265625,0.0796051025390625
1782846815307083500,3.48408349609375,-1.814300537109375,-0.3911590576171875,0.1478424072265625
1782846815317088500,3.494088623046875,-1.9553680419921875,-0.4690093994140625,0.257354736328125
1782846815327093500,3.504093505859375,-2.02191162109375,-0.595703125,0.3593292236328125
1782846815337097700,3.51409765625,-2.0184173583984375,-0.8056640625,0.397674560546875
1782846815347102700,3.524102783203125,-2.0646209716796875,-1.1674346923828125,0.363037109375
1782846815357107700,3.534107666015625,-2.312255859375,-1.2358551025390625,0.3851470947265625
1782846815367111400,3.544111328125,-2.6486663818359375,-0.892974853515625,0.5133819580078125
1782846815377116400,3.554116455078125,-2.76080322265625,-0.510711669921875,0.657440185546875
1782846815387121400,3.564121337890625,-2.6729888916015625,-0.206878662109375,0.735443115234375
1782846815397125400,3.57412548828125,-2.548797607421875,-0.041717529296875,0.6475830078125
1782846815407130400,3.58413037109375,-2.4220733642578125,-0.0779571533203125,0.4034576416015625
1782846815417134600,3.594134521484375,-2.2456512451171875,-0.25982666015625,0.16204833984375
1782846815427139600,3.6041396484375,-1.915069580078125,-0.5006103515625,0.0312957763671875
1782846815437144600,3.61414453125,-1.4180755615234375,-0.8048858642578125,0.015380859375
1782846815447148500,3.6241484375,-0.9679412841796875,-0.9856109619140625,0.0942840576171875
1782846815457153500,3.634153564453125,-0.7251434326171875,-0.90179443359375,0.186767578125
1782846815467158500,3.644158447265625,-0.6965179443359375,-0.6599578857421875,0.2151947021484375
1782846815477162500,3.65416259765625,-0.792510986328125,-0.432647705078125,0.1714324951171875
1782846815487167500,3.66416748046875,-0.9166717529296875,-0.2622222900390625,0.1199798583984375
1782846815497172500,3.67417236328125,-0.97637939453125,-0.0894622802734375,0.126800537109375
1782846815507176700,3.6841767578125,-0.982757568359375,0.045867919921875,0.11456298828125
1782846815517181700,3.694181640625,-0.9556732177734375,0.0965423583984375,0.076416015625
1782846815527186700,3.704186767578125,-0.8748931884765625,0.0987091064453125,0.040496826171875
1782846815537190400,3.7141904296875,-0.76324462890625,0.0848541259765625,0.01202392578125
1782846815547195400,3.7241953125,-0.6400604248046875,0.0569000244140625,-0.001739501953125
1782846815557199400,3.734199462890625,-0.5067138671875,0.00885009765625,-0.0172119140625
1782846815567204400,3.744204345703125,-0.3794708251953125,-0.0445709228515625,-0.0308074951171875
1782846815577209600,3.754209716796875,-0.282318115234375,-0.0884552001953125,-0.04119873046875
1782846815587213600,3.764213623046875,-0.2254180908203125,-0.110595703125,-0.0536346435546875
1782846815597218600,3.774218505859375,-0.193115234375,-0.1167144775390625,-0.066192626953125
1782846815607223600,3.7842236328125,-0.174163818359375,-0.1180267333984375,-0.0699310302734375
1782846815617227500,3.7942275390625,-0.1680908203125,-0.11492919921875,-0.05902099609375
1782846815627232500,3.804232421875,-0.1715240478515625,-0.1126556396484375,-0.0326995849609375
1782846815637237500,3.814237548828125,-0.1756439208984375,-0.110198974609375,0.010528564453125
1782846815647241500,3.824241455078125,-0.181884765625,-0.0946807861328125,0.078460693359375
1782846815657246500,3.83424658203125,-0.1923828125,-0.0661163330078125,0.1396484375
1782846815667251700,3.844251708984375,-0.2127227783203125,-0.040496826171875,0.181976318359375
1782846815677255700,3.854255615234375,-0.248626708984375,-0.053497314453125,0.1910858154296875
1782846815687260700,3.8642607421875,-0.26953125,-0.0607757568359375,0.1853179931640625
1782846815697265700,3.874265625,-0.2775115966796875,-0.061126708984375,0.159454345703125
1782846815707269600,3.88426953125,-0.3232574462890625,-0.0462188720703125,0.1305084228515625
1782846815717274600,3.894274658203125,-0.42108154296875,-0.017974853515625,0.11126708984375
1782846815727279600,3.904279541015625,-0.5677490234375,0.0058441162109375,0.09906005859375
1782846815737283600,3.91428369140625,-0.7004852294921875,0.0076751708984375,0.099853515625
1782846815747288600,3.92428857421875,-0.8014678955078125,-0.003753662109375,0.1052703857421875
1782846815757292500,3.93429248046875,-0.92852783203125,-0.039337158203125,0.1419525146484375
1782846815767297500,3.944297607421875,-1.11431884765625,-0.1019287109375,0.1707000732421875
1782846815777302500,3.954302490234375,-1.363128662109375,-0.1824493408203125,0.1567535400390625
1782846815787306500,3.964306396484375,-1.6400299072265625,-0.290740966796875,0.1193389892578125
1782846815797311500,3.9743115234375,-1.8658599853515625,-0.4329986572265625,0.13153076171875
1782846815807316500,3.98431640625,-2.0360565185546875,-0.62774658203125,0.2077484130859375
1782846815817320700,3.99432080078125,-2.1194305419921875,-0.807403564453125,0.3778839111328125
1782846815827325700,4.00432568359375,-2.1240386962890625,-0.8637542724609375,0.61956787109375
1782846815837330200,4.014330078125,-2.209503173828125,-0.8936614990234375,0.8153533935546875
1782846815847334100,4.024334228515625,-2.5312347412109375,-0.9252471923828125,0.9549560546875
1782846815857339100,4.034339111328125,-2.9200286865234375,-0.842864990234375,0.99346923828125
1782846815867344100,4.04434423828125,-3.102508544921875,-0.74591064453125,0.86456298828125
1782846815877347800,4.054347900390625,-3.0727996826171875,-0.689453125,0.6443328857421875
1782846815887352800,4.064352783203125,-2.8702392578125,-0.69818115234375,0.4020233154296875
1782846815897357000,4.074357177734375,-2.572357177734375,-0.751953125,0.1845703125
1782846815907362000,4.084362060546875,-2.295684814453125,-0.8032379150390625,-0.0040283203125
1782846815917367000,4.094366943359375,-2.02593994140625,-0.852996826171875,-0.136077880859375
1782846815927371000,4.10437109375,-1.7913665771484375,-0.8594207763671875,-0.1824951171875
1782846815937376000,4.1143759765625,-1.5777435302734375,-0.7798004150390625,-0.1207427978515625
1782846815947381000,4.124381103515625,-1.3935699462890625,-0.6282806396484375,0.002593994140625
1782846815957385000,4.134385009765625,-1.210784912109375,-0.451385498046875,0.1239013671875
1782846815967390000,4.144389892578125,-0.9962158203125,-0.271240234375,0.2165374755859375
1782846815977395000,4.15439501953125,-0.74029541015625,-0.113616943359375,0.2709197998046875
1782846815987399200,4.164399169921875,-0.487548828125,-0.008758544921875,0.2691802978515625
1782846815997404200,4.174404052734375,-0.302490234375,0.0140533447265625,0.24859619140625
1782846816007409200,4.1844091796875,-0.1533966064453125,-0.00506591796875,0.2015228271484375
1782846816017413000,4.1944130859375,0.0004425048828125,0.00213623046875,0.1439208984375
1782846816027418000,4.204418212890625,0.1315155029296875,0.02569580078125,0.0877838134765625
1782846816037421800,4.214421875,0.199981689453125,0.024871826171875,0.02777099609375
1782846816047426800,4.2244267578125,0.2257080078125,0.00531005859375,-0.0224456787109375
1782846816057432000,4.23443212890625,0.25799560546875,-0.0014801025390625,-0.046630859375
1782846816067436000,4.24443603515625,0.263519287109375,0.007965087890625,-0.0508270263671875
1782846816077441000,4.25444091796875,0.2222442626953125,0.0367431640625,-0.0512237548828125
1782846816087446000,4.264446044921875,0.172637939453125,0.0656280517578125,-0.071868896484375
1782846816097450000,4.274449951171875,0.1353607177734375,0.0870819091796875,-0.087158203125
1782846816107455000,4.284455078125,0.1096954345703125,0.0699310302734375,-0.0947265625
1782846816117460000,4.2944599609375,0.156097412109375,0.0218658447265625,-0.091796875
1782846816127464000,4.3044638671875,0.2392578125,-0.021392822265625,-0.076019287109375
1782846816137469000,4.314468994140625,0.2850799560546875,-0.058685302734375,-0.0587921142578125
1782846816147474200,4.32447412109375,0.30877685546875,-0.0792694091796875,-0.0278167724609375
1782846816157478100,4.33447802734375,0.3225555419921875,-0.071624755859375,0.001861572265625
1782846816167483100,4.344483154296875,0.3047637939453125,-0.047119140625,0.0285491943359375
1782846816177488100,4.354488037109375,0.2600555419921875,-0.0234832763671875,0.052825927734375
1782846816187492000,4.3644921875,0.1639404296875,0.01422119140625,0.061126708984375
1782846816197497000,4.3744970703125,0.04986572265625,0.0576629638671875,0.0361785888671875
1782846816207501000,4.3845009765625,-0.0282440185546875,0.0886077880859375,-0.0127105712890625
1782846816217506000,4.394506103515625,-0.1043853759765625,0.1006011962890625,-0.0443267822265625
1782846816227511000,4.404510986328125,-0.2047119140625,0.0960235595703125,-0.05462646484375
1782846816237515000,4.414514892578125,-0.3312835693359375,0.0365753173828125,-0.037261962890625
1782846816247520000,4.42452001953125,-0.4721832275390625,-0.033233642578125,-0.00689697265625
1782846816257525000,4.43452490234375,-0.667999267578125,-0.0551300048828125,0.0514678955078125
1782846816267529000,4.444529052734375,-0.907196044921875,-0.06402587890625,0.1116790771484375
1782846816277534000,4.454533935546875,-1.1206207275390625,-0.102264404296875,0.16925048828125
1782846816287539000,4.4645390625,-1.280792236328125,-0.2030029296875,0.1871337890625
1782846816297543200,4.474543212890625,-1.398193359375,-0.3444061279296875,0.170989990234375
1782846816307548200,4.484548095703125,-1.5165863037109375,-0.5076446533203125,0.1408233642578125
1782846816317553200,4.49455322265625,-1.5879364013671875,-0.6797027587890625,0.1262054443359375
1782846816327557000,4.50455712890625,-1.6205902099609375,-0.8565826416015625,0.15576171875
1782846816337562000,4.51456201171875,-1.686859130859375,-0.830841064453125,0.279571533203125
1782846816347567000,4.524567138671875,-1.882171630859375,-0.7588348388671875,0.426025390625
1782846816357571000,4.534571044921875,-2.3383026123046875,-0.72576904296875,0.5960845947265625
1782846816367576000,4.544576171875,-2.6413116455078125,-0.57135009765625,0.733917236328125
1782846816377580300,4.554580322265625,-2.641448974609375,-0.3135833740234375,0.8004302978515625
1782846816387585300,4.564585205078125,-2.5812530517578125,-0.1384735107421875,0.7207183837890625
1782846816397590300,4.57459033203125,-2.501861572265625,-0.178497314453125,0.509521484375
1782846816407594000,4.584593994140625,-2.3043365478515625,-0.3297271728515625,0.337493896484375
1782846816417599000,4.594598876953125,-1.977081298828125,-0.549957275390625,0.2488250732421875
1782846816427604000,4.60460400390625,-1.5639801025390625,-0.81756591796875,0.215240478515625
1782846816437608000,4.61460791015625,-1.18023681640625,-0.9106597900390625,0.2139129638671875
1782846816447613000,4.624613037109375,-0.9522857666015625,-0.777984619140625,0.205963134765625
1782846816457618000,4.634617919921875,-0.88983154296875,-0.6002655029296875,0.15350341796875
1782846816467622100,4.6446220703125,-0.9419097900390625,-0.4627838134765625,0.076812744140625
1782846816477627100,4.654627197265625,-1.00714111328125,-0.3291473388671875,0.0506744384765625
1782846816487632100,4.664632080078125,-1.0167694091796875,-0.19927978515625,0.064727783203125
1782846816497636000,4.674635986328125,-1.0018157958984375,-0.092559814453125,0.0756988525390625
1782846816507641000,4.68464111328125,-0.9637603759765625,-0.007049560546875,0.077362060546875
1782846816517645000,4.69464501953125,-0.881744384765625,0.03460693359375,0.05657958984375
1782846816527650000,4.704650146484375,-0.7730712890625,0.03839111328125,0.0152587890625
1782846816537655000,4.714655029296875,-0.664794921875,0.0277862548828125,-0.0284881591796875
1782846816547659300,4.7246591796875,-0.5534820556640625,0.008514404296875,-0.0678558349609375
1782846816557664300,4.734664306640625,-0.456085205078125,-0.0197296142578125,-0.1059112548828125
1782846816567669200,4.744669189453125,-0.3762664794921875,-0.050537109375,-0.1368408203125
1782846816577673000,4.7546728515625,-0.328094482421875,-0.06854248046875,-0.1577301025390625
1782846816587678000,4.764677978515625,-0.30059814453125,-0.080352783203125,-0.1575927734375
1782846816597683000,4.774682861328125,-0.2759552001953125,-0.089996337890625,-0.1260223388671875
1782846816607687000,4.78468701171875,-0.2512054443359375,-0.0952606201171875,-0.09600830078125
1782846816617692000,4.79469189453125,-0.248016357421875,-0.09576416015625,-0.0927581787109375
1782846816627697000,4.80469677734375,-0.2798004150390625,-0.08843994140625,-0.0991973876953125
1782846816637701000,4.814701171875,-0.322967529296875,-0.0776214599609375,-0.099578857421875
1782846816647706000,4.8247060546875,-0.3721466064453125,-0.061126708984375,-0.0829620361328125
1782846816657710000,4.8347099609375,-0.4252471923828125,-0.0494232177734375,-0.052459716796875
1782846816667715000,4.844715087890625,-0.4707794189453125,-0.03765869140625,-0.01806640625
1782846816677720000,4.854719970703125,-0.52020263671875,-0.0142364501953125,0.02667236328125
1782846816687724000,4.86472412109375,-0.5697784423828125,0.012481689453125,0.0720062255859375
1782846816697729000,4.87472900390625,-0.6250457763671875,0.0427093505859375,0.097808837890625
1782846816707734000,4.884734130859375,-0.6971435546875,0.066925048828125,0.1066436767578125
1782846816717738200,4.89473828125,-0.7790679931640625,0.072418212890625,0.0792999267578125
1782846816727743200,4.9047431640625,-0.856536865234375,0.04931640625,0.031341552734375
1782846816737748200,4.914748291015625,-0.94903564453125,-0.0008392333984375,-0.0140380859375
1782846816747752000,4.924751953125,-1.079132080078125,-0.0536041259765625,-0.0331878662109375
1782846816757757000,4.9347568359375,-1.2241973876953125,-0.096405029296875,-0.02569580078125
1782846816767762000,4.944761962890625,-1.3929443359375,-0.144561767578125,0.0052642822265625
1782846816777766000,4.954765869140625,-1.5637664794921875,-0.2088470458984375,0.08489990234375
1782846816787771000,4.96477099609375,-1.72320556640625,-0.2899322509765625,0.1907501220703125
1782846816797776000,4.97477587890625,-1.8513031005859375,-0.392486572265625,0.313568115234375
1782846816807780000,4.984780029296875,-1.88677978515625,-0.536163330078125,0.437713623046875
1782846816817785000,4.99478515625,-1.8383331298828125,-0.67657470703125,0.5464935302734375
1782846816827789000,5.0047890625,-1.8451385498046875,-0.79376220703125,0.635772705078125
1782846816837793500,5.01479345703125,-1.986785888671875,-0.8865814208984375,0.681121826171875
1782846816847798500,5.024798583984375,-2.1836395263671875,-0.9063262939453125,0.6912994384765625
1782846816857802800,5.034802734375,-2.372283935546875,-0.82586669921875,0.67999267578125
1782846816867807700,5.044807861328125,-2.529632568359375,-0.731689453125,0.6205291748046875
1782846816877812700,5.054812744140625,-2.6328125,-0.6668243408203125,0.5269622802734375
1782846816887816700,5.064816650390625,-2.6434783935546875,-0.64337158203125,0.3925933837890625
1782846816897821700,5.07482177734375,-2.5511474609375,-0.66900634765625,0.2295989990234375
1782846816907826700,5.08482666015625,-2.418975830078125,-0.6962127685546875,0.1020660400390625
1782846816917830400,5.094830322265625,-2.2341766357421875,-0.705718994140625,0.044586181640625
1782846816927835400,5.10483544921875,-1.972991943359375,-0.676513671875,0.05548095703125
1782846816937840400,5.11484033203125,-1.7025909423828125,-0.567108154296875,0.1367034912109375
1782846816947844600,5.1248447265625,-1.4610443115234375,-0.441009521484375,0.2204132080078125
1782846816957849600,5.134849609375,-1.2381134033203125,-0.3303375244140625,0.2468719482421875
1782846816967853600,5.144853515625,-1.00811767578125,-0.2317047119140625,0.227569580078125
1782846816977858600,5.154858642578125,-0.787139892578125,-0.154327392578125,0.1702728271484375
1782846816987863600,5.164863525390625,-0.587158203125,-0.099853515625,0.09393310546875
1782846816997867500,5.174867431640625,-0.4217376708984375,-0.0650634765625,0.011138916015625
1782846817007872500,5.18487255859375,-0.2933197021484375,-0.05194091796875,-0.078338623046875
1782846817017877500,5.19487744140625,-0.18719482421875,-0.0397491455078125,-0.16009521484375
1782846817027881700,5.2048818359375,-0.095062255859375,-0.0203857421875,-0.21002197265625
1782846817037886700,5.21488671875,0.0034027099609375,0.0005340576171875,-0.22357177734375
1782846817047891700,5.2248916015625,0.1038665771484375,0.011260986328125,-0.2097015380859375
1782846817057895700,5.234895751953125,0.1947021484375,0.02154541015625,-0.1595306396484375
1782846817067900700,5.244900634765625,0.2354888916015625,0.0411834716796875,-0.097412109375
1782846817077905700,5.25490576171875,0.2398834228515625,0.0561981201171875,-0.0623626708984375
1782846817087909400,5.264909423828125,0.2083587646484375,0.0855712890625,-0.045684814453125
1782846817097914400,5.274914306640625,0.1688690185546875,0.1187286376953125,-0.040771484375
1782846817107919400,5.28491943359375,0.158843994140625,0.139434814453125,-0.032379150390625
1782846817117923600,5.294923583984375,0.170379638671875,0.126708984375,-0.03631591796875
1782846817127928600,5.304928466796875,0.1920166015625,0.0884552001953125,-0.04437255859375
1782846817137932500,5.3149326171875,0.228515625,0.038970947265625,-0.0412139892578125
1782846817147937500,5.3249375,0.2654266357421875,0.0014495849609375,-0.014068603515625
1782846817157942500,5.334942626953125,0.27899169921875,-0.020416259765625,0.0257415771484375
1782846817167946500,5.344946533203125,0.2672271728515625,-0.0272064208984375,0.0516357421875
1782846817177951500,5.354951416015625,0.2350616455078125,-0.030792236328125,0.0583953857421875
1782846817187956500,5.36495654296875,0.180450439453125,-0.0212860107421875,0.052764892578125
1782846817197960700,5.374960693359375,0.1031646728515625,0.014404296875,0.04986572265625
1782846817207965700,5.384965576171875,0.0178680419921875,0.05224609375,0.0547637939453125
1782846817217970700,5.394970703125,-0.0787200927734375,0.0704498291015625,0.0544281005859375
1782846817227974700,5.404974609375,-0.1778411865234375,0.079071044921875,0.0511474609375
1782846817237979600,5.414979736328125,-0.288299560546875,0.0848541259765625,0.0596923828125
1782846817247984600,5.424984619140625,-0.444427490234375,0.06976318359375,0.0619354248046875
1782846817257988400,5.43498828125,-0.6314239501953125,0.031402587890625,0.0651092529296875
1782846817267993300,5.444993408203125,-0.798065185546875,-0.017333984375,0.116241455078125
1782846817277998300,5.454998291015625,-0.9591064453125,-0.0622100830078125,0.19598388671875
1782846817288002600,5.46500244140625,-1.1587982177734375,-0.1311492919921875,0.2714080810546875
1782846817298007600,5.475007568359375,-1.3748931884765625,-0.2204437255859375,0.293731689453125
1782846817308012500,5.485012451171875,-1.535614013671875,-0.273101806640625,0.2930450439453125
1782846817318016500,5.4950166015625,-1.64715576171875,-0.2798919677734375,0.3387603759765625
1782846817328021500,5.505021484375,-1.7736053466796875,-0.3128814697265625,0.376861572265625
1782846817338025500,5.515025390625,-1.8943023681640625,-0.4792938232421875,0.3118438720703125
1782846817348030500,5.525030517578125,-1.9761962890625,-0.87994384765625,0.125579833984375
1782846817358035500,5.535035400390625,-1.768341064453125,-1.105438232421875,0.04345703125
1782846817368039700,5.545039794921875,-1.6775665283203125,-1.1575775146484375,0.120758056640625
1782846817378044700,5.555044677734375,-2.0810699462890625,-1.0686187744140625,0.33563232421875
1782846817388049700,5.565049560546875,-2.4510955810546875,-0.7658538818359375,0.6098175048828125
1782846817398053600,5.5750537109375,-2.5045013427734375,-0.399627685546875,0.8045196533203125
1782846817408058600,5.58505859375,-2.444793701171875,-0.10614013671875,0.8145294189453125
1782846817418063600,5.595063720703125,-2.3889312744140625,-0.03997802734375,0.6020050048828125
1782846817428067300,5.6050673828125,-2.2782135009765625,-0.1481170654296875,0.3110198974609375
1782846817438072300,5.615072265625,-2.0273284912109375,-0.3433074951171875,0.0859375
1782846817448077600,5.62507763671875,-1.6171417236328125,-0.6244049072265625,-0.003448486328125
1782846817458081500,5.63508154296875,-1.1438446044921875,-0.9373016357421875,0.03509521484375
1782846817468086500,5.64508642578125,-0.7645111083984375,-1.0037384033203125,0.14178466796875
1782846817478091500,5.655091552734375,-0.5702362060546875,-0.780181884765625,0.224609375
1782846817488095500,5.665095458984375,-0.5745086669921875,-0.5058135986328125,0.2209930419921875
1782846817498100500,5.6751005859375,-0.728912353515625,-0.347076416015625,0.133819580078125
1782846817508104400,5.6851044921875,-0.8400115966796875,-0.206512451171875,0.080810546875
1782846817518109400,5.695109375,-0.8829193115234375,-0.0267791748046875,0.046051025390625
1782846817528114400,5.705114501953125,-0.9593505859375,0.110015869140625,-0.0009307861328125
1782846817538118700,5.71511865234375,-0.976409912109375,0.182037353515625,-0.03485107421875
1782846817548123600,5.72512353515625,-0.90625,0.2079010009765625,-0.0544281005859375
1782846817558128600,5.735128662109375,-0.7939910888671875,0.1945037841796875,-0.068939208984375
1782846817568132600,5.745132568359375,-0.6722564697265625,0.1598663330078125,-0.0731048583984375
1782846817578137600,5.7551376953125,-0.550750732421875,0.103973388671875,-0.08270263671875
1782846817588142600,5.765142578125,-0.415771484375,0.0333404541015625,-0.1006317138671875
1782846817598146600,5.775146484375,-0.3206329345703125,-0.023773193359375,-0.1202850341796875
1782846817608151600,5.785151611328125,-0.2789764404296875,-0.068389892578125,-0.14007568359375
1782846817618156500,5.795156494140625,-0.248077392578125,-0.0986785888671875,-0.1485443115234375
1782846817628160500,5.805160400390625,-0.228271484375,-0.1142120361328125,-0.13671875
1782846817638165500,5.81516552734375,-0.237823486328125,-0.1191253662109375,-0.1182708740234375
1782846817648170500,5.82517041015625,-0.2640838623046875,-0.1123809814453125,-0.0875091552734375
1782846817658174500,5.835174560546875,-0.2950897216796875,-0.09735107421875,-0.042816162109375
1782846817668179500,5.845179443359375,-0.316070556640625,-0.0866241455078125,0.00909423828125
1782846817678184400,5.855184326171875,-0.3293914794921875,-0.0760650634765625,0.0488739013671875
1782846817688188700,5.865188720703125,-0.3382415771484375,-0.064910888671875,0.072418212890625
1782846817698193700,5.875193603515625,-0.36431884765625,-0.06109619140625,0.0789947509765625
1782846817708197600,5.88519775390625,-0.4013214111328125,-0.0650787353515625,0.07733154296875
1782846817718202600,5.89520263671875,-0.44256591796875,-0.04205322265625,0.07305908203125
1782846817728207600,5.90520751953125,-0.5216522216796875,-0.0001373291015625,0.0702056884765625
1782846817738211600,5.915211669921875,-0.604156494140625,0.0377960205078125,0.0683441162109375
1782846817748216600,5.925216552734375,-0.6819305419921875,0.046661376953125,0.065765380859375
1782846817758221600,5.9352216796875,-0.77410888671875,0.0115966796875,0.063720703125
1782846817768225800,5.945225830078125,-0.85260009765625,-0.0499114990234375,0.0672454833984375
1782846817778230800,5.955230712890625,-0.9307403564453125,-0.1084136962890625,0.1373748779296875
1782846817788235800,5.96523583984375,-1.0620269775390625,-0.19134521484375,0.2273406982421875
1782846817798239500,5.975239501953125,-1.2788238525390625,-0.328277587890625,0.2739715576171875
1782846817808244500,5.985244384765625,-1.5084075927734375,-0.4812469482421875,0.263275146484375
1782846817818249500,5.99524951171875,-1.69232177734375,-0.587310791015625,0.23077392578125
1782846817828253400,6.00525341796875,-1.8460693359375,-0.6600799560546875,0.25860595703125
1782846817838259700,6.015259765625,-2.003448486328125,-0.671234130859375,0.366912841796875
1782846817848264700,6.0252646484375,-2.1821136474609375,-0.62408447265625,0.48974609375
1782846817858268400,6.035268310546875,-2.353118896484375,-0.5998992919921875,0.5881805419921875
1782846817868273400,6.0452734375,-2.4736785888671875,-0.6161041259765625,0.659942626953125
1782846817878277600,6.055277587890625,-2.5267791748046875,-0.6708984375,0.627716064453125
1782846817888282600,6.06528271484375,-2.450592041015625,-0.74273681640625,0.5040130615234375
1782846817898287600,6.07528759765625,-2.3354339599609375,-0.791717529296875,0.366790771484375
1782846817908291600,6.08529150390625,-2.2114105224609375,-0.8327789306640625,0.2539520263671875
1782846817918296600,6.095296630859375,-2.0881805419921875,-0.87945556640625,0.1420135498046875
1782846817928301600,6.105301513671875,-2.021697998046875,-0.867523193359375,0.0925140380859375
1782846817938305500,6.115305419921875,-1.9917449951171875,-0.7637176513671875,0.143096923828125
1782846817948310500,6.125310546875,-1.9536895751953125,-0.610443115234375,0.2428436279296875
1782846817958315500,6.1353154296875,-1.8487396240234375,-0.472808837890625,0.3205413818359375
1782846817968319700,6.14531982421875,-1.7291412353515625,-0.35980224609375,0.3693695068359375
1782846817978324700,6.15532470703125,-1.5936737060546875,-0.26068115234375,0.3994140625
1782846817988329700,6.165329833984375,-1.3991546630859375,-0.1865692138671875,0.41180419921875
1782846817998333700,6.175333740234375,-1.18115234375,-0.1628265380859375,0.40264892578125
1782846818008338700,6.185338623046875,-0.9288330078125,-0.182098388671875,0.3927459716796875
1782846818018343700,6.19534375,-0.6809844970703125,-0.2455596923828125,0.3717193603515625
1782846818028347400,6.205347412109375,-0.441650390625,-0.30047607421875,0.3205108642578125
1782846818038352400,6.215352294921875,-0.2163238525390625,-0.2882843017578125,0.2493438720703125
1782846818048357400,6.225357421875,-0.06317138671875,-0.2200927734375,0.1650238037109375
1782846818058361600,6.235361572265625,-0.0310516357421875,-0.157562255859375,0.071563720703125
1782846818068366600,6.24536669921875,-0.051025390625,-0.1168212890625,-0.0142364501953125
1782846818078371600,6.25537158203125,-0.05828857421875,-0.0612640380859375,-0.083892822265625
1782846818088375600,6.26537548828125,-0.0780029296875,0.0128173828125,-0.1565093994140625
1782846818098380500,6.275380615234375,-0.0934600830078125,0.0841064453125,-0.194793701171875
1782846818108384500,6.285384521484375,-0.07354736328125,0.1358489990234375,-0.2125244140625
1782846818118389500,6.295389404296875,-0.012054443359375,0.1578216552734375,-0.2106781005859375
1782846818128394500,6.30539453125,0.0442352294921875,0.1479644775390625,-0.1980743408203125
1782846818138398700,6.315398681640625,0.098541259765625,0.1150665283203125,-0.180389404296875
1782846818148403700,6.32540380859375,0.15069580078125,0.0787506103515625,-0.1480712890625
1782846818158408700,6.33540869140625,0.1893768310546875,0.0404052734375,-0.1280364990234375
1782846818168412700,6.34541259765625,0.2182159423828125,0.0074920654296875,-0.1033477783203125
1782846818178417700,6.355417724609375,0.2242584228515625,-0.02569580078125,-0.07427978515625
1782846818188422700,6.365422607421875,0.2155609130859375,-0.0501251220703125,-0.0443267822265625
1782846818198426400,6.37542626953125,0.197784423828125,-0.056793212890625,-0.0137481689453125
1782846818208431400,6.385431396484375,0.1548919677734375,-0.0511322021484375,0.0120697021484375
1782846818218436400,6.395436279296875,0.1077423095703125,-0.0367431640625,0.0387420654296875
1782846818228440600,6.405440673828125,0.0559844970703125,-0.0171051025390625,0.0780792236328125
1782846818238445600,6.415445556640625,-0.0020294189453125,-0.0030670166015625,0.11492919921875
1782846818248450600,6.425450439453125,-0.06634521484375,0.01531982421875,0.1355438232421875
1782846818258454500,6.43545458984375,-0.1592864990234375,0.0248870849609375,0.137481689453125
1782846818268459500,6.44545947265625,-0.265167236328125,0.014556884765625,0.1475830078125
1782846818278464500,6.455464599609375,-0.3977813720703125,-0.0189208984375,0.15771484375
1782846818288468500,6.465468505859375,-0.570709228515625,-0.0674285888671875,0.1451873779296875
1782846818298473500,6.475473388671875,-0.7905120849609375,-0.1145172119140625,0.154876708984375
1782846818308477700,6.485477783203125,-1.0462646484375,-0.1697235107421875,0.1804351806640625
1782846818318482700,6.495482666015625,-1.30267333984375,-0.2360382080078125,0.19476318359375
1782846818328487700,6.50548779296875,-1.50360107421875,-0.2471160888671875,0.227813720703125
1782846818338491600,6.51549169921875,-1.6360931396484375,-0.241943359375,0.2962493896484375
1782846818348496600,6.52549658203125,-1.757171630859375,-0.3285064697265625,0.3440399169921875
1782846818358501600,6.535501708984375,-1.8410491943359375,-0.5047760009765625,0.3065643310546875
1782846818368505600,6.545505615234375,-1.8352813720703125,-0.5554046630859375,0.237823486328125
1782846818378510600,6.555510498046875,-2.040679931640625,-0.6220855712890625,0.1907958984375
1782846818388515600,6.565515625,-2.468475341796875,-0.58489990234375,0.2328643798828125
1782846818398519600,6.57551953125,-2.700286865234375,-0.31903076171875,0.37799072265625
1782846818408524500,6.585524658203125,-2.7060546875,0.0334014892578125,0.5623779296875
1782846818418529500,6.595529541015625,-2.6303863525390625,0.2410125732421875,0.587493896484375
1782846818428533500,6.605533447265625,-2.5062408447265625,0.2285003662109375,0.43109130859375
1782846818438538500,6.61553857421875,-2.308013916015625,0.0881500244140625,0.2486724853515625
1782846818448543500,6.62554345703125,-2.0206451416015625,-0.1522674560546875,0.11505126953125
1782846818458547700,6.635547607421875,-1.5956878662109375,-0.484130859375,0.053802490234375
1782846818468552700,6.645552734375,-1.1450042724609375,-0.7719879150390625,0.099273681640625
1782846818478556700,6.655556640625,-0.7916107177734375,-0.808990478515625,0.2176666259765625
1782846818488561700,6.665561767578125,-0.614898681640625,-0.629913330078125,0.3071136474609375
1782846818498566700,6.675566650390625,-0.6175384521484375,-0.4275054931640625,0.3031005859375
1782846818508570600,6.685570556640625,-0.702056884765625,-0.2605743408203125,0.2287445068359375
1782846818518575600,6.69557568359375,-0.808624267578125,-0.1255950927734375,0.1467437744140625
1782846818528580600,6.70558056640625,-0.8826751708984375,-0.018951416015625,0.1200408935546875
1782846818538584800,6.715584716796875,-0.891998291015625,0.0386199951171875,0.1063232421875
1782846818548589800,6.72558984375,-0.834136962890625,0.0629119873046875,0.084625244140625
1782846818558594800,6.7355947265625,-0.7472686767578125,0.0829315185546875,0.0585784912109375
1782846818568598500,6.7455986328125,-0.6616668701171875,0.0945892333984375,0.0377349853515625
1782846818578603500,6.755603515625,-0.5833892822265625,0.0811920166015625,0.0015869140625
1782846818588608500,6.7656083984375,-0.5071563720703125,0.050750732421875,-0.0461883544921875
1782846818598612500,6.775612548828125,-0.4402313232421875,0.02850341796875,-0.082794189453125
1782846818608617500,6.785617431640625,-0.39251708984375,0.01361083984375,-0.0980682373046875
1782846818618622500,6.79562255859375,-0.3688201904296875,-0.0168304443359375,-0.1110382080078125
1782846818628626700,6.805626708984375,-0.3573150634765625,-0.046539306640625,-0.1077117919921875
1782846818638631700,6.815631591796875,-0.3570404052734375,-0.0702972412109375,-0.086883544921875
1782846818648636700,6.82563671875,-0.363006591796875,-0.09295654296875,-0.064117431640625
1782846818658640600,6.835640625,-0.366790771484375,-0.11407470703125,-0.0414276123046875
1782846818668645600,6.845645751953125,-0.375885009765625,-0.117279052734375,-0.020233154296875
1782846818678650600,6.855650634765625,-0.424591064453125,-0.1038665771484375,0.0007171630859375
1782846818688654600,6.865654541015625,-0.50799560546875,-0.0709991455078125,0.0313720703125
1782846818698659600,6.87565966796875,-0.5771331787109375,-0.0245361328125,0.0655059814453125
1782846818708664600,6.88566455078125,-0.64013671875,0.0201568603515625,0.0952911376953125
1782846818718668800,6.895668701171875,-0.6925201416015625,0.0611419677734375,0.1131439208984375
1782846818728673800,6.905673828125,-0.7330474853515625,0.09881591796875,0.117584228515625
1782846818738677500,6.915677490234375,-0.7476959228515625,0.1189727783203125,0.1205902099609375
1782846818748682500,6.9256826171875,-0.7209930419921875,0.095458984375,0.1254730224609375
1782846818758687500,6.9356875,-0.6553192138671875,0.024169921875,0.1189117431640625
1782846818768691500,6.94569140625,-0.597381591796875,-0.0594024658203125,0.1051788330078125
1782846818778696400,6.955696533203125,-0.5871429443359375,-0.115325927734375,0.0999908447265625
1782846818788701400,6.965701416015625,-0.632659912109375,-0.154510498046875,0.0799102783203125
1782846818798705700,6.97570556640625,-0.7237548828125,-0.2202301025390625,0.0194854736328125
1782846818808710700,6.985710693359375,-0.90234375,-0.3142547607421875,-0.0787353515625
1782846818818715600,6.995715576171875,-1.1663055419921875,-0.396759033203125,-0.132568359375
1782846818828719600,7.0057197265625,-1.5218505859375,-0.443817138671875,-0.121490478515625
1782846818838724600,7.015724609375,-1.874755859375,-0.46044921875,-0.003143310546875
1782846818848729600,7.0257294921875,-2.1478271484375,-0.405242919921875,0.2192535400390625
1782846818858733600,7.035733642578125,-2.4334564208984375,-0.2664337158203125,0.4526519775390625
1782846818868738600,7.045738525390625,-2.7438812255859375,-0.1788482666015625,0.6012115478515625
1782846818878743600,7.05574365234375,-3.0077667236328125,-0.176239013671875,0.632354736328125
1782846818888747800,7.065747802734375,-3.148773193359375,-0.188018798828125,0.5613861083984375
1782846818898752800,7.075752685546875,-3.134002685546875,-0.215850830078125,0.43212890625
1782846818908757800,7.0857578125,-2.9963531494140625,-0.2601165771484375,0.33355712890625
1782846818918761500,7.095761474609375,-2.7757110595703125,-0.3097991943359375,0.3141937255859375
1782846818928766500,7.105766357421875,-2.52838134765625,-0.3601226806640625,0.31890869140625
1782846818938770400,7.1157705078125,-2.3005218505859375,-0.3873138427734375,0.318939208984375
1782846818948775400,7.125775390625,-2.05413818359375,-0.377655029296875,0.3004913330078125
1782846818958780400,7.135780517578125,-1.779388427734375,-0.332550048828125,0.25262451171875
1782846818968784600,7.14578466796875,-1.4978485107421875,-0.2709503173828125,0.202911376953125
1782846818978789600,7.15578955078125,-1.20599365234375,-0.203399658203125,0.1810760498046875
1782846818988794600,7.165794677734375,-0.924468994140625,-0.16326904296875,0.184112548828125
1782846818998798600,7.175798583984375,-0.69683837890625,-0.1478118896484375,0.183685302734375
1782846819008803600,7.185803466796875,-0.514923095703125,-0.134674072265625,0.17724609375
1782846819018808600,7.19580859375,-0.369964599609375,-0.105682373046875,0.166595458984375
1782846819028812500,7.2058125,-0.3073883056640625,-0.0631866455078125,0.1550445556640625
1782846819038817500,7.215817626953125,-0.298828125,-0.0289459228515625,0.125579833984375
1782846819048822500,7.225822509765625,-0.315460205078125,0.009246826171875,0.0691680908203125
1782846819058826800,7.23582666015625,-0.3582916259765625,0.076080322265625,-0.02532958984375
1782846819068831700,7.245831787109375,-0.3672943115234375,0.1363372802734375,-0.10174560546875
1782846819078836700,7.255836669921875,-0.3508453369140625,0.1613922119140625,-0.1339569091796875
1782846819088840400,7.26584033203125,-0.2950286865234375,0.1704559326171875,-0.1416015625
1782846819098845400,7.275845458984375,-0.2132110595703125,0.1593170166015625,-0.124786376953125
1782846819108850400,7.285850341796875,-0.1346893310546875,0.1179046630859375,-0.10443115234375
1782846819118854400,7.2958544921875,-0.061248779296875,0.0658721923828125,-0.087127685546875
1782846819128859400,7.305859375,0.00482177734375,0.0237884521484375,-0.0706939697265625
1782846819138864600,7.31586474609375,0.05767822265625,-0.0168914794921875,-0.05810546875
1782846819148868600,7.32586865234375,0.1071929931640625,-0.0478668212890625,-0.045654296875
1782846819158873600,7.33587353515625,0.15069580078125,-0.0649871826171875,-0.039154052734375
1782846819168877600,7.345877685546875,0.1702880859375,-0.0575714111328125,-0.0259246826171875
1782846819178882600,7.355882568359375,0.170928955078125,-0.0467987060546875,-0.0129241943359375
1782846819188887600,7.365887451171875,0.1635589599609375,-0.0444793701171875,0.00653076171875
1782846819198891500,7.3758916015625,0.153564453125,-0.0327911376953125,0.02667236328125
1782846819208896500,7.385896484375,0.135986328125,-0.015411376953125,0.044281005859375
1782846819218901800,7.39590185546875,0.0999755859375,0.01043701171875,0.0541229248046875
1782846819228905700,7.40590576171875,0.0477142333984375,0.01824951171875,0.04046630859375
1782846819238910700,7.41591064453125,0.0067901611328125,-0.0005950927734375,0.0251007080078125
1782846819248915700,7.425915771484375,-0.0169677734375,-0.019439697265625,0.02532958984375
1782846819258919400,7.43591943359375,-0.0500030517578125,-0.0074310302734375,0.0102081298828125
1782846819268924700,7.445924560546875,-0.146820068359375,0.006500244140625,-0.0222015380859375
1782846819278929700,7.4559296875,-0.29046630859375,-0.022918701171875,-0.0652618408203125
1782846819288933600,7.46593359375,-0.4842376708984375,-0.05419921875,-0.0737457275390625
1782846819298938600,7.475938720703125,-0.7097625732421875,-0.0893096923828125,-0.062347412109375
1782846819308943600,7.485943603515625,-0.9095306396484375,-0.157501220703125,0.0187530517578125
1782846819318947600,7.495947509765625,-1.0612030029296875,-0.239227294921875,0.1614990234375
1782846819328952600,7.50595263671875,-1.1461029052734375,-0.3109893798828125,0.301239013671875
1782846819338957600,7.51595751953125,-1.2558746337890625,-0.3554840087890625,0.4022369384765625
1782846819348961500,7.52596142578125,-1.4410552978515625,-0.399658203125,0.403594970703125
1782846819358966500,7.535966552734375,-1.64892578125,-0.4764251708984375,0.303466796875
1782846819368971500,7.545971435546875,-1.8244171142578125,-0.5527496337890625,0.149566650390625
1782846819378975700,7.555975830078125,-1.96734619140625,-0.607940673828125,0.030487060546875
1782846819388980700,7.565980712890625,-2.1521453857421875,-0.7437286376953125,-0.0236968994140625
1782846819398984700,7.575984619140625,-2.31134033203125,-0.756072998046875,0.103515625
1782846819408989700,7.58598974609375,-2.332763671875,-0.567047119140625,0.390594482421875
1782846819418994700,7.59599462890625,-2.284210205078125,-0.3092498779296875,0.6760711669921875
1782846819428998700,7.60599853515625,-2.249359130859375,-0.1884002685546875,0.7592010498046875
1782846819439003600,7.616003662109375,-2.159637451171875,-0.2446136474609375,0.6334686279296875
1782846819449008600,7.626008544921875,-1.9850921630859375,-0.41644287109375,0.4406890869140625
1782846819459012600,7.6360126953125,-1.7271881103515625,-0.6298980712890625,0.4959564208984375
1782846819469017600,7.646017578125,-1.44781494140625,-0.7794342041015625,0.444976806640625
1782846819479022600,7.656022705078125,-1.284881591796875,-0.7592010498046875,0.44464111328125
1782846819489026600,7.666026611328125,-1.2074432373046875,-0.6492767333984375,0.3782196044921875
1782846819499031600,7.676031494140625,-1.1141510009765625,-0.484344482421875,0.29266357421875
1782846819509036500,7.68603662109375,-1.14251708984375,-0.36236572265625,0.2129974365234375
1782846819519040500,7.69604052734375,-1.008758544921875,-0.2531585693359375,0.0472564697265625
1782846819529045500,7.70604541015625,-0.8847198486328125,-0.118988037109375,0.01849365234375
1782846819539050500,7.716050537109375,-0.9009857177734375,0.0079193115234375,0.0421142578125
1782846819549054700,7.7260546875,-0.8421478271484375,0.1098480224609375,0.0363922119140625
1782846819559059700,7.736059814453125,-0.7589111328125,0.1546630859375,0.0340423583984375
1782846819569064700,7.746064697265625,-0.68603515625,0.168731689453125,0.023681640625
1782846819579068700,7.756068603515625,-0.5611724853515625,0.1469573974609375,0.0274505615234375
1782846819589073700,7.76607373046875,-0.4549560546875,0.0952911376953125,0.0398101806640625
1782846819599078700,7.77607861328125,-0.36859130859375,0.0086517333984375,0.041259765625
1782846819609082600,7.78608251953125,-0.3117828369140625,-0.051727294921875,0.067596435546875
1782846819619087600,7.796087646484375,-0.3217010498046875,-0.099029541015625,0.0856475830078125
1782846819629091600,7.806091552734375,-0.3168487548828125,-0.1172027587890625,0.070556640625
1782846819639096600,7.8160966796875,-0.3048095703125,-0.0930023193359375,0.0599517822265625
1782846819649101600,7.8261015625,-0.32574462890625,-0.07647705078125,0.0626983642578125
1782846819659105500,7.83610546875,-0.3375701904296875,-0.0542449951171875,0.0729827880859375
1782846819669110500,7.846110595703125,-0.3537445068359375,-0.017120361328125,0.0906219482421875
1782846819679115500,7.856115478515625,-0.3651885986328125,0.0164337158203125,0.1117095947265625
1782846819689119500,7.866119384765625,-0.380126953125,0.03338623046875,0.132354736328125
1782846819699124500,7.87612451171875,-0.4066314697265625,0.0309600830078125,0.1468353271484375
1782846819709129500,7.88612939453125,-0.4290008544921875,0.0347137451171875,0.1438751220703125
1782846819719133700,7.8961337890625,-0.4474334716796875,0.0297698974609375,0.1415863037109375
1782846819729138700,7.906138671875,-0.4733123779296875,0.0347137451171875,0.1390838623046875
1782846819739143700,7.916143798828125,-0.51708984375,0.0263824462890625,0.146453857421875
1782846819749147600,7.926147705078125,-0.6146392822265625,0.0084991455078125,0.15869140625
1782846819759152600,7.936152587890625,-0.74151611328125,-0.0055084228515625,0.1621551513671875
1782846819769157600,7.94615771484375,-0.853485107421875,-0.0298614501953125,0.169281005859375
1782846819779161600,7.95616162109375,-0.9935150146484375,-0.067840576171875,0.166961669921875
1782846819789166600,7.96616650390625,-1.172119140625,-0.138336181640625,0.15985107421875
1782846819799171600,7.976171630859375,-1.3390655517578125,-0.2290802001953125,0.1566314697265625
1782846819809175600,7.986175537109375,-1.4692840576171875,-0.3153533935546875,0.1804351806640625
1782846819819180500,7.9961806640625,-1.5712432861328125,-0.3713836669921875,0.26446533203125
1782846819829185500,8.006185546875,-1.6453399658203125,-0.409637451171875,0.3377227783203125
1782846819839189500,8.016189453125,-1.75323486328125,-0.425628662109375,0.385528564453125
1782846819849194500,8.026194580078124,-1.8843841552734375,-0.4128570556640625,0.394775390625
1782846819859198500,8.036198486328125,-1.9993743896484375,-0.40252685546875,0.351715087890625
1782846819869203500,8.046203369140626,-2.10137939453125,-0.4247894287109375,0.2860260009765625
1782846819879208400,8.05620849609375,-2.1684722900390625,-0.4953460693359375,0.237091064453125
1782846819889212400,8.06621240234375,-2.1831512451171875,-0.60504150390625,0.22998046875
1782846819899217400,8.076217529296875,-2.1765899658203125,-0.7337188720703125,0.2500762939453125
1782846819909222400,8.086222412109375,-2.1515045166015625,-0.842193603515625,0.29376220703125
1782846819919226400,8.096226318359374,-2.1221771240234375,-0.90057373046875,0.338958740234375
1782846819929231400,8.1062314453125,-2.1101837158203125,-0.9111480712890625,0.3378753662109375
1782846819939236400,8.116236328125,-2.089202880859375,-0.8845367431640625,0.3064117431640625
1782846819949240300,8.126240234375,-2.05743408203125,-0.841278076171875,0.2556304931640625
1782846819959245600,8.13624560546875,-2.020355224609375,-0.7818756103515625,0.203369140625
1782846819969250600,8.14625048828125,-1.97216796875,-0.7087249755859375,0.172576904296875
1782846819979254500,8.156254638671875,-1.8875885009765625,-0.6103057861328125,0.17498779296875
1782846819989259500,8.166259521484376,-1.7899322509765625,-0.4690399169921875,0.205352783203125
1782846819999264500,8.176264404296875,-1.6200408935546875,-0.29833984375,0.268524169921875
1782846820009268500,8.1862685546875,-1.39556884765625,-0.168243408203125,0.2926788330078125
1782846820019273500,8.1962734375,-1.1607818603515625,-0.0780029296875,0.305389404296875
1782846820029278500,8.206278564453125,-0.933837890625,-0.0125579833984375,0.29150390625
1782846820039282700,8.21628271484375,-0.739410400390625,0.0113067626953125,0.2461395263671875
1782846820049287700,8.22628759765625,-0.595703125,0.0011444091796875,0.1925201416015625
1782846820059292700,8.236292724609376,-0.470977783203125,-0.01373291015625,0.1394805908203125
1782846820069296400,8.24629638671875,-0.3436737060546875,-0.0259552001953125,0.1000823974609375
1782846820079301400,8.25630126953125,-0.230621337890625,-0.03973388671875,0.068145751953125
1782846820089305300,8.266305419921874,-0.1243438720703125,-0.043609619140625,0.0385589599609375
1782846820099310300,8.276310302734375,-0.0378570556640625,-0.0361480712890625,0.004241943359375
1782846820109315300,8.2863154296875,0.033447265625,-0.0221099853515625,-0.029205322265625
1782846820119319600,8.296319580078125,0.0841217041015625,-0.0128631591796875,-0.0598297119140625
1782846820129324500,8.306324462890625,0.1312713623046875,-0.0045166015625,-0.0901031494140625
1782846820139329500,8.31632958984375,0.1807861328125,0.003143310546875,-0.1122589111328125
1782846820149333500,8.32633349609375,0.2056427001953125,-0.0120697021484375,-0.1281280517578125
1782846820159338500,8.33633837890625,0.2204437255859375,-0.016265869140625,-0.1112518310546875
1782846820169343500,8.346343505859375,0.2197418212890625,-0.0175933837890625,-0.078338623046875
1782846820179347500,8.356347412109375,0.18975830078125,-0.0359649658203125,-0.01922607421875
1782846820189352400,8.3663525390625,0.13873291015625,-0.033538818359375,0.034271240234375
1782846820199357400,8.376357421875,0.0931549072265625,-0.001251220703125,0.0623779296875
1782846820209361700,8.386361572265624,0.03570556640625,0.0367431640625,0.0745086669921875
1782846820219366700,8.39636669921875,-0.029327392578125,0.06329345703125,0.072509765625
1782846820229371600,8.40637158203125,-0.0818328857421875,0.07891845703125,0.060272216796875
1782846820239375400,8.416375244140625,-0.1029815673828125,0.09381103515625,0.0534210205078125
1782846820249380600,8.426380615234375,-0.1048583984375,0.0861663818359375,0.0405731201171875
1782846820259385600,8.436385498046874,-0.1010284423828125,0.0662384033203125,0.0296173095703125
1782846820269389300,8.446389404296875,-0.0806884765625,0.046875,0.0198974609375
1782846820279394300,8.456394287109376,-0.0623321533203125,0.0239105224609375,0.0169830322265625
1782846820289399300,8.4663994140625,-0.0841217041015625,-0.0188140869140625,0.027008056640625
1782846820299403500,8.476403564453125,-0.1567230224609375,-0.074798583984375,0.0256805419921875
1782846820309408500,8.486408447265624,-0.254608154296875,-0.1531829833984375,0.002410888671875
1782846820319413500,8.49641357421875,-0.363250732421875,-0.2178955078125,-0.0138702392578125
1782846820329417500,8.50641748046875,-0.4869537353515625,-0.3004913330078125,-0.0295867919921875
1782846820339422500,8.51642236328125,-0.6416015625,-0.4028167724609375,-0.0161285400390625
1782846820349426400,8.526426513671876,-0.86114501953125,-0.464385986328125,0.0478668212890625
1782846820359431400,8.536431396484375,-1.1628265380859375,-0.48004150390625,0.1474151611328125
1782846820369436400,8.5464365234375,-1.3385009765625,-0.440399169921875,0.2681884765625
1782846820379440600,8.556440673828124,-1.4083709716796875,-0.3448486328125,0.39093017578125
1782846820389445600,8.566445556640625,-1.5328521728515625,-0.3214569091796875,0.4556732177734375
1782846820399450600,8.57645068359375,-1.6844482421875,-0.4906768798828125,0.3927001953125
1782846820409454600,8.58645458984375,-1.7246246337890625,-0.7708282470703125,0.227142333984375
1782846820419459600,8.59645947265625,-1.540374755859375,-0.98809814453125,0.1019134521484375
1782846820429464600,8.606464599609374,-1.394500732421875,-1.0570220947265625,0.0836944580078125
1782846820439468300,8.61646826171875,-1.58343505859375,-0.900634765625,0.211456298828125
1782846820449473300,8.626473388671876,-1.8782958984375,-0.627410888671875,0.373992919921875
1782846820459478300,8.636478271484375,-2.0117950439453125,-0.3409881591796875,0.4687957763671875
