time,seconds_elapsed,z,y,x
1782846811899251500,0.07625146484375,-0.33513206243515015,-0.6686134338378906,0.013355317525565624
1782846811909256400,0.08625634765625,-0.3206898272037506,-0.8249971270561218,-0.11052677035331726
1782846811919260400,0.096260498046875,-0.24081791937351227,-0.9510408043861389,-0.23429131507873535
1782846811929265400,0.106265380859375,-0.1745092123746872,-1.1608203649520874,-0.34812748432159424
1782846811939270400,0.1162705078125,-0.19101016223430634,-1.2204911708831787,-0.4971800744533539
1782846811949274600,0.126274658203125,-0.267030268907547,-1.1925640106201172,-0.5892990827560425
1782846811959279600,0.136279541015625,-0.3448411822319031,-1.080198049545288,-0.5942656397819519
1782846811969284600,0.14628466796875,-0.3221922814846039,-0.8296951651573181,-0.577934205532074
1782846811979288600,0.15628857421875,-0.288117915391922,-0.6560378670692444,-0.5539609789848328
1782846811989293600,0.16629345703125,-0.24429355561733246,-0.4834395945072174,-0.5162662863731384
1782846811999297500,0.176297607421875,-0.16676492989063263,-0.2784486413002014,-0.430081844329834
1782846812009302500,0.186302490234375,-0.09582512825727463,-0.10173818469047546,-0.2716623842716217
1782846812019307500,0.1963076171875,-0.050121814012527466,-0.0020600571297109127,-0.05542917177081108
1782846812029311700,0.206311767578125,-0.021913718432188034,0.044983357191085815,0.15926535427570343
1782846812039316700,0.216316650390625,-0.02194940485060215,0.0778595432639122,0.3262428939342499
1782846812049321700,0.22632177734375,-0.03563186526298523,0.10744812339544296,0.42248818278312683
1782846812059325400,0.236325439453125,-0.05212881788611412,0.11937934905290604,0.44764813780784607
1782846812069330400,0.246330322265625,-0.056718260049819946,0.10408282279968262,0.41572290658950806
1782846812079335400,0.25633544921875,-0.04959297180175781,0.05079350993037224,0.3234521150588989
1782846812089339400,0.26633935546875,-0.03416157141327858,-0.022277366369962692,0.20669643580913544
1782846812099344400,0.276344482421875,-0.02556196227669716,-0.09425301849842072,0.0889892429113388
1782846812109349400,0.286349365234375,-0.0431477390229702,-0.17072784900665283,-0.011094216257333755
1782846812119353600,0.296353515625,-0.07952118664979935,-0.25331273674964905,-0.08878368884325027
1782846812129358600,0.306358642578125,-0.12833915650844574,-0.3104006350040436,-0.15001551806926727
1782846812139362600,0.316362548828125,-0.18754920363426208,-0.3460422456264496,-0.21314255893230438
1782846812149367600,0.326367431640625,-0.22935257852077484,-0.39286142587661743,-0.2747369408607483
1782846812159372500,0.33637255859375,-0.2630246877670288,-0.39126479625701904,-0.33322596549987793
1782846812169376500,0.34637646484375,-0.3024175465106964,-0.33034026622772217,-0.37565815448760986
1782846812179381500,0.356381591796875,-0.3313751816749573,-0.23776745796203613,-0.386407732963562
1782846812189386500,0.366386474609375,-0.3456335663795471,-0.09112201631069183,-0.36469289660453796
1782846812199390700,0.376390625,-0.34342527389526367,0.09228136390447617,-0.3277907967567444
1782846812209395700,0.386395751953125,-0.32022953033447266,0.2757444381713867,-0.28343698382377625
1782846812219399400,0.3963994140625,-0.2863770127296448,0.3940300941467285,-0.21513383090496063
1782846812229404400,0.406404296875,-0.26366397738456726,0.3613477051258087,-0.11961974948644638
1782846812239409400,0.416409423828125,-0.2498946338891983,0.2754322588443756,-0.10027321428060532
1782846812249413400,0.426413330078125,-0.22409187257289886,0.17035099864006042,-0.184340238571167
1782846812259418400,0.43641845703125,-0.20348966121673584,0.0914631187915802,-0.3207409679889679
1782846812269423400,0.44642333984375,-0.23919077217578888,0.015321530401706696,-0.4027371108531952
1782846812279427600,0.456427490234375,-0.30882176756858826,-0.013711451552808285,-0.41964659094810486
1782846812289432600,0.4664326171875,-0.4000921845436096,0.010746555402874947,-0.4429587125778198
1782846812299437600,0.4764375,-0.45220863819122314,-0.023253489285707474,-0.53663170337677
1782846812309441500,0.486441650390625,-0.4462934732437134,-0.1781148463487625,-0.6273605227470398
1782846812319446500,0.496446533203125,-0.40161147713661194,-0.41331854462623596,-0.5855382084846497
1782846812329450500,0.506450439453125,-0.32591137290000916,-0.590492844581604,-0.36893779039382935
1782846812339455500,0.51645556640625,-0.2379186600446701,-0.6043974757194519,-0.07035107910633087
1782846812349460500,0.52646044921875,-0.1613582968711853,-0.49378857016563416,0.2827701270580292
1782846812359464700,0.536464599609375,-0.12599816918373108,-0.35994741320610046,0.6750849485397339
1782846812369469700,0.5464697265625,-0.10961632430553436,-0.2415829747915268,0.9928520917892456
1782846812379474700,0.556474609375,-0.08126404136419296,-0.15437349677085876,1.0932722091674805
1782846812389478400,0.566478515625,-0.014971718192100525,-0.11010077595710754,0.9390816688537598
1782846812399483400,0.5764833984375,0.07542901486158371,-0.0654214546084404,0.60088711977005
1782846812409488400,0.58648828125,0.16546054184436798,0.007282578386366367,0.20267561078071594
1782846812419492600,0.59649267578125,0.2459745556116104,0.10749572515487671,-0.15919284522533417
1782846812429497600,0.60649755859375,0.310345858335495,0.2336706519126892,-0.4246586561203003
1782846812439501600,0.61650146484375,0.3509950041770935,0.36361372470855713,-0.5042557716369629
1782846812449506600,0.626506591796875,0.37975168228149414,0.4698123335838318,-0.4292318820953369
1782846812459511600,0.636511474609375,0.37924301624298096,0.5496879816055298,-0.29790157079696655
1782846812469515500,0.646515625,0.3481559455394745,0.5728399753570557,-0.18344564735889435
1782846812479520500,0.6565205078125,0.28007063269615173,0.5416160225868225,-0.11659152805805206
1782846812489525500,0.666525390625,0.17784921824932098,0.4536697268486023,-0.09927654266357422
1782846812499529700,0.67652978515625,0.033382050693035126,0.2887766659259796,-0.10954782366752625
1782846812509534700,0.68653466796875,-0.13332059979438782,0.10507871210575104,-0.1426316797733307
1782846812519539700,0.696539794921875,-0.2939574420452118,-0.04697606712579727,-0.18202941119670868
1782846812529543700,0.706543701171875,-0.4339708387851715,-0.1516580730676651,-0.2032216340303421
1782846812539548700,0.716548583984375,-0.5488609075546265,-0.20107463002204895,-0.21880832314491272
1782846812549553700,0.7265537109375,-0.6383628845214844,-0.22286826372146606,-0.23002749681472778
1782846812559557400,0.736557373046875,-0.6980016827583313,-0.22444911301136017,-0.2518491744995117
1782846812569562400,0.746562255859375,-0.7417200207710266,-0.18857881426811218,-0.28904083371162415
1782846812579566600,0.756566650390625,-0.7603562474250793,-0.12231430411338806,-0.3441712260246277
1782846812589571600,0.766571533203125,-0.7662878036499023,-0.04960399493575096,-0.4140442907810211
1782846812599576600,0.77657666015625,-0.7410157322883606,0.004413166083395481,-0.48487505316734314
1782846812609580500,0.78658056640625,-0.6921821236610413,0.025768863037228584,-0.5525945425033569
1782846812619585500,0.79658544921875,-0.6199204325675964,0.012476228177547455,-0.6056431531906128
1782846812629590500,0.806590576171875,-0.5342151522636414,-0.029474835842847824,-0.635435163974762
1782846812639594500,0.816594482421875,-0.43509015440940857,-0.04684130847454071,-0.6368653178215027
1782846812649599500,0.826599609375,-0.3416331112384796,-0.009351661428809166,-0.6076043844223022
1782846812659604500,0.8366044921875,-0.27510520815849304,0.06231080740690231,-0.5304954648017883
1782846812669608700,0.846608642578125,-0.2413889318704605,0.13644081354141235,-0.4251035749912262
1782846812679613700,0.85661376953125,-0.2714991867542267,0.1828991323709488,-0.31571823358535767
1782846812689617700,0.86661767578125,-0.3487531542778015,0.21929198503494263,-0.2414383739233017
1782846812699622700,0.87662255859375,-0.43339774012565613,0.2600095868110657,-0.20973104238510132
1782846812709627600,0.886627685546875,-0.4854160249233246,0.29477009177207947,-0.2146468609571457
1782846812719631600,0.896631591796875,-0.4831787049770355,0.229186549782753,-0.2549503445625305
1782846812729636600,0.90663671875,-0.3857969045639038,0.05398442596197128,-0.3165431022644043
1782846812739641600,0.9166416015625,-0.24108552932739258,-0.17343860864639282,-0.35983118414878845
1782846812749645600,0.9266455078125,-0.10426990687847137,-0.34147408604621887,-0.3864026367664337
1782846812759650600,0.936650634765625,0.027393050491809845,-0.3492012321949005,-0.4483288526535034
1782846812769655600,0.946655517578125,0.14781391620635986,-0.22706401348114014,-0.5263527035713196
1782846812779659500,0.956659423828125,0.2587239444255829,-0.07763351500034332,-0.5720392465591431
1782846812789664500,0.96666455078125,0.36450690031051636,0.04252764582633972,-0.5824653506278992
1782846812799668500,0.97666845703125,0.4709576964378357,0.1785012036561966,-0.5269496440887451
1782846812809673500,0.986673583984375,0.5654969215393066,0.29249534010887146,-0.3292611837387085
1782846812819678500,0.996678466796875,0.646319568157196,0.3048255145549774,0.006697130389511585
1782846812829682700,1.0066826171875,0.6736422777175903,0.18331879377365112,0.3631259500980377
1782846812839687700,1.016687744140625,0.614491879940033,0.06419187039136887,0.6289443373680115
1782846812849692700,1.026692626953125,0.45435386896133423,0.04120698943734169,0.7361661791801453
1782846812859696600,1.036696533203125,0.2377816140651703,-0.023793049156665802,0.6991106867790222
1782846812869701600,1.04670166015625,-0.0026465461123734713,-0.23929071426391602,0.5748276710510254
1782846812879706600,1.05670654296875,-0.22978328168392181,-0.5508350133895874,0.4652729630470276
1782846812889710600,1.066710693359375,-0.4023614823818207,-0.8346471190452576,0.42397353053092957
1782846812899715600,1.076715576171875,-0.5011191964149475,-1.0296655893325806,0.3885156810283661
1782846812909719800,1.0867197265625,-0.5321723818778992,-1.101904273033142,0.32982906699180603
1782846812919724800,1.096724853515625,-0.5016725063323975,-1.1270948648452759,0.24391762912273407
1782846812929729800,1.106729736328125,-0.39202356338500977,-1.0955737829208374,0.11682421714067459
1782846812939733800,1.116733642578125,-0.22079987823963165,-1.0034358501434326,-0.010082865133881569
1782846812949738800,1.12673876953125,-0.038502037525177,-0.8512915968894958,-0.09771336615085602
1782846812959743700,1.13674365234375,0.09743236750364304,-0.6598366498947144,-0.11328539997339249
1782846812969747700,1.146747802734375,0.1640130579471588,-0.4563141167163849,-0.05859846994280815
1782846812979752700,1.156752685546875,0.15928354859352112,-0.26989683508872986,0.016522113233804703
1782846812989757700,1.1667578125,0.10092135518789291,-0.11005330085754395,0.08119723200798035
1782846812999761700,1.17676171875,0.035337548702955246,-0.0228816457092762,0.14164619147777557
1782846813009766700,1.1867666015625,-0.02786662057042122,-0.0019832926336675882,0.21706710755825043
1782846813019770600,1.1967705078125,-0.08276715129613876,0.018765928223729134,0.32490062713623047
1782846813029775600,1.206775634765625,-0.12580154836177826,0.042980991303920746,0.4459083676338196
1782846813039780600,1.216780517578125,-0.14736329019069672,0.0531952790915966,0.5786927342414856
1782846813049784600,1.22678466796875,-0.1548975706100464,0.04254703223705292,0.7082219123840332
1782846813059789600,1.23678955078125,-0.13553132116794586,0.021768249571323395,0.81022709608078
1782846813069794600,1.246794677734375,-0.11336890608072281,0.009902982041239738,0.8556678891181946
1782846813079798800,1.256798828125,-0.09367509186267853,0.04000682383775711,0.8233650922775269
1782846813089803800,1.2668037109375,-0.08336618542671204,0.11608467996120453,0.7174909710884094
1782846813099808800,1.276808837890625,-0.07805344462394714,0.21296648681163788,0.542077362537384
1782846813109812700,1.286812744140625,-0.08013682812452316,0.28143417835235596,0.32689759135246277
1782846813119817700,1.296817626953125,-0.09169282019138336,0.28997066617012024,0.1154995784163475
1782846813129821700,1.30682177734375,-0.10656460374593735,0.2620013654232025,-0.049950435757637024
1782846813139826700,1.31682666015625,-0.12027855217456818,0.24327346682548523,-0.1743251234292984
1782846813149831700,1.326831787109375,-0.13453635573387146,0.22622689604759216,-0.26124346256256104
1782846813159835600,1.336835693359375,-0.15743421018123627,0.20704975724220276,-0.30331286787986755
1782846813169840600,1.346840576171875,-0.1711096167564392,0.20947016775608063,-0.2882562577724457
1782846813179845600,1.356845703125,-0.17144064605236053,0.2596992552280426,-0.2034422904253006
1782846813189849600,1.366849609375,-0.19444525241851807,0.32054343819618225,-0.03895182907581329
1782846813199854600,1.3768544921875,-0.2497551143169403,0.39112919569015503,0.1877628117799759
1782846813209859600,1.386859619140625,-0.3402172029018402,0.4659072756767273,0.44647085666656494
1782846813219863600,1.396863525390625,-0.42277252674102783,0.5051811337471008,0.7407299280166626
1782846813229868500,1.40686865234375,-0.4377041459083557,0.5350096225738525,1.078939437866211
1782846813239873500,1.41687353515625,-0.35706496238708496,0.5675313472747803,1.4558563232421875
1782846813249877800,1.426877685546875,-0.2549629211425781,0.5939247012138367,1.7981960773468018
1782846813259882800,1.4368828125,-0.20738503336906433,0.6986294984817505,1.9906142950057983
1782846813269886700,1.44688671875,-0.17740027606487274,0.8901084065437317,1.9310704469680786
1782846813279891700,1.4568916015625,-0.0966486930847168,1.0557359457015991,1.4382247924804688
1782846813289896700,1.466896728515625,0.055857960134744644,1.236474633216858,0.1464829295873642
1782846813299900700,1.476900634765625,0.0000996217131614685,1.1013168096542358,-1.3660222291946411
1782846813309905700,1.48690576171875,-0.24131156504154205,0.6355831623077393,-2.0368125438690186
1782846813319910700,1.49691064453125,-0.414449006319046,0.026412460952997208,-1.9481996297836304
1782846813329914600,1.50691455078125,-0.40628582239151,-0.46895667910575867,-1.7483360767364502
1782846813339919600,1.516919677734375,-0.19906020164489746,-0.7956079840660095,-1.6100397109985352
1782846813349924600,1.526924560546875,-0.017869237810373306,-0.9707388281822205,-1.317955493927002
1782846813359928600,1.536928466796875,0.04914867877960205,-0.8458525538444519,-0.7889772653579712
1782846813369933600,1.54693359375,0.056909579783678055,-0.4955844283103943,-0.1627902239561081
1782846813379937500,1.5569375,0.09464550763368607,-0.1426689624786377,0.2036583423614502
1782846813389942500,1.566942626953125,0.17035417258739471,-0.016355982050299644,0.17917856574058533
1782846813399947500,1.576947509765625,0.26553821563720703,-0.08859741687774658,-0.07321587949991226
1782846813409951700,1.58695166015625,0.35581666231155396,-0.23301909863948822,-0.3966338634490967
1782846813419956700,1.596956787109375,0.43045735359191895,-0.2858794033527374,-0.672025203704834
1782846813429961700,1.606961669921875,0.4959619641304016,-0.22950920462608337,-0.801070511341095
1782846813439965700,1.616965576171875,0.5539642572402954,-0.12439476698637009,-0.7220537066459656
1782846813449970700,1.626970703125,0.5947363376617432,-0.015677673742175102,-0.48009416460990906
1782846813459975700,1.6369755859375,0.6493500471115112,0.10418881475925446,-0.16107489168643951
1782846813469979600,1.646979736328125,0.719911515712738,0.22643116116523743,0.16776509582996368
1782846813479984600,1.656984619140625,0.7983741164207458,0.3290044367313385,0.4283950626850128
1782846813489988600,1.666988525390625,0.8665080666542053,0.39037203788757324,0.5946868658065796
1782846813499993600,1.67699365234375,0.8983852863311768,0.3859056532382965,0.6641839146614075
1782846813509998600,1.68699853515625,0.8751296401023865,0.28601640462875366,0.6663710474967957
1782846813520002600,1.69700244140625,0.7796302437782288,0.11315062642097473,0.6308923959732056
1782846813530007600,1.707007568359375,0.6254352927207947,-0.050884466618299484,0.57977694272995
1782846813540012500,1.717012451171875,0.42496955394744873,-0.16407014429569244,0.5314967632293701
1782846813550016800,1.727016845703125,0.215455561876297,-0.2382926195859909,0.5100131630897522
1782846813560021800,1.737021728515625,0.01517467200756073,-0.2774677276611328,0.4988028407096863
1782846813570026800,1.74702685546875,-0.16261835396289825,-0.28263187408447266,0.5102781057357788
1782846813580030700,1.75703076171875,-0.3089310824871063,-0.25532248616218567,0.5177309513092041
1782846813590035700,1.76703564453125,-0.4064027667045593,-0.2213793694972992,0.49078503251075745
1782846813600040700,1.777040771484375,-0.44979336857795715,-0.18147802352905273,0.4015941619873047
1782846813610044700,1.787044677734375,-0.4339524805545807,-0.1240592747926712,0.24939173460006714
1782846813620049700,1.797049560546875,-0.3857758939266205,-0.059569764882326126,0.048559822142124176
1782846813630053600,1.8070537109375,-0.3238235414028168,-0.006322377361357212,-0.17597250640392303
1782846813640059000,1.817058837890625,-0.27555134892463684,0.007980396039783955,-0.38795000314712524
1782846813650064000,1.82706396484375,-0.23681801557540894,-0.04623372107744217,-0.560886025428772
1782846813660067800,1.83706787109375,-0.2272077351808548,-0.1180005818605423,-0.6761303544044495
1782846813670072800,1.84707275390625,-0.24838988482952118,-0.20035676658153534,-0.7392106652259827
1782846813680077800,1.857077880859375,-0.2893191874027252,-0.266517698764801,-0.7765313982963562
1782846813690081500,1.86708154296875,-0.31868746876716614,-0.2968532145023346,-0.7830824851989746
1782846813700086500,1.87708642578125,-0.3221660852432251,-0.2751694917678833,-0.7408620715141296
1782846813710091500,1.887091552734375,-0.28991687297821045,-0.22068308293819427,-0.6474990248680115
1782846813720095700,1.897095703125,-0.20831868052482605,-0.13328054547309875,-0.5019814968109131
1782846813730100700,1.907100830078125,-0.09686826169490814,-0.023776676505804062,-0.3409122824668884
1782846813740104700,1.917104736328125,0.012309355661273003,0.11840709298849106,-0.16566084325313568
1782846813750109700,1.927109619140625,0.09610415995121002,0.33562037348747253,-0.02035072259604931
1782846813760114700,1.93711474609375,0.13006027042865753,0.5879588723182678,0.05011758580803871
1782846813770118700,1.94711865234375,0.14260055124759674,0.7681014537811279,0.007085162680596113
1782846813780123600,1.95712353515625,0.1879965364933014,0.8005856275558472,-0.1288745254278183
1782846813790128600,1.967128662109375,0.2627815306186676,0.657759964466095,-0.37919333577156067
1782846813800132900,1.9771328125,0.33884087204933167,0.41514331102371216,-0.6237191557884216
1782846813810137900,1.987137939453125,0.37600821256637573,0.13944047689437866,-0.6276452541351318
1782846813820142800,1.997142822265625,0.4431433081626892,-0.17266549170017242,-0.4351697862148285
1782846813830146800,2.007146728515625,0.6071049571037292,-0.4210670590400696,-0.17928645014762878
1782846813840151300,2.0171513671875,0.8101081252098083,-0.49455830454826355,0.06361382454633713
1782846813850156300,2.02715625,0.9603223204612732,-0.42093440890312195,0.27219510078430176
1782846813860160300,2.03716015625,1.0269654989242554,-0.2496207356452942,0.4084317684173584
1782846813870165200,2.047165283203125,1.0226402282714844,-0.09845530241727829,0.45386818051338196
1782846813880169500,2.05716943359375,0.950434148311615,-0.03950809687376022,0.4015194773674011
1782846813890174500,2.067174560546875,0.8374499082565308,-0.1058453693985939,0.30927497148513794
1782846813900179500,2.077179443359375,0.6927845478057861,-0.28557997941970825,0.22405755519866943
1782846813910183400,2.087183349609375,0.5341470837593079,-0.50783771276474,0.16261306405067444
1782846813920188400,2.0971884765625,0.36479032039642334,-0.6702340841293335,0.09755789488554001
1782846813930193400,2.107193359375,0.21321368217468262,-0.7417444586753845,-0.0022691702470183372
1782846813940197000,2.117197021484375,0.11266389489173889,-0.754114031791687,-0.11257916688919067
1782846813950202000,2.1272021484375,0.08016860485076904,-0.7216628789901733,-0.2172161191701889
1782846813960207400,2.137207275390625,0.10794057697057724,-0.6636554598808289,-0.28618720173835754
1782846813970211300,2.14721142578125,0.15582016110420227,-0.5752362012863159,-0.2936427891254425
1782846813980216300,2.15721630859375,0.18558526039123535,-0.45554712414741516,-0.24301078915596008
1782846813990221300,2.16722119140625,0.16754671931266785,-0.3243197798728943,-0.12993551790714264
1782846814000225300,2.177225341796875,0.08956696093082428,-0.19361823797225952,0.01773197390139103
1782846814010230300,2.187230224609375,-0.024172019213438034,-0.11205780506134033,0.1865447461605072
1782846814020234200,2.197234130859375,-0.12636256217956543,-0.1120745837688446,0.3575039803981781
1782846814030239200,2.2072392578125,-0.198078453540802,-0.1547173112630844,0.523466169834137
1782846814040244200,2.217244140625,-0.25398218631744385,-0.21826672554016113,0.6676720976829529
1782846814050248400,2.22724853515625,-0.2895738184452057,-0.26986560225486755,0.797500491142273
1782846814060253400,2.23725341796875,-0.31028416752815247,-0.3141483962535858,0.9297168850898743
1782846814070258400,2.247258544921875,-0.3172556459903717,-0.3376648426055908,1.04164457321167
1782846814080262400,2.257262451171875,-0.3249891996383667,-0.3270111382007599,1.121455192565918
1782846814090267400,2.267267333984375,-0.33457714319229126,-0.28695303201675415,1.1539695262908936
1782846814100272400,2.2772724609375,-0.324026495218277,-0.18412786722183228,1.1028245687484741
1782846814110276400,2.2872763671875,-0.2906230688095093,-0.06223972514271736,0.944979727268219
1782846814120281300,2.29728125,-0.23715530335903168,0.06180019676685333,0.6760848760604858
1782846814130286300,2.307286376953125,-0.17210881412029266,0.15309789776802063,0.3377065658569336
1782846814140290300,2.317290283203125,-0.11275201290845871,0.1935742199420929,-0.0012115600984543562
1782846814150295300,2.32729541015625,-0.06496406346559525,0.17647792398929596,-0.2783980667591095
1782846814160299300,2.33729931640625,-0.04087231308221817,0.14491680264472961,-0.45148754119873047
1782846814170304300,2.34730419921875,-0.0477738119661808,0.13843533396720886,-0.5688657164573669
1782846814180309200,2.357309326171875,-0.08019673079252243,0.19174543023109436,-0.6337477564811707
1782846814190313200,2.367313232421875,-0.11467622220516205,0.3065616190433502,-0.6251919865608215
1782846814200318500,2.377318359375,-0.16276919841766357,0.48690342903137207,-0.4848550856113434
1782846814210323500,2.387323486328125,-0.2445123940706253,0.6438918709754944,-0.21213199198246002
1782846814220327400,2.397327392578125,-0.3488371968269348,0.7177871465682983,0.11516916751861572
1782846814230332400,2.40733251953125,-0.419331431388855,0.6714902520179749,0.4604168236255646
1782846814240337400,2.41733740234375,-0.3704080879688263,0.5450697541236877,0.8210729956626892
1782846814250341400,2.42734130859375,-0.18142567574977875,0.47677183151245117,1.1398353576660156
1782846814260346400,2.437346435546875,0.0671742781996727,0.5627362728118896,1.3275519609451294
1782846814270350300,2.447350341796875,0.2567138373851776,0.7883373498916626,1.2964307069778442
1782846814280355300,2.457355224609375,0.37306496500968933,1.0312879085540771,1.075270414352417
1782846814290360600,2.467360595703125,0.404949426651001,1.18629789352417,0.7872571349143982
1782846814300364300,2.4773642578125,0.34999004006385803,1.1861261129379272,0.49918943643569946
1782846814310369300,2.487369384765625,0.2595691382884979,1.0138274431228638,0.08952654898166656
1782846814320374300,2.497374267578125,0.12634237110614777,0.6843060255050659,-0.43313080072402954
1782846814330378200,2.507378173828125,-0.09609455615282059,0.2948172986507416,-0.8266961574554443
1782846814340383200,2.51738330078125,-0.3006546199321747,-0.05514577403664589,-0.903163492679596
1782846814350388200,2.52738818359375,-0.3251434862613678,-0.40478113293647766,-0.7223355174064636
1782846814360392400,2.537392333984375,-0.18163558840751648,-0.7089570164680481,-0.39509347081184387
1782846814370397400,2.5473974609375,-0.0020535222720354795,-0.8112772703170776,0.08400695025920868
1782846814380402400,2.55740234375,0.09489885717630386,-0.661005973815918,0.676291823387146
1782846814390406400,2.567406494140625,0.13423441350460052,-0.37183257937431335,1.2006210088729858
1782846814400411400,2.577411376953125,0.15519481897354126,-0.1274484097957611,1.3597246408462524
1782846814410415400,2.587415283203125,0.1718870848417282,-0.01717943139374256,1.0565659999847412
1782846814420420400,2.59742041015625,0.1729651391506195,-0.002289697527885437,0.45494621992111206
1782846814430425300,2.60742529296875,0.13900864124298096,-0.023347243666648865,-0.21106256544589996
1782846814440429600,2.6174296875,0.0780067965388298,-0.058859698474407196,-0.7483819723129272
1782846814450434600,2.6274345703125,0.02652270719408989,-0.08867092430591583,-1.086296558380127
1782846814460439600,2.637439453125,0.006523165851831436,-0.16009210050106049,-1.232446312904358
1782846814470443300,2.647443359375,0.013258646242320538,-0.22487784922122955,-1.229109287261963
1782846814480448300,2.6574482421875,0.04215021803975105,-0.2462846040725708,-1.0744831562042236
1782846814490453200,2.667453369140625,0.09670709818601608,-0.20811296999454498,-0.8026156425476074
1782846814500457200,2.677457275390625,0.15590889751911163,-0.10743829607963562,-0.4834451377391815
1782846814510462200,2.687462158203125,0.1963708996772766,0.015922529622912407,-0.18189874291419983
1782846814520467200,2.69746728515625,0.22434954345226288,0.11234893649816513,0.06945972889661789
1782846814530471400,2.707471435546875,0.2365604043006897,0.14599937200546265,0.2588854432106018
1782846814540476400,2.717476318359375,0.2435474693775177,0.14213432371616364,0.3937697410583496
1782846814550481400,2.7274814453125,0.20826005935668945,0.13499832153320312,0.4593483805656433
1782846814560485400,2.7374853515625,0.12819930911064148,0.14009879529476166,0.4742463529109955
1782846814570490400,2.747490478515625,0.03681983798742294,0.14598724246025085,0.43450063467025757
1782846814580494300,2.757494384765625,-0.06475605815649033,0.12199883162975311,0.3499111831188202
1782846814590499300,2.767499267578125,-0.15514643490314484,0.08885873109102249,0.21678821742534637
1782846814600504300,2.77750439453125,-0.23108115792274475,0.06826077401638031,0.04196687042713165
1782846814610508500,2.787508544921875,-0.2826811969280243,0.06015237420797348,-0.14916443824768066
1782846814620513500,2.797513427734375,-0.3027430474758148,0.04503627121448517,-0.3347955346107483
1782846814630518500,2.8075185546875,-0.29056116938591003,0.005733209662139416,-0.511181116104126
1782846814640522200,2.817522216796875,-0.2626760005950928,-0.06797962635755539,-0.688496470451355
1782846814650527200,2.82752734375,-0.23237119615077972,-0.13869448006153107,-0.8570602536201477
1782846814660532200,2.8375322265625,-0.20692548155784607,-0.1931404024362564,-0.9936559200286865
1782846814670536200,2.8475361328125,-0.18459615111351013,-0.23523913323879242,-1.0801928043365479
1782846814680541200,2.857541259765625,-0.16956020891666412,-0.23927675187587738,-1.1045178174972534
1782846814690545400,2.86754541015625,-0.17793309688568115,-0.21171283721923828,-1.061537265777588
1782846814700550400,2.87755029296875,-0.2039758861064911,-0.17607255280017853,-0.9317650198936462
1782846814710555400,2.887555419921875,-0.2427286058664322,-0.13648226857185364,-0.7365297079086304
1782846814720559400,2.897559326171875,-0.29418766498565674,-0.0760604590177536,-0.523193895816803
1782846814730564400,2.907564453125,-0.34024471044540405,0.0002463557757437229,-0.31083619594573975
1782846814740569300,2.9175693359375,-0.38838109374046326,0.07621648162603378,-0.1273161917924881
1782846814750573300,2.9275732421875,-0.44604629278182983,0.13044032454490662,0.0029775728471577168
1782846814760578300,2.937578369140625,-0.5125976204872131,0.18992415070533752,0.09796880185604095
1782846814770583300,2.947583251953125,-0.5467208623886108,0.23693673312664032,0.1758594661951065
1782846814780587500,2.95758740234375,-0.5009205937385559,0.28882309794425964,0.24191251397132874
1782846814790592500,2.967592529296875,-0.38071274757385254,0.4010429382324219,0.29180338978767395
1782846814800597500,2.977597412109375,-0.17362426221370697,0.6105726957321167,0.20184876024723053
1782846814810601200,2.987601318359375,0.11005242168903351,0.7072376608848572,-0.2900221049785614
1782846814820606200,2.997606201171875,0.32212287187576294,0.4619506597518921,-0.7805824875831604
1782846814830610200,3.007610107421875,0.38622143864631653,0.049563318490982056,-0.8435293436050415
1782846814840615400,3.017615478515625,0.36740779876708984,-0.2513858675956726,-0.5539313554763794
1782846814850620400,3.027620361328125,0.3794129192829132,-0.33082935214042664,-0.17495885491371155
1782846814860624600,3.037624755859375,0.448466032743454,-0.22580547630786896,0.12242835760116577
1782846814870629600,3.047629638671875,0.5324103236198425,-0.06511526554822922,0.2904587984085083
1782846814880634600,3.057634521484375,0.5902621746063232,0.05601116269826889,0.35664820671081543
1782846814890638600,3.067638671875,0.5718928575515747,0.0755462497472763,0.3410167396068573
1782846814900643600,3.0776435546875,0.47175824642181396,-0.010921801440417767,0.27124378085136414
1782846814910648600,3.087648681640625,0.33412468433380127,-0.18434599041938782,0.17169032990932465
1782846814920652500,3.097652587890625,0.19124557077884674,-0.4181150496006012,0.1197914406657219
1782846814930657500,3.107657470703125,0.0823533833026886,-0.622714102268219,0.14666114747524261
1782846814940662500,3.11766259765625,0.04788088798522949,-0.7554678916931152,0.22255778312683105
1782846814950666800,3.127666748046875,0.10557679831981659,-0.8238071203231812,0.31535986065864563
1782846814960671700,3.137671630859375,0.2418622076511383,-0.8101909160614014,0.4183368384838104
1782846814970676700,3.1476767578125,0.41583123803138733,-0.7451277375221252,0.5103433132171631
1782846814980680400,3.157680419921875,0.5996990203857422,-0.6482504606246948,0.5909350514411926
1782846814990685400,3.167685546875,0.7492154240608215,-0.5299123525619507,0.6549675464630127
1782846815000689400,3.177689453125,0.8306386470794678,-0.39028364419937134,0.7038277983665466
1782846815010694400,3.1876943359375,0.8335056900978088,-0.22387760877609253,0.7592177987098694
1782846815020699400,3.197699462890625,0.7652547359466553,-0.0767906978726387,0.8376172780990601
1782846815030703600,3.20770361328125,0.6502464413642883,0.009932010434567928,0.9002788066864014
1782846815040708600,3.21770849609375,0.5064901113510132,0.023709608241915703,0.9416792392730713
1782846815050713600,3.227713623046875,0.3272203505039215,0.024777408689260483,0.9859750270843506
1782846815060717600,3.237717529296875,0.14510834217071533,0.06476263701915741,1.0371389389038086
1782846815070722600,3.24772265625,-0.03491191193461418,0.12188618630170822,1.0910561084747314
1782846815080727600,3.2577275390625,-0.19519692659378052,0.12838615477085114,1.119572639465332
1782846815090731500,3.2677314453125,-0.3335755467414856,0.10454633831977844,1.099286675453186
1782846815100736500,3.277736572265625,-0.44911307096481323,0.09250538796186447,1.0103000402450562
1782846815110740700,3.28774072265625,-0.5259034633636475,0.0867367759346962,0.8374992609024048
1782846815120745700,3.297745849609375,-0.5511212348937988,0.08513355255126953,0.5789076685905457
1782846815130750700,3.307750732421875,-0.530705988407135,0.0792170837521553,0.25718629360198975
1782846815140754400,3.31775439453125,-0.48672306537628174,0.07783090323209763,-0.08566347509622574
1782846815150759400,3.327759521484375,-0.4299860894680023,0.08962371945381165,-0.4069144129753113
1782846815160764400,3.337764404296875,-0.3674857020378113,0.09427066892385483,-0.6578409075737
1782846815170768400,3.347768310546875,-0.32545018196105957,0.07608959823846817,-0.8221814632415771
1782846815180773400,3.3577734375,-0.2816294729709625,0.031455278396606445,-0.9017303586006165
1782846815190778400,3.3677783203125,-0.23789159953594208,-0.005700947716832161,-0.9252763390541077
1782846815200782600,3.377782470703125,-0.1959334909915924,0.022606058046221733,-0.9099568128585815
1782846815210787600,3.38778759765625,-0.17095258831977844,0.09367817640304565,-0.8665168881416321
1782846815220792600,3.39779248046875,-0.17155233025550842,0.17952357232570648,-0.7791673541069031
1782846815230796500,3.407796630859375,-0.21909116208553314,0.3110266923904419,-0.6582409143447876
1782846815240801500,3.417801513671875,-0.3245733678340912,0.44414374232292175,-0.5031895041465759
1782846815250806500,3.427806640625,-0.44606712460517883,0.5463345050811768,-0.3039165437221527
1782846815260810500,3.437810546875,-0.5103241205215454,0.563858151435852,-0.07016982138156891
1782846815270815500,3.4478154296875,-0.4998922049999237,0.4689212739467621,0.17846766114234924
1782846815280819700,3.45781982421875,-0.4584970772266388,0.35384583473205566,0.42025285959243774
1782846815290824700,3.46782470703125,-0.4447838068008423,0.2887043058872223,0.6277414560317993
1782846815300829700,3.47782958984375,-0.45804423093795776,0.3772200644016266,0.7225601077079773
1782846815310833400,3.48783349609375,-0.42761415243148804,0.5367082953453064,0.695281445980072
1782846815320838400,3.49783837890625,-0.3202908933162689,0.6255103945732117,0.43062978982925415
1782846815330843400,3.507843505859375,-0.16573850810527802,0.5842563509941101,-0.27659597992897034
1782846815340847600,3.51784765625,-0.11010880768299103,0.30106377601623535,-1.173706293106079
1782846815350852600,3.5278525390625,-0.25321266055107117,0.030605126172304153,-1.7073967456817627
1782846815360857600,3.537857666015625,-0.410621702671051,-0.14392726123332977,-1.5934398174285889
1782846815370861600,3.547861572265625,-0.3370627164840698,-0.2836257815361023,-1.2309008836746216
1782846815380866600,3.557866455078125,-0.0258952509611845,-0.45191332697868347,-0.838525116443634
1782846815390871600,3.56787158203125,0.2961979806423187,-0.595346212387085,-0.3657444715499878
1782846815400875500,3.57787548828125,0.4111908972263336,-0.5613139867782593,0.27400141954421997
1782846815410880500,3.587880615234375,0.32422417402267456,-0.31102269887924194,1.0028407573699951
1782846815420884700,3.597884765625,0.22402888536453247,-0.014828851446509361,1.445580005645752
1782846815430889700,3.6078896484375,0.2073526531457901,0.07046006619930267,1.3347395658493042
1782846815440894700,3.617894775390625,0.2501773536205292,-0.04801624268293381,0.7659529447555542
1782846815450898700,3.627898681640625,0.28883928060531616,-0.18126598000526428,0.03513006493449211
1782846815460903700,3.637903564453125,0.2859819829463959,-0.2463027685880661,-0.5357542037963867
1782846815470908700,3.64790869140625,0.2409268468618393,-0.24917586147785187,-0.8620100617408752
1782846815480912400,3.657912353515625,0.1838206797838211,-0.2214403599500656,-0.9275134205818176
1782846815490917400,3.66791748046875,0.16203542053699493,-0.20286160707473755,-0.7875056266784668
1782846815500922400,3.67792236328125,0.16262558102607727,-0.18225859105587006,-0.5232356190681458
1782846815510926600,3.687926513671875,0.17499291896820068,-0.12041973322629929,-0.17765016853809357
1782846815520931600,3.697931640625,0.20745153725147247,-0.01870589144527912,0.15789614617824554
1782846815530936600,3.7079365234375,0.24261578917503357,0.077702596783638,0.423836886882782
1782846815540940500,3.7179404296875,0.2853044271469116,0.1520780324935913,0.6143693327903748
1782846815550945500,3.727945556640625,0.31676560640335083,0.174890398979187,0.7185826301574707
1782846815560949500,3.737949462890625,0.3090437650680542,0.13527321815490723,0.7563827633857727
1782846815570954500,3.74795458984375,0.2569728493690491,0.06090012192726135,0.7343745231628418
1782846815580959500,3.75795947265625,0.16707304120063782,0.0075980182737112045,0.6713902354240417
1782846815590963700,3.767963623046875,0.04520433023571968,-0.012758981436491013,0.5883569121360779
1782846815600968700,3.77796875,-0.0903249979019165,-0.0052944072522223,0.48384591937065125
1782846815610973700,3.7879736328125,-0.21319536864757538,0.016901236027479172,0.3658750057220459
1782846815620977700,3.797977783203125,-0.3131517767906189,0.04115144908428192,0.252219021320343
1782846815630982700,3.807982666015625,-0.37022969126701355,0.05468517169356346,0.15067873895168304
1782846815640987600,3.817987548828125,-0.3746212422847748,0.05390726402401924,0.05350238084793091
1782846815650991400,3.827991455078125,-0.33136826753616333,0.06930819153785706,-0.03055000677704811
1782846815660996400,3.837996337890625,-0.2657359838485718,0.08850771933794022,-0.1098131388425827
1782846815671001300,3.84800146484375,-0.20290856063365936,0.09239234030246735,-0.1546621322631836
1782846815681005600,3.858005615234375,-0.16012275218963623,0.07946376502513885,-0.20571386814117432
1782846815691010600,3.868010498046875,-0.13408705592155457,0.0283561572432518,-0.28713491559028625
1782846815701015600,3.878015625,-0.1323152482509613,-0.030773742124438286,-0.3958805501461029
1782846815711019500,3.88801953125,-0.14307554066181183,-0.032418038696050644,-0.49088191986083984
1782846815721024500,3.8980244140625,-0.1479233056306839,0.03349865600466728,-0.5150415897369385
1782846815731029500,3.908029541015625,-0.15052568912506104,0.09692443162202835,-0.4751144349575043
1782846815741033500,3.918033447265625,-0.14836160838603973,0.13450616598129272,-0.40049266815185547
1782846815751038500,3.92803857421875,-0.13921140134334564,0.15389297902584076,-0.3049638867378235
1782846815761042700,3.938042724609375,-0.13475807011127472,0.19689930975437164,-0.16587764024734497
1782846815771047700,3.948047607421875,-0.15577998757362366,0.26497289538383484,0.05465473234653473
1782846815781052700,3.958052734375,-0.22976580262184143,0.3489189147949219,0.3597067892551422
1782846815791056600,3.968056640625,-0.3374702036380768,0.43551865220069885,0.674138069152832
1782846815801061600,3.9780615234375,-0.43901413679122925,0.5635653138160706,0.9014703035354614
1782846815811066600,3.988066650390625,-0.4219559133052826,0.7141456007957458,0.823854923248291
1782846815821070600,3.998070556640625,-0.2399941086769104,0.8002592325210571,0.2679416239261627
1782846815831075600,4.00807568359375,-0.016024958342313766,0.6434403657913208,-0.47177714109420776
1782846815841080000,4.018080078125,0.17763690650463104,0.2348470240831375,-0.7428150177001953
1782846815851084000,4.028083984375,0.3783130943775177,-0.18130937218666077,-0.41180509328842163
1782846815861089000,4.038089111328125,0.5896634459495544,-0.47282111644744873,0.18294082581996918
1782846815871094000,4.048093994140625,0.8009409308433533,-0.513418972492218,0.8066645264625549
1782846815881098000,4.058097900390625,0.995959997177124,-0.3066314458847046,1.2899913787841797
1782846815891103000,4.06810302734375,1.14115571975708,0.006552000530064106,1.546463966369629
1782846815901107200,4.078107177734375,1.1725958585739136,0.2881235182285309,1.6019266843795776
1782846815911112200,4.0881123046875,1.028216004371643,0.4526425302028656,1.482828140258789
1782846815921117200,4.0981171875,0.7426093220710754,0.422126442193985,1.2408159971237183
1782846815931121200,4.10812109375,0.400576651096344,0.22079065442085266,0.948656439781189
1782846815941126100,4.118126220703125,0.08817560970783234,-0.06131027638912201,0.6892533898353577
1782846815951131100,4.128131103515625,-0.1321992725133896,-0.35886844992637634,0.5152655243873596
1782846815961135000,4.138135009765625,-0.2505991458892822,-0.6489362716674805,0.40352222323417664
1782846815971140000,4.14814013671875,-0.26372259855270386,-0.9256481528282166,0.2805732786655426
1782846815981145000,4.15814501953125,-0.2000243216753006,-1.1883468627929688,0.10416256636381149
1782846815991149000,4.168149169921875,-0.07262542843818665,-1.3297115564346313,-0.04151544347405434
1782846816001154000,4.178154052734375,0.07564659416675568,-1.3292157649993896,-0.1425592452287674
1782846816011159000,4.188158935546875,0.2180941253900528,-1.2149837017059326,-0.22387945652008057
1782846816021163000,4.1981630859375,0.3284075856208801,-1.0107719898223877,-0.28698548674583435
1782846816031168000,4.20816796875,0.37754958868026733,-0.7731739282608032,-0.2938888967037201
1782846816041172000,4.218171875,0.3391915559768677,-0.5228804349899292,-0.21861916780471802
1782846816051177000,4.228177001953125,0.24267436563968658,-0.28414860367774963,-0.11848009377717972
1782846816061182000,4.238181884765625,0.12352427840232849,-0.10090210288763046,-0.01570950448513031
1782846816071186200,4.248186279296875,0.03825526311993599,-0.021947555243968964,0.11577587574720383
1782846816081191200,4.258191162109375,-0.011848650872707367,-0.010859749279916286,0.27472904324531555
1782846816091196200,4.268196044921875,-0.048269446939229965,0.019834043458104134,0.4460168778896332
1782846816101200100,4.2782001953125,-0.06847857683897018,0.11570251733064651,0.6099389791488647
1782846816111205000,4.288205078125,-0.09518400579690933,0.20086701214313507,0.7142438888549805
1782846816121210000,4.298210205078125,-0.11003246158361435,0.265036940574646,0.6876662969589233
1782846816131214000,4.308214111328125,-0.10635506361722946,0.3323590159416199,0.5268102288246155
1782846816141219000,4.318218994140625,-0.0943673774600029,0.38575512170791626,0.246873140335083
1782846816151224000,4.32822412109375,-0.08397146314382553,0.3863178491592407,-0.12061672657728195
1782846816161228000,4.33822802734375,-0.0822926014661789,0.3379031717777252,-0.5108596086502075
1782846816171233000,4.34823291015625,-0.080722376704216,0.23040765523910522,-0.8629351854324341
1782846816181238000,4.358238037109375,-0.07644880563020706,0.04774543642997742,-1.1012674570083618
1782846816191242000,4.368241943359375,-0.0826256200671196,-0.15245996415615082,-1.2102670669555664
1782846816201247000,4.3782470703125,-0.12455309182405472,-0.24519842863082886,-1.2481036186218262
1782846816211251000,4.3882509765625,-0.18456605076789856,-0.21440695226192474,-1.2230892181396484
1782846816221256000,4.398255859375,-0.2442682534456253,-0.11038121581077576,-1.1247035264968872
1782846816231261000,4.408260986328125,-0.301641047000885,0.051852691918611526,-0.9543404579162598
1782846816241265200,4.41826513671875,-0.34979793429374695,0.26904386281967163,-0.7356200814247131
1782846816251270100,4.428270263671875,-0.3336038887500763,0.5097054839134216,-0.4732765555381775
1782846816261275100,4.438275146484375,-0.27058523893356323,0.6520320177078247,-0.15223968029022217
1782846816271279000,4.448279052734375,-0.18049132823944092,0.6225053668022156,0.20312991738319397
1782846816281284000,4.4582841796875,-0.13942858576774597,0.49636444449424744,0.5319709181785583
1782846816291289000,4.4682890625,-0.17876693606376648,0.4535568058490753,0.7590711712837219
1782846816301293000,4.47829296875,-0.2775270640850067,0.6124691963195801,0.7874082922935486
1782846816311298000,4.488298095703125,-0.3861826956272125,0.8117194771766663,0.5094794631004333
1782846816321303000,4.498302978515625,-0.45187172293663025,0.8834953904151917,-0.1517096608877182
1782846816331307000,4.50830712890625,-0.4808703064918518,0.8864147067070007,-1.2196372747421265
1782846816341312300,4.518312255859375,-0.5794706344604492,0.6536037921905518,-2.1458046436309814
1782846816351317200,4.528317138671875,-0.6727825403213501,0.23211254179477692,-2.282459259033203
1782846816361321000,4.538321044921875,-0.6533584594726562,-0.30308374762535095,-1.8637254238128662
1782846816371326000,4.548325927734375,-0.469807893037796,-0.7871730327606201,-1.3965266942977905
1782846816381330000,4.558329833984375,-0.20535121858119965,-1.034651517868042,-0.9428932666778564
1782846816391335000,4.5683349609375,-0.005683165974915028,-0.962763786315918,-0.39300665259361267
1782846816401340000,4.57833984375,0.1706404685974121,-0.6646119952201843,0.13261692225933075
1782846816411344100,4.58834423828125,0.40953323245048523,-0.38522082567214966,0.42024824023246765
1782846816421349000,4.59834912109375,0.6576791405677795,-0.25351980328559875,0.3679674565792084
1782846816431354000,4.60835400390625,0.8065739870071411,-0.2630273401737213,0.05131787061691284
1782846816441358000,4.618358154296875,0.8260664939880371,-0.2904459238052368,-0.34322038292884827
1782846816451363000,4.628363037109375,0.7340285181999207,-0.2830856740474701,-0.6661598086357117
1782846816461368000,4.6383681640625,0.5814363360404968,-0.2558300793170929,-0.8185408711433411
1782846816471372000,4.6483720703125,0.4664129316806793,-0.23070062696933746,-0.7947207093238831
1782846816481377000,4.658376953125,0.43834346532821655,-0.20218908786773682,-0.6420693397521973
1782846816491382000,4.668382080078125,0.47970595955848694,-0.16058899462223053,-0.4220857322216034
1782846816501386200,4.67838623046875,0.5619675517082214,-0.06566087901592255,-0.1796504706144333
1782846816511391200,4.68839111328125,0.6590014100074768,0.0364372618496418,0.06072106584906578
1782846816521395000,4.69839501953125,0.7349758148193359,0.12375539541244507,0.26769447326660156
1782846816531400000,4.70839990234375,0.7715772986412048,0.175633043050766,0.4423990845680237
1782846816541405000,4.718405029296875,0.7605614066123962,0.17967331409454346,0.5652456879615784
1782846816551409000,4.728408935546875,0.6912875771522522,0.16208180785179138,0.6195477843284607
1782846816561414000,4.738413818359375,0.5555651187896729,0.12731103599071503,0.6088382005691528
1782846816571419000,4.7484189453125,0.3852754533290863,0.09873910248279572,0.549350380897522
1782846816581423000,4.758423095703125,0.2144794762134552,0.07705564796924591,0.4506502151489258
1782846816591428000,4.768427978515625,0.06940006464719772,0.052825748920440674,0.32468581199645996
1782846816601433000,4.77843310546875,-0.04233045503497124,-0.0058151958510279655,0.17157721519470215
1782846816611437000,4.78843701171875,-0.1289537250995636,-0.07591845095157623,0.0004754635156132281
1782846816621442000,4.798442138671875,-0.21372799575328827,-0.11340883374214172,-0.16283543407917023
1782846816631447000,4.808447021484375,-0.2961755394935608,-0.11889234930276871,-0.30528977513313293
1782846816641451000,4.818450927734375,-0.3599641025066376,-0.09280961006879807,-0.42225581407546997
1782846816651456000,4.8284560546875,-0.40426263213157654,-0.060298338532447815,-0.49921658635139465
1782846816661460200,4.838460205078125,-0.43850237131118774,-0.03546968474984169,-0.5603047609329224
1782846816671465200,4.84846533203125,-0.45005542039871216,-0.0494094118475914,-0.5940695405006409
1782846816681470200,4.85847021484375,-0.43829837441444397,-0.11010099202394485,-0.6023918986320496
1782846816691474000,4.868473876953125,-0.4227769374847412,-0.17892339825630188,-0.5811532735824585
1782846816701479000,4.87847900390625,-0.4051228165626526,-0.2097713202238083,-0.5178062319755554
1782846816711484000,4.88848388671875,-0.418857216835022,-0.23451295495033264,-0.4115775227546692
1782846816721488000,4.89848779296875,-0.47553327679634094,-0.24166540801525116,-0.271158903837204
1782846816731493000,4.9084931640625,-0.5660851001739502,-0.2057793140411377,-0.11965958774089813
1782846816741498000,4.918498046875,-0.6702807545661926,-0.11913123726844788,0.03903898224234581
1782846816751502000,4.928502197265625,-0.769939124584198,0.008274790830910206,0.17966043949127197
1782846816761507000,4.938507080078125,-0.8537439703941345,0.14893417060375214,0.3422160744667053
1782846816771512000,4.948511962890625,-0.8830617666244507,0.282558798789978,0.5396172404289246
1782846816781516000,4.95851611328125,-0.841414213180542,0.4020897448062897,0.7468553781509399
1782846816791521000,4.96852099609375,-0.7313784956932068,0.4582624137401581,0.9421640634536743
1782846816801526000,4.978526123046875,-0.5733742117881775,0.4029757082462311,1.0117332935333252
1782846816811530200,4.9885302734375,-0.3875909447669983,0.2639864683151245,0.8061498999595642
1782846816821535200,4.99853515625,-0.20383471250534058,0.1058703288435936,0.40212753415107727
1782846816831539200,5.008539306640625,-0.0638006329536438,-0.02838834933936596,0.029624659568071365
1782846816841543400,5.01854345703125,0.05622617155313492,-0.1088445782661438,-0.16117273271083832
1782846816851548700,5.028548583984375,0.21635952591896057,-0.10110688209533691,-0.12894684076309204
1782846816861552400,5.038552490234375,0.4412107467651367,-0.006504482589662075,0.06785225123167038
1782846816871557400,5.048557373046875,0.7029470801353455,0.14355099201202393,0.3610124886035919
1782846816881562400,5.058562255859375,0.923763632774353,0.31202951073646545,0.6856659054756165
1782846816891566600,5.068566650390625,1.0291333198547363,0.5303311944007874,0.9417950510978699
1782846816901571600,5.078571533203125,1.0178197622299194,0.7122679948806763,1.0996606349945068
1782846816911576600,5.08857666015625,0.9038064479827881,0.7536649703979492,1.1551783084869385
1782846816921580500,5.09858056640625,0.7123706936836243,0.6823194026947021,1.0835726261138916
1782846816931585500,5.10858544921875,0.5428752303123474,0.5595320463180542,0.9118496179580688
1782846816941590500,5.118590576171875,0.4460381865501404,0.3910979926586151,0.739992618560791
1782846816951594500,5.128594482421875,0.43806421756744385,0.196690171957016,0.6106995344161987
1782846816961599500,5.138599609375,0.49588996171951294,0.005553512368351221,0.4921287000179291
1782846816971603700,5.148603759765625,0.5899539589881897,-0.15500454604625702,0.37643110752105713
1782846816981608700,5.158608642578125,0.685482382774353,-0.2811712622642517,0.2645546495914459
1782846816991613700,5.16861376953125,0.7507064342498779,-0.32400941848754883,0.15256597101688385
1782846817001617700,5.17861767578125,0.7522374987602234,-0.2683224380016327,0.08841095864772797
1782846817011622700,5.18862255859375,0.6864567995071411,-0.12118865549564362,0.06869644671678543
1782846817021627600,5.198627685546875,0.5655551552772522,0.07901421189308167,0.0820828303694725
1782846817031631400,5.20863134765625,0.3944701552391052,0.23136386275291443,0.10490403324365616
1782846817041636400,5.21863623046875,0.18817023932933807,0.3261129856109619,0.1001279205083847
1782846817051641300,5.228641357421875,-0.006258697248995304,0.3711477220058441,0.03940954804420471
1782846817061645600,5.2386455078125,-0.15621304512023926,0.35310110449790955,-0.03364069387316704
1782846817071650600,5.248650634765625,-0.2551524341106415,0.2689696252346039,-0.07500376552343369
1782846817081655600,5.258655517578125,-0.3014725148677826,0.17432035505771637,-0.07897960394620895
1782846817091659500,5.268659423828125,-0.3141959607601166,0.10932071506977081,-0.04714400693774223
1782846817101664500,5.27866455078125,-0.31565991044044495,0.046761997044086456,-0.004221841227263212
1782846817111669500,5.28866943359375,-0.32321903109550476,0.004119732417166233,0.0351119227707386
1782846817121673500,5.298673583984375,-0.35343846678733826,0.016806498169898987,0.047399748116731644
1782846817131678500,5.308678466796875,-0.40486037731170654,0.06613002717494965,-0.004518707748502493
1782846817141682700,5.3186826171875,-0.4344156086444855,0.11919032037258148,-0.14949694275856018
1782846817151687700,5.328687744140625,-0.4194352328777313,0.13027872145175934,-0.3600541353225708
1782846817161692700,5.338692626953125,-0.3794151246547699,0.09384003281593323,-0.5999063849449158
1782846817171696600,5.348696533203125,-0.34912532567977905,0.034759461879730225,-0.8248825669288635
1782846817181701600,5.35870166015625,-0.33983221650123596,-0.0279619749635458,-1.0075812339782715
1782846817191706600,5.36870654296875,-0.33686256408691406,-0.106542207300663,-1.1142325401306152
1782846817201710300,5.37871044921875,-0.34763264656066895,-0.17724913358688354,-1.1475363969802856
1782846817211715600,5.388715576171875,-0.3846556544303894,-0.19758284091949463,-1.1112803220748901
1782846817221720600,5.398720458984375,-0.43846508860588074,-0.1829223930835724,-1.0131601095199585
1782846817231724500,5.408724609375,-0.483367919921875,-0.19107766449451447,-0.8744007349014282
1782846817241729500,5.4187294921875,-0.5272440314292908,-0.19456958770751953,-0.6733009219169617
1782846817251734500,5.428734619140625,-0.5679057836532593,-0.14861223101615906,-0.39735743403434753
1782846817261738500,5.438738525390625,-0.5848291516304016,-0.08597361296415329,-0.09412723779678345
1782846817271743500,5.448743408203125,-0.5658836960792542,-0.039895594120025635,0.18391236662864685
1782846817281748500,5.45874853515625,-0.49762681126594543,-0.0417889803647995,0.44701650738716125
1782846817291752700,5.468752685546875,-0.3801910877227783,-0.06842018663883209,0.7102066278457642
1782846817301757700,5.4787578125,-0.2677673399448395,-0.0879904255270958,0.9122825264930725
1782846817311762700,5.4887626953125,-0.16140632331371307,-0.03223728761076927,1.0159413814544678
1782846817321766700,5.4987666015625,-0.07055579125881195,0.10196073353290558,1.0979033708572388
1782846817331771600,5.508771728515625,-0.025757810100913048,0.2800571024417877,1.179378867149353
1782846817341775600,5.518775634765625,-0.0012524677440524101,0.45462143421173096,1.1240168809890747
1782846817351780600,5.528780517578125,0.04941294342279434,0.6327253580093384,0.14377495646476746
1782846817361785600,5.53878564453125,-0.18338648974895477,0.6100336313247681,-1.0966389179229736
1782846817371789600,5.54878955078125,-0.5324304699897766,0.37110286951065063,-1.5582526922225952
1782846817381794600,5.558794677734375,-0.6305972337722778,-0.05449557304382324,-1.4417392015457153
1782846817391799600,5.568799560546875,-0.400409072637558,-0.5136221051216125,-1.2064671516418457
1782846817401803500,5.578803466796875,-0.01650109328329563,-0.823954164981842,-0.9323869943618774
1782846817411808500,5.58880859375,0.24522100389003754,-0.8924524188041687,-0.49269574880599976
1782846817421813500,5.5988134765625,0.2992112636566162,-0.775813639163971,0.15204648673534393
1782846817431817500,5.6088173828125,0.26454272866249084,-0.4735405147075653,0.706853449344635
1782846817441822500,5.618822509765625,0.2790077030658722,-0.16242870688438416,0.7832387685775757
1782846817451827500,5.628827392578125,0.32817137241363525,-0.06368102878332138,0.3969033658504486
1782846817461831700,5.638831787109375,0.3653046190738678,-0.170584574341774,-0.23682641983032227
1782846817471836700,5.648836669921875,0.36178064346313477,-0.33319732546806335,-0.8728786706924438
1782846817481841700,5.658841552734375,0.3365897834300995,-0.4106130003929138,-1.330417275428772
1782846817491845600,5.668845703125,0.2801664471626282,-0.40706923604011536,-1.4890246391296387
1782846817501850600,5.6788505859375,0.2481648474931717,-0.33695751428604126,-1.424757480621338
1782846817511854600,5.6888544921875,0.2542615532875061,-0.2416897714138031,-1.2340993881225586
1782846817521859600,5.698859619140625,0.30514416098594666,-0.10770640522241592,-0.9233385324478149
1782846817531864600,5.708864501953125,0.3686678111553192,0.05462411046028137,-0.5358145236968994
1782846817541868500,5.71886865234375,0.41511866450309753,0.18873770534992218,-0.14439699053764343
1782846817551873500,5.72887353515625,0.42717790603637695,0.25641316175460815,0.20012718439102173
1782846817561878500,5.73887841796875,0.4071195125579834,0.23402608931064606,0.4976755380630493
1782846817571882500,5.748882568359375,0.35968658328056335,0.12373214215040207,0.7262582182884216
1782846817581887500,5.758887451171875,0.26534971594810486,-0.042314350605010986,0.8585488796234131
1782846817591892500,5.768892578125,0.1258097141981125,-0.20061497390270233,0.9130150079727173
1782846817601896400,5.778896484375,-0.04051695019006729,-0.27910658717155457,0.900626540184021
1782846817611901400,5.7889013671875,-0.21715503931045532,-0.2872436046600342,0.8390610218048096
1782846817621906400,5.798906494140625,-0.3797982931137085,-0.25267231464385986,0.7230944633483887
1782846817631910700,5.80891064453125,-0.5063978433609009,-0.17353369295597076,0.5794609785079956
1782846817641915600,5.81891552734375,-0.597768247127533,-0.07696080952882767,0.4206702709197998
1782846817651920600,5.828920654296875,-0.6436426639556885,0.013959172181785107,0.2721653878688812
1782846817661924600,5.838924560546875,-0.6557546854019165,0.056031789630651474,0.13068920373916626
1782846817671929600,5.8489296875,-0.6566360592842102,0.06973668932914734,-0.010927512310445309
1782846817681934600,5.8589345703125,-0.6564924716949463,0.05290417745709419,-0.1600288450717926
1782846817691938600,5.8689384765625,-0.6476343870162964,0.028613414615392685,-0.31034737825393677
1782846817701943600,5.878943603515625,-0.6131094694137573,-0.027300983667373657,-0.4390465021133423
1782846817711947500,5.888947509765625,-0.5614053010940552,-0.08134870231151581,-0.550110936164856
1782846817721952500,5.898952392578125,-0.4955725073814392,-0.0962674617767334,-0.6008553504943848
1782846817731957500,5.90895751953125,-0.4331146478652954,-0.08453444391489029,-0.5795071721076965
1782846817741961500,5.91896142578125,-0.38765209913253784,-0.07696440815925598,-0.4773840308189392
1782846817751966500,5.928966552734375,-0.38973668217658997,-0.05667837709188461,-0.29630357027053833
1782846817761971500,5.938971435546875,-0.4552765190601349,-0.005886571481823921,-0.0775589719414711
1782846817771975400,5.948975341796875,-0.5167933106422424,0.03225988149642944,0.14254218339920044
1782846817781980400,5.95898046875,-0.5129759311676025,0.04299108684062958,0.3469320833683014
1782846817791985400,5.9689853515625,-0.40680909156799316,0.08316594362258911,0.5942437648773193
1782846817801989600,5.97898974609375,-0.24908071756362915,0.19167351722717285,0.8367791771888733
1782846817811994600,5.98899462890625,-0.14572125673294067,0.36453649401664734,0.9437938332557678
1782846817821999600,5.99899951171875,-0.10081636160612106,0.5986560583114624,0.8737322092056274
1782846817832003600,6.009003662109375,-0.046364717185497284,0.7844220399856567,0.6946209073066711
1782846817842009600,6.019009521484375,0.013016849756240845,0.8735116720199585,0.5126023888587952
1782846817852014600,6.0290146484375,0.04612273350358009,0.7755017280578613,0.46248140931129456
1782846817862018600,6.0390185546875,0.07740342617034912,0.48494502902030945,0.607208788394928
1782846817872023600,6.0490234375,0.11386579275131226,0.17645248770713806,0.8292049169540405
1782846817882027500,6.059027587890625,0.12737973034381866,0.004604026675224304,0.9103854894638062
1782846817892032500,6.069032470703125,0.14747591316699982,-0.06444408744573593,0.8276557922363281
1782846817902037500,6.07903759765625,0.1759299337863922,-0.05769617110490799,0.6048141717910767
1782846817912041700,6.089041748046875,0.1396806836128235,-0.018997570499777794,0.29113465547561646
1782846817922046700,6.099046630859375,0.030424505472183228,0.052298180758953094,-0.04439248889684677
1782846817932051700,6.1090517578125,-0.08401814848184586,0.07316430658102036,-0.3280576765537262
1782846817942055700,6.1190556640625,-0.14716435968875885,-0.007930812425911427,-0.5126834511756897
1782846817952060700,6.129060791015625,-0.18029966950416565,-0.09266681224107742,-0.6472193598747253
1782846817962065700,6.139065673828125,-0.20384706556797028,-0.15958619117736816,-0.6998772025108337
1782846817972069400,6.1490693359375,-0.19845376908779144,-0.20618484914302826,-0.6560271978378296
1782846817982074600,6.15907470703125,-0.1564892679452896,-0.26696670055389404,-0.5868198871612549
1782846817992079600,6.16907958984375,-0.07795458287000656,-0.3704787492752075,-0.5183073878288269
1782846818002083600,6.17908349609375,0.03914541378617287,-0.5436090230941772,-0.49009013175964355
1782846818012088600,6.189088623046875,0.1882585883140564,-0.6709780097007751,-0.5140708684921265
1782846818022093600,6.199093505859375,0.3584398925304413,-0.7424511313438416,-0.584719717502594
1782846818032097500,6.20909765625,0.5293068885803223,-0.7509030103683472,-0.7030278444290161
1782846818042102500,6.2191025390625,0.6652825474739075,-0.6855836510658264,-0.805412232875824
1782846818052107500,6.229107421875,0.7233090400695801,-0.5110253691673279,-0.8143513798713684
1782846818062111700,6.23911181640625,0.6998828053474426,-0.2691355049610138,-0.6946699619293213
1782846818072116700,6.24911669921875,0.6282036304473877,-0.05670567601919174,-0.49500152468681335
1782846818082121700,6.259121826171875,0.5319734811782837,0.07112925499677658,-0.25220590829849243
1782846818092125700,6.269125732421875,0.425617516040802,0.14247733354568481,-0.008024904876947403
1782846818102130700,6.279130615234375,0.3191502094268799,0.1853150874376297,0.21499937772750854
1782846818112134700,6.289134765625,0.22131921350955963,0.23043109476566315,0.3790811002254486
1782846818122139600,6.2991396484375,0.13129717111587524,0.24825243651866913,0.4724981188774109
1782846818132144600,6.30914453125,0.04608616605401039,0.23729965090751648,0.5038848519325256
1782846818142148600,6.319148681640625,-0.03631283715367317,0.1943034529685974,0.4876134991645813
1782846818152153600,6.329153564453125,-0.12802307307720184,0.1405443400144577,0.41049015522003174
1782846818162158600,6.33915869140625,-0.21575665473937988,0.08637751638889313,0.25914695858955383
1782846818172162600,6.34916259765625,-0.30950823426246643,0.03893090412020683,0.06647518277168274
1782846818182167600,6.35916748046875,-0.3828631341457367,-0.014729929156601429,-0.14995965361595154
1782846818192172500,6.369172607421875,-0.43050485849380493,-0.09371648728847504,-0.34966859221458435
1782846818202176500,6.379176513671875,-0.46221911907196045,-0.15343546867370605,-0.5098788142204285
1782846818212181500,6.389181396484375,-0.4825473129749298,-0.17447523772716522,-0.6171250939369202
1782846818222186500,6.3991865234375,-0.461727499961853,-0.1639600247144699,-0.6578453779220581
1782846818232190700,6.409190673828125,-0.40669551491737366,-0.11404313892126083,-0.6428797245025635
1782846818242195700,6.41919580078125,-0.33516591787338257,-0.02147725038230419,-0.5908807516098022
1782846818252200700,6.42920068359375,-0.2654450833797455,0.08216924965381622,-0.4804217517375946
1782846818262204700,6.43920458984375,-0.20204001665115356,0.16486600041389465,-0.32386037707328796
1782846818272209700,6.449209716796875,-0.16103145480155945,0.22084477543830872,-0.1233297809958458
1782846818282214700,6.459214599609375,-0.167565256357193,0.2667959928512573,0.0972883477807045
1782846818292218600,6.469218505859375,-0.19580583274364471,0.31996744871139526,0.3048347234725952
1782846818302223600,6.4792236328125,-0.20736368000507355,0.34845420718193054,0.49163365364074707
1782846818312227600,6.4892275390625,-0.1589524894952774,0.3825436234474182,0.6267527937889099
1782846818322232600,6.499232666015625,-0.06800048053264618,0.4160799980163574,0.6368550062179565
1782846818332237600,6.509237548828125,0.016357354819774628,0.41548043489456177,0.4880327582359314
1782846818342241500,6.519241455078125,0.07598099857568741,0.3449503481388092,0.21791020035743713
1782846818352246500,6.52924658203125,0.13550640642642975,0.2544335424900055,-0.2940692603588104
1782846818362251500,6.53925146484375,0.17475713789463043,0.22930531203746796,-1.282935380935669
1782846818372255500,6.54925537109375,-0.037139035761356354,0.18811233341693878,-2.0905256271362305
1782846818382260500,6.559260498046875,-0.39430540800094604,-0.02414853312075138,-2.145637035369873
1782846818392265500,6.569265380859375,-0.5918752551078796,-0.4347643554210663,-1.7720750570297241
1782846818402269700,6.579269775390625,-0.5075068473815918,-0.8101036548614502,-1.3200618028640747
1782846818412274700,6.589274658203125,-0.29744458198547363,-0.9718477129936218,-0.7846884727478027
1782846818422279700,6.59927978515625,-0.13724452257156372,-0.8787297606468201,-0.12069688737392426
1782846818432283600,6.60928369140625,-0.04522348940372467,-0.5383498668670654,0.5554764270782471
1782846818442288600,6.61928857421875,0.0417148731648922,-0.13981500267982483,1.0469779968261719
1782846818452293600,6.629293701171875,0.11479692161083221,0.14113342761993408,1.1041243076324463
1782846818462297600,6.639297607421875,0.16447047889232635,0.1802304983139038,0.7397181987762451
1782846818472302600,6.649302490234375,0.19300465285778046,-0.010998576879501343,0.1603301614522934
1782846818482306600,6.659306640625,0.18998542428016663,-0.30064132809638977,-0.3896869122982025
1782846818492311600,6.6693115234375,0.1563105285167694,-0.49888288974761963,-0.7740566730499268
1782846818502316800,6.67931689453125,0.10396050661802292,-0.5116868615150452,-0.9558467268943787
1782846818512320500,6.689320556640625,0.061037641018629074,-0.3639906048774719,-0.9159164428710938
1782846818522325500,6.699325439453125,0.08662156760692596,-0.1567540466785431,-0.6955153346061707
1782846818532330500,6.70933056640625,0.17049308121204376,0.027464265003800392,-0.3739515542984009
1782846818542334500,6.71933447265625,0.277567058801651,0.17186352610588074,-0.05404280871152878
1782846818552339500,6.72933935546875,0.3904130458831787,0.2832261025905609,0.21601898968219757
1782846818562344400,6.739344482421875,0.4866708815097809,0.3522818684577942,0.4376389980316162
1782846818572348700,6.7493486328125,0.5517944693565369,0.3689044117927551,0.6160305738449097
1782846818582353700,6.759353759765625,0.5580907464027405,0.3185887634754181,0.7484663724899292
1782846818592358700,6.769358642578125,0.4998718798160553,0.23712387681007385,0.8186436295509338
1782846818602362600,6.779362548828125,0.3985322117805481,0.16385366022586823,0.8268765211105347
1782846818612367600,6.78936767578125,0.25761598348617554,0.11103326082229614,0.7966132760047913
1782846818622372600,6.79937255859375,0.10813357681035995,0.07015666365623474,0.7246528267860413
1782846818632376600,6.80937646484375,-0.025497330352663994,0.029324283823370934,0.6044635772705078
1782846818642381600,6.819381591796875,-0.13521051406860352,-0.019953250885009766,0.43248090147972107
1782846818652386600,6.829386474609375,-0.22499893605709076,-0.07563503086566925,0.223891019821167
1782846818662390800,6.839390869140625,-0.2913188338279724,-0.12502282857894897,-0.026227489113807678
1782846818672395800,6.849395751953125,-0.34491345286369324,-0.15372183918952942,-0.26616916060447693
1782846818682400800,6.85940087890625,-0.36721688508987427,-0.17042039334774017,-0.4513675272464752
1782846818692404500,6.869404541015625,-0.361174076795578,-0.2055886834859848,-0.5585764646530151
1782846818702409500,6.879409423828125,-0.32572340965270996,-0.24550653994083405,-0.5957310199737549
1782846818712414500,6.88941455078125,-0.2833242416381836,-0.2767493426799774,-0.5780354142189026
1782846818722418400,6.89941845703125,-0.23009243607521057,-0.2914941906929016,-0.5018290877342224
1782846818732423400,6.90942333984375,-0.1687902957201004,-0.28601494431495667,-0.37172940373420715
1782846818742427600,6.919427734375,-0.11404900997877121,-0.27425336837768555,-0.21383562684059143
1782846818752432600,6.9294326171875,-0.08050112426280975,-0.2707793414592743,-0.0858127623796463
1782846818762437600,6.939437744140625,-0.06501084566116333,-0.24169017374515533,-0.015744995325803757
1782846818772441600,6.949441650390625,-0.056666869670152664,-0.1784442961215973,0.005615613888949156
1782846818782446600,6.959446533203125,-0.057752374559640884,-0.08311724662780762,0.007128289435058832
1782846818792451600,6.96945166015625,-0.09739486128091812,0.0049881115555763245,-0.009645896963775158
1782846818802455600,6.97945556640625,-0.22477971017360687,0.13990518450737,-0.04020513594150543
1782846818812460500,6.98946044921875,-0.3897745907306671,0.34719720482826233,-0.12265442311763763
1782846818822465500,6.999465576171875,-0.5079259872436523,0.46094879508018494,-0.22037377953529358
1782846818832469800,7.0094697265625,-0.5454807281494141,0.4631401002407074,-0.3799545466899872
1782846818842474800,7.019474853515625,-0.4745822548866272,0.4202352464199066,-0.659289538860321
1782846818852479700,7.029479736328125,-0.3311632573604584,0.34589043259620667,-0.9488058686256409
1782846818862483500,7.0394833984375,-0.23234081268310547,0.14905433356761932,-0.9561322331428528
1782846818872488400,7.049488525390625,-0.20363368093967438,-0.16849711537361145,-0.6041944622993469
1782846818882493400,7.059493408203125,-0.16837288439273834,-0.41195958852767944,-0.10564139485359192
1782846818892497700,7.06949755859375,-0.09706410020589828,-0.422262042760849,0.3101861774921417
1782846818902502700,7.079502685546875,0.005713417194783688,-0.24865348637104034,0.5673434138298035
1782846818912507600,7.089507568359375,0.11515706777572632,-0.04839668422937393,0.6441542506217957
1782846818922511600,7.09951171875,0.16500744223594666,0.012213402427732944,0.5811963677406311
1782846818932516600,7.1095166015625,0.14250947535037994,-0.05970299616456032,0.47696131467819214
1782846818942520600,7.1195205078125,0.07414773106575012,-0.2037656158208847,0.36065971851348877
1782846818952525600,7.129525634765625,-0.00044325680937618017,-0.3382442593574524,0.24442517757415771
1782846818962530600,7.139530517578125,-0.06282807141542435,-0.38982677459716797,0.12164095044136047
1782846818972534800,7.14953466796875,-0.08757513016462326,-0.38149455189704895,-0.028841041028499603
1782846818982539800,7.159539794921875,-0.06981930136680603,-0.36268383264541626,-0.20367544889450073
1782846818992544800,7.169544677734375,-0.0231636893004179,-0.3329850137233734,-0.4049379229545593
1782846819002548700,7.179548828125,0.05495934188365936,-0.29405438899993896,-0.598915159702301
1782846819012553700,7.1895537109375,0.15166506171226501,-0.3184984624385834,-0.7800905704498291
1782846819022558700,7.199558837890625,0.2576354444026947,-0.3669610917568207,-0.9082701206207275
1782846819032562400,7.2095625,0.3579895794391632,-0.4023789167404175,-0.9491913914680481
1782846819042567400,7.2195673828125,0.43536773324012756,-0.4386426508426666,-0.8768482208251953
1782846819052572400,7.229572509765625,0.48708978295326233,-0.49351200461387634,-0.680310845375061
1782846819062576600,7.23957666015625,0.4971379041671753,-0.4926709830760956,-0.411742240190506
1782846819072581600,7.24958154296875,0.4882239103317261,-0.3720903992652893,-0.11143065243959427
1782846819082586600,7.259586669921875,0.46769440174102783,-0.19937320053577423,0.1950957179069519
1782846819092590600,7.269590576171875,0.43430182337760925,-0.023197650909423828,0.4768933057785034
1782846819102595600,7.279595703125,0.38871464133262634,0.11062805354595184,0.7182854413986206
1782846819112600600,7.2896005859375,0.3343108296394348,0.19274190068244934,0.8942676186561584
1782846819122604500,7.2996044921875,0.27559879422187805,0.23262247443199158,0.9868776798248291
1782846819132609500,7.309609619140625,0.22439433634281158,0.2154179811477661,1.0067837238311768
1782846819142614500,7.319614501953125,0.17941221594810486,0.16117924451828003,0.9777874946594238
1782846819152618800,7.32961865234375,0.14052237570285797,0.08857354521751404,0.909964382648468
1782846819162623700,7.339623779296875,0.11100601404905319,0.04881042614579201,0.8086540102958679
1782846819172627700,7.349627685546875,0.10448259860277176,0.052281592041254044,0.7045076489448547
1782846819182632700,7.3596328125,0.1248461976647377,0.09679339826107025,0.5954091548919678
1782846819192637700,7.3696376953125,0.17524117231369019,0.18296223878860474,0.5098332166671753
1782846819202641400,7.379641357421875,0.24996042251586914,0.30215972661972046,0.44979438185691833
1782846819212646400,7.389646484375,0.33276107907295227,0.4280625581741333,0.4306830167770386
1782846819222651400,7.3996513671875,0.4041396677494049,0.5393323302268982,0.4744267761707306
1782846819232655600,7.409655517578125,0.4455379545688629,0.6238464713096619,0.5416179895401001
1782846819242660600,7.41966064453125,0.4488256275653839,0.6562702059745789,0.6104156970977783
1782846819252665600,7.42966552734375,0.4007628560066223,0.6216529011726379,0.6610220074653625
1782846819262669600,7.439669677734375,0.29789453744888306,0.6001888513565063,0.7148484587669373
1782846819272674600,7.449674560546875,0.1617705076932907,0.6275728940963745,0.7863835096359253
1782846819282679600,7.459679443359375,0.04949881508946419,0.7464576959609985,0.905566930770874
1782846819292683500,7.46968359375,-0.03392978385090828,0.9075825214385986,1.062580943107605
1782846819302688500,7.4796884765625,-0.0729895681142807,1.0456976890563965,1.2295864820480347
1782846819312693500,7.489693603515625,-0.022007694467902184,1.0772290229797363,1.3467785120010376
1782846819322697700,7.49969775390625,0.07605735212564468,0.9425315856933594,1.3255658149719238
1782846819332702700,7.50970263671875,0.18862636387348175,0.7348120212554932,1.0955735445022583
1782846819342707700,7.519707763671875,0.280083566904068,0.5462157726287842,0.6993135213851929
1782846819352711700,7.529711669921875,0.3106546998023987,0.3936980366706848,0.23210574686527252
1782846819362716700,7.539716552734375,0.2685823440551758,0.4107710123062134,-0.35889044404029846
1782846819372721700,7.5497216796875,0.04706889018416405,0.5798521041870117,-0.9713497757911682
1782846819382725400,7.559725341796875,-0.3520689308643341,0.6683763861656189,-1.2624406814575195
1782846819392730600,7.569730712890625,-0.7543493509292603,0.5302964448928833,-1.2190154790878296
1782846819402734600,7.579734619140625,-0.9433890581130981,0.22688522934913635,-1.0865956544876099
1782846819412739600,7.589739501953125,-0.8235626220703125,-0.06406985223293304,-1.0096495151519775
1782846819422744600,7.59974462890625,-0.5473073124885559,-0.30335596203804016,-0.8569092154502869
1782846819432748500,7.60974853515625,-0.2912294864654541,-0.4460207521915436,-0.6247134208679199
1782846819442753500,7.61975341796875,-0.13415466248989105,-0.44038257002830505,-0.4399675726890564
1782846819452758500,7.629758544921875,0.17236840724945068,-0.3438321053981781,-0.4193926155567169
1782846819462762500,7.639762451171875,0.39525339007377625,-0.2769217789173126,-0.5674678087234497
1782846819472767500,7.649767578125,0.5146937966346741,-0.30021247267723083,-0.7345899343490601
1782846819482772500,7.6597724609375,0.4473930299282074,-0.25081589818000793,-0.8435851335525513
1782846819492776700,7.669776611328125,0.22307032346725464,-0.474719762802124,-0.8915629982948303
1782846819502781700,7.67978173828125,0.013347982428967953,-0.477898508310318,-0.8043042421340942
1782846819512786700,7.68978662109375,-0.14658544957637787,-0.39155277609825134,-0.711432695388794
1782846819522790700,7.699790771484375,-0.179789736866951,-0.24824674427509308,-0.6346835494041443
1782846819532795600,7.709795654296875,-0.06708694249391556,0.07242374867200851,-0.4917577803134918
1782846819542800600,7.719800537109375,0.10523449629545212,0.36695417761802673,-0.3203889727592468
1782846819552804600,7.7298046875,0.2761768400669098,0.554576575756073,-0.12275037914514542
1782846819562809600,7.7398095703125,0.38774704933166504,0.6020694971084595,0.10339221358299255
1782846819572814600,7.749814697265625,0.44028326869010925,0.5361055731773376,0.2923618257045746
1782846819582818600,7.759818603515625,0.46884089708328247,0.4216248095035553,0.45114853978157043
1782846819592823600,7.769823486328125,0.45632001757621765,0.3076566159725189,0.5366267561912537
1782846819602828500,7.77982861328125,0.4231729805469513,0.18892651796340942,0.5491806268692017
1782846819612832500,7.78983251953125,0.3619597852230072,0.1654147505760193,0.5218076705932617
1782846819622837500,7.79983740234375,0.24474714696407318,0.13538867235183716,0.45401427149772644
1782846819632841500,7.809841552734375,0.08928082883358002,0.05542052537202835,0.348194420337677
1782846819642846500,7.819846435546875,-0.05822446942329407,-0.03910065442323685,0.21878159046173096
1782846819652851500,7.8298515625,-0.15100112557411194,-0.13354194164276123,0.08012843877077103
1782846819662855700,7.839855712890625,-0.17496903240680695,-0.19845755398273468,-0.031323518604040146
1782846819672860700,7.849860595703125,-0.15603476762771606,-0.22305896878242493,-0.1027965396642685
1782846819682865700,7.85986572265625,-0.10713432729244232,-0.21970205008983612,-0.14283423125743866
1782846819692869600,7.86986962890625,-0.05267282947897911,-0.1843929886817932,-0.1484706997871399
1782846819702874600,7.87987451171875,-0.005271489266306162,-0.18006083369255066,-0.14517050981521606
1782846819712879600,7.889879638671875,0.03061079978942871,-0.20038866996765137,-0.14218644797801971
1782846819722883600,7.899883544921875,0.03451632335782051,-0.2661956548690796,-0.14706961810588837
1782846819732888600,7.909888671875,0.03644518926739693,-0.36595579981803894,-0.14181692898273468
1782846819742893600,7.9198935546875,0.045814190059900284,-0.4289984107017517,-0.09984178841114044
1782846819752897500,7.9298974609375,0.05721794813871384,-0.45431289076805115,-0.008166101761162281
1782846819762902500,7.939902587890625,0.0825643241405487,-0.44502565264701843,0.11117413640022278
1782846819772907500,7.949907470703125,0.11256781220436096,-0.3784174621105194,0.23916760087013245
1782846819782911500,7.959911376953125,0.12910258769989014,-0.23619641363620758,0.38850727677345276
1782846819792916500,7.96991650390625,0.11140356212854385,-0.10593254864215851,0.533659040927887
1782846819802921500,7.97992138671875,0.07308493554592133,0.01698325388133526,0.6625786423683167
1782846819812925700,7.98992578125,0.06121978163719177,0.1118863970041275,0.7768346667289734
1782846819822930700,7.9999306640625,0.046311937272548676,0.06181444227695465,0.8323215842247009
1782846819832935700,8.009935791015625,0.0462016798555851,-0.04347682744264603,0.8258898258209229
1782846819842939400,8.019939453125,0.07543642818927765,-0.15687929093837738,0.794721245765686
1782846819852944400,8.0299443359375,0.11520205438137054,-0.2642821669578552,0.7705831527709961
1782846819862948400,8.0399482421875,0.14151541888713837,-0.28991296887397766,0.7753094434738159
1782846819872953300,8.049953369140624,0.12992902100086212,-0.2350720912218094,0.823215126991272
1782846819882958300,8.059958251953125,0.07740616798400879,-0.1616082489490509,0.8809585571289062
1782846819892962600,8.069962646484376,0.0039605009369552135,-0.08447153121232986,0.8732821345329285
1782846819902967600,8.079967529296875,-0.04548800736665726,-0.030923884361982346,0.7703163027763367
1782846819912972500,8.08997265625,-0.054617200046777725,-0.02465207315981388,0.6016187071800232
1782846819922976500,8.0999765625,-0.050295691937208176,-0.01493047084659338,0.44740065932273865
1782846819932981500,8.1099814453125,-0.031659990549087524,0.014732087962329388,0.2941349148750305
1782846819942986500,8.119986572265624,0.006011487916111946,0.07746417820453644,0.12543004751205444
1782846819952990500,8.129990478515625,0.03900114819407463,0.2024824172258377,-0.04585886001586914
1782846819962995500,8.139995361328126,0.04851848632097244,0.3681640625,-0.18446093797683716
1782846819973000400,8.15000048828125,0.032883886247873306,0.460857093334198,-0.28202024102211
1782846819983004700,8.160004638671875,0.01948046311736107,0.613425076007843,-0.301445335149765
1782846819993009700,8.170009765625,0.03375648334622383,0.6425389051437378,-0.28456589579582214
1782846820003014700,8.1800146484375,0.052611395716667175,0.4956250786781311,-0.27058297395706177
1782846820013018400,8.190018310546876,0.0829349011182785,0.27853548526763916,-0.2783738970756531
1782846820023023400,8.2000234375,0.13695764541625977,0.05600122734904289,-0.32745328545570374
1782846820033028400,8.2100283203125,0.18038107454776764,-0.15078803896903992,-0.38178113102912903
1782846820043032300,8.2200322265625,0.21165776252746582,-0.31805291771888733,-0.3995835781097412
1782846820053037300,8.230037353515625,0.22834879159927368,-0.42070460319519043,-0.3641138970851898
1782846820063042300,8.240042236328126,0.24294504523277283,-0.4716982841491699,-0.2801753282546997
1782846820073046500,8.250046630859375,0.24503196775913239,-0.4604218006134033,-0.1602034717798233
1782846820083051500,8.260051513671876,0.2326812893152237,-0.4394717514514923,-0.0041776541620492935
1782846820093055500,8.270055419921874,0.2172844260931015,-0.38607633113861084,0.18388262391090393
1782846820103060500,8.280060546875,0.19893071055412292,-0.31251609325408936,0.38808104395866394
1782846820113065500,8.2900654296875,0.1810133457183838,-0.1951001137495041,0.588211715221405
1782846820123069400,8.3000693359375,0.17093594372272491,-0.03976378217339516,0.7498506903648376
1782846820133074400,8.310074462890626,0.1335391402244568,0.07489602267742157,0.8400236964225769
1782846820143079400,8.320079345703125,0.07828119397163391,0.17977769672870636,0.853005051612854
1782846820153083600,8.330083740234375,0.03197634592652321,0.19773200154304504,0.7933281660079956
1782846820163088600,8.340088623046874,-0.03432145342230797,0.10275381803512573,0.6592087149620056
1782846820173093600,8.35009375,-0.08702868968248367,-0.04923265054821968,0.4872119724750519
1782846820183097300,8.360097412109376,-0.1020587757229805,-0.1762467920780182,0.31718456745147705
1782846820193102300,8.370102294921875,-0.07283535599708557,-0.2470281571149826,0.1521647572517395
1782846820203107300,8.380107421875,-0.011970670893788338,-0.24176840484142303,0.021391574293375015
1782846820213111300,8.390111328125,0.06941782683134079,-0.15986721217632294,-0.05559218302369118
1782846820223116300,8.4001162109375,0.15567202866077423,-0.041135236620903015,-0.0645635798573494
1782846820233121300,8.410121337890626,0.2374417930841446,0.054237015545368195,-0.011198350228369236
1782846820243125500,8.42012548828125,0.2874724864959717,0.08994095772504807,0.07527528703212738
1782846820253130500,8.430130615234376,0.2810175120830536,0.06772918999195099,0.1762034296989441
1782846820263135500,8.440135498046875,0.2407745122909546,0.009471213445067406,0.2719142436981201
1782846820273139500,8.450139404296875,0.19096414744853973,-0.051452986896038055,0.34357261657714844
1782846820283144400,8.46014453125,0.16305102407932281,-0.0958516076207161,0.3831306993961334
1782846820293149400,8.4701494140625,0.14372971653938293,-0.11291994154453278,0.4293779134750366
1782846820303153400,8.4801533203125,0.10685771703720093,-0.051968444138765335,0.4735610783100128
1782846820313158400,8.490158447265625,0.04660133644938469,0.043639831244945526,0.5005711913108826
1782846820323163400,8.500163330078125,-0.03295873478055,0.1489875614643097,0.5082865953445435
1782846820333167600,8.510167724609374,-0.12957875430583954,0.2876836657524109,0.48772943019866943
1782846820343172600,8.520172607421875,-0.2237822264432907,0.43504807353019714,0.4296940863132477
1782846820353176300,8.53017626953125,-0.2807502746582031,0.6398151516914368,0.3883810341358185
1782846820363181300,8.540181396484375,-0.2579469382762909,0.7708187103271484,0.3481699526309967
1782846820373186600,8.5501865234375,-0.1193603053689003,0.6857788562774658,0.27087172865867615
1782846820383190300,8.560190185546874,0.07078646868467331,0.5166600942611694,0.22939087450504303
1782846820393195300,8.5701953125,0.18391114473342896,0.4449648857116699,0.28808748722076416
1782846820403200500,8.580200439453124,0.14037512242794037,0.48616984486579895,0.3024725317955017
1782846820413204500,8.59020458984375,0.04824885353446007,0.4215409457683563,-0.34453943371772766
1782846820423209500,8.60020947265625,-0.17800292372703552,0.0571906641125679,-1.3658102750778198
1782846820433214500,8.61021435546875,-0.4037666916847229,-0.45678165555000305,-2.0221166610717773
1782846820443218400,8.620218505859375,-0.5381876230239868,-0.8834245800971985,-2.0930047035217285
1782846820453223400,8.630223388671874,-0.5092613101005554,-1.1932260990142822,-1.8579843044281006
1782846820463228400,8.640228515625,-0.385697603225708,-1.3435876369476318,-1.4269154071807861
