time,seconds_elapsed,z,y,x
1782846168722535000,0.063534912109375,-0.9939117431640625,-0.022857666015625,0.0013885498046875
1782846168732540000,0.073539794921875,-0.9815826416015625,-0.022674560546875,0.005401611328125
1782846168742545000,0.083544921875,-0.9880828857421875,-0.021697998046875,0.004425048828125
1782846168752550000,0.0935498046875,-0.9976806640625,-0.0218353271484375,0.0009918212890625
1782846168762555000,0.103554931640625,-0.990203857421875,-0.0228271484375,0.003570556640625
1782846168772560000,0.113559814453125,-0.9850006103515625,-0.0223388671875,0.005706787109375
1782846168782564900,0.12356494140625,-0.993072509765625,-0.0207061767578125,0.0030975341796875
1782846168792569900,0.13356982421875,-0.99530029296875,-0.02252197265625,0.0023193359375
1782846168802574800,0.143574951171875,-0.9880828857421875,-0.0236358642578125,0.0047454833984375
1782846168812579800,0.153579833984375,-0.987091064453125,-0.01995849609375,0.0037078857421875
1782846168822584800,0.163584716796875,-0.9933013916015625,-0.02276611328125,0.0005035400390625
1782846168832589800,0.17358984375,-0.993560791015625,-0.02154541015625,0.0014190673828125
1782846168842594800,0.1835947265625,-0.98748779296875,-0.022674560546875,0.002410888671875
1782846168852599800,0.193599853515625,-0.986968994140625,-0.0232391357421875,0.000823974609375
1782846168862604800,0.203604736328125,-0.9943389892578125,-0.0215301513671875,0.00244140625
1782846168872609800,0.21360986328125,-0.991302490234375,-0.021728515625,0.0019073486328125
1782846168882614800,0.22361474609375,-0.988250732421875,-0.0226898193359375,0.0039825439453125
1782846168892619800,0.233619873046875,-0.9910430908203125,-0.0218048095703125,0.0041046142578125
1782846168902624800,0.243624755859375,-0.9919281005859375,-0.019622802734375,0.003448486328125
1782846168912629800,0.253629638671875,-0.9912261962890625,-0.02130126953125,0.0037994384765625
1782846168922634800,0.263634765625,-0.99017333984375,-0.021881103515625,0.00286865234375
1782846168932639700,0.2736396484375,-0.991424560546875,-0.02117919921875,0.0017242431640625
1782846168942644700,0.283644775390625,-0.9916229248046875,-0.021484375,0.0015411376953125
1782846168952649700,0.293649658203125,-0.9896087646484375,-0.021392822265625,0.0022125244140625
1782846168962654700,0.30365478515625,-0.9895172119140625,-0.021026611328125,0.0020294189453125
1782846168972659700,0.31365966796875,-0.989776611328125,-0.02178955078125,0.0019989013671875
1782846168982664700,0.323664794921875,-0.9905853271484375,-0.023040771484375,0.0020294189453125
1782846168992669700,0.333669677734375,-0.9895782470703125,-0.0225067138671875,0.0032501220703125
1782846169002675000,0.343675048828125,-0.990234375,-0.0214996337890625,0.003204345703125
1782846169012680000,0.353679931640625,-0.990966796875,-0.02099609375,0.001495361328125
1782846169022685000,0.363684814453125,-0.9898834228515625,-0.021636962890625,0.0021820068359375
1782846169032690000,0.37368994140625,-0.9907684326171875,-0.021697998046875,0.002899169921875
1782846169042695000,0.38369482421875,-0.99200439453125,-0.020751953125,0.0019683837890625
1782846169052700000,0.393699951171875,-0.9904937744140625,-0.0224151611328125,0.0028533935546875
1782846169062705000,0.403704833984375,-0.9903106689453125,-0.0225372314453125,0.0030059814453125
1782846169072710000,0.4137099609375,-0.9908447265625,-0.0213165283203125,0.00091552734375
1782846169082715000,0.42371484375,-0.98992919921875,-0.0209197998046875,0.002685546875
1782846169092719900,0.433719970703125,-0.9898834228515625,-0.0214996337890625,0.0023651123046875
1782846169102724900,0.443724853515625,-0.99066162109375,-0.0212249755859375,0.0036468505859375
1782846169112729900,0.453729736328125,-0.9899444580078125,-0.0212249755859375,0.0033416748046875
1782846169122734800,0.46373486328125,-0.9897918701171875,-0.0223846435546875,0.002716064453125
1782846169132739800,0.47373974609375,-0.9897613525390625,-0.0228271484375,0.0014190673828125
1782846169142744800,0.483744873046875,-0.990386962890625,-0.0206146240234375,0.0018463134765625
1782846169152749800,0.493749755859375,-0.9901275634765625,-0.0222015380859375,0.0031890869140625
1782846169162754800,0.5037548828125,-0.9910736083984375,-0.0210418701171875,0.0019683837890625
1782846169172759800,0.513759765625,-0.99176025390625,-0.022064208984375,0.0031890869140625
1782846169182764800,0.523764892578125,-0.992034912109375,-0.021240234375,0.0034027099609375
1782846169192769800,0.533769775390625,-0.9921112060546875,-0.0216522216796875,0.0035400390625
1782846169202774800,0.54377490234375,-0.9912567138671875,-0.021331787109375,0.0025787353515625
1782846169212779800,0.55377978515625,-0.9912109375,-0.0216217041015625,0.00225830078125
1782846169222784800,0.56378466796875,-0.99102783203125,-0.021453857421875,0.0023651123046875
1782846169232789800,0.573789794921875,-0.990325927734375,-0.02227783203125,0.003173828125
1782846169242794800,0.583794677734375,-0.9908294677734375,-0.0209808349609375,0.0023193359375
1782846169252799700,0.5937998046875,-0.9902496337890625,-0.0227813720703125,0.00323486328125
1782846169262804700,0.6038046875,-0.9903106689453125,-0.0219879150390625,0.0023345947265625
1782846169272809700,0.613809814453125,-0.990081787109375,-0.02178955078125,0.00238037109375
1782846169282814700,0.623814697265625,-0.991119384765625,-0.02069091796875,0.0024871826171875
1782846169292819700,0.63381982421875,-0.99163818359375,-0.0200958251953125,0.002593994140625
1782846169302824700,0.64382470703125,-0.9911651611328125,-0.02130126953125,0.002593994140625
1782846169312829700,0.65382958984375,-0.9895477294921875,-0.0227203369140625,0.00250244140625
1782846169322835000,0.6638349609375,-0.9905548095703125,-0.0210723876953125,0.0011444091796875
1782846169332840000,0.67383984375,-0.9897003173828125,-0.0199432373046875,0.000823974609375
1782846169342845000,0.683844970703125,-0.9900970458984375,-0.0198211669921875,0.003936767578125
1782846169352850000,0.693849853515625,-0.990631103515625,-0.0206756591796875,0.0033721923828125
1782846169362855000,0.70385498046875,-0.9901123046875,-0.020416259765625,0.002410888671875
1782846169372860000,0.71385986328125,-0.9910430908203125,-0.022064208984375,0.0016632080078125
1782846169382865000,0.723864990234375,-0.990631103515625,-0.0215606689453125,0.0032958984375
1782846169392870000,0.733869873046875,-0.9903411865234375,-0.0217437744140625,0.00225830078125
1782846169402875000,0.743875,-0.990081787109375,-0.021392822265625,0.0016937255859375
1782846169412880000,0.7538798828125,-0.9902801513671875,-0.0198822021484375,0.0023345947265625
1782846169422884900,0.763884765625,-0.9914093017578125,-0.02191162109375,0.0016937255859375
1782846169432889900,0.773889892578125,-0.9912567138671875,-0.0216827392578125,0.0019683837890625
1782846169442894800,0.783894775390625,-0.99127197265625,-0.0224761962890625,0.00115966796875
1782846169452900000,0.793900146484375,-0.9909210205078125,-0.023406982421875,0.0032958984375
1782846169462905000,0.803905029296875,-0.9896697998046875,-0.021575927734375,0.003387451171875
1782846169472910000,0.81391015625,-0.9909210205078125,-0.0214080810546875,0.00213623046875
1782846169482915000,0.8239150390625,-0.991180419921875,-0.0217742919921875,0.0026092529296875
1782846169492920000,0.833920166015625,-0.9920806884765625,-0.021575927734375,0.00274658203125
1782846169502925000,0.843925048828125,-0.9911651611328125,-0.022125244140625,0.0025177001953125
1782846169512930000,0.853929931640625,-0.988525390625,-0.02239990234375,0.003021240234375
1782846169522935000,0.86393505859375,-0.9904022216796875,-0.0215606689453125,0.003753662109375
1782846169532940000,0.87393994140625,-0.9912872314453125,-0.0226593017578125,0.0037689208984375
1782846169542945000,0.883945068359375,-0.99041748046875,-0.02264404296875,0.003021240234375
1782846169552950000,0.893949951171875,-0.99053955078125,-0.020965576171875,0.002227783203125
1782846169562955300,0.903955322265625,-0.9912109375,-0.021514892578125,0.002685546875
1782846169572960300,0.913960205078125,-0.991302490234375,-0.023101806640625,0.0026702880859375
1782846169582965200,0.92396533203125,-0.990936279296875,-0.0213623046875,0.002899169921875
1782846169592970200,0.93397021484375,-0.9900970458984375,-0.0212554931640625,0.002777099609375
1782846169602975200,0.943975341796875,-0.9906005859375,-0.021270751953125,0.0026092529296875
1782846169612980200,0.953980224609375,-0.991790771484375,-0.0210723876953125,0.002532958984375
1782846169622985200,0.963985107421875,-0.9904937744140625,-0.0199432373046875,0.00250244140625
1782846169632990200,0.973990234375,-0.991424560546875,-0.0213165283203125,0.0023345947265625
1782846169642995200,0.9839951171875,-0.9902801513671875,-0.0213775634765625,0.003143310546875
1782846169653000200,0.994000244140625,-0.99151611328125,-0.022491455078125,0.0030059814453125
1782846169663005200,1.004005126953125,-0.9895477294921875,-0.0223846435546875,0.0031890869140625
1782846169673010200,1.01401025390625,-0.9895172119140625,-0.0209808349609375,0.002197265625
1782846169683015200,1.02401513671875,-0.9904632568359375,-0.0211944580078125,0.001800537109375
1782846169693020400,1.0340205078125,-0.9909210205078125,-0.021759033203125,0.0040283203125
1782846169703025400,1.044025390625,-0.9908905029296875,-0.02178955078125,0.00262451171875
1782846169713030400,1.054030517578125,-0.9917144775390625,-0.0207366943359375,0.00299072265625
1782846169723035400,1.064035400390625,-0.9915924072265625,-0.02239990234375,0.003509521484375
1782846169733040400,1.074040283203125,-0.9897613525390625,-0.02191162109375,0.002288818359375
1782846169743045400,1.08404541015625,-0.9913482666015625,-0.0216522216796875,0.0017547607421875
1782846169753050400,1.09405029296875,-0.988800048828125,-0.02142333984375,0.0025634765625
1782846169763055400,1.104055419921875,-0.990081787109375,-0.0207977294921875,0.0012359619140625
1782846169773060400,1.114060302734375,-0.9906158447265625,-0.0215911865234375,0.00152587890625
1782846169783065300,1.1240654296875,-0.9896240234375,-0.0224151611328125,0.0014495849609375
1782846169793070300,1.1340703125,-0.98822021484375,-0.0207977294921875,0.002960205078125
1782846169803075300,1.144075439453125,-0.99005126953125,-0.02178955078125,0.0028839111328125
1782846169813080300,1.154080322265625,-0.99127197265625,-0.02252197265625,0.0018310546875
1782846169823085300,1.164085205078125,-0.989532470703125,-0.021881103515625,0.0028076171875
1782846169833090300,1.17409033203125,-0.9912109375,-0.02154541015625,0.0042724609375
1782846169843095300,1.18409521484375,-0.99066162109375,-0.0208740234375,0.0025787353515625
1782846169853100300,1.194100341796875,-0.99053955078125,-0.0222625732421875,0.0010223388671875
1782846169863105300,1.204105224609375,-0.99102783203125,-0.020172119140625,0.0034027099609375
1782846169873110300,1.2141103515625,-0.990997314453125,-0.02105712890625,0.0024261474609375
1782846169883115300,1.224115234375,-0.992156982421875,-0.021728515625,0.0035247802734375
1782846169893120300,1.234120361328125,-0.9909210205078125,-0.0220794677734375,0.00390625
1782846169903125200,1.244125244140625,-0.990631103515625,-0.0213775634765625,0.0027313232421875
1782846169913130200,1.254130126953125,-0.98876953125,-0.0211944580078125,0.00238037109375
1782846169923135200,1.26413525390625,-0.99090576171875,-0.0226898193359375,0.003326416015625
1782846169933140200,1.27414013671875,-0.991241455078125,-0.02294921875,0.00390625
1782846169943145200,1.284145263671875,-0.9906768798828125,-0.021514892578125,0.0029296875
1782846169953150200,1.294150146484375,-0.989501953125,-0.021759033203125,0.0034637451171875
1782846169963155200,1.3041552734375,-0.990234375,-0.020294189453125,0.001251220703125
1782846169973160200,1.31416015625,-0.9909515380859375,-0.0217742919921875,0.0021209716796875
1782846169983165200,1.324165283203125,-0.989990234375,-0.021636962890625,0.003662109375
1782846169993170200,1.334170166015625,-0.9901275634765625,-0.021636962890625,0.0014801025390625
1782846170003175200,1.344175048828125,-0.9892730712890625,-0.020904541015625,0.0029754638671875
1782846170013180200,1.35418017578125,-0.9896697998046875,-0.02093505859375,0.0026092529296875
1782846170023185200,1.36418505859375,-0.9911346435546875,-0.021270751953125,0.0017852783203125
1782846170033190100,1.374190185546875,-0.990478515625,-0.021240234375,0.0024871826171875
1782846170043195100,1.384195068359375,-0.9906463623046875,-0.0215301513671875,0.00360107421875
1782846170053200100,1.3942001953125,-0.9897918701171875,-0.0216217041015625,0.0004119873046875
1782846170063205000,1.404205078125,-0.9909210205078125,-0.0207977294921875,0.0033721923828125
1782846170073210000,1.414210205078125,-0.989837646484375,-0.0217437744140625,0.003570556640625
1782846170083215400,1.42421533203125,-0.99090576171875,-0.0220184326171875,0.00299072265625
1782846170093220400,1.434220458984375,-0.9896087646484375,-0.020172119140625,0.0037994384765625
1782846170103225300,1.444225341796875,-0.9909210205078125,-0.020416259765625,0.003662109375
1782846170113230300,1.454230224609375,-0.9911956787109375,-0.0211181640625,0.00262451171875
1782846170123235300,1.4642353515625,-0.990203857421875,-0.0236053466796875,0.0016326904296875
1782846170133240300,1.474240234375,-0.991912841796875,-0.02130126953125,0.003265380859375
1782846170143245300,1.484245361328125,-0.9908294677734375,-0.0205841064453125,0.0034942626953125
1782846170153250300,1.494250244140625,-0.989990234375,-0.0214080810546875,0.003631591796875
1782846170163255300,1.50425537109375,-0.9892120361328125,-0.021209716796875,0.001861572265625
1782846170173260300,1.51426025390625,-0.9906005859375,-0.02056884765625,0.0021514892578125
1782846170183265300,1.524265380859375,-0.99102783203125,-0.021392822265625,0.00323486328125
1782846170193270300,1.534270263671875,-0.9910430908203125,-0.0223236083984375,0.003570556640625
1782846170203275300,1.544275146484375,-0.98974609375,-0.0228424072265625,0.0028076171875
1782846170213280300,1.5542802734375,-0.990325927734375,-0.0218658447265625,0.0023345947265625
1782846170223285200,1.56428515625,-0.9893341064453125,-0.0194091796875,0.0018463134765625
1782846170233290200,1.574290283203125,-0.99139404296875,-0.0218505859375,0.001312255859375
1782846170243295200,1.584295166015625,-0.990570068359375,-0.0223541259765625,0.0025787353515625
1782846170253300200,1.59430029296875,-0.990478515625,-0.01953125,0.0031585693359375
1782846170263305200,1.60430517578125,-0.99078369140625,-0.0206298828125,0.0041046142578125
1782846170273310200,1.614310302734375,-0.99078369140625,-0.023040771484375,0.0037689208984375
1782846170283315200,1.624315185546875,-0.9908905029296875,-0.0214385986328125,0.0022735595703125
1782846170293320200,1.6343203125,-0.9891510009765625,-0.0211334228515625,0.0030975341796875
1782846170303325200,1.6443251953125,-0.990478515625,-0.0210723876953125,0.0016937255859375
1782846170313330200,1.654330078125,-0.990692138671875,-0.021881103515625,0.00335693359375
1782846170323335200,1.664335205078125,-0.9901885986328125,-0.0224609375,0.0024566650390625
1782846170333340200,1.674340087890625,-0.9913482666015625,-0.022674560546875,0.0007171630859375
1782846170343345200,1.68434521484375,-0.9905242919921875,-0.02191162109375,0.00244140625
1782846170353350100,1.69435009765625,-0.9893951416015625,-0.0225982666015625,0.0015869140625
1782846170363355100,1.704355224609375,-0.9902191162109375,-0.02020263671875,0.0038604736328125
1782846170373360000,1.714360107421875,-0.98968505859375,-0.0204010009765625,0.0043182373046875
1782846170383365000,1.724365234375,-0.990081787109375,-0.0206451416015625,0.0016937255859375
1782846170393370000,1.7343701171875,-0.98992919921875,-0.02117919921875,0.0029449462890625
1782846170403375000,1.744375,-0.991973876953125,-0.0205230712890625,0.002288818359375
1782846170413380000,1.754380126953125,-0.991180419921875,-0.02264404296875,0.0032806396484375
1782846170423385000,1.764385009765625,-0.9907684326171875,-0.021026611328125,0.0028533935546875
1782846170433391400,1.774391357421875,-0.989532470703125,-0.020660400390625,0.0022125244140625
1782846170443395000,1.78439501953125,-0.9903411865234375,-0.0227813720703125,0.0023040771484375
1782846170453399300,1.7943994140625,-0.99151611328125,-0.0220794677734375,0.0013275146484375
1782846170463405300,1.8044052734375,-0.9903717041015625,-0.0223846435546875,0.0031280517578125
1782846170473410300,1.814410400390625,-0.9919586181640625,-0.0204925537109375,0.00189208984375
1782846170483415300,1.824415283203125,-0.9907073974609375,-0.02191162109375,0.0034942626953125
1782846170493420300,1.834420166015625,-0.991241455078125,-0.02215576171875,0.0048065185546875
1782846170503425300,1.84442529296875,-0.989898681640625,-0.0222320556640625,0.0023651123046875
1782846170513430500,1.854430419921875,-0.9908447265625,-0.0226287841796875,0.0017242431640625
1782846170523435500,1.864435546875,-0.9910430908203125,-0.0223541259765625,0.0014495849609375
1782846170533440500,1.8744404296875,-0.990234375,-0.0206146240234375,0.003265380859375
1782846170543445500,1.884445556640625,-0.990386962890625,-0.0215301513671875,0.0025482177734375
1782846170553450500,1.894450439453125,-0.989044189453125,-0.0207672119140625,0.0019989013671875
1782846170563455500,1.90445556640625,-0.9913330078125,-0.0216217041015625,0.002777099609375
1782846170573460500,1.91446044921875,-0.99053955078125,-0.0213165283203125,0.0021209716796875
1782846170583465500,1.924465576171875,-0.989654541015625,-0.02081298828125,0.002410888671875
1782846170593470500,1.934470458984375,-0.9898529052734375,-0.0220184326171875,0.0024871826171875
1782846170603475500,1.944475341796875,-0.989166259765625,-0.021942138671875,0.003143310546875
1782846170613480400,1.95448046875,-0.990325927734375,-0.023101806640625,0.0043182373046875
1782846170623485400,1.9644853515625,-0.990692138671875,-0.02056884765625,0.0028076171875
1782846170633490700,1.97449072265625,-0.989227294921875,-0.021881103515625,0.0011749267578125
1782846170643495700,1.98449560546875,-0.990386962890625,-0.021575927734375,0.001861572265625
1782846170653500700,1.994500732421875,-0.9918060302734375,-0.0217742919921875,0.0024261474609375
1782846170663505700,2.004505615234375,-0.9915313720703125,-0.02166748046875,0.0052642822265625
1782846170673510700,2.0145107421875,-0.9918060302734375,-0.0198516845703125,0.0032196044921875
1782846170683515600,2.024515625,-0.9919586181640625,-0.021636962890625,0.0030975341796875
1782846170693520600,2.034520751953125,-0.990966796875,-0.0211639404296875,0.0025177001953125
1782846170703525600,2.044525634765625,-0.9908294677734375,-0.0216522216796875,0.002410888671875
1782846170713530600,2.054530517578125,-0.9915618896484375,-0.0212860107421875,0.000274658203125
1782846170723535600,2.06453564453125,-0.990509033203125,-0.0208282470703125,0.0017242431640625
1782846170733540600,2.07454052734375,-0.991180419921875,-0.0215606689453125,0.0009002685546875
1782846170743545600,2.084545654296875,-0.990692138671875,-0.0221099853515625,0.0017547607421875
1782846170753550600,2.094550537109375,-0.991790771484375,-0.0212554931640625,0.0026702880859375
1782846170763555600,2.1045556640625,-0.99053955078125,-0.0209503173828125,0.0024261474609375
1782846170773560600,2.114560546875,-0.98895263671875,-0.0214385986328125,0.0019989013671875
1782846170783565600,2.124565673828125,-0.9904022216796875,-0.0223846435546875,0.00201416015625
1782846170793570600,2.134570556640625,-0.990264892578125,-0.0219573974609375,0.0024261474609375
1782846170803575600,2.144575439453125,-0.9895477294921875,-0.021453857421875,0.00225830078125
1782846170813580500,2.15458056640625,-0.990570068359375,-0.0219573974609375,0.0021514892578125
1782846170823585500,2.16458544921875,-0.9908447265625,-0.0213165283203125,0.0030059814453125
1782846170833590500,2.174590576171875,-0.991363525390625,-0.020843505859375,0.002471923828125
1782846170843595500,2.184595458984375,-0.99017333984375,-0.022125244140625,0.0026092529296875
1782846170853600500,2.1946005859375,-0.9909820556640625,-0.021942138671875,0.003997802734375
1782846170863605500,2.20460546875,-0.991668701171875,-0.0214691162109375,0.00250244140625
1782846170873610500,2.214610595703125,-0.9912872314453125,-0.022613525390625,0.0027618408203125
1782846170883615500,2.224615478515625,-0.9898223876953125,-0.0209808349609375,0.0028228759765625
1782846170893620500,2.234620361328125,-0.99005126953125,-0.0204620361328125,0.0033111572265625
1782846170903625500,2.24462548828125,-0.989471435546875,-0.0222320556640625,0.0047454833984375
1782846170913630500,2.25463037109375,-0.99200439453125,-0.021453857421875,0.003570556640625
1782846170923635500,2.264635498046875,-0.9916229248046875,-0.0212860107421875,0.0026092529296875
1782846170933640400,2.274640380859375,-0.989776611328125,-0.0209197998046875,0.0008697509765625
1782846170943645400,2.2846455078125,-0.9904937744140625,-0.0225677490234375,0.0026092529296875
1782846170953650400,2.294650390625,-0.9911956787109375,-0.0210113525390625,0.0035247802734375
1782846170963655400,2.304655517578125,-0.9916534423828125,-0.02142333984375,0.0024871826171875
1782846170973660400,2.314660400390625,-0.9896697998046875,-0.0232696533203125,0.0018310546875
1782846170983665400,2.32466552734375,-0.9905548095703125,-0.0230255126953125,0.0030975341796875
1782846170993670400,2.33467041015625,-0.9901123046875,-0.0218658447265625,0.001251220703125
1782846171003675400,2.34467529296875,-0.9903564453125,-0.0206451416015625,0.000213623046875
1782846171013680400,2.354680419921875,-0.991668701171875,-0.0213623046875,0.002410888671875
1782846171023685400,2.364685302734375,-0.9909210205078125,-0.0227813720703125,0.0026092529296875
1782846171033690400,2.3746904296875,-0.99041748046875,-0.0221710205078125,0.0029449462890625
1782846171043695400,2.3846953125,-0.989715576171875,-0.0221099853515625,0.00177001953125
1782846171053700400,2.394700439453125,-0.991302490234375,-0.0218963623046875,0.00250244140625
1782846171063705300,2.404705322265625,-0.990203857421875,-0.021575927734375,0.00262451171875
1782846171073710300,2.41471044921875,-0.988677978515625,-0.02130126953125,0.0030670166015625
1782846171083715300,2.42471533203125,-0.991119384765625,-0.020294189453125,0.002288818359375
1782846171093720300,2.43472021484375,-0.992431640625,-0.0218963623046875,0.00311279296875
1782846171103725300,2.444725341796875,-0.9892425537109375,-0.0214080810546875,0.003509521484375
1782846171113730300,2.454730224609375,-0.9896697998046875,-0.021209716796875,0.002777099609375
1782846171123735600,2.464735595703125,-0.9908905029296875,-0.021728515625,0.0027618408203125
1782846171133740500,2.474740478515625,-0.9915008544921875,-0.022186279296875,0.0023651123046875
1782846171143745500,2.48474560546875,-0.990478515625,-0.0225677490234375,0.003448486328125
1782846171153750500,2.49475048828125,-0.990081787109375,-0.0218658447265625,0.0035247802734375
1782846171163755500,2.504755615234375,-0.99053955078125,-0.0224456787109375,0.0022125244140625
1782846171173760500,2.514760498046875,-0.9922332763671875,-0.0212249755859375,0.0015411376953125
1782846171183765500,2.524765625,-0.9920196533203125,-0.02105712890625,0.0027313232421875
1782846171193770500,2.5347705078125,-0.9919586181640625,-0.0213165283203125,0.00189208984375
1782846171203775500,2.544775390625,-0.9909820556640625,-0.0218963623046875,0.00360107421875
1782846171213780500,2.554780517578125,-0.99078369140625,-0.0227508544921875,0.00128173828125
1782846171223785500,2.564785400390625,-0.9894561767578125,-0.02301025390625,0.0018157958984375
1782846171233790500,2.57479052734375,-0.9903411865234375,-0.0211181640625,0.0007781982421875
1782846171243795500,2.58479541015625,-0.9909210205078125,-0.0212249755859375,0.0020294189453125
1782846171253800400,2.594800537109375,-0.9911346435546875,-0.0224609375,0.003204345703125
1782846171263805400,2.604805419921875,-0.9915313720703125,-0.0220489501953125,0.002655029296875
1782846171273811500,2.6148115234375,-0.9898681640625,-0.0221099853515625,0.001739501953125
1782846171283816700,2.624816650390625,-0.98992919921875,-0.021697998046875,0.0018157958984375
1782846171293821700,2.63482177734375,-0.990570068359375,-0.0213623046875,0.0031890869140625
1782846171303826700,2.64482666015625,-0.99005126953125,-0.021026611328125,0.0030517578125
1782846171313831700,2.654831787109375,-0.9914703369140625,-0.02020263671875,0.0033416748046875
1782846171323836700,2.664836669921875,-0.9912109375,-0.02032470703125,0.0030059814453125
1782846171333841700,2.674841552734375,-0.9906158447265625,-0.0220489501953125,0.0026397705078125
1782846171343846700,2.6848466796875,-0.9897308349609375,-0.0211334228515625,0.003082275390625
1782846171353851600,2.6948515625,-0.989105224609375,-0.021636962890625,0.0016937255859375
1782846171363856600,2.704856689453125,-0.9899444580078125,-0.0218963623046875,0.0023040771484375
1782846171373861600,2.714861572265625,-0.9900665283203125,-0.021270751953125,0.0014190673828125
1782846171383866600,2.72486669921875,-0.989898681640625,-0.0208740234375,0.0033721923828125
1782846171393871600,2.73487158203125,-0.9913787841796875,-0.021209716796875,0.003143310546875
1782846171403876600,2.744876708984375,-0.9908599853515625,-0.02178955078125,0.002349853515625
1782846171413881600,2.754881591796875,-0.9913482666015625,-0.0230865478515625,0.002105712890625
1782846171423886600,2.764886474609375,-0.9887542724609375,-0.02154541015625,0.0045928955078125
1782846171433891600,2.7748916015625,-0.98895263671875,-0.02142333984375,0.0024261474609375
1782846171443896600,2.784896484375,-0.9908905029296875,-0.02166748046875,0.002655029296875
1782846171453902000,2.794902099609375,-0.99017333984375,-0.0221099853515625,0.003387451171875
1782846171463907000,2.804906982421875,-0.9899749755859375,-0.021087646484375,0.002349853515625
1782846171473912000,2.814912109375,-0.9902801513671875,-0.0221099853515625,0.0035247802734375
1782846171483917000,2.8249169921875,-0.991546630859375,-0.022064208984375,0.0034637451171875
1782846171493922000,2.834922119140625,-0.9907073974609375,-0.0223541259765625,0.001556396484375
1782846171503927000,2.844927001953125,-0.990966796875,-0.020843505859375,0.003814697265625
1782846171513932000,2.85493212890625,-0.9904937744140625,-0.0214996337890625,0.002044677734375
1782846171523937000,2.86493701171875,-0.9906158447265625,-0.02044677734375,0.004852294921875
1782846171533942000,2.87494189453125,-0.9906158447265625,-0.021759033203125,0.002197265625
1782846171543947000,2.884947021484375,-0.9907379150390625,-0.0224761962890625,0.00250244140625
1782846171553952000,2.894951904296875,-0.9906463623046875,-0.022216796875,0.0042724609375
1782846171563957000,2.90495703125,-0.9912872314453125,-0.02069091796875,0.0030364990234375
1782846171573962000,2.9149619140625,-0.990875244140625,-0.02294921875,0.0024261474609375
1782846171583967000,2.924967041015625,-0.9908599853515625,-0.0226287841796875,0.001922607421875
1782846171593972000,2.934971923828125,-0.989471435546875,-0.0211334228515625,0.0022430419921875
1782846171603977000,2.94497705078125,-0.990203857421875,-0.0216217041015625,0.0036163330078125
1782846171613982000,2.95498193359375,-0.9910888671875,-0.0215606689453125,0.002685546875
1782846171623987000,2.964987060546875,-0.9916839599609375,-0.0225677490234375,0.003570556640625
1782846171633992000,2.974991943359375,-0.9916534423828125,-0.021514892578125,0.0026092529296875
1782846171643997000,2.984996826171875,-0.9894256591796875,-0.021087646484375,0.001129150390625
1782846171654002000,2.995001953125,-0.9904632568359375,-0.0210418701171875,0.0036163330078125
1782846171664007000,3.0050068359375,-0.9907073974609375,-0.022796630859375,0.0029144287109375
1782846171674012000,3.015011962890625,-0.9914093017578125,-0.0211639404296875,0.00323486328125
1782846171684017000,3.025016845703125,-0.9917144775390625,-0.0213165283203125,0.0025482177734375
1782846171694022000,3.03502197265625,-0.9899749755859375,-0.02099609375,0.0041351318359375
1782846171704027000,3.04502685546875,-0.990814208984375,-0.023193359375,0.001953125
1782846171714031900,3.055031982421875,-0.990631103515625,-0.02203369140625,0.00152587890625
1782846171724036900,3.065036865234375,-0.9914703369140625,-0.0217742919921875,0.002685546875
1782846171734041900,3.075041748046875,-0.98974609375,-0.0214996337890625,0.00390625
1782846171744046800,3.085046875,-0.989776611328125,-0.0224609375,0.0028228759765625
1782846171754051800,3.0950517578125,-0.99102783203125,-0.0225982666015625,0.0020751953125
1782846171764056800,3.105056884765625,-0.99127197265625,-0.02154541015625,0.001861572265625
1782846171774061800,3.115061767578125,-0.9912567138671875,-0.0222625732421875,0.0024261474609375
1782846171784066800,3.12506689453125,-0.9893646240234375,-0.0216522216796875,0.0005645751953125
1782846171794071800,3.13507177734375,-0.9894256591796875,-0.0217742919921875,0.002197265625
1782846171804076800,3.145076904296875,-0.990325927734375,-0.02130126953125,0.003570556640625
1782846171814081800,3.155081787109375,-0.9904632568359375,-0.02093505859375,0.0027313232421875
1782846171824086800,3.165086669921875,-0.9895172119140625,-0.021636962890625,0.001708984375
1782846171834091800,3.175091796875,-0.99005126953125,-0.0209503173828125,0.001953125
1782846171844097000,3.185096923828125,-0.990997314453125,-0.0225677490234375,0.0018768310546875
1782846171854102000,3.19510205078125,-0.9915008544921875,-0.0222625732421875,0.001953125
1782846171864107000,3.20510693359375,-0.99017333984375,-0.0215606689453125,0.0013427734375
1782846171874112300,3.2151123046875,-0.9926910400390625,-0.0209503173828125,0.00201416015625
1782846171884117200,3.2251171875,-0.9910736083984375,-0.0217132568359375,0.003509521484375
1782846171894122200,3.235122314453125,-0.989593505859375,-0.0212554931640625,0.003265380859375
1782846171904127200,3.245127197265625,-0.9890594482421875,-0.0204010009765625,0.002349853515625
1782846171914132200,3.25513232421875,-0.990478515625,-0.022918701171875,0.003631591796875
1782846171924137200,3.26513720703125,-0.9903106689453125,-0.0213470458984375,0.004058837890625
1782846171934142200,3.27514208984375,-0.991424560546875,-0.02252197265625,0.00177001953125
1782846171944147200,3.285147216796875,-0.989715576171875,-0.0220794677734375,0.0038299560546875
1782846171954152200,3.295152099609375,-0.991180419921875,-0.020843505859375,0.0012664794921875
1782846171964157200,3.3051572265625,-0.991180419921875,-0.0208892822265625,0.003448486328125
1782846171974162200,3.315162109375,-0.9905853271484375,-0.0211639404296875,0.002655029296875
1782846171984168000,3.32516796875,-0.990753173828125,-0.02081298828125,0.0027008056640625
1782846171994173000,3.3351728515625,-0.9906005859375,-0.0209503173828125,0.0017852783203125
1782846172004178000,3.345177978515625,-0.99041748046875,-0.0209808349609375,0.0011138916015625
1782846172014183200,3.35518310546875,-0.9914093017578125,-0.0218658447265625,0.0027618408203125
1782846172024188200,3.365188232421875,-0.9908905029296875,-0.021728515625,0.0034637451171875
1782846172034193200,3.375193115234375,-0.99017333984375,-0.0215301513671875,0.0030670166015625
1782846172044198100,3.3851982421875,-0.9886322021484375,-0.02203369140625,0.0026702880859375
1782846172054203100,3.395203125,-0.9913787841796875,-0.022064208984375,0.003173828125
1782846172064208100,3.4052080078125,-0.99078369140625,-0.022064208984375,0.00177001953125
1782846172074213000,3.415213134765625,-0.9914093017578125,-0.021820068359375,0.0026092529296875
1782846172084218000,3.425218017578125,-0.991119384765625,-0.0231475830078125,0.001983642578125
1782846172094223000,3.43522314453125,-0.9904022216796875,-0.0212249755859375,0.003173828125
1782846172104228000,3.44522802734375,-0.9898529052734375,-0.021636962890625,0.0019989013671875
1782846172114233000,3.455233154296875,-0.990081787109375,-0.0213623046875,0.00311279296875
1782846172124238000,3.465238037109375,-0.990966796875,-0.0225982666015625,0.0033721923828125
1782846172134243000,3.4752431640625,-0.989593505859375,-0.021942138671875,0.003082275390625
1782846172144248000,3.485248046875,-0.98992919921875,-0.0209197998046875,0.0044708251953125
1782846172154253000,3.495253173828125,-0.9898681640625,-0.022369384765625,0.0028076171875
1782846172164258000,3.505258056640625,-0.991851806640625,-0.021392822265625,0.0017242431640625
1782846172174263000,3.515262939453125,-0.9911041259765625,-0.021209716796875,0.00323486328125
1782846172184268000,3.52526806640625,-0.98895263671875,-0.0212860107421875,0.0019989013671875
1782846172194273000,3.53527294921875,-0.9907379150390625,-0.02130126953125,0.00372314453125
1782846172204278000,3.545278076171875,-0.99139404296875,-0.0214080810546875,0.0034637451171875
1782846172214283000,3.555282958984375,-0.991119384765625,-0.020965576171875,0.00152587890625
1782846172224288000,3.5652880859375,-0.989013671875,-0.0221710205078125,0.002410888671875
1782846172234293000,3.57529296875,-0.990203857421875,-0.02239990234375,0.002227783203125
1782846172244298000,3.585298095703125,-0.9901885986328125,-0.02197265625,0.0039825439453125
1782846172254303000,3.595302978515625,-0.99017333984375,-0.02191162109375,0.003387451171875
1782846172264308000,3.605307861328125,-0.9906768798828125,-0.0223388671875,0.00244140625
1782846172274313000,3.61531298828125,-0.989593505859375,-0.0215911865234375,0.00213623046875
1782846172284318000,3.62531787109375,-0.989898681640625,-0.0200347900390625,0.00244140625
1782846172294323000,3.635322998046875,-0.9898529052734375,-0.02117919921875,0.0022735595703125
1782846172304328000,3.645327880859375,-0.99053955078125,-0.020599365234375,0.0034027099609375
1782846172314333000,3.6553330078125,-0.98931884765625,-0.0217742919921875,0.0029296875
1782846172324338000,3.665337890625,-0.98968505859375,-0.0225982666015625,0.0024261474609375
1782846172334343000,3.675343017578125,-0.9905853271484375,-0.0206146240234375,0.0016937255859375
1782846172344348000,3.685347900390625,-0.9906005859375,-0.0216522216796875,0.005218505859375
1782846172354353000,3.695352783203125,-0.98992919921875,-0.02197265625,0.0041961669921875
1782846172364358000,3.70535791015625,-0.991058349609375,-0.0207366943359375,0.00311279296875
1782846172374363000,3.71536279296875,-0.991119384765625,-0.02239990234375,0.0018310546875
1782846172384367900,3.725367919921875,-0.9915924072265625,-0.021697998046875,0.00360107421875
1782846172394372900,3.735372802734375,-0.9920654296875,-0.0222015380859375,0.0025634765625
1782846172404377900,3.7453779296875,-0.991424560546875,-0.0217742919921875,0.0039825439453125
1782846172414382800,3.7553828125,-0.99066162109375,-0.021881103515625,0.0038909912109375
1782846172424387800,3.765387939453125,-0.9902496337890625,-0.0212860107421875,0.0031585693359375
1782846172434392800,3.775392822265625,-0.9897613525390625,-0.0217132568359375,0.0035552978515625
1782846172444397800,3.785397705078125,-0.9915924072265625,-0.021209716796875,0.003265380859375
1782846172454402600,3.795402587890625,-0.9906005859375,-0.0209808349609375,0.0023651123046875
1782846172464407600,3.805407470703125,-0.9905548095703125,-0.0204010009765625,0.0024871826171875
1782846172474412500,3.81541259765625,-0.99139404296875,-0.0206756591796875,0.0020904541015625
1782846172484417500,3.82541748046875,-0.989776611328125,-0.021331787109375,0.0024261474609375
1782846172494422500,3.835422607421875,-0.9886932373046875,-0.021148681640625,0.001983642578125
1782846172504427500,3.845427490234375,-0.98974609375,-0.021453857421875,0.0034027099609375
1782846172514432500,3.8554326171875,-0.9912261962890625,-0.02178955078125,0.002410888671875
1782846172524437500,3.8654375,-0.9908294677734375,-0.022705078125,0.0042572021484375
1782846172534442500,3.8754423828125,-0.9914703369140625,-0.0228118896484375,0.0018157958984375
1782846172544447500,3.885447509765625,-0.9907379150390625,-0.020263671875,0.0015106201171875
1782846172554452500,3.895452392578125,-0.9901275634765625,-0.021453857421875,0.0020751953125
1782846172564457500,3.90545751953125,-0.9916229248046875,-0.0215606689453125,0.0036773681640625
1782846172574462500,3.91546240234375,-0.9908294677734375,-0.0196075439453125,0.00250244140625
1782846172584467500,3.925467529296875,-0.98931884765625,-0.0207977294921875,0.0039825439453125
1782846172594472400,3.935472412109375,-0.9909210205078125,-0.0208587646484375,0.0046844482421875
1782846172604477400,3.9454775390625,-0.9890289306640625,-0.022003173828125,0.0048828125
1782846172614482400,3.955482421875,-0.991241455078125,-0.02252197265625,0.003082275390625
1782846172624487400,3.9654873046875,-0.9915618896484375,-0.0205535888671875,0.0028533935546875
1782846172634492400,3.975492431640625,-0.989410400390625,-0.021148681640625,0.0032806396484375
1782846172644497400,3.985497314453125,-0.989227294921875,-0.021881103515625,0.003021240234375
1782846172654502400,3.99550244140625,-0.9902801513671875,-0.021942138671875,0.0036773681640625
1782846172664507400,4.00550732421875,-0.990234375,-0.0211181640625,0.00335693359375
1782846172674512400,4.015512451171875,-0.99139404296875,-0.02032470703125,0.00250244140625
1782846172684517400,4.025517333984375,-0.9911041259765625,-0.0220184326171875,0.0030670166015625
1782846172694523600,4.035523681640625,-0.990936279296875,-0.021453857421875,0.003662109375
1782846172704528600,4.045528564453125,-0.990997314453125,-0.02154541015625,0.002593994140625
1782846172714533600,4.05553369140625,-0.989990234375,-0.021331787109375,0.0023345947265625
1782846172724538600,4.06553857421875,-0.9903106689453125,-0.02191162109375,0.0016632080078125
1782846172734543600,4.075543701171875,-0.9894256591796875,-0.0212860107421875,0.002105712890625
1782846172744548600,4.085548583984375,-0.9909210205078125,-0.021087646484375,0.002655029296875
1782846172754553600,4.0955537109375,-0.9904937744140625,-0.0216217041015625,0.0032501220703125
1782846172764558600,4.10555859375,-0.990692138671875,-0.019622802734375,0.003082275390625
1782846172774563600,4.1155634765625,-0.9909210205078125,-0.022064208984375,0.0041961669921875
1782846172784568600,4.125568603515625,-0.990478515625,-0.0215911865234375,0.002410888671875
1782846172794573600,4.135573486328125,-0.99005126953125,-0.0209503173828125,0.0019989013671875
1782846172804578600,4.14557861328125,-0.9910888671875,-0.0213470458984375,0.003265380859375
1782846172814583600,4.15558349609375,-0.98974609375,-0.0228118896484375,0.002655029296875
1782846172824588500,4.165588623046875,-0.9910125732421875,-0.022064208984375,0.00146484375
1782846172834593500,4.175593505859375,-0.991485595703125,-0.021484375,0.001983642578125
1782846172844598500,4.1855986328125,-0.991241455078125,-0.022369384765625,0.0022430419921875
1782846172854603500,4.195603515625,-0.9905853271484375,-0.0224151611328125,0.0012664794921875
1782846172864608500,4.2056083984375,-0.99041748046875,-0.02154541015625,0.0015411376953125
1782846172874613500,4.215613525390625,-0.9907073974609375,-0.0214996337890625,0.0012664794921875
1782846172884618500,4.225618408203125,-0.9915313720703125,-0.0218963623046875,0.001800537109375
1782846172894623500,4.23562353515625,-0.9911346435546875,-0.0223236083984375,0.002349853515625
1782846172904628500,4.24562841796875,-0.9900360107421875,-0.021026611328125,0.0037841796875
1782846172914633500,4.255633544921875,-0.990020751953125,-0.021026611328125,0.0021209716796875
1782846172924638500,4.265638427734375,-0.990936279296875,-0.0226593017578125,0.002288818359375
1782846172934643500,4.2756435546875,-0.9897308349609375,-0.02197265625,0.0030670166015625
1782846172944648400,4.2856484375,-0.9909820556640625,-0.021575927734375,0.0031890869140625
1782846172954653400,4.2956533203125,-0.99127197265625,-0.0210418701171875,0.002655029296875
1782846172964658400,4.305658447265625,-0.9911346435546875,-0.0220794677734375,0.0026397705078125
1782846172974663400,4.315663330078125,-0.9906158447265625,-0.0211334228515625,0.001708984375
1782846172984668400,4.32566845703125,-0.990478515625,-0.0211639404296875,0.00274658203125
1782846172994673400,4.33567333984375,-0.9910736083984375,-0.0219573974609375,0.0040283203125
1782846173004678400,4.345678466796875,-0.9910125732421875,-0.020477294921875,0.00372314453125
1782846173014683400,4.355683349609375,-0.9908599853515625,-0.0217437744140625,0.0031585693359375
1782846173024688400,4.3656884765625,-0.990020751953125,-0.022735595703125,0.003204345703125
1782846173034693400,4.375693359375,-0.9908447265625,-0.021240234375,0.00390625
1782846173044698400,4.385698486328125,-0.9908599853515625,-0.020233154296875,0.004180908203125
1782846173054703400,4.395703369140625,-0.9908294677734375,-0.0220794677734375,0.00372314453125
1782846173064708400,4.405708251953125,-0.99078369140625,-0.021453857421875,0.0030975341796875
1782846173074713300,4.41571337890625,-0.9901275634765625,-0.023223876953125,0.0027618408203125
1782846173084718600,4.425718505859375,-0.9903717041015625,-0.02276611328125,0.0028533935546875
1782846173094723600,4.4357236328125,-0.989990234375,-0.021514892578125,0.0013580322265625
1782846173104728600,4.445728515625,-0.989410400390625,-0.0210723876953125,0.0025177001953125
1782846173114733600,4.455733642578125,-0.9900665283203125,-0.0211181640625,0.0012969970703125
1782846173124738600,4.465738525390625,-0.992156982421875,-0.0206756591796875,0.0036468505859375
1782846173134743600,4.47574365234375,-0.990997314453125,-0.0206146240234375,0.00384521484375
1782846173144748500,4.48574853515625,-0.9907989501953125,-0.0215301513671875,0.0017852783203125
1782846173154753500,4.49575341796875,-0.9897918701171875,-0.0211944580078125,0.003082275390625
1782846173164758500,4.505758544921875,-0.9913177490234375,-0.022796630859375,0.0029144287109375
1782846173174763500,4.515763427734375,-0.9905853271484375,-0.02166748046875,0.0027008056640625
1782846173184768500,4.5257685546875,-0.98992919921875,-0.0234375,0.0019683837890625
1782846173194773500,4.5357734375,-0.991119384765625,-0.020599365234375,0.0040740966796875
1782846173204778500,4.545778564453125,-0.989715576171875,-0.021392822265625,0.002349853515625
1782846173214783500,4.555783447265625,-0.9904937744140625,-0.0225372314453125,0.0028839111328125
1782846173224788500,4.56578857421875,-0.990997314453125,-0.0227508544921875,0.0014190673828125
1782846173234793500,4.57579345703125,-0.98919677734375,-0.0233154296875,0.0019073486328125
1782846173244798500,4.585798583984375,-0.9896697998046875,-0.0211944580078125,0.003387451171875
1782846173254803500,4.595803466796875,-0.9908447265625,-0.0218963623046875,0.0040435791015625
1782846173264808400,4.605808349609375,-0.991607666015625,-0.0214996337890625,0.0021514892578125
1782846173274813400,4.6158134765625,-0.99151611328125,-0.0216217041015625,0.000244140625
1782846173284818400,4.625818359375,-0.9905548095703125,-0.022491455078125,0.0017547607421875
1782846173294823400,4.635823486328125,-0.99090576171875,-0.0221405029296875,0.0018463134765625
1782846173304828400,4.645828369140625,-0.99029541015625,-0.022003173828125,0.0028076171875
1782846173314833400,4.65583349609375,-0.99041748046875,-0.0211334228515625,0.00286865234375
1782846173324838400,4.66583837890625,-0.991668701171875,-0.021392822265625,0.00390625
1782846173334843400,4.675843505859375,-0.9916534423828125,-0.022552490234375,0.0018463134765625
1782846173344848400,4.685848388671875,-0.9917755126953125,-0.0224151611328125,0.0032958984375
1782846173354853400,4.695853271484375,-0.9892425537109375,-0.0220489501953125,0.0026092529296875
1782846173364858400,4.7058583984375,-0.9893798828125,-0.020751953125,0.004730224609375
1782846173374863400,4.71586328125,-0.9897308349609375,-0.0202484130859375,0.0041351318359375
1782846173384868400,4.725868408203125,-0.98992919921875,-0.0211639404296875,0.00128173828125
1782846173394873300,4.735873291015625,-0.99169921875,-0.0220794677734375,0.0028533935546875
1782846173404878300,4.74587841796875,-0.9907684326171875,-0.021240234375,0.003143310546875
1782846173414883300,4.75588330078125,-0.9901580810546875,-0.0216827392578125,0.0021820068359375
1782846173424888300,4.765888427734375,-0.9915008544921875,-0.0225372314453125,0.0025634765625
1782846173434893300,4.775893310546875,-0.989532470703125,-0.021331787109375,0.003173828125
1782846173444898300,4.785898193359375,-0.99072265625,-0.0208587646484375,0.00048828125
1782846173454903300,4.7959033203125,-0.9912872314453125,-0.022308349609375,0.00250244140625
1782846173464909300,4.805909423828125,-0.9921112060546875,-0.02178955078125,0.0022430419921875
1782846173474914300,4.815914306640625,-0.9907989501953125,-0.01995849609375,0.0011444091796875
1782846173484919300,4.825919189453125,-0.987274169921875,-0.0203704833984375,0.00201416015625
1782846173494924300,4.83592431640625,-0.9901580810546875,-0.0217437744140625,0.0040130615234375
1782846173504929300,4.84592919921875,-0.9896087646484375,-0.02166748046875,0.0019378662109375
1782846173514934300,4.855934326171875,-0.9900970458984375,-0.0214691162109375,0.001922607421875
1782846173524939300,4.865939208984375,-0.9895172119140625,-0.0219879150390625,0.0022735595703125
1782846173534944300,4.8759443359375,-0.989227294921875,-0.0216064453125,0.00335693359375
1782846173544949200,4.88594921875,-0.9906005859375,-0.0218505859375,0.0027313232421875
1782846173554954200,4.895954345703125,-0.9911956787109375,-0.020782470703125,0.0015716552734375
1782846173564959200,4.905959228515625,-0.99072265625,-0.021881103515625,0.0023193359375
1782846173574964200,4.915964111328125,-0.99078369140625,-0.020965576171875,0.0031890869140625
1782846173584969200,4.92596923828125,-0.9906158447265625,-0.0204010009765625,0.0041046142578125
1782846173594974200,4.93597412109375,-0.9898681640625,-0.0214691162109375,0.0025177001953125
1782846173604979200,4.945979248046875,-0.989654541015625,-0.021240234375,0.0019378662109375
1782846173614984200,4.955984130859375,-0.9909515380859375,-0.0207672119140625,0.002349853515625
1782846173624989200,4.9659892578125,-0.9909515380859375,-0.02105712890625,0.0028533935546875
1782846173634994200,4.975994140625,-0.989044189453125,-0.0214080810546875,0.0018463134765625
1782846173644999200,4.985999267578125,-0.990325927734375,-0.02197265625,0.0028839111328125
1782846173655004200,4.996004150390625,-0.989471435546875,-0.02178955078125,0.001678466796875
1782846173665009200,5.006009033203125,-0.989654541015625,-0.0224761962890625,0.0020294189453125
1782846173675014100,5.01601416015625,-0.9908294677734375,-0.022125244140625,0.0023651123046875
1782846173685019100,5.02601904296875,-0.98895263671875,-0.0212249755859375,0.0038604736328125
1782846173695024000,5.036024169921875,-0.9901123046875,-0.0224609375,0.0029449462890625
1782846173705029400,5.046029296875,-0.990692138671875,-0.0227203369140625,0.0016632080078125
1782846173715034400,5.056034423828125,-0.992523193359375,-0.0227508544921875,0.00323486328125
1782846173725039400,5.066039306640625,-0.9906005859375,-0.020660400390625,0.002593994140625
1782846173735044400,5.07604443359375,-0.9900054931640625,-0.0227813720703125,0.00189208984375
1782846173745049300,5.08604931640625,-0.99090576171875,-0.020599365234375,0.0029296875
1782846173755054300,5.096054443359375,-0.9914703369140625,-0.02239990234375,0.0026702880859375
1782846173765059300,5.106059326171875,-0.991424560546875,-0.020477294921875,0.0031585693359375
1782846173775064300,5.116064208984375,-0.9926605224609375,-0.02056884765625,0.00347900390625
1782846173785069300,5.1260693359375,-0.9918212890625,-0.0219879150390625,0.0022430419921875
1782846173795074300,5.13607421875,-0.990447998046875,-0.0223236083984375,0.0039825439453125
1782846173805079300,5.146079345703125,-0.9899749755859375,-0.0208892822265625,0.0022125244140625
1782846173815084300,5.156084228515625,-0.9888763427734375,-0.0210418701171875,0.00201416015625
1782846173825089300,5.16608935546875,-0.9891815185546875,-0.021270751953125,0.0041656494140625
1782846173835094300,5.17609423828125,-0.990478515625,-0.021820068359375,0.0030059814453125
1782846173845099300,5.186099365234375,-0.9906005859375,-0.021392822265625,0.0019073486328125
1782846173855104300,5.196104248046875,-0.9904327392578125,-0.0232391357421875,0.0020599365234375
1782846173865109200,5.206109130859375,-0.99017333984375,-0.0222320556640625,0.0034637451171875
1782846173875114200,5.2161142578125,-0.9903411865234375,-0.01971435546875,0.0023193359375
1782846173885119200,5.226119140625,-0.990264892578125,-0.0212554931640625,0.0035247802734375
1782846173895124200,5.236124267578125,-0.9901275634765625,-0.0229034423828125,0.0036163330078125
1782846173905129200,5.246129150390625,-0.991851806640625,-0.0220184326171875,0.001922607421875
1782846173915134200,5.25613427734375,-0.99151611328125,-0.022247314453125,0.00079345703125
1782846173925139200,5.26613916015625,-0.9896240234375,-0.021820068359375,0.0030517578125
1782846173935144200,5.276144287109375,-0.9898834228515625,-0.0214080810546875,0.0025482177734375
1782846173945149200,5.286149169921875,-0.99066162109375,-0.02239990234375,0.002197265625
1782846173955154200,5.296154296875,-0.9900665283203125,-0.022613525390625,0.004364013671875
1782846173965159200,5.3061591796875,-0.988189697265625,-0.0216217041015625,0.00189208984375
1782846173975164200,5.3161640625,-0.9898529052734375,-0.0229034423828125,0.001922607421875
1782846173985169200,5.326169189453125,-0.9899749755859375,-0.0222015380859375,0.0027923583984375
1782846173995174100,5.336174072265625,-0.9896240234375,-0.0217437744140625,0.0038604736328125
1782846174005179100,5.34617919921875,-0.9906158447265625,-0.0214691162109375,0.0019683837890625
1782846174015184100,5.35618408203125,-0.99041748046875,-0.021453857421875,0.0008087158203125
1782846174025189000,5.366189208984375,-0.9904327392578125,-0.0220184326171875,0.0041961669921875
1782846174035194000,5.376194091796875,-0.990020751953125,-0.0214080810546875,0.0028533935546875
1782846174045199000,5.38619921875,-0.990875244140625,-0.0219879150390625,0.00079345703125
1782846174055204000,5.3962041015625,-0.990447998046875,-0.020843505859375,0.00244140625
1782846174065209000,5.406208984375,-0.989776611328125,-0.02093505859375,0.0026092529296875
1782846174075214300,5.41621435546875,-0.990478515625,-0.022003173828125,0.0017852783203125
1782846174085219300,5.42621923828125,-0.9907379150390625,-0.0224151611328125,0.0018463134765625
1782846174095224300,5.436224365234375,-0.98828125,-0.0227508544921875,0.0016937255859375
1782846174105229300,5.446229248046875,-0.9909820556640625,-0.02154541015625,0.00177001953125
1782846174115234300,5.456234375,-0.99017333984375,-0.021697998046875,0.0012359619140625
1782846174125239300,5.4662392578125,-0.990478515625,-0.02288818359375,0.0028533935546875
1782846174135244300,5.476244384765625,-0.9899444580078125,-0.0218658447265625,0.001953125
1782846174145249300,5.486249267578125,-0.990936279296875,-0.0216064453125,0.0018768310546875
1782846174155254300,5.496254150390625,-0.99163818359375,-0.0220489501953125,0.001953125
1782846174165259300,5.50625927734375,-0.99127197265625,-0.0217132568359375,0.0020599365234375
1782846174175264300,5.51626416015625,-0.9912872314453125,-0.021881103515625,0.00457763671875
1782846174185269200,5.526269287109375,-0.991485595703125,-0.020904541015625,0.002197265625
1782846174195274200,5.536274169921875,-0.9897003173828125,-0.0210418701171875,0.003265380859375
1782846174205279200,5.546279296875,-0.9901123046875,-0.022430419921875,0.00390625
1782846174215284200,5.5562841796875,-0.9904937744140625,-0.0212554931640625,0.0015716552734375
1782846174225289500,5.56628955078125,-0.9895782470703125,-0.0214385986328125,0.003509521484375
1782846174235294500,5.57629443359375,-0.990692138671875,-0.0209197998046875,0.0032196044921875
1782846174245299500,5.586299560546875,-0.990142822265625,-0.021514892578125,0.0025482177734375
1782846174255304400,5.596304443359375,-0.988616943359375,-0.0218963623046875,0.0028533935546875
1782846174265309400,5.606309326171875,-0.9901123046875,-0.0227203369140625,0.001312255859375
1782846174275314400,5.616314453125,-0.9907073974609375,-0.0220489501953125,0.0032806396484375
1782846174285319400,5.6263193359375,-0.9907989501953125,-0.021453857421875,0.0016632080078125
1782846174295324400,5.636324462890625,-0.990203857421875,-0.02264404296875,0.0016632080078125
1782846174305329400,5.646329345703125,-0.9909210205078125,-0.021636962890625,0.001678466796875
1782846174315334400,5.65633447265625,-0.9920654296875,-0.0217437744140625,0.0030364990234375
1782846174325339400,5.66633935546875,-0.9911956787109375,-0.0214385986328125,0.002166748046875
1782846174335344400,5.676344482421875,-0.9902191162109375,-0.0220184326171875,0.002899169921875
1782846174345349400,5.686349365234375,-0.9904327392578125,-0.02093505859375,0.0030059814453125
1782846174355354400,5.696354248046875,-0.989776611328125,-0.021087646484375,0.001953125
1782846174365359400,5.706359375,-0.9898223876953125,-0.02117919921875,0.0009918212890625
1782846174375364400,5.7163642578125,-0.9891357421875,-0.0213623046875,0.0032501220703125
1782846174385370400,5.726370361328125,-0.988861083984375,-0.0203399658203125,0.0039825439453125
1782846174395375400,5.736375244140625,-0.9909515380859375,-0.0206298828125,0.0025177001953125
1782846174405380400,5.74638037109375,-0.990386962890625,-0.0203094482421875,0.0019989013671875
1782846174415385300,5.75638525390625,-0.98907470703125,-0.02239990234375,0.0017242431640625
1782846174425390300,5.766390380859375,-0.99017333984375,-0.02203369140625,0.0012054443359375
1782846174435395300,5.776395263671875,-0.99163818359375,-0.020843505859375,0.0039215087890625
1782846174445400300,5.786400390625,-0.991241455078125,-0.02154541015625,0.003509521484375
1782846174455405800,5.79640576171875,-0.990509033203125,-0.0203094482421875,0.0032806396484375
1782846174465411000,5.8064111328125,-0.99072265625,-0.0215301513671875,0.0021209716796875
1782846174475416000,5.816416015625,-0.9893341064453125,-0.0215911865234375,0.00201416015625
1782846174485421000,5.826421142578125,-0.990142822265625,-0.022369384765625,0.00274658203125
1782846174495426000,5.836426025390625,-0.9907989501953125,-0.0217132568359375,0.0033416748046875
1782846174505431000,5.84643115234375,-0.99151611328125,-0.02142333984375,0.003082275390625
1782846174515436000,5.85643603515625,-0.9893951416015625,-0.01947021484375,0.0029144287109375
1782846174525441000,5.86644091796875,-0.9900054931640625,-0.0215301513671875,0.003143310546875
1782846174535446000,5.876446044921875,-0.9915924072265625,-0.0216522216796875,0.00250244140625
1782846174545451000,5.886450927734375,-0.9911346435546875,-0.020233154296875,0.00250244140625
1782846174555456000,5.8964560546875,-0.989715576171875,-0.0204010009765625,0.0028228759765625
1782846174565461000,5.9064609375,-0.9892425537109375,-0.022216796875,0.0025177001953125
1782846174575466000,5.916466064453125,-0.991058349609375,-0.0211029052734375,0.0030364990234375
1782846174585471000,5.926470947265625,-0.9905242919921875,-0.021759033203125,0.0025482177734375
1782846174595476000,5.93647607421875,-0.98944091796875,-0.0218048095703125,0.0019073486328125
1782846174605481000,5.94648095703125,-0.9904937744140625,-0.0218353271484375,0.0024261474609375
1782846174615486000,5.95648583984375,-0.99090576171875,-0.021453857421875,0.0025634765625
1782846174625491000,5.966490966796875,-0.991180419921875,-0.0216522216796875,0.0030517578125
1782846174635496000,5.976495849609375,-0.989959716796875,-0.0207366943359375,0.0024261474609375
1782846174645501000,5.9865009765625,-0.991180419921875,-0.0207977294921875,0.002410888671875
1782846174655506000,5.996505859375,-0.990692138671875,-0.0220184326171875,0.00286865234375
1782846174665511000,6.006510986328125,-0.9910125732421875,-0.02154541015625,0.000823974609375
1782846174675516000,6.016515869140625,-0.9927215576171875,-0.0210113525390625,0.003448486328125
1782846174685521000,6.02652099609375,-0.990875244140625,-0.0207977294921875,0.0018157958984375
1782846174695526000,6.03652587890625,-0.9897613525390625,-0.0203857421875,0.003753662109375
1782846174705531000,6.04653076171875,-0.9900360107421875,-0.02215576171875,0.0036163330078125
1782846174715536000,6.056535888671875,-0.9893646240234375,-0.0200958251953125,0.00341796875
1782846174725540900,6.066540771484375,-0.9895782470703125,-0.0208282470703125,0.0035858154296875
1782846174735545900,6.0765458984375,-0.9902191162109375,-0.021697998046875,0.0020751953125
1782846174745550800,6.08655078125,-0.98883056640625,-0.0216217041015625,0.002288818359375
1782846174755555800,6.096555908203125,-0.9900054931640625,-0.0229949951171875,0.0023651123046875
1782846174765560800,6.106560791015625,-0.990081787109375,-0.0228729248046875,0.0032501220703125
1782846174775565800,6.11656591796875,-0.9901123046875,-0.021820068359375,0.0021209716796875
1782846174785570800,6.12657080078125,-0.990447998046875,-0.0222625732421875,0.00335693359375
1782846174795576000,6.136576171875,-0.9901885986328125,-0.020599365234375,0.0032501220703125
1782846174805581000,6.1465810546875,-0.9900665283203125,-0.021728515625,0.0034027099609375
1782846174815586000,6.1565859375,-0.990753173828125,-0.0218048095703125,0.0020904541015625
1782846174825591000,6.166591064453125,-0.99102783203125,-0.0230560302734375,0.0031890869140625
1782846174835596000,6.176595947265625,-0.98944091796875,-0.0190887451171875,0.0024261474609375
1782846174845601000,6.18660107421875,-0.9901275634765625,-0.02105712890625,0.001708984375
1782846174855606000,6.19660595703125,-0.9901123046875,-0.020965576171875,0.0027008056640625
1782846174865611000,6.206611083984375,-0.99053955078125,-0.0223388671875,0.001861572265625
1782846174875616000,6.216615966796875,-0.991546630859375,-0.02203369140625,0.0036773681640625
1782846174885621000,6.22662109375,-0.991851806640625,-0.0220489501953125,0.0038299560546875
1782846174895626000,6.2366259765625,-0.9912872314453125,-0.021820068359375,0.0026702880859375
1782846174905631000,6.246630859375,-0.990234375,-0.0225372314453125,0.0018768310546875
1782846174915636000,6.256635986328125,-0.9907684326171875,-0.02178955078125,0.0027008056640625
1782846174925641000,6.266640869140625,-0.9902496337890625,-0.0221405029296875,0.0031890869140625
1782846174935646000,6.27664599609375,-0.990966796875,-0.021453857421875,0.0040740966796875
1782846174945651000,6.28665087890625,-0.9909515380859375,-0.0223388671875,0.0010833740234375
1782846174955656000,6.296656005859375,-0.992034912109375,-0.021240234375,0.003265380859375
1782846174965661000,6.306660888671875,-0.99072265625,-0.022064208984375,0.0021820068359375
1782846174975666000,6.316666015625,-0.989410400390625,-0.02191162109375,0.0032196044921875
1782846174985671200,6.326671142578125,-0.989776611328125,-0.0213623046875,0.003387451171875
1782846174995676200,6.33667626953125,-0.9915313720703125,-0.0214996337890625,0.0024566650390625
1782846175005681200,6.34668115234375,-0.99163818359375,-0.0202178955078125,0.0037994384765625
1782846175015686100,6.35668603515625,-0.9910430908203125,-0.0214996337890625,0.0016326904296875
1782846175025691100,6.366691162109375,-0.9913787841796875,-0.0220794677734375,0.0024871826171875
1782846175035696000,6.376696044921875,-0.989990234375,-0.0228424072265625,0.00225830078125
1782846175045701000,6.386701171875,-0.9893035888671875,-0.0214385986328125,0.0022430419921875
1782846175055706000,6.3967060546875,-0.9898681640625,-0.0201568603515625,0.0044097900390625
1782846175065711000,6.406711181640625,-0.989532470703125,-0.0217132568359375,0.002655029296875
1782846175075716000,6.416716064453125,-0.9907379150390625,-0.02008056640625,0.0024261474609375
1782846175085721000,6.42672119140625,-0.990997314453125,-0.0207061767578125,0.0034942626953125
1782846175095726000,6.43672607421875,-0.9907989501953125,-0.0216827392578125,0.0028839111328125
1782846175105731000,6.44673095703125,-0.990814208984375,-0.0192718505859375,0.0038604736328125
1782846175115736000,6.456736083984375,-0.990386962890625,-0.0220489501953125,0.0027313232421875
1782846175125741000,6.466740966796875,-0.98876953125,-0.0221405029296875,0.002899169921875
1782846175135746000,6.47674609375,-0.9906158447265625,-0.022857666015625,0.0033111572265625
1782846175145751000,6.4867509765625,-0.9913330078125,-0.02099609375,0.0040283203125
1782846175155756000,6.496756103515625,-0.990234375,-0.0212554931640625,0.0024566650390625
1782846175165761000,6.506760986328125,-0.9916534423828125,-0.021240234375,0.00360107421875
1782846175175766000,6.51676611328125,-0.988555908203125,-0.021087646484375,0.0016021728515625
1782846175185771000,6.52677099609375,-0.9904632568359375,-0.022064208984375,0.002166748046875
1782846175195776000,6.53677587890625,-0.9887542724609375,-0.021697998046875,0.0028076171875
1782846175205781000,6.546781005859375,-0.9898681640625,-0.020965576171875,0.0027313232421875
1782846175215786000,6.556785888671875,-0.9909210205078125,-0.022430419921875,0.00128173828125
1782846175225791000,6.566791015625,-0.990447998046875,-0.022552490234375,0.001861572265625
1782846175235796000,6.5767958984375,-0.989715576171875,-0.022308349609375,0.0030975341796875
1782846175245801000,6.586801025390625,-0.99066162109375,-0.0216827392578125,0.0027618408203125
1782846175255806000,6.596805908203125,-0.9907073974609375,-0.02276611328125,0.0039215087890625
1782846175265811000,6.60681103515625,-0.98944091796875,-0.02117919921875,0.0032501220703125
1782846175275816000,6.61681591796875,-0.9895172119140625,-0.020477294921875,0.0030517578125
1782846175285821000,6.626821044921875,-0.9893646240234375,-0.0220184326171875,0.004119873046875
1782846175295826000,6.636825927734375,-0.9908447265625,-0.021636962890625,0.0022430419921875
1782846175305831000,6.646830810546875,-0.9905853271484375,-0.0224761962890625,0.0029144287109375
1782846175315836000,6.6568359375,-0.9893798828125,-0.021942138671875,0.003509521484375
1782846175325841000,6.6668408203125,-0.988739013671875,-0.0208892822265625,0.0039825439453125
1782846175335846000,6.676845947265625,-0.9904327392578125,-0.021514892578125,0.0025787353515625
1782846175345851000,6.686850830078125,-0.9913787841796875,-0.02154541015625,0.001617431640625
1782846175355856000,6.69685595703125,-0.9920806884765625,-0.0216827392578125,0.0033111572265625
1782846175365860900,6.70686083984375,-0.9898223876953125,-0.022674560546875,0.0051727294921875
1782846175375865900,6.716865966796875,-0.990142822265625,-0.022430419921875,0.0027618408203125
1782846175385870800,6.726870849609375,-0.99072265625,-0.02191162109375,0.0033416748046875
1782846175395875800,6.736875732421875,-0.990997314453125,-0.0225830078125,0.00262451171875
1782846175405880800,6.746880859375,-0.9909210205078125,-0.0236968994140625,0.0036468505859375
1782846175415885800,6.7568857421875,-0.9908599853515625,-0.0212554931640625,0.0035400390625
1782846175425890800,6.766890869140625,-0.9901580810546875,-0.0210418701171875,0.00225830078125
1782846175435895800,6.776895751953125,-0.99151611328125,-0.0213470458984375,0.002655029296875
1782846175445900800,6.78690087890625,-0.990325927734375,-0.021026611328125,0.0034637451171875
1782846175455905800,6.79690576171875,-0.9907073974609375,-0.022979736328125,0.00274658203125
1782846175465910800,6.806910888671875,-0.98992919921875,-0.0227508544921875,0.0023651123046875
1782846175475916000,6.816916015625,-0.9899444580078125,-0.021392822265625,0.00177001953125
1782846175485921000,6.826921142578125,-0.9909820556640625,-0.0203094482421875,0.0027618408203125
1782846175495926000,6.836926025390625,-0.9899444580078125,-0.0216217041015625,0.0023651123046875
1782846175505931800,6.846931884765625,-0.9915771484375,-0.0226898193359375,0.002349853515625
1782846175515936800,6.856936767578125,-0.9918975830078125,-0.0226287841796875,0.00347900390625
1782846175525941800,6.866941650390625,-0.989898681640625,-0.02081298828125,0.00372314453125
1782846175535946000,6.876946044921875,-0.99053955078125,-0.0206756591796875,0.0015106201171875
1782846175545951700,6.88695166015625,-0.991790771484375,-0.0217132568359375,0.0018310546875
1782846175555956700,6.896956787109375,-0.990142822265625,-0.022003173828125,0.003173828125
1782846175565961700,6.906961669921875,-0.9899749755859375,-0.021881103515625,0.0047149658203125
1782846175575966700,6.916966796875,-0.990814208984375,-0.0218658447265625,0.0018157958984375
1782846175585971700,6.9269716796875,-0.98876953125,-0.02044677734375,0.00225830078125
1782846175595976700,6.936976806640625,-0.9908599853515625,-0.02252197265625,0.001495361328125
1782846175605982000,6.94698193359375,-0.99163818359375,-0.0222015380859375,0.004058837890625
1782846175615987000,6.956987060546875,-0.990814208984375,-0.021820068359375,0.0039520263671875
1782846175625992000,6.966991943359375,-0.989715576171875,-0.0213775634765625,0.002899169921875
1782846175635997000,6.976996826171875,-0.9912261962890625,-0.0216522216796875,0.003875732421875
1782846175646002000,6.987001953125,-0.9900054931640625,-0.02166748046875,0.00225830078125
1782846175656007000,6.9970068359375,-0.990478515625,-0.0205230712890625,0.0028076171875
1782846175666012000,7.007011962890625,-0.9897003173828125,-0.0208740234375,0.0030364990234375
1782846175676017000,7.017016845703125,-0.9900360107421875,-0.0202789306640625,0.0033416748046875
1782846175686022000,7.02702197265625,-0.9897308349609375,-0.0218353271484375,0.002105712890625
1782846175696027000,7.03702685546875,-0.99127197265625,-0.0210113525390625,0.00311279296875
1782846175706031900,7.047031982421875,-0.9903411865234375,-0.0222320556640625,0.00274658203125
1782846175716036900,7.057036865234375,-0.9899444580078125,-0.021331787109375,0.0019989013671875
1782846175726041900,7.067041748046875,-0.9892730712890625,-0.0205078125,0.0015716552734375
1782846175736046800,7.077046875,-0.9897308349609375,-0.020751953125,0.0028839111328125
1782846175746051800,7.0870517578125,-0.9913177490234375,-0.021881103515625,0.00421142578125
1782846175756056800,7.097056884765625,-0.9895477294921875,-0.0202178955078125,0.0036773681640625
1782846175766061800,7.107061767578125,-0.99072265625,-0.0222015380859375,0.003692626953125
1782846175776066800,7.11706689453125,-0.9914398193359375,-0.0217132568359375,0.001861572265625
1782846175786071800,7.12707177734375,-0.9908599853515625,-0.022613525390625,0.0037841796875
1782846175796076800,7.137076904296875,-0.9900360107421875,-0.0221099853515625,0.0030670166015625
1782846175806081800,7.147081787109375,-0.9917755126953125,-0.022003173828125,0.0033416748046875
1782846175816086800,7.157086669921875,-0.9908905029296875,-0.02093505859375,0.0030364990234375
1782846175826091800,7.167091796875,-0.9902191162109375,-0.0224609375,0.00274658203125
1782846175836096800,7.1770966796875,-0.9921417236328125,-0.0226287841796875,0.0026092529296875
1782846175846101800,7.187101806640625,-0.990753173828125,-0.022796630859375,0.0033416748046875
1782846175856106800,7.197106689453125,-0.990509033203125,-0.020721435546875,0.003173828125
1782846175866111700,7.20711181640625,-0.992279052734375,-0.0210113525390625,0.0026702880859375
1782846175876116700,7.21711669921875,-0.9891357421875,-0.0211181640625,0.002655029296875
1782846175886121700,7.227121826171875,-0.990081787109375,-0.0213775634765625,0.0042724609375
1782846175896126700,7.237126708984375,-0.988433837890625,-0.0204315185546875,0.0035247802734375
1782846175906131700,7.247131591796875,-0.9900054931640625,-0.0208892822265625,0.0025482177734375
1782846175916136700,7.25713671875,-0.99102783203125,-0.021331787109375,0.000823974609375
1782846175926141700,7.2671416015625,-0.989898681640625,-0.020660400390625,0.0039825439453125
1782846175936146700,7.277146728515625,-0.9898681640625,-0.02227783203125,0.00439453125
1782846175946151700,7.287151611328125,-0.989959716796875,-0.020477294921875,0.0028533935546875
1782846175956157000,7.297156982421875,-0.99005126953125,-0.0209808349609375,0.00225830078125
1782846175966162000,7.307161865234375,-0.9903106689453125,-0.023193359375,0.0038909912109375
1782846175976167000,7.3171669921875,-0.9901885986328125,-0.0218048095703125,0.003265380859375
1782846175986172000,7.327171875,-0.9902191162109375,-0.0204620361328125,0.002685546875
1782846175996177000,7.337177001953125,-0.9893341064453125,-0.0209197998046875,0.0025177001953125
1782846176006182000,7.347181884765625,-0.9890899658203125,-0.0218963623046875,0.003448486328125
1782846176016187000,7.357186767578125,-0.9891510009765625,-0.0207977294921875,0.001922607421875
1782846176026192000,7.36719189453125,-0.9905853271484375,-0.0218963623046875,0.0023193359375
1782846176036196900,7.37719677734375,-0.990478515625,-0.020416259765625,0.002685546875
1782846176046201900,7.387201904296875,-0.9913482666015625,-0.021514892578125,0.0029296875
1782846176056206800,7.397206787109375,-0.99102783203125,-0.020965576171875,0.0037078857421875
1782846176066211800,7.4072119140625,-0.989105224609375,-0.021881103515625,0.003204345703125
1782846176076216800,7.417216796875,-0.98992919921875,-0.02294921875,0.0023193359375
1782846176086221800,7.427221923828125,-0.9911651611328125,-0.021728515625,0.0027008056640625
1782846176096226800,7.437226806640625,-0.989990234375,-0.0216522216796875,0.0027313232421875
1782846176106231800,7.447231689453125,-0.9886016845703125,-0.0211029052734375,0.003173828125
1782846176116236800,7.45723681640625,-0.9905853271484375,-0.0217742919921875,0.0030517578125
1782846176126242000,7.467241943359375,-0.9893341064453125,-0.0227813720703125,0.0023651123046875
1782846176136247000,7.4772470703125,-0.9901123046875,-0.0223236083984375,0.003143310546875
1782846176146252000,7.487251953125,-0.9907684326171875,-0.021636962890625,0.0009613037109375
1782846176156257000,7.497257080078125,-0.990142822265625,-0.021728515625,0.0025177001953125
1782846176166262000,7.507261962890625,-0.989044189453125,-0.0215301513671875,0.003326416015625
1782846176176267000,7.51726708984375,-0.9897003173828125,-0.0218658447265625,0.002838134765625
1782846176186272000,7.52727197265625,-0.9898529052734375,-0.02099609375,0.0025634765625
1782846176196277000,7.537277099609375,-0.99176025390625,-0.0212860107421875,0.00311279296875
1782846176206282000,7.547281982421875,-0.990814208984375,-0.01995849609375,0.001922607421875
1782846176216287000,7.557286865234375,-0.99017333984375,-0.0211639404296875,0.0023345947265625
1782846176226292000,7.5672919921875,-0.9892120361328125,-0.0216064453125,0.0018463134765625
1782846176236297000,7.577296875,-0.9901275634765625,-0.0217437744140625,0.0012664794921875
1782846176246302000,7.587302001953125,-0.9904327392578125,-0.021484375,0.003753662109375
1782846176256307000,7.597306884765625,-0.989990234375,-0.021636962890625,0.0046234130859375
1782846176266312000,7.60731201171875,-0.990264892578125,-0.021728515625,0.0033111572265625
1782846176276317000,7.61731689453125,-0.9897613525390625,-0.02197265625,0.003021240234375
1782846176286322000,7.627322021484375,-0.991607666015625,-0.0223846435546875,0.0040283203125
1782846176296327000,7.637326904296875,-0.992828369140625,-0.0225372314453125,0.004302978515625
1782846176306332000,7.647331787109375,-0.990753173828125,-0.02203369140625,0.0022430419921875
1782846176316337000,7.6573369140625,-0.9892730712890625,-0.0222320556640625,0.0009002685546875
1782846176326342000,7.667341796875,-0.990997314453125,-0.0216522216796875,0.0016021728515625
1782846176336347000,7.677346923828125,-0.990997314453125,-0.0219573974609375,0.0025634765625
1782846176346351900,7.687351806640625,-0.9912872314453125,-0.0223236083984375,0.0029449462890625
1782846176356356900,7.69735693359375,-0.9901885986328125,-0.0206146240234375,0.00311279296875
1782846176366361900,7.70736181640625,-0.9900360107421875,-0.020751953125,0.00360107421875
1782846176376366800,7.717366943359375,-0.990234375,-0.0221099853515625,0.0032806396484375
1782846176386371800,7.727371826171875,-0.9897613525390625,-0.020721435546875,0.002471923828125
1782846176396376800,7.737376953125,-0.990692138671875,-0.0211029052734375,0.0034942626953125
1782846176406381800,7.7473818359375,-0.9902191162109375,-0.0229644775390625,0.0014495849609375
1782846176416386800,7.75738671875,-0.989898681640625,-0.021759033203125,0.0025177001953125
1782846176426391800,7.767391845703125,-0.990081787109375,-0.0219879150390625,0.003753662109375
1782846176436396800,7.777396728515625,-0.991180419921875,-0.0229949951171875,0.0035400390625
1782846176446401800,7.78740185546875,-0.989990234375,-0.0230255126953125,0.0036468505859375
1782846176456407000,7.797406982421875,-0.9911041259765625,-0.020721435546875,0.0008544921875
1782846176466412000,7.807412109375,-0.990142822265625,-0.02154541015625,0.002532958984375
1782846176476417000,7.8174169921875,-0.9896392822265625,-0.0215301513671875,0.002471923828125
1782846176486422000,7.827422119140625,-0.9900970458984375,-0.021942138671875,0.00360107421875
1782846176496427000,7.837427001953125,-0.9893646240234375,-0.0202789306640625,0.002105712890625
1782846176506432000,7.847431884765625,-0.9912261962890625,-0.0213775634765625,0.000579833984375
1782846176516437000,7.85743701171875,-0.991485595703125,-0.021270751953125,0.002899169921875
1782846176526442000,7.86744189453125,-0.9911956787109375,-0.0193023681640625,0.00274658203125
1782846176536447000,7.877447021484375,-0.991729736328125,-0.0210723876953125,0.0020599365234375
1782846176546452000,7.887451904296875,-0.991546630859375,-0.021240234375,0.0033721923828125
1782846176556457000,7.89745703125,-0.991546630859375,-0.0213623046875,0.00250244140625
1782846176566462000,7.9074619140625,-0.9904937744140625,-0.0199432373046875,0.0028076171875
1782846176576467000,7.917467041015625,-0.989410400390625,-0.021026611328125,0.00323486328125
1782846176586472000,7.927471923828125,-0.9904327392578125,-0.022064208984375,0.0026702880859375
1782846176596477000,7.937476806640625,-0.9918670654296875,-0.0229644775390625,0.0020751953125
1782846176606482000,7.94748193359375,-0.9924468994140625,-0.020843505859375,0.0032501220703125
1782846176616487000,7.95748681640625,-0.9911956787109375,-0.0207672119140625,0.003631591796875
1782846176626492200,7.9674921875,-0.9910430908203125,-0.020477294921875,0.0026092529296875
1782846176636497200,7.9774970703125,-0.99041748046875,-0.02105712890625,0.0010528564453125
1782846176646502100,7.987502197265625,-0.9906005859375,-0.022186279296875,0.004425048828125
1782846176656507100,7.997507080078125,-0.989959716796875,-0.022247314453125,0.003662109375
1782846176666512100,8.00751220703125,-0.990386962890625,-0.0220489501953125,0.0040435791015625
1782846176676517400,8.017517333984374,-0.9899444580078125,-0.0218963623046875,0.00390625
1782846176686522400,8.0275224609375,-0.99078369140625,-0.0225372314453125,0.0015716552734375
1782846176696527400,8.03752734375,-0.9918670654296875,-0.021392822265625,0.0026702880859375
1782846176706532400,8.047532470703125,-0.991973876953125,-0.021087646484375,0.0026092529296875
1782846176716537300,8.057537353515626,-0.9908599853515625,-0.020233154296875,0.0019073486328125
1782846176726542300,8.067542236328125,-0.9906768798828125,-0.020660400390625,0.0030059814453125
1782846176736547300,8.07754736328125,-0.9918975830078125,-0.021942138671875,0.001373291015625
1782846176746552300,8.08755224609375,-0.9903564453125,-0.0212860107421875,0.002960205078125
1782846176756557300,8.097557373046875,-0.990142822265625,-0.022613525390625,0.002716064453125
1782846176766562300,8.107562255859374,-0.9904937744140625,-0.02203369140625,0.0034332275390625
1782846176776567300,8.1175673828125,-0.991607666015625,-0.0210418701171875,0.0015869140625
1782846176786572300,8.127572265625,-0.9918670654296875,-0.021575927734375,0.0028228759765625
1782846176796577300,8.137577392578125,-0.99029541015625,-0.0211029052734375,0.001220703125
1782846176806582300,8.147582275390626,-0.99053955078125,-0.0203857421875,0.0041351318359375
1782846176816587300,8.157587158203125,-0.99151611328125,-0.0195770263671875,0.0047760009765625
1782846176826592300,8.16759228515625,-0.991485595703125,-0.0199737548828125,0.0026092529296875
1782846176836597200,8.17759716796875,-0.9901275634765625,-0.0214691162109375,0.0028839111328125
1782846176846602200,8.187602294921875,-0.9904327392578125,-0.0213165283203125,0.00238037109375
1782846176856607200,8.197607177734374,-0.990325927734375,-0.0209503173828125,0.0020294189453125
1782846176866612200,8.2076123046875,-0.9914093017578125,-0.0223236083984375,0.0044708251953125
1782846176876618200,8.2176181640625,-0.9909210205078125,-0.021514892578125,0.0015716552734375
1782846176886622200,8.227622314453125,-0.991729736328125,-0.0214691162109375,0.0028076171875
1782846176896627200,8.237627197265626,-0.9918365478515625,-0.02130126953125,0.00299072265625
1782846176906633200,8.24763330078125,-0.9898834228515625,-0.0218353271484375,0.0023040771484375
1782846176916638200,8.25763818359375,-0.990264892578125,-0.022430419921875,0.0024261474609375
1782846176926643200,8.267643310546875,-0.991943359375,-0.0221710205078125,0.00311279296875
1782846176936648200,8.277648193359376,-0.9901580810546875,-0.020294189453125,0.0015716552734375
1782846176946653200,8.287653076171875,-0.99066162109375,-0.0207061767578125,0.002197265625
1782846176956658200,8.297658203125,-0.991485595703125,-0.021514892578125,0.0024261474609375
1782846176966663200,8.3076630859375,-0.9892578125,-0.0218963623046875,0.00244140625
1782846176976668200,8.317668212890625,-0.990142822265625,-0.0220794677734375,0.000823974609375
1782846176986673200,8.327673095703124,-0.990386962890625,-0.0209808349609375,0.002288818359375
1782846176996678100,8.33767822265625,-0.9922637939453125,-0.0216827392578125,0.0028076171875
1782846177006683100,8.34768310546875,-0.9907684326171875,-0.0215911865234375,0.00311279296875
1782846177016688000,8.357688232421875,-0.9907379150390625,-0.0219573974609375,0.002899169921875
1782846177026693000,8.367693115234376,-0.991485595703125,-0.0212860107421875,0.00323486328125
1782846177036698000,8.377697998046875,-0.9923553466796875,-0.019744873046875,0.002227783203125
1782846177046703000,8.387703125,-0.990814208984375,-0.0224761962890625,0.0022430419921875
1782846177056708000,8.3977080078125,-0.9903106689453125,-0.0200653076171875,0.0025787353515625
1782846177066713000,8.407713134765626,-0.9914093017578125,-0.0213165283203125,0.0019073486328125
1782846177076718000,8.417718017578125,-0.9906463623046875,-0.0211181640625,0.002288818359375
1782846177086723000,8.42772314453125,-0.989959716796875,-0.021484375,0.0031890869140625
1782846177096728000,8.43772802734375,-0.9918060302734375,-0.0206298828125,0.002838134765625
1782846177106733000,8.447733154296875,-0.9906768798828125,-0.021453857421875,0.0039215087890625
1782846177116738000,8.457738037109374,-0.990966796875,-0.0223388671875,0.0039215087890625
1782846177126743000,8.467742919921875,-0.99127197265625,-0.0227203369140625,0.0007781982421875
1782846177136748000,8.477748046875,-0.9915924072265625,-0.02142333984375,0.003753662109375
1782846177146753000,8.4877529296875,-0.9891204833984375,-0.0213165283203125,0.00390625
1782846177156758000,8.497758056640626,-0.9906463623046875,-0.02142333984375,0.0034332275390625
1782846177166763000,8.507762939453125,-0.989471435546875,-0.021392822265625,0.004058837890625
1782846177176768000,8.51776806640625,-0.99139404296875,-0.02130126953125,0.0022125244140625
1782846177186773000,8.52777294921875,-0.990997314453125,-0.021575927734375,0.003173828125
1782846177196778000,8.537778076171875,-0.990234375,-0.020477294921875,0.0027618408203125
1782846177206783000,8.547782958984374,-0.9927978515625,-0.0211944580078125,0.00408935546875
1782846177216788000,8.5577880859375,-0.9907073974609375,-0.0197601318359375,0.0024871826171875
1782846177226793000,8.56779296875,-0.9891815185546875,-0.02117919921875,0.0019989013671875
1782846177236798000,8.5777978515625,-0.9896392822265625,-0.022369384765625,0.00439453125
1782846177246803000,8.587802978515626,-0.9898529052734375,-0.0220947265625,0.00311279296875
1782846177256808000,8.597807861328125,-0.9905242919921875,-0.0218353271484375,0.0037994384765625
1782846177266813000,8.60781298828125,-0.9911651611328125,-0.022216796875,0.0025787353515625
1782846177276818000,8.61781787109375,-0.999542236328125,-0.0205841064453125,-0.000091552734375
1782846177286823000,8.627822998046875,-1.0089874267578125,-0.0251617431640625,-0.0079193115234375
1782846177296828000,8.637827880859374,-0.941558837890625,-0.0249481201171875,0.0279693603515625
1782846177306833200,8.647833251953125,-1.0203704833984375,-0.021942138671875,-0.005157470703125
1782846177316838100,8.657838134765624,-0.9722442626953125,-0.0234375,0.00494384765625
1782846177326843100,8.667843017578125,-1.0006561279296875,-0.02099609375,-0.0010986328125
1782846177336848400,8.677848388671874,-0.98968505859375,-0.0193939208984375,0.0039825439453125
