time,seconds_elapsed,z,y,x
1782846168735040000,0.0760400390625,0.17834873445928096,-0.013476097367797046,0.025279133257106876
1782846168745045000,0.086044921875,0.1146077914327383,-0.004054225560557097,0.016196295562328305
1782846168755050000,0.096050048828125,0.02048106249272823,-0.0053112216180190444,-0.018361366925016043
1782846168765055000,0.106054931640625,0.09380115024745464,-0.014955723199993371,0.006711201776168308
1782846168775060000,0.11606005859375,0.14483283382654188,-0.010284059860836714,0.028535125678637994
1782846168785065000,0.12606494140625,0.06566869621872902,0.00598884688494727,0.0028168338192859662
1782846168795070000,0.136070068359375,0.04381692989468574,-0.0116908579188399,-0.005383257091057021
1782846168805075000,0.146074951171875,0.11459668551683425,-0.02263599377060309,0.01858069963096641
1782846168815080000,0.156079833984375,0.12432663689255714,0.013346296975668519,0.008975671542854979
1782846168825085000,0.1660849609375,0.06342296311855315,-0.01419672152623534,-0.022799057111516592
1782846168835090000,0.17608984375,0.060875616723299025,-0.0021192206436768174,-0.014245099845761432
1782846168845095000,0.186094970703125,0.12043372110724448,-0.013235055153537541,-0.004085673294879961
1782846168855100000,0.196099853515625,0.12552432224452495,-0.018892277197632937,-0.019496474185457916
1782846168865105000,0.20610498046875,0.05324702154099941,-0.0020458996791392564,-0.003822092738538049
1782846168875110000,0.21610986328125,0.08302315112352371,-0.00393063571350649,-0.009217015151213854
1782846168885115000,0.226114990234375,0.11295125639736651,-0.013334588271565735,0.011453014591953251
1782846168895120000,0.236119873046875,0.08556757490932941,-0.004665343196224421,0.012704733969387597
1782846168905124900,0.246124755859375,0.07688800936937332,0.016737912175338713,0.0060137666970724235
1782846168915129900,0.2561298828125,0.08377309270799159,0.0001964724201709032,0.009492610372335184
1782846168925134800,0.266134765625,0.09409808736741543,-0.005465371000114828,0.0005139796874136664
1782846168935139800,0.276139892578125,0.08182663481533527,0.0014525368958711623,-0.01080350345794577
1782846168945144800,0.286144775390625,0.07988017692267894,-0.0014977094781585037,-0.012755852235271595
1782846168955149800,0.29614990234375,0.09963526322841644,-0.0007376848910935223,-0.006141023505665362
1782846168965154800,0.30615478515625,0.10053601146042346,0.002716711612790823,-0.007905866337276529
1782846168975159800,0.316159912109375,0.09799158767461776,-0.004726571864169091,-0.008097119159635622
1782846168985164800,0.326164794921875,0.09006079467535018,-0.016968670457601545,-0.007659191249962896
1782846168995169800,0.336169677734375,0.09993629200160503,-0.011687917043082415,0.004449296142614912
1782846169005174800,0.3461748046875,0.09350129051804543,-0.0017795586268417535,0.0040696354755316855
1782846169015179800,0.3561796875,0.08631868553757667,0.0031835802058689296,-0.012631556852033828
1782846169025184800,0.366184814453125,0.09694120183885097,-0.003025795828271657,-0.005816410644201095
1782846169035189800,0.376189697265625,0.08826280534267425,-0.003630282793752849,0.0012927112582372502
1782846169045194800,0.38619482421875,0.07613982135057448,0.005752115519624203,-0.0077233059947378925
1782846169055199700,0.39619970703125,0.09095511316657066,-0.010598751833196729,0.0010032039594836532
1782846169065204700,0.406204833984375,0.09275134893357753,-0.011815854271687567,0.002589027829223778
1782846169075210000,0.4162099609375,0.08751344828009605,0.00018392346585169433,-0.018021883004694244
1782846169085215000,0.426215087890625,0.09648819737434387,0.004251720894034952,-0.0005745416350779124
1782846169095220000,0.436219970703125,0.09693360305428504,-0.001258493894804269,-0.00351402230320964
1782846169105225000,0.446224853515625,0.08930325430631637,0.001385134215466678,0.009111052292399108
1782846169115230000,0.45622998046875,0.09633972881436348,0.001232117344532162,0.006142719989118631
1782846169125235000,0.46623486328125,0.09783610485196113,-0.010139883883483707,-0.00005941802005982026
1782846169135240000,0.476239990234375,0.09813596458137035,-0.014516856858693063,-0.012747139205853453
1782846169145245000,0.486244873046875,0.09200023830533027,0.0071996291805058715,-0.008596396751550491
1782846169155250000,0.49625,0.09454232400357723,-0.00826747760772705,0.004532679560151882
1782846169165255000,0.5062548828125,0.08526479257047176,0.0030618352560326453,-0.007608541058248374
1782846169175260000,0.516260009765625,0.07853051587939262,-0.0069195701301097865,0.004376758346077985
1782846169185265000,0.526264892578125,0.07583470092415809,0.001247132250573486,0.006364810907735954
1782846169195270000,0.536269775390625,0.07508768194913863,-0.0028623123622499407,0.007593752197781577
1782846169205275000,0.54627490234375,0.08346855680346489,0.00023033815715461968,-0.0017308309641550295
1782846169215279900,0.55627978515625,0.08391571604907512,-0.002507671971991658,-0.00481201024147449
1782846169225284900,0.566284912109375,0.08571253633797168,-0.0009172061764635145,-0.0037245552147738632
1782846169235289900,0.576289794921875,0.09259411254525184,-0.008922306520957499,0.00413292595311068
1782846169245294800,0.586294921875,0.08765724066495895,0.0037225459207780656,-0.004303012689854949
1782846169255299800,0.5962998046875,0.0933452231734991,-0.013988960527069865,0.0047487380302045495
1782846169265304800,0.606304931640625,0.09274491919279097,-0.006113276982214301,-0.003974997728329617
1782846169275309800,0.616309814453125,0.09499123681485652,-0.004257767042331397,-0.003646391395048704
1782846169285314800,0.626314697265625,0.08481354167163371,0.006607344109471887,-0.0026128356797853482
1782846169295319800,0.63631982421875,0.079725278621912,0.012464563971385359,-0.001553284723451361
1782846169305324800,0.64632470703125,0.08436287529468536,0.0007227247839793563,-0.0013819307615165598
1782846169315329800,0.656329833984375,0.10022153868377208,-0.013041194815561175,-0.0022812907540355806
1782846169325334800,0.666334716796875,0.09034487231373786,0.003175798758212477,-0.015373297874804119
1782846169335339800,0.67633984375,0.09872399360239505,0.014291669800691307,-0.018426438367727678
1782846169345344800,0.6863447265625,0.09482990877330302,0.015645532095059752,0.012161445989098865
1782846169355349800,0.696349853515625,0.08959025455415248,0.007407700706925243,0.006798923442105297
1782846169365354800,0.706354736328125,0.0946785176038742,0.00992980306306854,-0.0026234438387677072
1782846169375359700,0.71635986328125,0.08555179281830787,-0.006286386793106794,-0.009969797146739437
1782846169385364700,0.72636474609375,0.08959317716360092,-0.0014010807032696902,0.006074525007558986
1782846169395369700,0.73636962890625,0.09243629163503646,-0.0032061025649309156,-0.004129521569760982
1782846169405374700,0.746374755859375,0.09498071542084216,0.00020807152641937136,-0.009697834637830964
1782846169415379700,0.756379638671875,0.09303776465952396,0.014909728633798658,-0.0034219623888726344
1782846169425384700,0.766384765625,0.081965166503191,-0.0050284408875741066,-0.009651116269140038
1782846169435389700,0.7763896484375,0.08346095801889895,-0.002726191827189177,-0.00681367805324262
1782846169445394700,0.786394775390625,0.0833066442400217,-0.010292389297764748,-0.01470219368020771
1782846169455400200,0.796400146484375,0.08674772460460663,-0.019388244021032005,0.006199904952896759
1782846169465405200,0.8064052734375,0.09901917715668677,-0.0014987689240835607,0.007006634208920877
1782846169475410200,0.81641015625,0.08674714008271693,0.00022052914919331668,-0.0053320360771846025
1782846169485415200,0.826415283203125,0.0841997936874628,-0.0032087329134345053,-0.0007771789345541037
1782846169495420200,0.836420166015625,0.07537175958752632,-0.0013261888361535965,0.00041657687767874445
1782846169505425200,0.846425048828125,0.08434884676933288,-0.006669851419050246,-0.001872013550112024
1782846169515430100,0.85643017578125,0.11023498317599296,-0.009299158743023872,0.0029600371156819163
1782846169525435100,0.86643505859375,0.09182955791354179,-0.001090389052592218,0.010076465541741344
1782846169535440100,0.876440185546875,0.08314940785169601,-0.011818557685427366,0.0101109340669238
1782846169545445000,0.886445068359375,0.0916723215252161,-0.011403072219714521,0.0026484663988812825
1782846169555450000,0.8964501953125,0.0904740516513586,0.005103259689453989,-0.005178427834494505
1782846169565455000,0.906455078125,0.08388999708592891,-0.0002668890415690839,-0.0005689498612191528
1782846169575460000,0.916460205078125,0.08299158694148064,-0.015781305570248514,-0.0006453053163480944
1782846169585465000,0.926465087890625,0.08658055134415626,0.0013652422049082815,0.0014755638617207295
1782846169595470000,0.936469970703125,0.09481061955094337,0.0024306429467163978,0.0003019352387753315
1782846169605475000,0.94647509765625,0.08987140958309173,0.0023283516160212455,-0.0012370423981104977
1782846169615480000,0.95647998046875,0.0782002610117197,0.004267667381837964,-0.0018684881524648517
1782846169625485000,0.966485107421875,0.09091887280941009,0.015370843339525162,-0.0021550682751927523
1782846169635490300,0.976490234375,0.08179214802384376,0.0018364764458499848,-0.0038672698874026535
1782846169645495300,0.986495361328125,0.09301672187149525,0.0011624313754960893,0.004009523335727863
1782846169655500300,0.996500244140625,0.08089549144506454,-0.009736691643763333,0.002672319915215485
1782846169665505300,1.00650537109375,0.10019932685196399,-0.008704626915976404,0.004569168795773294
1782846169675510300,1.01651025390625,0.1004997711032629,0.004998721602745354,-0.005127494514989666
1782846169685515300,1.026515380859375,0.09122223967015743,0.002906790824793279,-0.009006701435358262
1782846169695520300,1.036520263671875,0.08673194251358508,-0.0025627083611674604,0.012775223656021989
1782846169705525200,1.046525146484375,0.0870318022429943,-0.0028776195292361077,-0.00087838341986062
1782846169715530200,1.0565302734375,0.0789496180742979,0.00751178213590756,0.002651041948457714
1782846169725535200,1.06653515625,0.08014438081681728,-0.008681264306697994,0.007748353671026415
1782846169735540200,1.076540283203125,0.09810089326798915,-0.0038804946951568123,-0.004088652986544184
1782846169745545200,1.086545166015625,0.08254092056453227,-0.0014414675125852226,-0.009331120217288843
1782846169755550200,1.09655029296875,0.10753098491430282,0.0007426350608468055,-0.0015837711932603269
1782846169765555200,1.10655517578125,0.09496317976415157,0.006810301069356501,-0.014614293917757457
1782846169775560200,1.116560302734375,0.0897246945887804,-0.000918356953933835,-0.01161057749055326
1782846169785565200,1.126565185546875,0.0994540614426136,-0.009117737761512399,-0.012283800576999782
1782846169795570200,1.136570068359375,0.11321896742284297,0.0068113057163543995,0.002473342727415729
1782846169805575200,1.1465751953125,0.0952577787965536,-0.002683046805206686,0.001657174356188625
1782846169815580200,1.156580078125,0.08328677049577236,-0.009872465118952095,-0.008667822586523833
1782846169825585200,1.166585205078125,0.10034545732438564,-0.0035895854571834206,0.0009722357157734222
1782846169835590100,1.176590087890625,0.08388707447648049,-0.00037919030962511895,0.015310950395429972
1782846169845595100,1.18659521484375,0.08927636629939079,0.006107431763317435,-0.0012915353645919822
1782846169855600000,1.19660009765625,0.09047171356379985,-0.007443685335759073,-0.01659010120248422
1782846169865605000,1.206605224609375,0.08568214119970798,0.013106679533515124,0.006781435734475962
1782846169875610000,1.216610107421875,0.0859820009291172,0.004400463448651135,-0.002859083792124875
1782846169885615000,1.226614990234375,0.07461363469660282,-0.002354216709639877,0.00799957250271691
1782846169895620000,1.2366201171875,0.08673778773248195,-0.005972681201435625,0.01171735320012085
1782846169905625300,1.246625244140625,0.08958031768202782,0.0009374817795120179,0.0001318439354537986
1782846169915630300,1.25663037109375,0.10783493629693984,0.002758103069104254,-0.003462292115972377
1782846169925635300,1.26663525390625,0.08688333368301392,-0.011789313324633986,0.005750197557173669
1782846169935640300,1.276640380859375,0.08359598257541656,-0.014560129744838923,0.01136472667043563
1782846169945645300,1.286645263671875,0.08913725008964538,-0.0007228526481427252,0.0017948589439620263
1782846169955650300,1.296650390625,0.10066226818859576,-0.003245137667376548,0.007024379928165581
1782846169965655300,1.3066552734375,0.0934843393832445,0.010874043376930057,-0.014854269836226012
1782846169975660300,1.316660400390625,0.0864525410503149,-0.0037172852237708862,-0.006423005085089244
1782846169985665300,1.326665283203125,0.09587795652151107,-0.0022928053786046803,0.008627196031901985
1782846169995670300,1.336670166015625,0.09452829547822475,-0.002129851635545492,-0.012631120743905194
1782846170005675300,1.34667529296875,0.10290624772310257,0.0051158634427003555,0.0020442579946131443
1782846170015680300,1.35668017578125,0.09901508550345897,0.004854125500284135,-0.0016035239232121965
1782846170025685200,1.366685302734375,0.08464812197685241,0.0016360767692327497,-0.009736796675040385
1782846170035690200,1.376690185546875,0.09108195441663265,0.0019467501536011695,-0.002847359105001669
1782846170045695200,1.3866953125,0.08943827886283397,-0.0009786905727349221,0.00819352417223854
1782846170055700200,1.3967001953125,0.09781506206393241,-0.0017412176441401243,-0.02299353622071212
1782846170065705200,1.406705322265625,0.08673954129815101,0.006467296317964792,0.006154522308055311
1782846170075710200,1.416710205078125,0.09736439568698406,-0.002840009198896587,0.008048615259234794
1782846170085715200,1.426715087890625,0.08688976342380046,-0.0055391668886877595,0.0023066261246916836
1782846170095720200,1.43672021484375,0.09961129783093929,0.012467358716670422,0.010238391804916317
1782846170105725200,1.44672509765625,0.08674129486382007,0.010116046350169926,0.008938903746020514
1782846170115730200,1.456730224609375,0.08404840251803397,0.003212349642626941,-0.0012207922329194843
1782846170125735200,1.466735107421875,0.09377367771863937,-0.021112857590243218,-0.01093983405556064
1782846170135740200,1.476740234375,0.07701543514132499,0.0014323526243679224,0.00507381896583829
1782846170145745200,1.4867451171875,0.0876379514425993,0.008545088972710073,0.007296888143057003
1782846170155750400,1.49675048828125,0.09586217443048954,0.0007331913790665567,0.008667395611549727
1782846170165755400,1.50675537109375,0.10349193865656853,0.002775730057340115,-0.008607516367186326
1782846170175760400,1.516760498046875,0.08987842384576797,0.008902962499670684,-0.005681587017083075
1782846170185765400,1.526765380859375,0.08568798641860484,0.0008543518070131539,0.004951971268013585
1782846170195770400,1.536770263671875,0.08553659524917602,-0.008192147349193692,0.00828976022148272
1782846170205775400,1.546775390625,0.09825462252497673,-0.013225392276048659,0.0007884492472396232
1782846170215780400,1.5567802734375,0.09256780906021594,-0.003633680327236652,-0.0039327957045519725
1782846170225785300,1.566785400390625,0.10229249973893165,0.020521394503116606,-0.00883297056995798
1782846170235790300,1.576790283203125,0.08208908514380454,-0.0033083390966989097,-0.014143970708979759
1782846170245795300,1.58679541015625,0.09016659313738346,-0.008117292014695703,-0.0016406775958254002
1782846170255800300,1.59680029296875,0.09106500328183173,0.01955530768362805,0.004052853304089513
1782846170265805300,1.606805419921875,0.08807400477230548,0.008663710383698344,0.013135149859462398
1782846170275810300,1.616810302734375,0.08807108216285706,-0.014853486668225377,0.009813821133738384
1782846170285815300,1.626815185546875,0.08702011180520057,0.0010270962917245923,-0.00488666692986153
1782846170295820300,1.6368203125,0.10407704506814479,0.004092877070512623,0.0031893158269114793
1782846170305825300,1.6468251953125,0.09105506640970706,0.00483951245304197,-0.010758205294783692
1782846170315830300,1.656830322265625,0.08895897091329097,-0.0030522271774709223,0.005437215767998714
1782846170325835300,1.666835205078125,0.09389292018413543,-0.008547481859195977,-0.0034149641092168165
1782846170335840300,1.67684033203125,0.08251695516705512,-0.010493757088761777,-0.020476345218415373
1782846170345845200,1.68684521484375,0.09059913933575153,-0.00309285144880414,-0.0036229580038227138
1782846170355850200,1.696850341796875,0.10167056844830512,-0.009752729463111608,-0.012033161700621712
1782846170365855200,1.706855224609375,0.09358721523582934,0.013871416828315703,0.01019142684105318
1782846170375860200,1.716860107421875,0.09882277780175208,0.01199822510126978,0.014707107317342887
1782846170385865200,1.726865234375,0.09493278462588786,0.00958173854406923,-0.011015890399878844
1782846170395870200,1.7368701171875,0.09642974518537521,0.004345975048746914,0.0013010749444947577
1782846170405875200,1.746875244140625,0.07637655271589755,0.010865732206311077,-0.005099081271258183
1782846170415880200,1.756880126953125,0.08416004619896411,-0.010045885457098483,0.004665432244481053
1782846170425885200,1.76688525390625,0.08820143054425716,0.005753467226494103,0.00045912367803975935
1782846170435891200,1.77689111328125,0.10032383001446724,0.009273348448332398,-0.005714612503850367
1782846170445895200,1.786895263671875,0.0923953751027584,-0.011628460207115858,-0.0047542042231885715
1782846170455899400,1.7968994140625,0.08087035700380801,-0.004582450685743243,-0.01422702533295378
1782846170465905400,1.806905517578125,0.09209376180768013,-0.0076028944854624565,0.003404641361313406
1782846170475910400,1.816910400390625,0.07653203553855419,0.0109286779073067,-0.008721968493133317
1782846170485915400,1.826915283203125,0.08879939643740653,-0.002871335918921977,0.006961258413945324
1782846170495920400,1.83692041015625,0.08356149578392505,-0.005260185550525784,0.01974163545240881
1782846170505925400,1.84692529296875,0.09673018943667411,-0.006020794659480452,-0.0042148024001508015
1782846170515930400,1.856930419921875,0.08745674965679645,-0.01008408030932769,-0.010391429225448518
1782846170525935400,1.866935302734375,0.08550736915469169,-0.00721460755392909,-0.013090328903624321
1782846170535940400,1.8769404296875,0.09343114789128303,0.010176233838498592,0.004690886346145998
1782846170545945300,1.8869453125,0.091933602809906,0.0012282996859401465,-0.0024200325044454072
1782846170555950300,1.896950439453125,0.10510112741887569,0.008751479998696595,-0.007717207330802921
1782846170565955300,1.906955322265625,0.08265724042057991,0.00029237054269760844,-0.00010103552194777875
1782846170575960300,1.916960205078125,0.09043781129419803,0.0032991876758635044,-0.006645164502365514
1782846170585965300,1.92696533203125,0.09911386970281601,0.00838365133330226,-0.0037405907508335076
1782846170595970300,1.93697021484375,0.09716858085393905,-0.003429937916062772,-0.0029933959625894203
1782846170605975300,1.946975341796875,0.1039022730231285,-0.0026808913807384667,0.003464356208895333
1782846170615980300,1.956980224609375,0.09253156870305537,-0.014150434699095785,0.014998226617870385
1782846170625985300,1.9669853515625,0.0889361745595932,0.010896419605519621,0.0003154728570720181
1782846170635990300,1.976990234375,0.10329846191108226,-0.0018431984475813805,-0.015743980650987942
1782846170645995300,1.986995361328125,0.09192658854722977,0.0011400551469065248,-0.008994659371115267
1782846170656000300,1.997000244140625,0.07801087591946125,-0.0008363594925962388,-0.0033795662855613043
1782846170666005200,2.007005126953125,0.08070376826524735,0.00024135274151340126,0.02451917716870084
1782846170676010500,2.017010498046875,0.07801087591946125,0.01804559724042192,0.004465562290826347
1782846170686015500,2.027015380859375,0.07651566892564296,0.0004823584231548011,0.0033604620095808056
1782846170696020500,2.0370205078125,0.08624211317002772,0.005112465909216553,-0.002470586798037402
1782846170706025500,2.047025390625,0.08758300638496876,0.0005876819611527025,-0.0035636838309466836
1782846170716030500,2.057030517578125,0.0803963097512722,0.004353537300694733,-0.02447087876427686
1782846170726035700,2.06703564453125,0.09072013536691666,0.008913849219866097,-0.010216967707686125
1782846170736040700,2.077040771484375,0.0841343272358179,0.001818520664051175,-0.018302944418799597
1782846170746045700,2.087045654296875,0.08892389959990978,-0.003628036037739366,-0.009799011723673902
1782846170756050700,2.09705078125,0.07814940760731696,0.004785480710864067,-0.0008515707614598795
1782846170766055700,2.1070556640625,0.09041852207183837,0.007839096127822996,-0.0032490809068433006
1782846170776060700,2.117060791015625,0.10597849477529525,0.003148362762015313,-0.007428702395758591
1782846170786065700,2.127065673828125,0.09176058433055877,-0.006024320057127624,-0.007266531820700038
1782846170796070700,2.137070556640625,0.09310790728628635,-0.001863474050629884,-0.0032467633688822387
1782846170806075600,2.14707568359375,0.10013736753165721,0.0032591479264199733,-0.004858883873792365
1782846170816080600,2.15708056640625,0.09010697190463543,-0.0014927775747142732,-0.005940123788837809
1782846170826085600,2.167085693359375,0.08741232599318027,0.004869268270488828,0.002453537481825333
1782846170836090600,2.177090576171875,0.0823264010310173,0.009407514488324522,-0.0028580426125088703
1782846170846095600,2.187095703125,0.09399988768994808,-0.0032348172027617693,-0.001559511251549702
1782846170856100600,2.1971005859375,0.08607084825634956,-0.0015311733563430606,0.012085830319486558
1782846170866105600,2.207105712890625,0.07933832513093948,0.0030642646751366555,-0.0026229529317119155
1782846170876110600,2.217110595703125,0.08307868070304393,-0.00814419828793034,-0.0001619262631749734
1782846170886115600,2.227115478515625,0.09744447518587111,0.007814710605237633,0.00039969424153678116
1782846170896120600,2.23712060546875,0.09519991112947464,0.012899429991003125,0.005069875726371537
1782846170906125600,2.24712548828125,0.10088672459423541,-0.004518664734531194,0.018998511767794844
1782846170916130600,2.257130615234375,0.07604805141389369,0.0030605748807080086,0.00741370575602632
1782846170926135600,2.267135498046875,0.07978665342032909,0.00481479813689366,-0.002131810697191395
1782846170936140500,2.277140625,0.09789046538770198,0.008498254156298934,-0.019231468857009895
1782846170946145500,2.2871455078125,0.09085632896721363,-0.007580134664382785,-0.0019913975795032455
1782846170956150500,2.297150634765625,0.0839729991942644,0.007659867103397846,0.006966909553308505
1782846170966155500,2.307155517578125,0.07948620916903018,0.003515753035992384,-0.0032407857192447405
1782846170976160500,2.317160400390625,0.09893851313591003,-0.014585081523004919,-0.009810987572546582
1782846170986165500,2.32716552734375,0.09026128568351269,-0.012262465528026222,0.002518067785131279
1782846170996170500,2.33717041015625,0.09459902262687682,-0.0008349895194172858,-0.015683553417352957
1782846171006175500,2.347175537109375,0.09220423644483089,0.011151088486332447,-0.025881836974166798
1782846171016180500,2.357180419921875,0.07933657156527042,0.004079341735504567,-0.004304980884655378
1782846171026185500,2.367185546875,0.08667115223705768,-0.009951941829640418,-0.002310509998654015
1782846171036190500,2.3771904296875,0.09161211577057837,-0.0040743550331331785,0.001093409843451809
1782846171046195500,2.387195556640625,0.09849427649974822,-0.0034057167902588844,-0.010244871778052765
1782846171056200400,2.397200439453125,0.08292904309928417,-0.0011600567553192377,-0.003063728102308232
1782846171066205400,2.407205322265625,0.09370061248242854,0.002068769098073244,-0.0019685601266101003
1782846171076210400,2.41721044921875,0.10866612642407417,0.0047102417838759715,0.002513428142631892
1782846171086215400,2.42721533203125,0.08472469434440136,0.014580478413123637,-0.004928604092157911
1782846171096220400,2.437220458984375,0.071860536596179,-0.0013392127145081757,0.0031574342677486125
1782846171106225400,2.447225341796875,0.1031359648257494,0.003366791285667568,0.007000448780017905
1782846171116230400,2.45723046875,0.09894435835480689,0.005394187193736434,-0.0003270582635886967
1782846171126235400,2.4672353515625,0.0869710119664669,0.0004161613191477954,-0.000417017552384641
1782846171136240400,2.477240478515625,0.08098667685985565,-0.004111344308964908,-0.004180242543423082
1782846171146245400,2.487245361328125,0.09101122726798057,-0.007812153321970254,0.006401240777852944
1782846171156250400,2.49725048828125,0.09490122044384479,-0.000887377293780446,0.00729686987674795
1782846171166255400,2.50725537109375,0.0904126768529415,-0.006604330168478191,-0.0055595269734156315
1782846171176260400,2.51726025390625,0.07380582544505596,0.005235726962704211,-0.012158174036489798
1782846171186265300,2.527265380859375,0.07590308998525143,0.006784180247411131,-0.00042755721270805225
1782846171196270600,2.5372705078125,0.07650397848784923,0.004141666381992399,-0.008637548462557605
1782846171206275600,2.547275634765625,0.08608078512847422,-0.0015408545001409947,0.008064148471795488
1782846171216280600,2.557280517578125,0.0880254894554615,-0.009908321883622557,-0.014767061910231132
1782846171226285600,2.56728564453125,0.10104162289500236,-0.012351933909766376,-0.009588702574395574
1782846171236290600,2.57729052734375,0.09236147283315659,0.006255553263425827,-0.01977878455844475
1782846171246295600,2.587295654296875,0.08667641293406486,0.00514552792860195,-0.007572773341834545
1782846171256300500,2.597300537109375,0.08458031743764877,-0.006918291488476097,0.004028709810099099
1782846171266305500,2.607305419921875,0.08068740165233612,-0.002768861925136298,-0.0013299631122616119
1782846171276311300,2.617311279296875,0.09699848498404025,-0.0034191973263397813,-0.010527714157290756
1782846171286316300,2.62731640625,0.09639993456900119,0.0006140585114248096,-0.00981288041882217
1782846171296321300,2.6373212890625,0.0901122326016426,0.0040498599126935,0.0037003455054131335
1782846171306326300,2.647326171875,0.09519815756380558,0.00741173756122589,0.0023874956414452753
1782846171316331300,2.657331298828125,0.08128244493603706,0.015472166555840522,0.005185145269648637
1782846171326336300,2.667336181640625,0.0838251151561737,0.01435421364288777,0.002037362462945748
1782846171336341500,2.677341552734375,0.08965981265902519,-0.0025139007833786305,-0.001510388579929713
1782846171346346500,2.687346435546875,0.0983382091552019,0.0065146060584113,0.0028986166514921932
1782846171356351500,2.6973515625,0.10447393543124198,0.0015725100137293337,-0.010572742892394307
1782846171366356500,2.7073564453125,0.09624094461500644,-0.0008201572764664888,-0.004409069163503591
1782846171376361500,2.717361572265625,0.09504150569736956,0.005420180151518434,-0.013114399332378525
1782846171386366500,2.727366455078125,0.09668810386061667,0.00929402591018006,0.006099981392512563
1782846171396371500,2.737371337890625,0.08217091820836067,0.006107504828553646,0.0038981627825880423
1782846171406376400,2.74737646484375,0.08725684317052364,0.000529796027764678,-0.003757066961599048
1782846171416381400,2.75738134765625,0.08246668628454208,-0.01213748744148761,-0.006270817047927994
1782846171426386700,2.76738671875,0.10790390987992286,0.0030386735761538147,0.018241042180708607
1782846171436391700,2.7773916015625,0.10595686746537684,0.004332622376829386,-0.0028874696363927793
1782846171446396700,2.787396728515625,0.08695406083166599,0.0018927549440413713,-0.000714242366713006
1782846171456402200,2.797402099609375,0.09398702820837497,-0.002444616673141718,0.006603131441946607
1782846171466407200,2.8074072265625,0.09593290157914161,0.0075565893920138474,-0.0035869528253911994
1782846171476412200,2.817412109375,0.09294073402583598,-0.002501351829059422,0.00791897926388774
1782846171486417200,2.827417236328125,0.08052315100133418,-0.002149341787304729,0.007369234143348876
1782846171496422100,2.837422119140625,0.08875263468623161,-0.004975614721793681,-0.01131042778348783
1782846171506427100,2.84742724609375,0.08621405611932277,0.009603347587678581,0.010770203976542688
1782846171516432100,2.85743212890625,0.09085106827020645,0.003255129338428378,-0.006502865388267673
1782846171526437000,2.86743701171875,0.0896504603087902,0.013739972468372434,0.02110674979315372
1782846171536442000,2.877442138671875,0.08964870674312114,0.0009653379008173942,-0.004961403533350676
1782846171546447000,2.887447021484375,0.08845335947871208,-0.0061926623613573605,-0.002189842761051841
1782846171556452000,2.8974521484375,0.0893500160574913,-0.0035778584867715833,0.015104753448977134
1782846171566457000,2.90745703125,0.08306465217769146,0.011365005231648682,0.0028039012724766508
1782846171576462000,2.917462158203125,0.08710779008865356,-0.010898191437497734,-0.0031516575475106943
1782846171586467000,2.927467041015625,0.08725742769241332,-0.007746759935561567,-0.00808618905695621
1782846171596472000,2.93747216796875,0.10087620320022106,0.006831782248802483,-0.004932912657805718
1782846171606477000,2.94747705078125,0.0936935982197523,0.0020409129767678677,0.008479234361997805
1782846171616482000,2.95748193359375,0.08501344815790653,0.00266741084465757,-0.000811400864564348
1782846171626487000,2.967487060546875,0.07917816613316535,-0.007248363693058491,0.007742467352934181
1782846171636492000,2.977491943359375,0.07947159612178802,0.0033307883905246854,-0.0016453994367155245
1782846171646497000,2.9874970703125,0.101314594617486,0.0077676565931178625,-0.015893517790047915
1782846171656502000,2.997501953125,0.09113865303993225,0.008234726115595548,0.008530398293654434
1782846171666507000,3.007507080078125,0.08874678946733475,-0.009078775724302976,0.001565061926213093
1782846171676512000,3.017511962890625,0.08186579778194426,0.006816803875379264,0.004735698168829548
1782846171686517000,3.02751708984375,0.07887363022863865,0.00531105722123757,-0.0019046759939868934
1782846171696522000,3.03752197265625,0.09593348610103129,0.00841289569409564,0.013744189702474976
1782846171706527000,3.04752685546875,0.0876987417191267,-0.012925295084621757,-0.00767913805944845
1782846171716532000,3.057531982421875,0.0894938084423542,-0.001515007672831416,-0.011794405058282427
1782846171726537000,3.067536865234375,0.08126257119178772,0.0010806531098671256,-0.0003551975126843899
1782846171736542000,3.0775419921875,0.09817103589475154,0.0037934739988297224,0.0116024558328907
1782846171746547000,3.087546875,0.09787292973101139,-0.005688055573776364,0.0009978770471061578
1782846171756552000,3.097552001953125,0.08560206170082092,-0.0069987911124713715,-0.006355654920323286
1782846171766557000,3.107556884765625,0.08320610647499561,0.003388893519621342,-0.008572639133338816
1782846171776562000,3.11756201171875,0.08335574407875537,-0.0036657559659332034,-0.003125233048177324
1782846171786567000,3.12756689453125,0.10190905337929725,0.002402257102448493,-0.021425880478613542
1782846171796572000,3.137572021484375,0.10131284105181694,0.0011026822785846887,-0.005497302791627589
1782846171806577000,3.147576904296875,0.09248305338621139,0.005787515626568347,0.008068571201874875
1782846171816582000,3.157581787109375,0.09113339234292507,0.009496818473283201,-0.0002529312981641851
1782846171826587000,3.1675869140625,0.10040975473225117,0.002690207198355347,-0.010261946210439781
1782846171836591900,3.177591796875,0.09517185407876967,0.009426547982357442,-0.007909270720626227
1782846171846596900,3.187596923828125,0.08589256907999515,-0.006348035586159676,-0.008761268457060213
1782846171856601900,3.197601806640625,0.08095102102458476,-0.003219473503157496,-0.00816168142898241
1782846171866606800,3.20760693359375,0.09397007707357406,0.0036233598626218733,-0.014206459752249065
1782846171876611800,3.21761181640625,0.06927870340943336,0.00967604749770835,-0.00751754743970232
1782846171886616800,3.227616943359375,0.0851408739298582,0.0021886143517680463,0.00727744594035903
1782846171896621800,3.237621826171875,0.09965922862589359,0.006523282555211335,0.004871268431330099
1782846171906626800,3.247626708984375,0.10489829832315445,0.014813593049254267,-0.004048994546302129
1782846171916632000,3.257632080078125,0.09098258569538593,-0.009897106369864196,0.008490783235896379
1782846171926637000,3.267636962890625,0.09262684577107429,0.005606587835401296,0.01275494120310759
1782846171936642000,3.27764208984375,0.08170388521850108,-0.005926558771077543,-0.009581434866681228
1782846171946647000,3.28764697265625,0.09846446588337421,-0.0016623071890324353,0.01057060573423514
1782846171956652000,3.297652099609375,0.08409925592243671,0.010469809957593678,-0.014568758292577694
1782846171966657000,3.307656982421875,0.08409984044432639,0.009975468835700304,0.006686220315250102
1782846171976662000,3.317662109375,0.08993746055662631,0.007211520547699183,-0.0009865108362981118
1782846171986668000,3.32766796875,0.0882908623933792,0.010676694173924623,-0.0004767803490278311
1782846171996673000,3.337673095703125,0.08978899199664592,0.009281641352642327,-0.009268327496631536
1782846172006678000,3.347677978515625,0.09158288967609406,0.009050810005143285,-0.015944120032701174
1782846172016683000,3.35768310546875,0.08185527638792992,0.0004366013189777732,0.0002695079736295156
1782846172026688000,3.36768798828125,0.08694237039387226,0.0018242745514027772,0.00722978914004052
1782846172036693000,3.37769287109375,0.09397826038002967,0.0036617921768687662,0.0034984616911853663
1782846172046698000,3.387697998046875,0.10909224288165568,-0.0012857837605290115,-0.00019747021730290724
1782846172056703000,3.397702880859375,0.08215688968300819,-0.0015659524087794125,0.0047223728963756
1782846172066708000,3.4077080078125,0.0879904181420803,-0.0014592040986753999,-0.009042462301906197
1782846172076713000,3.417712890625,0.08185527638792992,0.000945920814294368,-0.0007854809720185585
1782846172086718200,3.42771826171875,0.08469722181558609,-0.012038283117022364,-0.0069505634899949655
1782846172096723200,3.43772314453125,0.09173252727985381,0.006704301677923649,0.004654687088180799
1782846172106728200,3.447728271484375,0.09711714292764663,0.0027935031760483978,-0.0067653705156641075
1782846172116733200,3.457733154296875,0.09487199434936046,0.005516681062243878,0.0041846013414207845
1782846172126738200,3.46773828125,0.08619184428751468,-0.00654302843529731,0.006753305618534796
1782846172136743200,3.4777431640625,0.09965747506022453,-0.000034852117672562596,0.003929943877051118
1782846172146748200,3.487748046875,0.09636603229939937,0.009955978683941066,0.01755181095766602
1782846172156753200,3.497753173828125,0.09696282914876937,-0.004162106381822377,0.0012275895831757224
1782846172166758100,3.507758056640625,0.07750701805055141,0.005518416361603886,-0.009440971516643184
1782846172176763100,3.51776318359375,0.0848398451566696,0.007299089233297854,0.0053798481411300595
1782846172186768100,3.52776806640625,0.1059375782430172,0.006601078765466809,-0.006746869027882348
1782846172196773000,3.537773193359375,0.08842880955934523,0.006505509436503052,0.010149345831573009
1782846172206778000,3.547778076171875,0.08199322355389595,0.005520078595727682,0.007562000786070711
1782846172216783000,3.557783203125,0.08468553137779235,0.00992381171369925,-0.01126844952199608
1782846172226788000,3.5677880859375,0.10533668974041938,-0.0019396445593796669,-0.0025288723069359547
1782846172236793000,3.57779296875,0.09366320308148861,-0.004110978982783854,-0.004318988860410172
1782846172246798000,3.587798095703125,0.09380991807579994,0.00018682780899107455,0.012773753218143247
1782846172256803000,3.597802978515625,0.0939595556795597,0.0008205956678837538,0.007029254749394021
1782846172266808000,3.60780810546875,0.08902093023359775,-0.003341181920375675,-0.0022053668404580094
1782846172276813000,3.61781298828125,0.09964753818809985,0.003875160932913422,-0.005177720015018712
1782846172286818000,3.627818115234375,0.09665595515668392,0.019083452388178556,-0.002160342671931721
1782846172296823000,3.637822998046875,0.09710779057741165,0.007729425208270549,-0.0038806727916700762
1782846172306828000,3.647828125,0.09037468293011187,0.013387779763527214,0.007190333912486676
1782846172316833000,3.6578330078125,0.10234335314333438,0.001972834442928433,0.0024623669589636846
1782846172326838000,3.667838134765625,0.09875029708743095,-0.006027827188465744,-0.0024719042555778285
1782846172336843000,3.677843017578125,0.0899205094218254,0.013473503551911561,-0.009682427006145007
1782846172346848000,3.687847900390625,0.08977262538373469,0.0032070524130016565,0.024777606625889893
1782846172356853000,3.69785302734375,0.09635434186160564,0.00015667013274505733,0.014725024283234961
1782846172366858000,3.70785791015625,0.08527882109582424,0.012370766474399716,0.003965058572916314
1782846172376863000,3.717863037109375,0.08468085520267486,-0.003973579806089401,-0.008675804963579866
1782846172386868000,3.727867919921875,0.08004033592045307,0.0029876375086605547,0.00869914245668333
1782846172396873000,3.737873046875,0.07540157020390033,-0.0019464578926563262,-0.0013536271156393922
1782846172406878000,3.7478779296875,0.08168459599614143,0.0023368637160398067,0.012573513371730223
1782846172416883000,3.757883056640625,0.08917056783735751,0.001092800205387175,0.011568478214764035
1782846172426888000,3.767887939453125,0.09320786052942276,0.007031615669839084,0.004278186492563691
1782846172436893000,3.777892822265625,0.09799567932784557,0.0028722857669927176,0.008136441956448835
1782846172446898000,3.78789794921875,0.08004150496423244,0.007684051696583628,0.005217038245254661
1782846172456902400,3.79790234375,0.08976853373050689,0.0099308990416117,-0.0035864116859855126
1782846172466907400,3.807907470703125,0.09021627749800681,0.015640033936034886,-0.00248763383096084
1782846172476912400,3.817912353515625,0.08198737833499908,0.012884433351270853,-0.006420523150346707
1782846172486917400,3.82791748046875,0.09784954885542392,0.006440791903529316,-0.0031155564709566532
1782846172496922400,3.83792236328125,0.10847264967858791,0.008306786704808474,-0.007320545296568889
1782846172506927600,3.847927734375,0.09815233119428157,0.0050876237289048725,0.006554954051820095
1782846172516932600,3.8579326171875,0.08364332884848118,0.0015368724447675048,-0.0031986019617761484
1782846172526937600,3.8679375,0.08753624463379382,-0.007569850732386112,0.01487565968412673
1782846172536942600,3.877942626953125,0.08125204979777335,-0.008649480928946286,-0.009102136050292756
1782846172546947600,3.887947509765625,0.08843348573446273,0.016430344063509256,-0.01197348110236926
1782846172556952600,3.89795263671875,0.09441782084107399,0.004785425911936909,-0.006498056782409548
1782846172566957600,3.90795751953125,0.0797556737601757,0.0036329496748745437,0.009095576162054203
1782846172576962600,3.917962646484375,0.08753858272135258,0.02269641872094944,-0.002402889573399443
1782846172586967600,3.927967529296875,0.10235387453734875,0.010965795047301798,0.01198508477519499
1782846172596972500,3.93797265625,0.08664543327391147,0.010194372283387928,0.01882389270311687
1782846172606977500,3.9479775390625,0.1052004961401224,-0.001007825335673988,0.02083457265511388
1782846172616982500,3.957982421875,0.08350362811684608,-0.006123962773010134,0.003177860567846801
1782846172626987500,3.967987548828125,0.08036416104733944,0.01305757969478145,0.0010212305232300423
1782846172636992500,3.977992431640625,0.10146423222124576,0.0071780566695146255,0.005338246622262522
1782846172646997500,3.98799755859375,0.10325812990069388,0.00007744915038347244,0.0028549373399699104
1782846172657002500,3.99800244140625,0.092931381675601,-0.00044220907585695385,0.009249741527170409
1782846172667007500,4.008007568359375,0.09338380161821842,0.007490538418479263,0.006188970283640082
1782846172677012500,4.018012451171875,0.08201368182003498,0.01516627894444391,-0.002141802368243225
1782846172687017500,4.028017578125,0.08485679629147053,-0.0014682276553474366,0.003310202260222286
1782846172697023500,4.0380234375,0.0865051480203867,0.003977013872191309,0.009069475889706517
1782846172707028500,4.048028564453125,0.08590718212723732,0.0030488479102961717,-0.0012789635773864574
1782846172717033500,4.058033447265625,0.0957809258878231,0.005253244353085756,-0.003851903354912065
1782846172727038500,4.06803857421875,0.09263795168697833,-0.0003964519716799259,-0.010454281311610247
1782846172737043500,4.07804345703125,0.10131927079260349,0.005632178934384137,-0.006100520248629618
1782846172747048400,4.08804833984375,0.08665420110225677,0.007574216380249708,-0.0008597883172449655
1782846172757053400,4.098053466796875,0.09084230044186115,0.0024053623749874533,0.004863201572594698
1782846172767058400,4.108058349609375,0.08889759611487388,0.021972214365936816,0.003168789062113501
1782846172777063400,4.1180634765625,0.0866530320584774,-0.001971318339277059,0.014114582501002587
1782846172787068400,4.128068359375,0.09099602969884872,0.0025039639112539587,-0.0034110665355226956
1782846172797073400,4.138073486328125,0.09518646712601184,0.008777582554332912,-0.007466410907509271
1782846172807078400,4.148078369140625,0.08500760293900966,0.0050295551324263214,0.004869074190955143
1782846172817083400,4.15808349609375,0.09817512754797934,-0.00932115137912333,-0.001269517612317577
1782846172827088600,4.168088623046875,0.08575462191402912,-0.0019797391077503563,-0.013022830325097311
1782846172837093600,4.17809375,0.08111702524125576,0.003630392391607165,-0.008067956997232976
1782846172847098600,4.1880986328125,0.08350888881385325,-0.00494529264876619,-0.005573578331654425
1782846172857103600,4.198103515625,0.08994038316607475,-0.005267017150111496,-0.015270344390405807
1782846172867108600,4.208108642578125,0.09158756585121154,0.003190521403308958,-0.012749703338986727
1782846172877113600,4.218113525390625,0.08874737398922443,0.0034861068163998424,-0.015532726220216135
1782846172887118600,4.22811865234375,0.08067161956131458,-0.0006405994584783912,-0.010443985963170416
1782846172897123600,4.23812353515625,0.08456511986851692,-0.004949658296629786,-0.0049193590564886105
1782846172907128600,4.248128662109375,0.09533785829544067,0.007841781275253742,0.009240937166207004
1782846172917133600,4.258133544921875,0.09548398876786232,0.00799008543845266,-0.007048340759065468
1782846172927138600,4.268138671875,0.08650690158605576,-0.008052410084940493,-0.005400863529695198
1782846172937143600,4.2781435546875,0.09832710323929786,-0.0012797741448506712,0.002290241245471407
1782846172947148500,4.2881484375,0.08605623520910739,0.002649692524876445,0.00358829083252931
1782846172957153500,4.298153564453125,0.08321370525956154,0.007888524760119616,-0.0015811294283135794
1782846172967158500,4.308158447265625,0.08455869012773036,-0.0022039032524451612,-0.0017165352940326556
1782846172977163500,4.31816357421875,0.08964403056800364,0.007158529985137284,-0.010850089395896066
1782846172987168500,4.32816845703125,0.09099135352373122,0.006862926305737346,-0.000626050343317911
1782846172997173500,4.338173583984375,0.085154317933321,-0.0008739880892448126,0.011910231723985634
1782846173007178500,4.348178466796875,0.08575169930458068,0.013680844425968825,0.00888452722725924
1782846173017183500,4.35818359375,0.08724690629839897,0.0013036847434006631,0.0032538735296810044
1782846173027188500,4.3681884765625,0.09547931259274482,-0.008548395174648612,0.0034896938628400675
1782846173037193500,4.378193359375,0.08739829746782779,0.0061358176075853406,0.010357093131006695
1782846173047198500,4.388198486328125,0.08724749082028865,0.016029946569073944,0.012909510710311586
1782846173057203500,4.398203369140625,0.08754793507158756,-0.0021134850226342677,0.008539883074630052
1782846173067208400,4.40820849609375,0.08800152405798435,0.0038058220237493514,0.002330970548081677
1782846173077213400,4.41821337890625,0.0944347719758749,-0.013494181013759226,-0.0010095811846316791
1782846173087218400,4.428218505859375,0.09204057031571865,-0.009014094723947345,-0.0001281427245819941
1782846173097223400,4.438223388671875,0.09577917232215404,0.0033585714465938507,-0.014799260846513788
1782846173107228400,4.448228515625,0.10145897152423858,0.008008954535704105,-0.0032852459154790264
1782846173117233400,4.4582333984375,0.09502104743123053,0.007723835717700422,-0.015284831856773234
1782846173127238400,4.46823828125,0.07451601954102516,0.012293847046978772,0.007816153643652797
1782846173137243400,4.478243408203125,0.08589081551432609,0.012768917212821543,0.009716281326685566
1782846173147248400,4.488248291015625,0.08783844245076179,0.003673299951571971,-0.010479374653671401
1782846173157253400,4.49825341796875,0.09771218621134757,0.007071801549755037,0.0022264986767433583
1782846173167258600,4.508258544921875,0.08274725679159164,-0.008559208829607813,0.0006310324791120365
1782846173177263600,4.518263671875,0.08992986177206039,0.002509918728005141,-0.0013340410657576285
1782846173187268600,4.5282685546875,0.09636486325561999,-0.014849194085597992,-0.008492443186731542
1782846173197273600,4.538273681640625,0.08469488372802735,0.012919888257142156,0.012301290567917749
1782846173207278600,4.548278564453125,0.09846271231770515,0.005058160172402858,-0.004652075005986262
1782846173217283600,4.55828369140625,0.09083353261351584,-0.006288889277447015,0.00042788372298236933
1782846173227288600,4.56828857421875,0.08589782977700233,-0.008495422878395765,-0.013989652363525238
1782846173237293600,4.57829345703125,0.10355682058632373,-0.01408566236719489,-0.009075647618877702
1782846173247298600,4.588298583984375,0.09891747034788131,0.006727116297930479,0.0054469517107238056
1782846173257303600,4.598303466796875,0.08739128320515155,0.00003985708635300398,0.011829140728234778
1782846173267308500,4.60830859375,0.07990881849527358,0.003938946884125471,-0.006747544881317298
1782846173277313500,4.6183134765625,0.08080956672728061,0.002592500711232424,-0.02555310506001115
1782846173287318500,4.628318603515625,0.09023615124225616,-0.00589987169355154,-0.0106696593616507
1782846173297323500,4.638323486328125,0.08679507087767124,-0.0024648192109540104,-0.009785798332362901
1782846173307328500,4.64832861328125,0.09278115954995154,-0.0011483845838345587,-0.0002463599934824742
1782846173317333500,4.65833349609375,0.09158288967609406,0.007449548820964992,0.00032129067650530485
1782846173327338500,4.66833837890625,0.07931319068968296,0.004870857439376414,0.010580631654616444
1782846173337343500,4.678343505859375,0.07946282829344273,-0.006497125200647861,-0.00957847572461469
1782846173347348500,4.688348388671875,0.07826923459470271,-0.005297686283010989,0.004663767727068625
1782846173357353500,4.698353515625,0.10311199942827225,-0.001836220717523247,-0.002007896623155102
1782846173367358500,4.7083583984375,0.10176526099443435,0.010864764091931283,0.018632934424991254
1782846173377363500,4.718363525390625,0.09832359610795974,0.01581685180766508,0.012798186689789872
1782846173387368400,4.728368408203125,0.0963783072590828,0.006816018424089998,-0.015257236030371858
1782846173397373400,4.73837353515625,0.07901800713539123,-0.0020509229141287503,0.00020453699561767279
1782846173407378400,4.74837841796875,0.08814356287717819,0.006295574746560305,0.0030519052337738685
1782846173417383400,4.758383544921875,0.09413082059323787,0.0018480572857894001,-0.006470839981921017
1782846173427388400,4.768388427734375,0.08096154241859913,-0.00648665860556066,-0.0028084701330284585
1782846173437393400,4.778393310546875,0.1002642087817192,0.0053610703754238785,0.0030963814130285754
1782846173447398400,4.7883984375,0.08859130664467811,0.010044497217610478,-0.02328713060611626
1782846173457403100,4.798403076171875,0.0830535462617874,-0.004102320752292871,-0.0035071975534898226
1782846173467409400,4.808409423828125,0.07497545374631881,0.0008880166145972907,-0.005918793306441511
1782846173477414400,4.818414306640625,0.08784370314776897,0.018868439664319156,-0.016604903762682807
1782846173487419400,4.82841943359375,0.12240940509438514,0.014868446775339543,-0.008081323368882294
1782846173497424400,4.83842431640625,0.0941296515494585,0.0013059314994141459,0.011404907983774318
1782846173507429400,4.848429443359375,0.09951309815347194,0.002193856782466173,-0.009009765608701854
1782846173517434400,4.858434326171875,0.09472527935504912,0.004111508705746382,-0.009179786130075808
1782846173527439400,4.868439453125,0.10040917021036147,-0.0008536759535782038,-0.005723062955075874
1782846173537444400,4.8784443359375,0.10325462276935576,0.0027776480197906493,0.004926240888424217
1782846173547449300,4.888449462890625,0.0897901610404253,0.00024009236618876455,-0.0012418578538345173
1782846173557454300,4.898454345703125,0.08395487901568412,0.010704184969048947,-0.012597163675376213
1782846173567459300,4.908459228515625,0.08859481377601623,-0.00011133315367624163,-0.005167212320736143
1782846173577464300,4.91846435546875,0.08799626336097717,0.008873955600894988,0.0034426489838748236
1782846173587469300,4.92846923828125,0.08964286152422428,0.014371639701724052,0.01236554231001064
1782846173597474300,4.938474365234375,0.09697276602089404,0.004013656088151038,-0.003147428896964993
1782846173607479300,4.948479248046875,0.09906418534219265,0.006376403164118528,-0.009034005000814796
1782846173617484300,4.958484375,0.0863438199788332,0.011091503786202519,-0.004910068355046678
1782846173627489300,4.9684892578125,0.08634148189127444,0.008359594604279845,0.0000058246692991815505
1782846173637494300,4.978494384765625,0.10504618236124515,0.004921491648070514,-0.009864877750829327
1782846173647499300,4.988499267578125,0.09247603912353515,-0.0005938377073034643,0.00029328157486161214
1782846173657504300,4.998504150390625,0.10085749849975109,0.0011033033330924808,-0.01164769919712562
1782846173667509200,5.00850927734375,0.09906243177652359,-0.005674648102931678,-0.008257383188686799
1782846173677514200,5.01851416015625,0.08753858272135258,-0.0021613427523523568,-0.004984165637718979
1782846173687519200,5.028519287109375,0.10594751511514186,0.0065217664515599605,0.009740648582961876
1782846173697524200,5.038524169921875,0.09457856436073779,-0.0057450647243298585,0.0009065980174811556
1782846173707529200,5.048529296875,0.08889350446164608,-0.008321271887887269,-0.011536687987146433
1782846173717534200,5.0585341796875,0.07093816105425357,-0.00864538927571848,0.003956852433574386
1782846173727539200,5.068539306640625,0.08979366817176342,0.011785331269260495,-0.002270741960557643
1782846173737544200,5.078544189453125,0.09563070376217364,-0.009065276921913027,-0.009215745642734691
1782846173747549200,5.088549072265625,0.08680325418412685,0.012294796895049512,0.0010536463719327002
1782846173757554200,5.09855419921875,0.0812631557136774,-0.005216602137126028,-0.001503812708670739
1782846173767559200,5.10855908203125,0.08171089948117732,0.01368721936782822,0.0032474574886262415
1782846173777564200,5.118564208984375,0.06959025357663631,0.012812939017638563,0.006466953824670054
1782846173787569400,5.1285693359375,0.07781798369586468,-0.001001980116777122,-0.005627253880805801
1782846173797574400,5.138574462890625,0.09128595255613327,-0.004307761930208653,0.011557675976247992
1782846173807579400,5.148579345703125,0.095924718272686,0.009781133573688566,-0.005752871288161258
1782846173817584400,5.15858447265625,0.10669745669960976,0.008334405364096164,-0.007725470552360639
1782846173827589400,5.16858935546875,0.10370528914630413,0.006042257572617381,0.01336362256980501
1782846173837594400,5.178594482421875,0.09098258569538593,0.0008256554354913533,0.0019306758016347885
1782846173847599400,5.188599365234375,0.08978606938719749,0.004965367322415113,-0.008977151113888249
1782846173857604400,5.198604248046875,0.09143500563800334,-0.01325321186473593,-0.007360269952181261
1782846173867609300,5.208609375,0.09397884490191936,-0.003359521294664591,0.006492850884329527
1782846173877614300,5.2186142578125,0.09233166221678256,0.021388459661230444,-0.0046007740770117374
1782846173887619300,5.228619384765625,0.09308160380125045,0.006200772602576762,0.007226978411735035
1782846173897624300,5.238624267578125,0.09442541962563991,-0.009840480811800808,0.008069799611158668
1782846173907629300,5.24862939453125,0.07751929301023483,-0.0013154299801215528,-0.008623846447479445
1782846173917634300,5.25863427734375,0.08081190481483935,-0.0035573636880144475,-0.019556597741704897
1782846173927639300,5.268639404296875,0.09936930576860904,0.0005281520599499345,0.002697497738956008
1782846173937644300,5.278644287109375,0.09682371293902396,0.0046616168691776694,-0.002193541688635014
1782846173947649300,5.288649169921875,0.08918634992837905,-0.004799564035143703,-0.005630370569787919
1782846173957654300,5.298654296875,0.09502338551878929,-0.006948120371159165,0.015621530164964497
1782846173967659300,5.3086591796875,0.11342822625935077,0.0027939598337747154,-0.008680880714207887
1782846173977664300,5.318664306640625,0.09711948101520537,-0.009828552911989391,-0.008213653644814621
1782846173987669200,5.328669189453125,0.09592062661945819,-0.002854768376611173,0.00030128906809259205
1782846173997674200,5.33867431640625,0.09936170698404312,0.001627747332304716,0.010644842297513968
1782846174007679200,5.34867919921875,0.0896329246520996,0.004436375012248754,-0.007995044741360471
1782846174017684200,5.358684326171875,0.09157762897908688,0.004606233420129865,-0.01939484044188866
1782846174027689200,5.368689208984375,0.09142682233154774,-0.000903579509910196,0.013647188751539214
1782846174037694200,5.378694091796875,0.09546236145794391,0.005280461153574287,0.0004640989639679901
1782846174047699200,5.38869921875,0.08708148660361767,-0.0003175780491903424,-0.019603377759188877
1782846174057704200,5.3987041015625,0.09127426211833953,0.01077421799795702,-0.003376070570666343
1782846174067709200,5.408709228515625,0.09785831668376922,0.009887114698812365,-0.001684350057481788
1782846174077714200,5.418714111328125,0.09097674047648906,-0.000681205463502556,-0.009731748323875945
1782846174087719200,5.42871923828125,0.08843290121257305,-0.004703081390727311,-0.00904804494261043
1782846174097724200,5.43872412109375,0.112525139939785,-0.008012571264896542,-0.01043274989981437
1782846174107729200,5.448729248046875,0.08604103763997555,0.0037364465819671746,-0.00978128427073825
1782846174117734100,5.458734130859375,0.09396949255168438,0.0023350553514435886,-0.01509695601830026
1782846174127739100,5.4687392578125,0.09097498691082,-0.0092605254993774,0.0007902530452585779
1782846174137744100,5.478744140625,0.0962123030424118,0.0007702354538254439,-0.007961190420819912
1782846174147749000,5.4887490234375,0.08648644331991671,0.0033149332342669365,-0.008459591229900252
1782846174157754000,5.498754150390625,0.07960252902507782,-0.0009923903045244513,-0.00769370087434072
1782846174167759000,5.508759033203125,0.08319090890586375,0.0024291816419921815,-0.00665218789819628
1782846174177764000,5.51876416015625,0.08303776417076587,0.0009338285177014768,0.017953553309105336
1782846174187769000,5.52876904296875,0.08109130627810955,0.010553469653055071,-0.005421970249805599
1782846174197774000,5.538774169921875,0.09859832139611244,0.009236980227008461,0.005016766432800796
1782846174207779000,5.548779052734375,0.09455752157270908,-0.004360076639335602,0.011321663846843875
1782846174217784000,5.5587841796875,0.09081482791304588,0.007264675507042556,-0.01154936252234038
1782846174227789000,5.5687890625,0.0997895770072937,0.005624872410763055,0.007515688842756207
1782846174237794000,5.5787939453125,0.08886427836716175,0.010789835692197084,0.004603644170821644
1782846174247799000,5.588799072265625,0.0942471404492855,0.005135572790168226,-0.001921079139516223
1782846174257804000,5.598803955078125,0.109209147259593,0.0014716617214493453,0.0009537296614143997
1782846174267809300,5.608809326171875,0.09454115495979785,-0.006439221000950783,-0.014039517103950492
1782846174277814300,5.618814208984375,0.08870470389127731,0.00019093772852793334,0.0053300792988273315
1782846174287819300,5.6288193359375,0.08780804731249808,0.005962634731456637,-0.010486110355134587
1782846174297824300,5.63882421875,0.09364508290290832,-0.005763769424799829,-0.010458133219531736
1782846174307829500,5.64882958984375,0.0866091929167509,0.004271631170902401,-0.010176366269239224
1782846174317834500,5.65883447265625,0.0753857881128788,0.0032355295888148246,0.0031322221946786157
1782846174327839500,5.668839599609375,0.08391571604907512,0.006232245453074574,-0.005223972592828795
1782846174337844500,5.678844482421875,0.09349135364592075,0.000630863515753299,0.002082875255239196
1782846174347849500,5.688849365234375,0.09139701171517371,0.01121302954033017,0.00320563449076144
1782846174357854500,5.6988544921875,0.09782733702361583,0.009911354090925306,-0.007139032983512152
1782846174367859500,5.708859375,0.09737667064666747,0.009097644821554422,-0.016625574374664574
1782846174377864400,5.718864501953125,0.10410919377207756,0.007324260207172483,0.00547359768905444
1782846174387870200,5.7288701171875,0.1068003325521946,0.017472966717928647,0.012655935524753295
1782846174397875200,5.738875244140625,0.08629939631521702,0.014629541719239204,-0.001833658867678605
1782846174407880200,5.748880126953125,0.09183481861054897,0.017835333756916222,-0.006933397726062685
1782846174417885200,5.75888525390625,0.10470540609955788,-0.0027301556162536143,-0.00956187164968578
1782846174427890200,5.76889013671875,0.093929160541296,0.000940952378232032,-0.014674677768908441
1782846174437895400,5.7788955078125,0.0795639505803585,0.012619261342752723,0.012003810025262646
1782846174447900400,5.788900390625,0.08345511280000209,0.005744041811022907,0.008163645057205576
1782846174457906000,5.798906005859375,0.09063830230236053,0.01784517929749563,0.00587236948198406
1782846174467911000,5.808910888671875,0.08854279132783413,0.005868800701852888,-0.005645677736774087
1782846174477916000,5.818916015625,0.10215630613863468,0.005421970249805599,-0.006678336119605228
1782846174487921000,5.8289208984375,0.0942255131393671,-0.0021840112418867645,0.0007029469378525391
1782846174497926000,5.83892578125,0.08779168069958686,0.004240231385640799,0.00669884005151689
1782846174507931000,5.848930908203125,0.08076046688854693,0.007023231433983892,0.0041932687050662935
1782846174517935900,5.858935791015625,0.10156184737682342,0.026083668272756037,0.002551545363047626
1782846174527940900,5.86894091796875,0.09557517418265342,0.005940368100721388,0.004703090523881837
1782846174537946000,5.878946044921875,0.08001052530407905,0.004858856474328786,-0.0014994721769820897
1782846174547951000,5.888951171875,0.08449556176364421,0.01897115112012252,-0.0013820449259481392
1782846174557956000,5.8989560546875,0.09841302795708179,0.017286084110010414,0.001790618876973167
1782846174567961000,5.908961181640625,0.10305179367363453,-0.0005348740616813301,-0.0012371656956966033
1782846174577966000,5.918966064453125,0.08524316526055335,0.010473097893223166,0.003840114735707175
1782846174587971000,5.92897119140625,0.09048106591403483,0.00400320775937289,-0.000939061815245077
1782846174597976000,5.93897607421875,0.10110708934664725,0.003482636217679828,-0.007089768747997004
1782846174607981000,5.94898095703125,0.09078151016533374,0.0032139205452054735,-0.0020264163772459143
1782846174617986000,5.958986083984375,0.08674246390759945,0.0068971573689021164,-0.0007451786443823948
1782846174627991000,5.968990966796875,0.08405074060559273,0.004863039459101855,0.003963090378115885
1782846174637996000,5.97899609375,0.0960205798625946,0.013870686175953596,-0.0022940794536611066
1782846174648001000,5.9890009765625,0.08405190964937209,0.013175927111133932,-0.002421192415070254
1782846174658006000,5.999006103515625,0.08884323557913303,0.001077474772091955,0.0021684711794601754
1782846174668011000,6.009010986328125,0.085702599465847,0.005664966959133744,-0.017677419231866952
1782846174678016000,6.01901611328125,0.06894494141042232,0.01085252566486597,0.008147324110066984
1782846174688021000,6.02902099609375,0.08704875337779522,0.013037523287441581,-0.007853505962376947
1782846174698026000,6.03902587890625,0.09797054488658904,0.017148812797479332,0.011119656735030002
1782846174708031000,6.049031005859375,0.09527472993135452,-0.0000754215900786221,0.009888407040177844
1782846174718036000,6.059035888671875,0.10185703093111514,0.020220420528855174,0.008048791072459425
1782846174728041000,6.069041015625,0.09976444256603717,0.012915979267004876,0.009695366402820219
1782846174738046000,6.0790458984375,0.09348141677379608,0.004309880822058767,-0.005096948679676279
1782846174748051000,6.089051025390625,0.10709902323782443,0.0050291715399362145,-0.003041504854056984
1782846174758056000,6.099055908203125,0.09558101940155028,-0.008604436210822313,-0.002246141808840912
1782846174768061000,6.10906103515625,0.09483867660164833,-0.007691796611621975,0.00637058306139661
1782846174778066000,6.11906591796875,0.0945394013941288,0.0026280104160308834,-0.004786190813628491
1782846174788071000,6.12907080078125,0.09124678958952426,-0.0016918255444616078,0.007181493018905166
1782846174798076000,6.139075927734375,0.09379121337532996,0.014578834445308893,0.0060569642346934415
1782846174808081000,6.149080810546875,0.09498422255218028,0.0036673086022026833,0.007463116122013889
1782846174818086000,6.1590859375,0.08825053038299083,0.0029162710391916332,-0.005456888582848478
1782846174828091000,6.1690908203125,0.08555763803720473,-0.009369557098113,0.005441843994054943
1782846174838096000,6.179095947265625,0.10111761074066161,0.02965893294364214,-0.002036869272601325
1782846174848100900,6.189100830078125,0.09438041144013404,0.010491181539185344,-0.009138641268934588
1782846174858105900,6.19910595703125,0.09453004904389381,0.011388313041999935,0.0005613008443033323
1782846174868110800,6.20911083984375,0.09033961161673068,-0.0020279438973404467,-0.007586991380143445
1782846174878115800,6.21911572265625,0.08046528333425522,0.0008660605111159384,0.0101688976321253
1782846174888120800,6.229120849609375,0.07747311578094959,0.0006888590469956398,0.011695038620324338
1782846174898125800,6.239125732421875,0.08301379877328872,0.002742960298899561,0.00023953296047402544
1782846174908130800,6.249130859375,0.09333820891082287,-0.0042551914927549655,-0.007556504910334478
1782846174918135800,6.2591357421875,0.08810030825734139,0.0030998291788622736,0.0005082349332165904
1782846174928140800,6.269140869140625,0.09318740226328373,-0.000338091114256531,0.005263729214482009
1782846174938145800,6.279145751953125,0.08615735749602317,0.006293273191619664,0.014037596858211326
1782846174948150800,6.28915087890625,0.08630641057789325,-0.0023705650562420486,-0.015325720989587717
1782846174958155800,6.29915576171875,0.07568038714528083,0.008481577016133815,0.00607867145971395
1782846174968160800,6.309160888671875,0.0885480520248413,0.0004632883965037763,-0.004584261333628091
1782846174978165800,6.319165771484375,0.1014145478606224,0.0020441643797792495,0.005533922174701001
1782846174988170800,6.329170654296875,0.09782266084849833,0.00744291815077886,0.007083964628295507
1782846174998175700,6.33917578125,0.08061608998179436,0.006017999914195388,-0.002153472256439272
1782846175008181000,6.349180908203125,0.07957038032114505,0.018493395806849,0.011030919005651958
1782846175018186000,6.35918603515625,0.08540916947722435,0.005801909478101879,-0.010276659722381737
1782846175028191000,6.36919091796875,0.08211538862884044,0.0001946092566475272,-0.0019050184872816316
1782846175038196000,6.379196044921875,0.09573650222420692,-0.007489424173627048,-0.0043046246916288505
1782846175048201000,6.389200927734375,0.102469025349617,0.006348145184013992,-0.004301019378879573
1782846175058206200,6.399206298828125,0.09693068044483662,0.018999719627480954,0.01697346079715062
1782846175068211200,6.409211181640625,0.10021861607432365,0.003900386705715209,-0.0003117236971389502
1782846175078216200,6.41921630859375,0.08839841442108154,0.01985408970080316,-0.0025550250949221663
1782846175088221200,6.42922119140625,0.08585632872283458,0.013626556955464183,0.007839870162669103
1782846175098226200,6.43922607421875,0.08780044852793216,0.004123162610922009,0.0019553787013399412
1782846175108231200,6.449231201171875,0.0876502264022827,0.027791294174548238,0.011563824872532859
1782846175118236200,6.459236083984375,0.09184007930755615,0.0005761924527585506,0.0005604583107982762
1782846175128241200,6.4692412109375,0.10770108078420161,-0.00029019685192033647,0.0022207562058349137
1782846175138246100,6.47924609375,0.08959317716360092,-0.007259451342653483,0.006191221606230829
1782846175148251100,6.489251220703125,0.08255845622122288,0.011058313902653752,0.013117940713046118
1782846175158256000,6.499256103515625,0.09333177917003631,0.008546093619707972,-0.002355353787378408
1782846175168261000,6.50926123046875,0.07941372845470905,0.008772668917197734,0.008881522419420071
1782846175178266000,6.51926611328125,0.10979483819305896,0.010069796055648476,-0.01057866802639328
1782846175188271000,6.52927099609375,0.09108896867930888,0.0005361344370059669,-0.005047727826645132
1782846175198276000,6.539276123046875,0.10784721125662326,0.004191496873088181,0.0013250289255287498
1782846175208281000,6.549281005859375,0.09692483522593974,0.011325476938858627,0.0005087441065814345
1782846175218286000,6.5592861328125,0.08659750247895717,-0.0029386655340902504,-0.013792147896892856
1782846175228291000,6.569291015625,0.09123977532684803,-0.004297149204649031,-0.008045653833879623
1782846175238296000,6.579296142578125,0.09842179578542709,-0.0018860329423099754,0.004096895658504218
1782846175248301000,6.589301025390625,0.0891407572209835,0.004409121679142117,0.000801114649279043
1782846175258306000,6.59930615234375,0.08869009084403515,-0.006128310154564678,0.012245763271686154
1782846175268311000,6.60931103515625,0.10110708934664725,0.00958930079601705,0.00567084186078282
1782846175278316000,6.61931591796875,0.10035539419651031,0.01663883571503684,0.003787252037308644
1782846175288321000,6.629321044921875,0.10185060119032859,0.0015656418815255164,0.014258180806331802
1782846175298326000,6.639325927734375,0.0873369226694107,0.005264660796243697,-0.003986601401155349
1782846175308331000,6.6493310546875,0.08987725480198859,-0.0028078056960366663,0.0025719305639504454
1782846175318336000,6.6593359375,0.10170096358656883,0.002335091884061694,0.008350208004715386
1782846175328341000,6.669341064453125,0.10798574294447898,0.01264596668658778,0.012909211599500849
1782846175338346000,6.679345947265625,0.091375968927145,0.006485763556417078,-0.0010037953312392346
1782846175348351000,6.68935107421875,0.08210077558159827,0.006068250530399381,-0.010489526154927443
1782846175358356000,6.69935595703125,0.07521744580864906,0.004721183302998542,0.006116092277097049
1782846175368361000,6.70936083984375,0.09736556473076342,-0.005068809430580586,0.024381227719446178
1782846175378366000,6.719365966796875,0.09422259052991866,-0.0026680136328563094,0.0007079336402239278
1782846175388371000,6.729370849609375,0.08853811515271663,0.0023568470581434666,0.00647025546003133
1782846175398376000,6.7393759765625,0.08584288471937179,-0.004147201073635369,-0.0005751444232766517
1782846175408381000,6.749380859375,0.08659224178194999,-0.015126093064527958,0.00944394207515288
1782846175418386000,6.759385986328125,0.08719429932832717,0.008644147166702896,0.008319972696655895
1782846175428391000,6.769390869140625,0.09407470649182796,0.010874700964055954,-0.004174915631045587
1782846175438396000,6.77939599609375,0.08075637523531913,0.007922920220065861,-0.0003031819143681787
1782846175448401000,6.78940087890625,0.09242986189424991,0.010987787683401256,0.0076891822461388065
1782846175458405600,6.799405517578125,0.08868950632214545,-0.008180913569126277,0.0008205340190907009
1782846175468411000,6.809410888671875,0.09632277767956256,-0.006017488457541913,-0.003015594094665721
1782846175478416000,6.819415771484375,0.09617489364147186,0.007228234220482408,-0.008839866101625375
1782846175488420900,6.8294208984375,0.0860036282390356,0.017648396350070834,0.0008209975266829133
1782846175498425900,6.83942578125,0.09618015433847904,0.004718845215439796,-0.0031183603493962434
1782846175508432000,6.849431884765625,0.08017243786752223,-0.005917407350242138,-0.0033637522284989244
1782846175518436900,6.859436767578125,0.07703180175423621,-0.0053806518587283785,0.007913405756338034
1782846175528441900,6.86944189453125,0.0966349123686552,0.012403718895930796,0.010348756844212766
1782846175538445800,6.87944580078125,0.09034954848885536,0.013773947803210467,-0.011487884975934866
1782846175548451800,6.889451904296875,0.0780786804586649,0.003626793928723782,-0.008329948384687305
1782846175558456800,6.899456787109375,0.09423661905527114,0.0008815868738107382,0.004726494232355617
1782846175568461800,6.9094619140625,0.09588321721851825,0.0020738105993717906,0.0198522059876821
1782846175578466800,6.919466796875,0.08765256448984146,0.002234590651653707,-0.008538051877147517
1782846175588471800,6.929471923828125,0.10770692600309849,0.01603714349484071,-0.004192825747071765
1782846175598476800,6.939476806640625,0.08720949689745902,-0.004443352742306888,-0.011582604921527672
1782846175608481800,6.949481689453125,0.07957914814949035,-0.0013677264229394494,0.013409646818751933
1782846175618486800,6.95948681640625,0.08766133231818675,0.0022917094000615176,0.012319305715220979
1782846175628491800,6.96949169921875,0.09843582431077956,0.00660783729981631,0.0019978250370011664
1782846175638496800,6.979496826171875,0.08361994797289371,0.0039676797882653774,0.011492549734609201
1782846175648501800,6.989501708984375,0.09559154079556464,0.0037984059022739525,-0.004366746125428472
1782846175658506800,6.9995068359375,0.09095102151334285,0.015078746791463345,0.0009206790584721602
1782846175668511700,7.00951171875,0.09858546191453933,0.011511153970379382,0.003193375514098443
1782846175678517000,7.01951708984375,0.0952928501099348,0.017364318711683153,0.006116137942869681
1782846175688522000,7.02952197265625,0.09828326409757136,0.0021948248968459666,-0.006102814953704364
1782846175698527000,7.03952685546875,0.08316577446460724,0.010456694747693836,0.0037184428511071017
1782846175708532000,7.049531982421875,0.0922948373377323,-0.0015522344106808305,0.00010519795712316408
1782846175718537000,7.059536865234375,0.09618541503548622,0.007289554219972342,-0.007097732858743984
1782846175728542000,7.0695419921875,0.10276713151335716,0.015474943034816533,-0.011283448445016983
1782846175738547000,7.079546875,0.09827624983489512,0.013164072276558726,0.001591865451459307
1782846175748552000,7.089552001953125,0.08271277000010013,0.002131075478252023,0.014679100498987827
1782846175758557000,7.099556884765625,0.10007540821135044,0.018238708659727126,0.00943256901447894
1782846175768562000,7.10956201171875,0.0885527281999588,-0.001188168604951352,0.009514036752854008
1782846175778567000,7.11956689453125,0.08151917630136013,0.0036427038839086886,-0.008347979515010956
1782846175788572000,7.129572021484375,0.0872018981128931,-0.005055292361881584,0.010469476597453467
1782846175798577000,7.139576904296875,0.09528115967214107,-0.00005573050891980529,0.003313661442499142
1782846175808582000,7.149581787109375,0.07822422640919685,0.0009116166858933865,0.0060059327337774445
1782846175818587000,7.1595869140625,0.086905545514822,0.011271536528225988,0.0029705333935213275
1782846175828591900,7.169591796875,0.09349076912403106,-0.00377462316788733,-0.00005517338649369776
1782846175838596900,7.179596923828125,0.07463701557219028,-0.005455561992153525,-0.0014279938263702205
1782846175848601900,7.189601806640625,0.08825286847054958,-0.007044000227376818,0.005800493839150295
1782846175858606800,7.19960693359375,0.09064765465259551,0.013300576404109596,0.004220864531467669
1782846175868611800,7.20961181640625,0.07329261522591114,0.01033966250559315,-0.00047184844558360053
1782846175878616800,7.219616943359375,0.10411913064420222,0.009228760387934744,-0.0007129317590384744
1782846175888621800,7.229621826171875,0.09484218373298645,0.006647237728442996,0.015022164615883956
1782846175898626800,7.239626708984375,0.11100421398282051,0.0159000365790911,0.007824932888441253
1782846175908631800,7.2496318359375,0.09559095627367496,0.011439294310566037,-0.0015948428598348981
1782846175918636800,7.25963671875,0.08556757490932941,0.006991265393141656,-0.01852809722747188
1782846175928641800,7.269641845703125,0.09664192663133143,0.013528832202032208,0.012461945039324927
1782846175938646800,7.279646728515625,0.09694178636074066,-0.0023388730100356043,0.016527461462165226
1782846175948651800,7.28965185546875,0.09604337621629237,0.015340082875080405,0.0013771701047196985
1782846175958656800,7.29965673828125,0.0951449660718441,0.010413257464766502,-0.004484120860823895
1782846175968661800,7.309661865234375,0.09259995776414871,-0.011223441336490213,0.011496168747090267
1782846175978666800,7.319666748046875,0.09379472050666808,0.0024903920436277985,0.005431219852052163
1782846175988671700,7.329671630859375,0.09349135364592075,0.01584825159292668,-0.0001921866874094121
1782846175998676700,7.3396767578125,0.10217208822965622,0.011278623856138438,-0.0019328106765053234
1782846176008681700,7.349681640625,0.10456687441170215,0.0016718422023579477,0.007195642558555118
1782846176018686700,7.359686767578125,0.10396598590910434,0.012551164542604238,-0.007704555628495291
1782846176028691700,7.369691650390625,0.08990238924324512,0.0016842998251318931,-0.0037560760143329386
1782846176038696700,7.37969677734375,0.09094751438200473,0.016310864135995508,-0.00014729723291238768
1782846176048701700,7.38970166015625,0.08241700192391872,0.005599884099978953,0.0022264301780844107
1782846176058706700,7.399706787109375,0.08555763803720473,0.01102338871974498,0.009660943543410393
1782846176068711700,7.409711669921875,0.10440905350148677,0.002175535674486309,0.004714844893757253
1782846176078716700,7.419716552734375,0.09633271455168724,-0.008447967007476836,-0.0037506943030282854
1782846176088721700,7.4297216796875,0.08421323769092559,0.0034603147880174216,0.000007578234968241304
1782846176098726700,7.4397265625,0.09573884031176566,0.004051924005616456,0.00024772996666142715
1782846176108731600,7.449731689453125,0.1093576158195734,0.009357793595083057,0.0046223968203528785
1782846176118736600,7.459736572265625,0.08990472733080386,0.002774981138668954,0.0034407401545788158
1782846176128741600,7.46974169921875,0.10217617988288402,-0.007152319440059364,-0.003244831706699915
1782846176138746600,7.47974658203125,0.09454466209113598,-0.0026501309162937103,0.004489975212875288
1782846176148751600,7.489751708984375,0.08811141417324543,0.0040574769635684784,-0.016875971222447696
1782846176158756600,7.499756591796875,0.09424597140550613,0.0031794702863320707,-0.001620810701441951
1782846176168761900,7.509761962890625,0.10501987887620925,0.005124119814392179,0.006344683718448504
1782846176178766800,7.519766845703125,0.09858429287075995,0.0019133776069618761,0.0017215516791562549
1782846176188771800,7.529771728515625,0.097088501355052,0.010391922415792941,-0.001082087015127763
1782846176198777000,7.539777099609375,0.07838146279752255,0.007634202939178794,0.004060347057378385
1782846176208782000,7.549781982421875,0.08765782518684863,0.02070424025673419,-0.007571608864632435
1782846176218787000,7.559787109375,0.09394202002286911,0.008900660944730044,-0.0035376794567215254
1782846176228792000,7.5697919921875,0.10337386523485183,0.004363346308656036,-0.008271356915112119
1782846176238797000,7.579797119140625,0.09439911614060402,0.002861216383706778,-0.013878965380531735
1782846176248802000,7.589802001953125,0.09140519502162933,0.0054598545747809105,0.010523243478150106
1782846176258807000,7.59980712890625,0.09574468553066254,0.00397816464966163,0.019068551646568812
1782846176268812000,7.60981201171875,0.093048870575428,0.0031704832622781393,0.006194566624076105
1782846176278817000,7.619817138671875,0.09798574245572089,0.0008449811904691159,0.0033358664244413374
1782846176288822000,7.629822021484375,0.07987842335700988,-0.00315212562168017,0.013215957727422937
1782846176298827000,7.639826904296875,0.06790507696866989,-0.004526720176823437,0.01608932805651566
1782846176308832000,7.64983203125,0.08825754464566707,0.00036008375035598874,-0.004040046338154934
1782846176318837000,7.6598369140625,0.10277180768847465,-0.0015584632220678031,-0.017105966886307576
1782846176328842000,7.669842041015625,0.0858645120292902,0.004044398286286741,-0.010169822364021091
1782846176338847000,7.679846923828125,0.08586217394173144,0.0011401464784517883,-0.0008598956318106502
1782846176348852000,7.68985205078125,0.08301730590462685,-0.0023736155298538504,0.0027823493110830893
1782846176358857000,7.69985693359375,0.09378595267832279,0.014632519127614796,0.004395522412052378
1782846176368862000,7.709862060546875,0.09527940610647201,0.013413937118090689,0.009236452787334565
1782846176378867000,7.719866943359375,0.09333587082326411,0.000013955460116267203,0.0059836272871354595
1782846176388872000,7.729871826171875,0.09797346749603748,0.013663601030223071,-0.0019528054350521414
1782846176398877000,7.739876953125,0.08884498914480209,0.009947758844867349,0.008048343547887634
1782846176408882000,7.7498818359375,0.0934849239051342,-0.008366809796355665,-0.012068915717303752
1782846176418887000,7.759886962890625,0.09662672906219959,0.0034919520352967083,-0.001622452385968063
1782846176428892000,7.769891845703125,0.09482815520763396,0.0013924224727787076,0.010625256247632204
1782846176438897000,7.77989697265625,0.08405424773693085,-0.008504318570904433,0.008438539308717009
1782846176448902000,7.78990185546875,0.09572598083019256,-0.008802041142154484,0.00952426131934626
1782846176458907100,7.7999072265625,0.08480009766817093,0.013875471948925406,-0.018031415734731125
1782846176468912000,7.809912109375,0.09422434409558772,0.0059212067425251005,-0.0016279505449929273
1782846176478917000,7.819917236328125,0.09916238501965999,0.006056066902261227,-0.0023341625855886378
1782846176488922000,7.829922119140625,0.0946744259506464,0.0019774740854278205,0.008716285387729294
1782846176498927000,7.839927001953125,0.10185819997489452,0.01822787673845887,-0.005880162346083671
1782846176508932000,7.84993212890625,0.08360124327242374,0.007508037542551756,-0.020973647765663916
1782846176518937000,7.85993701171875,0.08105623496472836,0.008598974584415555,0.001714315937482752
1782846176528942000,7.869942138671875,0.08389818039238453,0.027949882269743827,0.0002066513208905235
1782846176538947000,7.879947021484375,0.07865911069512367,0.010668784862104803,-0.006442691599670797
1782846176548952000,7.8899521484375,0.08045534646213054,0.008990951310377568,0.00640149193960242
1782846176558957000,7.89995703125,0.08045534646213054,0.0077837492113932965,-0.002224619530199561
1782846176568962000,7.909962158203125,0.090779172077775,0.02177797043547034,0.0008140129467588849
1782846176578967000,7.919967041015625,0.10140461098849773,0.011115085591189563,0.005164011150074657
1782846176588972000,7.929971923828125,0.09137655344903468,0.0010562493209727109,-0.00015606506125768647
1782846176598977000,7.93997705078125,0.07731295678317546,-0.00786086956821382,-0.006008668113558087
1782846176608982000,7.94998193359375,0.07162497427463531,0.012981171724013984,0.0053249601657153105
1782846176618987000,7.959987060546875,0.08389175065159797,0.013873937578964978,0.008859573165804612
1782846176628992000,7.969991943359375,0.08538871121108531,0.016684099628869443,-0.001186026880214922
1782846176638997000,7.9799970703125,0.09152502200901508,0.01092712527103722,-0.01652397031384753
1782846176649002000,7.990001953125,0.08973229337334632,-0.0002569704357534647,0.016561069187533577
1782846176659007000,8.000007080078126,0.09601941081881522,-0.0010035875519737601,0.00891622612333158
1782846176669012000,8.010011962890625,0.09182780434787273,0.0010363207777962088,0.012615767911146394
1782846176679017000,8.020016845703125,0.09616612581312656,0.002598948718328029,0.011388130378909409
1782846176689022000,8.03002197265625,0.08793664212822913,-0.0037103257600218055,-0.011414057121321092
1782846176699027000,8.04002685546875,0.07730944965183735,0.007654588140081614,-0.0006044846821925602
1782846176709032000,8.050031982421874,0.07625964833796024,0.010749722877517342,-0.001277513689105399
1782846176719037000,8.060036865234375,0.08718436245620251,0.0190813882952556,-0.008117769222019705
1782846176729042200,8.070042236328124,0.08897592204809188,0.015056260965019464,0.002668586738302838
1782846176739047200,8.080047119140625,0.07700374470353126,0.0025476203898899255,-0.013383363883313721
1782846176749052200,8.09005224609375,0.09211538911759853,0.009069843499176203,0.0021795930783846413
1782846176759057200,8.10005712890625,0.09420505487322807,-0.0037265279761515557,-0.00022397919831564648
1782846176769062100,8.110062255859376,0.09076280546486377,0.001978259536717087,0.006759244452265557
1782846176779067100,8.120067138671875,0.07984042943418025,0.011690675255749374,-0.011085140260786283
1782846176789072100,8.130072021484375,0.07729308303892612,0.006604658962041139,0.0010702276139752938
1782846176799077000,8.1400771484375,0.09270692526996135,0.011184278369881211,-0.01468829073572997
1782846176809082000,8.15008203125,0.09031213908791541,0.018237612681183964,0.013723016766994259
1782846176819087000,8.160087158203124,0.08073533244729042,0.026167638495471327,0.019973149503208696
1782846176829092000,8.170092041015625,0.08103110052347183,0.022445476167183367,-0.0011166468718554823
1782846176839097300,8.180097412109374,0.09434241751730442,0.008045980344153941,0.0014604941567522474
1782846176849102300,8.190102294921875,0.09134732735455035,0.0096466752727516,-0.0034836043320596215
1782846176859107300,8.200107421875,0.09239771319031714,0.013115136834606527,-0.0068807405236409975
1782846176869112300,8.2101123046875,0.08177227427959442,-0.00029993279464542866,0.016937202173681
1782846176879118000,8.2201181640625,0.0865571704685688,0.007796371230948716,-0.011428590253461152
1782846176889122300,8.230122314453125,0.07862228581607342,0.008410575872845947,0.0006962317859870381
1782846176899127300,8.240127197265625,0.07757657615542411,0.009957969711627811,0.002324773702735547
1782846176909133300,8.25013330078125,0.09673194300234317,0.004647332615498453,-0.004524404922151007
1782846176919138300,8.26013818359375,0.09298983386456966,-0.001151599454227835,-0.0034559263072675094
1782846176929143300,8.270143310546874,0.07652852840721606,0.001434179255273193,0.003236422354669776
1782846176939148300,8.280148193359375,0.09403554352521896,0.019860391577426344,-0.011846875031036324
1782846176949153300,8.2901533203125,0.08909808712303638,0.015800996651407332,-0.0057364772757864555
1782846176959158300,8.300158203125,0.08101765652000903,0.007854037968628108,-0.0035798221149947493
1782846176969163300,8.310163330078124,0.1028653311908245,0.004089333406556398,-0.0034751721471431665
1782846176979168300,8.320168212890625,0.0941857656508684,0.002301554940640926,-0.0193548417916405
1782846176989173200,8.33017333984375,0.0917903949469328,0.013148016190901397,-0.004877835169434547
1782846176999178200,8.34017822265625,0.07338672325015068,0.006221943254768848,0.0004238971010316163
1782846177009183200,8.350183349609376,0.08804945485293865,0.007164009877853095,0.0032630500666913573
1782846177019188200,8.360188232421875,0.0883481455385685,0.003607413374818861,0.0011413726044469511
1782846177029193200,8.370193115234375,0.08101298034489154,0.010345105865690856,0.004567636709101498
1782846177039198200,8.3801982421875,0.07248129884302616,0.025557342843711375,-0.005257701332494616
1782846177049203200,8.390203125,0.0875941123008728,-0.0011771174879744647,-0.004994426736829337
1782846177059208200,8.400208251953124,0.09252806157171725,0.022653200633730736,-0.0016807652943301944
1782846177069213200,8.410213134765625,0.08175473862290382,0.010336392836272716,-0.008428675501828548
1782846177079218200,8.42021826171875,0.08923544976711273,0.01232928368654102,-0.004713461220846511
1782846177089223200,8.43022314453125,0.09596680384874344,0.008836089542228727,0.0041383327805902806
1782846177099228200,8.440228271484376,0.07786006927192211,0.017232709954958406,0.0006635624922462738
1782846177109233200,8.450233154296875,0.0889314983844757,0.00926019670581445,0.011480740565806627
1782846177119238100,8.460238037109375,0.08608546130359172,0.0007172631575725972,0.011504253872134723
1782846177129243100,8.4702431640625,0.08309270922839641,-0.003032061172276735,-0.019314811175351495
1782846177139248000,8.480248046875,0.07995031954944133,0.009709018185548484,0.009930928724363911
1782846177149253000,8.490253173828124,0.10418868874907493,0.01088067404711619,0.011510053425258956
1782846177159258000,8.500258056640625,0.08922200576364994,0.009970573464874177,0.006876753901690244
1782846177169263000,8.51026318359375,0.10074234768748283,0.010358604668080806,0.013062956839508841
1782846177179268000,8.52026806640625,0.08188274891674518,0.011465488197747618,-0.005184341552050318
1782846177189273000,8.530273193359376,0.08576923496127128,0.008951971006859093,0.004231564021995291
1782846177199278000,8.540278076171875,0.093254037758708,0.019605686163995415,0.0002172138141002506
1782846177209283000,8.550282958984376,0.068113751283288,0.012618987348116933,0.01310142568637384
1782846177219288000,8.5602880859375,0.08861527204215526,0.026615217866189776,-0.002661232265620492
1782846177229293000,8.57029296875,0.1035802014619112,0.012639025489147752,-0.007519629798934329
1782846177239298000,8.580298095703125,0.09909048882722854,0.000977832056209445,0.01580959094981663
1782846177249303000,8.590302978515625,0.09699263976514338,0.0037937479934655126,0.003213281224388629
1782846177259308000,8.60030810546875,0.0904044935464859,0.006505856496375054,0.00995960682957666
1782846177269313000,8.61031298828125,0.08412029871046543,0.002751344534754753,-0.0020899032176472246
1782846177279318000,8.620318115234374,0.001883329528570175,0.021478622162714598,-0.035961524236167317
1782846177289323000,8.630322998046875,-0.09075637572407722,-0.02279162272373214,-0.11254959852760657
1782846177299328000,8.640327880859376,0.5704974559873343,-0.020941483078710733,0.23930492387181146
1782846177309333000,8.6503330078125,-0.20235621751248836,0.007733608193043619,-0.08390822686236352
1782846177319338000,8.660337890625,0.269608968052268,-0.007279836543556302,0.015384739434137009
1782846177329343000,8.670343017578125,-0.00900514423251152,0.016372969586774706,-0.042670577437733295
1782846177339348000,8.680347900390625,0.09858721548020839,0.03189991680346429,0.006803211458155419
