time,seconds_elapsed,z,y,x
1782846168735040000,0.0760400390625,0.001203272258862853,-0.01400070171803236,-0.004055788740515709
1782846168745045000,0.086044921875,0.0006693084724247456,0.004876583814620972,0.0009988906094804406
1782846168755050000,0.096050048828125,-0.0005658747395500541,0.008134139701724052,0.0033811491448432207
1782846168765055000,0.106054931640625,0.0006016551051288843,-0.0056314729154109955,-0.0026407905388623476
1782846168775060000,0.11606005859375,0.0002007794100791216,-0.005975434556603432,-0.0012446888722479343
1782846168785065000,0.12606494140625,0.000618096673861146,0.008662629872560501,0.004505341872572899
1782846168795070000,0.136070068359375,0.0010670667979866266,0.001780005288310349,-0.00029493949841707945
1782846168805075000,0.146074951171875,0.0012702660169452429,-0.005446482449769974,-0.0013008154928684235
1782846168815080000,0.156079833984375,-0.003729029092937708,-0.0021143583580851555,-0.0008834348991513252
1782846168825085000,0.1660849609375,0.0010854334104806185,0.007614435162395239,0.0008273798157460988
1782846168835090000,0.17608984375,0.0003345233853906393,0.00006723008118569851,0.0005489951581694186
1782846168845095000,0.186094970703125,-0.001171227777376771,-0.004252417478710413,-0.0008813886670395732
1782846168855100000,0.196099853515625,-0.0007751439698040485,0.000624627573415637,0.0023420255165547132
1782846168865105000,0.20610498046875,0.0022597943898290396,0.0036100312136113644,-0.00030462397262454033
1782846168875110000,0.21610986328125,0.0007602882105857134,-0.0019992864690721035,0.001117985462769866
1782846168885115000,0.226114990234375,0.0012575003784149885,-0.004239005036652088,-0.0008740590419620275
1782846168895120000,0.236119873046875,-0.0003179896157234907,0.004124580882489681,0.0009694006876088679
1782846168905124900,0.246124755859375,-0.0008197291754186153,0.0016265356680378318,-0.000952336355112493
1782846168915129900,0.2561298828125,-0.00030010961927473545,-0.0021014283411204815,0.00047489156713709235
1782846168925134800,0.266134765625,0.0010413245763629675,-0.0008638571016490459,0.0017241804162040353
1782846168935139800,0.276139892578125,0.0024070553481578827,0.00453887227922678,-0.0031076259911060333
1782846168945144800,0.286144775390625,0.0016272817738354206,-0.0021344765555113554,0.002468234160915017
1782846168955149800,0.29614990234375,0.00212487718090415,0.00023515359498560429,-0.001211819821037352
1782846168965154800,0.30615478515625,-0.00014813081361353397,-0.0013824505731463432,-0.002291465178132057
1782846168975159800,0.316159912109375,-0.0019470753613859415,-0.0008681709878146648,0.0004390753456391394
1782846168985164800,0.326164794921875,-0.0002104281447827816,-0.0013185115531086922,0.000889948511030525
1782846168995169800,0.336169677734375,-0.001701798872090876,-0.0001446132082492113,0.000981623656116426
1782846169005174800,0.3461748046875,-0.0008189609507098794,0.0003573924768716097,0.0019238500390201807
1782846169015179800,0.3561796875,-0.00036656390875577927,-0.0012862139847129583,-0.0005000528180971742
1782846169025184800,0.366184814453125,-0.0015791011974215508,-0.000132798682898283,0.00017559120897203684
1782846169035189800,0.376189697265625,-0.0001933078747242689,-0.0015641029458492994,0.0016700401902198792
1782846169045194800,0.38619482421875,0.00032520946115255356,0.00003698933869600296,-0.00038352329283952713
1782846169055199700,0.39619970703125,0.0005982692819088697,-0.0014041666872799397,-0.000505235861055553
1782846169065204700,0.406204833984375,-0.002082202350720763,0.0000706920400261879,0.00021727976854890585
1782846169075210000,0.4162099609375,-0.000104513019323349,0.0019421182805672288,-0.00033346377313137054
1782846169085215000,0.426215087890625,-0.001595350680872798,-0.003423618618398905,0.002752607222646475
1782846169095220000,0.436219970703125,0.00024056294932961464,-0.00076302420347929,0.0028006485663354397
1782846169105225000,0.446224853515625,-0.0000638363417237997,0.00015896232798695564,-0.0023778679315000772
1782846169115230000,0.45622998046875,0.00014046370051801205,0.0005391670856624842,0.00027071195654571056
1782846169125235000,0.46623486328125,0.0023484905250370502,0.0012606172822415829,-0.000909334747120738
1782846169135240000,0.476239990234375,0.001079694600775838,-0.0012626312673091888,-0.0006112057017162442
1782846169145245000,0.486244873046875,-0.001017278409563005,0.0005595036782324314,0.0012937533902004361
1782846169155250000,0.49625,-0.0008149439236149192,0.0028182268142700195,0.0003431278746575117
1782846169165255000,0.5062548828125,-0.00014009885489940643,0.00035400385968387127,0.0013364868937060237
1782846169175260000,0.516260009765625,0.000760961789637804,0.00015872088260948658,-0.0024884184822440147
1782846169185265000,0.526264892578125,0.0023532661143690348,0.0013960254145786166,-0.00037253694608807564
1782846169195270000,0.536269775390625,-0.00015089265070855618,0.0009693868923932314,0.0019250251352787018
1782846169205275000,0.54627490234375,0.00043020909652113914,0.0007709814235568047,-0.0004869997501373291
1782846169215279900,0.55627978515625,-0.0013784606708213687,-0.0011401292867958546,0.0016546177212148905
1782846169225284900,0.566284912109375,0.0014815079048275948,-0.000614953925833106,-0.0011835130862891674
1782846169235289900,0.576289794921875,0.00015627196989953518,0.000998994568362832,0.0015185708180069923
1782846169245294800,0.586294921875,0.002351249335333705,-0.00041327974759042263,-0.003464736044406891
1782846169255299800,0.5962998046875,-0.0017633666284382343,-0.00309401354752481,-0.0007541568484157324
1782846169265304800,0.606304931640625,-0.000018996186554431915,-0.001464158995077014,-0.0003403015434741974
1782846169275309800,0.616309814453125,0.00013843970373272896,0.000825624680146575,0.0006231244769878685
1782846169285314800,0.626314697265625,-0.0018256416078656912,0.0014591907383874059,-0.0015582707710564137
1782846169295319800,0.63631982421875,-0.0007717434782534838,0.00013923179358243942,0.0005740103661082685
1782846169305324800,0.64632470703125,-0.0015842739958316088,-0.001639493741095066,0.0019186404533684254
1782846169315329800,0.656329833984375,0.0007000032346695662,-0.0008027069270610809,0.0010683253640308976
1782846169325334800,0.666334716796875,0.0008041327819228172,-0.0007286709733307362,0.000658997509162873
1782846169335339800,0.67633984375,-0.0010163047118112445,-0.0023453531321138144,0.00010519498027861118
1782846169345344800,0.6863447265625,0.00018904195167124271,0.0006666821427643299,0.0013257216196507215
1782846169355349800,0.696349853515625,-0.00026686699129641056,-0.0023687174543738365,0.0019226099830120802
1782846169365354800,0.706354736328125,-0.0015443854499608278,0.00032107532024383545,0.0005923609714955091
1782846169375359700,0.71635986328125,0.0008081889245659113,0.00023637199774384499,-0.0025225465651601553
1782846169385364700,0.72636474609375,0.0011155176907777786,-0.00228271191008389,0.00024793995544314384
1782846169395369700,0.73636962890625,0.002222072798758745,0.001741974730975926,0.000778794928919524
1782846169405374700,0.746374755859375,-0.00041738618165254593,0.002564092632383108,-0.00016955670434981585
1782846169415379700,0.756379638671875,-0.0011374911991879344,-0.0003273976035416126,-0.0017581110587343574
1782846169425384700,0.766384765625,0.0017477776855230331,-0.0007031697314232588,0.0011250270763412118
1782846169435389700,0.7763896484375,-0.00002653687261044979,-0.0014076833613216877,0.0015342264669016004
1782846169445394700,0.786394775390625,0.0009673547465354204,-0.0010319110006093979,0.002643166808411479
1782846169455400200,0.796400146484375,-0.0031336406245827675,0.00040364288724958897,-0.0013383638579398394
1782846169465405200,0.8064052734375,0.0013740258291363716,0.0003160247579216957,-0.00012742436956614256
1782846169475410200,0.81641015625,0.0002292038407176733,0.0020951442420482635,0.0027957740239799023
1782846169485415200,0.826415283203125,-0.0007961132796481252,0.003320198506116867,0.0008985379245132208
1782846169495420200,0.836420166015625,0.0008785007521510124,0.0017639247234910727,0.0011955550871789455
1782846169505425200,0.846425048828125,0.0011996780522167683,0.001205459819175303,-0.0009560126345604658
1782846169515430100,0.85643017578125,-0.0026814243756234646,0.00026111071929335594,0.0012645426904782653
1782846169525435100,0.86643505859375,0.00020624138414859772,-0.0004635353107005358,-0.0022641457617282867
1782846169535440100,0.876440185546875,-0.0009254157776013017,-0.0012772222980856895,0.0009846147149801254
1782846169545445000,0.886445068359375,-0.0014774890150874853,0.001228812150657177,0.004067223519086838
1782846169555450000,0.8964501953125,-0.0027090972289443016,-0.0000058766454458236694,0.00005128432530909777
1782846169565455000,0.906455078125,-0.00014740275219082832,-0.0016205513384193182,0.002566107315942645
1782846169575460000,0.916460205078125,0.0022187374997884035,0.0010159313678741455,-0.00044706789776682854
1782846169585465000,0.926465087890625,-0.0007488229312002659,0.0014265907229855657,0.0016317955451086164
1782846169595470000,0.936469970703125,0.0024664734955877066,-0.001153489574790001,0.0006562455091625452
1782846169605475000,0.94647509765625,-0.002561574336141348,0.0004942081868648529,0.0009814174845814705
1782846169615480000,0.95647998046875,-0.0014849017607048154,-0.0035655060783028603,-0.0001237952383235097
1782846169625485000,0.966485107421875,-0.0005839543882757425,0.0023429831489920616,-0.00026307860389351845
1782846169635490300,0.976490234375,-0.0028231993783265352,-0.0005866754800081253,-0.0010347532806918025
1782846169645495300,0.986495361328125,-0.0007696357788518071,0.0005699354223906994,0.0014638244174420834
1782846169655500300,0.996500244140625,0.0008584307506680489,-0.0015702205710113049,0.000900869257748127
1782846169665505300,1.00650537109375,0.00035163131542503834,-0.0008445093408226967,-0.0003263152902945876
1782846169675510300,1.01651025390625,-0.00035411491990089417,-0.001782378414645791,-0.0014968174509704113
1782846169685515300,1.026515380859375,0.00046507338993251324,0.00219478621147573,0.000580980908125639
1782846169695520300,1.036520263671875,-0.0007718777051195502,-0.00040831160731613636,0.0020670630037784576
1782846169705525200,1.046525146484375,-0.0014768164837732911,-0.0021798464003950357,-0.0002128692576661706
1782846169715530200,1.0565302734375,0.000499192625284195,0.001910370192490518,-0.000009696814231574535
1782846169725535200,1.06653515625,0.003002564189955592,-0.0006779560353606939,0.00046328059397637844
1782846169735540200,1.076540283203125,0.001659739064052701,0.0012435701210051775,-0.001746297930367291
1782846169745545200,1.086545166015625,-0.00011206185445189476,0.0014462367398664355,-0.0004453436704352498
1782846169755550200,1.09655029296875,-0.00038004270754754543,0.0036384533159434795,-0.0010789807420223951
1782846169765555200,1.10655517578125,-0.00012943940237164497,-0.0025137150660157204,-0.00025473244022578
1782846169775560200,1.116560302734375,0.00005181250162422657,0.0006894983816891909,0.0013539466308429837
1782846169785565200,1.126565185546875,-0.0007093189051374793,0.0008775177411735058,-0.0023273411206901073
1782846169795570200,1.136570068359375,0.0009261444211006165,0.0020965957082808018,0.0026473733596503735
1782846169805575200,1.1465751953125,0.0011519803665578365,0.002540011890232563,-0.00064163061324507
1782846169815580200,1.156580078125,0.00034835957922041416,-0.00214000279083848,0.0026611872017383575
1782846169825585200,1.166585205078125,-0.0000814744271337986,-0.00007445504888892174,-0.0004376671276986599
1782846169835590100,1.176590087890625,-0.0009601534111425281,-0.001446576789021492,-0.0003706907154992223
1782846169845595100,1.18659521484375,0.0011932787019759417,0.0019351051887497306,-0.001447140472009778
1782846169855600000,1.19660009765625,-0.00010860408656299114,0.00037481379695236683,0.0006490255473181605
1782846169865605000,1.206605224609375,0.00033907312899827957,0.0021703168749809265,0.0005297159077599645
1782846169875610000,1.216610107421875,-0.0014864287804812193,0.0004103747196495533,-0.00028654979541897774
1782846169885615000,1.226614990234375,-0.00033807381987571716,0.00032781693153083324,-0.003110032994300127
1782846169895620000,1.2366201171875,-0.0023653539828956127,0.000987426145002246,0.0005164497415535152
1782846169905625300,1.246625244140625,-0.0014257908333092928,0.0005317593459039927,0.00026930845342576504
1782846169915630300,1.25663037109375,-0.00010727439075708389,0.00014222064055502415,0.0004301600274629891
1782846169925635300,1.26663525390625,0.00018593971617519855,0.00006578792817890644,0.0028768060728907585
1782846169935640300,1.276640380859375,-0.00005827145650982857,0.002269165823236108,-0.004716827534139156
1782846169945645300,1.286645263671875,-0.000702490215189755,0.00006619887426495552,-0.0023364939261227846
1782846169955650300,1.296650390625,0.0006805125158280134,-0.00008798646740615368,-0.0023808469995856285
1782846169965655300,1.3066552734375,-0.0008651862153783441,0.003511009505018592,-0.0020711212418973446
1782846169975660300,1.316660400390625,-0.0008260952308773994,-0.0012720015365630388,0.000049365218728780746
1782846169985665300,1.326665283203125,-0.000051115406677126884,-0.0004163279663771391,0.0005489742616191506
1782846169995670300,1.336670166015625,-0.0023063833359628916,-0.0017925514839589596,0.0008243269403465092
1782846170005675300,1.34667529296875,-0.0012885233154520392,0.0022096470929682255,0.000972398673184216
1782846170015680300,1.35668017578125,-0.0014615219552069902,0.000027125701308250427,-0.0023722341284155846
1782846170025685200,1.366685302734375,-0.001755268662236631,0.0014266169164329767,0.000518094573635608
1782846170035690200,1.376690185546875,0.001847943989560008,-0.0011816055048257113,0.00026766082737594843
1782846170045695200,1.3866953125,0.0005685612559318542,0.002078103367239237,0.00023623555898666382
1782846170055700200,1.3967001953125,0.0002388274297118187,-0.0016440534964203835,0.0019994168542325497
1782846170065705200,1.406705322265625,-0.00030179438181221485,-0.001447245478630066,0.0005442656110972166
1782846170075710200,1.416710205078125,-0.0012366267619654536,0.003084624418988824,0.0028528408147394657
1782846170085715200,1.426715087890625,-0.001597751397639513,-0.0005940000992268324,0.00004586903378367424
1782846170095720200,1.43672021484375,0.0011014582123607397,0.0004957292694598436,-0.0012935575796291232
1782846170105725200,1.44672509765625,-0.0013140288647264242,-0.0026675735134631395,-0.0011257784208282828
1782846170115730200,1.456730224609375,0.0012620920315384865,0.0016277788672596216,-0.00023179035633802414
1782846170125735200,1.466735107421875,-0.0006857438711449504,0.000712716719135642,0.0005445210845209658
1782846170135740200,1.476740234375,0.00036427658051252365,0.0012769574532285333,-0.001941547030583024
1782846170145745200,1.4867451171875,-0.001976642059162259,-0.0015614398289471865,0.003218594007194042
1782846170155750400,1.49675048828125,-0.0006327319424599409,-0.0009865292813628912,0.002799553796648979
1782846170165755400,1.50675537109375,0.001758253900334239,0.00043639750219881535,-0.0003815920790657401
1782846170175760400,1.516760498046875,-0.0005096502136439085,-0.001104394905269146,-0.002019524108618498
1782846170185765400,1.526765380859375,-0.00025984575040638447,-0.000292397104203701,0.0014441832900047302
1782846170195770400,1.536770263671875,-0.0016606512945145369,-0.00048789498396217823,-0.0004310628864914179
1782846170205775400,1.546775390625,-0.0001506390981376171,0.001896166941151023,0.0004110286827199161
1782846170215780400,1.5567802734375,-0.0011048204032704234,0.0026126594748347998,-0.00041111838072538376
1782846170225785300,1.566785400390625,-0.0009961634641513228,0.0019149112049490213,0.003104254137724638
1782846170235790300,1.576790283203125,0.000452711945399642,0.00003389106132090092,0.0032765003852546215
1782846170245795300,1.58679541015625,0.0018806986045092344,-0.0016135403420776129,0.0004511529114097357
1782846170255800300,1.59680029296875,-0.00025443616323173046,0.002143734833225608,-0.0027051097713410854
1782846170265805300,1.606805419921875,-0.0021463457960635424,0.0014489161549136043,0.0021927100606262684
1782846170275810300,1.616810302734375,0.0006159446202218533,-0.0022830679081380367,0.0020815993193536997
1782846170285815300,1.626815185546875,0.0006561584305018187,0.002326597459614277,0.0013433709973469377
1782846170295820300,1.6368203125,-0.0014180268626660109,-0.0006684993859380484,0.0002634201664477587
1782846170305825300,1.6468251953125,-0.0008196146227419376,0.003560334211215377,0.00044398248428478837
1782846170315830300,1.656830322265625,-0.0014031609753146768,0.00026285345666110516,0.0005020189564675093
1782846170325835300,1.666835205078125,-0.00039222510531544685,-0.0016367794014513493,0.002842671237885952
1782846170335840300,1.67684033203125,0.00016684201546013355,-0.0019422711338847876,0.001224295818246901
1782846170345845200,1.68684521484375,0.00011384510435163975,-0.00034304289147257805,0.00034731696359813213
1782846170355850200,1.696850341796875,0.0009074481204152107,0.0007354214321821928,0.0009133174316957593
1782846170365855200,1.706855224609375,-0.001814036164432764,0.00006457115523517132,-0.0011271964758634567
1782846170375860200,1.716860107421875,0.00013408763334155083,-0.0008295227307826281,0.0006570670520886779
1782846170385865200,1.726865234375,-0.001329053076915443,-0.0006968972738832235,-0.002052965573966503
1782846170395870200,1.7368701171875,0.001186839072033763,-0.00019682897254824638,-0.0007897083414718509
1782846170405875200,1.746875244140625,-0.000746615813113749,0.00016216514632105827,0.0014947513118386269
1782846170415880200,1.756880126953125,-0.0013263447908684611,0.00027834903448820114,-0.002076414180919528
1782846170425885200,1.76688525390625,-0.00036467728205025196,0.00010604248382151127,0.000499927788041532
1782846170435891200,1.77689111328125,-0.0012037560809403658,0.00006804964505136013,-0.0009337655501440167
1782846170445895200,1.786895263671875,0.0008884232956916094,-0.00008454942144453526,0.001478259451687336
1782846170455899400,1.7968994140625,0.0011114273220300674,-0.0007258085533976555,0.0003318411763757467
1782846170465905400,1.806905517578125,0.000836322782561183,-0.00035136821679770947,-0.0011227773502469063
1782846170475910400,1.816910400390625,-0.00020977668464183807,0.0001373887062072754,-0.0008916952647268772
1782846170485915400,1.826915283203125,0.00005094683729112148,0.0018506001215428114,0.001251616864465177
1782846170495920400,1.83692041015625,-0.0005388775607571006,0.0005452840123325586,0.0014428568538278341
1782846170505925400,1.84692529296875,0.00015274528414011002,-0.0003801644779741764,-0.0007372067775577307
1782846170515930400,1.856930419921875,0.0008164881728589535,0.0013104912359267473,-0.0010865775402635336
1782846170525935400,1.866935302734375,-0.003900502808392048,0.00017065834254026413,0.002888456452637911
1782846170535940400,1.8769404296875,-0.0013041868805885315,0.0015024058520793915,0.002418987452983856
1782846170545945300,1.8869453125,-0.0002578308340162039,-0.001439055660739541,-0.0023632508236914873
1782846170555950300,1.896950439453125,-0.0011721206828951836,0.001167296664789319,0.00003314833156764507
1782846170565955300,1.906955322265625,0.0017855861224234104,0.0013065800303593278,-0.001138642430305481
1782846170575960300,1.916960205078125,-0.0010832913685590029,-0.000794269610196352,0.00037084019277244806
1782846170585965300,1.92696533203125,0.000668269582092762,0.00018364307470619678,-0.0008137337863445282
1782846170595970300,1.93697021484375,0.00008654757402837276,0.000639292411506176,0.00015457672998309135
1782846170605975300,1.946975341796875,-0.001442106906324625,-0.00023102853447198868,-0.0014238788280636072
1782846170615980300,1.956980224609375,0.0002502014394849539,-0.002475474029779434,-0.0022527179680764675
1782846170625985300,1.9669853515625,0.0022750028874725103,0.0009634660091251135,0.0027087510097771883
1782846170635990300,1.976990234375,-0.0011758211767300963,0.0015292692696675658,0.0008682077750563622
1782846170645995300,1.986995361328125,-0.00010602944530546665,0.0010834562126547098,0.00021067331545054913
1782846170656000300,1.997000244140625,-0.00003700423985719681,-0.001459277467802167,0.0001653066137805581
1782846170666005200,2.007005126953125,-0.0003238266799598932,0.00028243009001016617,0.0007496041944250464
1782846170676010500,2.017010498046875,0.0013609423767775297,-0.0013338315766304731,0.00014589820057153702
1782846170686015500,2.027015380859375,0.0009153955616056919,-0.00021849945187568665,-0.0009238935308530927
1782846170696020500,2.0370205078125,-0.000669470988214016,-0.00010787020437419415,0.0017092383932322264
1782846170706025500,2.047025390625,-0.0010353893740102649,-0.0002633987460285425,0.0025659771636128426
1782846170716030500,2.057030517578125,0.0006242664530873299,0.0003391152713447809,0.0014496641233563423
1782846170726035700,2.06703564453125,-0.0009664396056905389,-0.00014850962907075882,-0.0004254675004631281
1782846170736040700,2.077040771484375,0.001581347780302167,-0.0013297789264470339,0.0011956116650253534
1782846170746045700,2.087045654296875,0.0009240796789526939,-0.000788890989497304,-0.00018816674128174782
1782846170756050700,2.09705078125,0.002142870333045721,-0.0008748888503760099,0.0035087084397673607
1782846170766055700,2.1070556640625,0.00112847238779068,0.00045695831067860126,-0.0013204015558585525
1782846170776060700,2.117060791015625,-0.0008786245016381145,0.0008067844901233912,-0.0002545122988522053
1782846170786065700,2.127065673828125,-0.0003531828988343477,-0.00025528413243591785,0.0009255344048142433
1782846170796070700,2.137070556640625,0.000722432741895318,0.0008815680630505085,-0.002517772139981389
1782846170806075600,2.14707568359375,0.0010960742365568876,0.0013838401064276695,0.0016894895816221833
1782846170816080600,2.15708056640625,-0.001333602238446474,-0.001273258589208126,-0.000030397321097552776
1782846170826085600,2.167085693359375,-0.0017274838173761964,0.0004948140121996403,-0.001631223363801837
1782846170836090600,2.177090576171875,0.0009000753052532673,0.0013878719182685018,-0.000011265277862548828
1782846170846095600,2.187095703125,-0.0011108776088804007,-0.0013461289927363396,-0.0013036973541602492
1782846170856100600,2.1971005859375,0.0021269498392939568,-0.0009628981351852417,-0.0027415803633630276
1782846170866105600,2.207105712890625,-0.001049935002811253,0.000046439701691269875,0.0009674037573859096
1782846170876110600,2.217110595703125,0.00009015272371470928,-0.00010393536649644375,0.0026686228811740875
1782846170886115600,2.227115478515625,0.0043986146338284016,0.002707297448068857,-0.0011149300262331963
1782846170896120600,2.23712060546875,-0.0028700020629912615,0.0007590993773192167,-0.0008559442358091474
1782846170906125600,2.24712548828125,0.0018025138415396214,0.002595348982140422,-0.001390440738759935
1782846170916130600,2.257130615234375,0.0013915367890149355,0.0009850882925093174,0.0012412695214152336
1782846170926135600,2.267135498046875,-0.0002537642139941454,0.0009520652238279581,0.0038857883773744106
1782846170936140500,2.277140625,-0.0016985817346721888,-0.0008910854812711477,0.0009437742410227656
1782846170946145500,2.2871455078125,0.0013621894177049398,0.000329707283526659,0.0027406089939177036
1782846170956150500,2.297150634765625,-0.002719045616686344,-0.0008012121543288231,-0.002213073428720236
1782846170966155500,2.307155517578125,0.0008325460366904736,0.001551956869661808,-0.002187240868806839
1782846170976160500,2.317160400390625,0.0010597363580018282,0.0014691781252622604,-0.0010244918521493673
1782846170986165500,2.32716552734375,0.0002248354721814394,-0.0006110169924795628,0.000002955668605864048
1782846170996170500,2.33717041015625,0.0005019546952098608,0.001168249174952507,0.00004012009594589472
1782846171006175500,2.347175537109375,0.001532065449282527,-0.00011353031732141972,0.001325894263572991
1782846171016180500,2.357180419921875,0.00025624223053455353,0.0009698914363980293,-0.0014252994442358613
1782846171026185500,2.367185546875,-0.0001070129219442606,-0.0019872828852385283,-0.001169103546999395
1782846171036190500,2.3771904296875,0.0033674174919724464,-0.00129610113799572,-0.00039562187157571316
1782846171046195500,2.387195556640625,-0.0024420020636171103,-0.002913971431553364,0.0028616904746741056
1782846171056200400,2.397200439453125,0.0014612877275794744,0.0018944250186905265,0.0011579226702451706
1782846171066205400,2.407205322265625,-0.001964868977665901,-0.0005106758326292038,-0.0006106826476752758
1782846171076210400,2.41721044921875,-0.00042437470983713865,-0.0015269748400896788,0.0008729278924874961
1782846171086215400,2.42721533203125,0.0026249445509165525,0.0005201972089707851,-0.002293570665642619
1782846171096220400,2.437220458984375,-0.0008934212382882833,-0.00040971790440380573,-0.001182997366413474
1782846171106225400,2.447225341796875,0.0012035516556352377,0.0008931003976613283,-0.003265056759119034
1782846171116230400,2.45723046875,-0.003794474760070443,0.0010615591891109943,0.003546938532963395
1782846171126235400,2.4672353515625,0.0014378377236425877,-0.000161630567163229,-0.0016773846000432968
1782846171136240400,2.477240478515625,-0.0016729647759348154,-0.00016920245252549648,0.00135134591255337
1782846171146245400,2.487245361328125,-0.0006082330364733934,-0.00018491502851247787,0.00083069788524881
1782846171156250400,2.49725048828125,-0.0009574107825756073,-0.0016580615192651749,0.0010339358123019338
1782846171166255400,2.50725537109375,-0.0007550105219706893,-0.0011406093835830688,-0.0007317399140447378
1782846171176260400,2.51726025390625,0.0011799682397395372,-0.00033813389018177986,-0.0021094826515764
1782846171186265300,2.527265380859375,-0.0005939634284004569,0.00020088977180421352,-0.0020634098909795284
1782846171196270600,2.5372705078125,0.0012929581571370363,0.0006397070828825235,-0.0006975512951612473
1782846171206275600,2.547275634765625,-0.00027564377523958683,0.0005475615616887808,0.00023269082885235548
1782846171216280600,2.557280517578125,-0.000014190329238772392,0.002283328678458929,0.0009066698257811368
1782846171226285600,2.56728564453125,0.0007607894949615002,0.0006385603919625282,-0.0009045461192727089
1782846171236290600,2.57729052734375,-0.002891629934310913,-0.0011174201499670744,-0.00048484280705451965
1782846171246295600,2.587295654296875,0.0003057613503187895,0.0029529554303735495,-0.0005367744015529752
1782846171256300500,2.597300537109375,-0.001044294098392129,-0.00033168611116707325,0.0037488555535674095
1782846171266305500,2.607305419921875,-0.0017034264747053385,0.00022118608467280865,0.00012056482955813408
1782846171276311300,2.617311279296875,0.0011707611847668886,0.0025368263013660908,-0.0004900866188108921
1782846171286316300,2.62731640625,-0.0013355397386476398,-0.0008800092618912458,0.001857223454862833
1782846171296321300,2.6373212890625,-0.00011611497029662132,-0.00015868386253714561,0.00156598340254277
1782846171306326300,2.647326171875,0.002020272659137845,-0.00040555885061621666,-0.00000847748015075922
1782846171316331300,2.657331298828125,0.0010419073514640331,0.0004083835519850254,0.003453692654147744
1782846171326336300,2.667336181640625,0.00027358531951904297,-0.00044542597606778145,-0.0013426602818071842
1782846171336341500,2.677341552734375,0.00024981284514069557,0.00167340156622231,0.000630614289548248
1782846171346346500,2.687346435546875,0.0009915030095726252,-0.0014406328555196524,0.0004585740971378982
1782846171356351500,2.6973515625,0.0005162199959158897,-0.002354278462007642,0.0015037126140668988
1782846171366356500,2.7073564453125,-0.0011703599011525512,-0.0015255024190992117,0.0005793293821625412
1782846171376361500,2.717361572265625,0.0011159689165651798,0.0004946363624185324,-0.001017509843222797
1782846171386366500,2.727366455078125,-0.0017570492345839739,-0.001931503415107727,0.0034451489336788654
1782846171396371500,2.737371337890625,0.0007879319600760937,-0.0016004405915737152,0.00025211949832737446
1782846171406376400,2.74737646484375,-0.0020086534786969423,-0.00046433601528406143,0.00034692796180024743
1782846171416381400,2.75738134765625,0.0006471262313425541,0.0005407142452895641,0.0004329222720116377
1782846171426386700,2.76738671875,-0.0023569194599986076,-0.0003157583996653557,0.0008334617014043033
1782846171436391700,2.7773916015625,0.002937551122158766,-0.0006689873989671469,-0.0018727972637861967
1782846171446396700,2.787396728515625,-0.0018793083727359772,0.001104145310819149,-0.0021191395353525877
1782846171456402200,2.797402099609375,0.0007153302431106567,-0.0005153103265911341,0.000015019439160823822
1782846171466407200,2.8074072265625,-0.0017752579879015684,-0.00017868680879473686,0.0018033321248367429
1782846171476412200,2.817412109375,-0.0004716289695352316,-0.000034140655770897865,-0.003244222141802311
1782846171486417200,2.827417236328125,0.0010114854667335749,0.0014694799901917577,-0.0003818564582616091
1782846171496422100,2.837422119140625,-0.0006606536917388439,-0.0011341972276568413,-0.002958921017125249
1782846171506427100,2.84742724609375,0.0004943592939525843,0.001739619649015367,-0.0006691350135952234
1782846171516432100,2.85743212890625,-0.0011647616047412157,-0.0008649437222629786,0.0007121653179638088
1782846171526437000,2.86743701171875,-0.0026012707967311144,-0.0013174146879464388,0.0014943357091397047
1782846171536442000,2.877442138671875,-0.000943537219427526,0.0027098366990685463,-0.001247605076059699
1782846171546447000,2.887447021484375,-7.783528417348862e-7,0.002200107555836439,-0.0008350813295692205
1782846171556452000,2.8974521484375,-0.0009102891199290752,0.0007895813323557377,-0.0012907646596431732
1782846171566457000,2.90745703125,0.0029283910989761353,0.0007698740810155869,-0.001463071210309863
1782846171576462000,2.917462158203125,-0.0007571070455014706,-0.0008264558855444193,-0.001793647650629282
1782846171586467000,2.927467041015625,0.001190196257084608,0.0025381818413734436,-0.0026511854957789183
1782846171596472000,2.93747216796875,0.00015985057689249516,0.0009733589831739664,-0.0011252753902226686
1782846171606477000,2.94747705078125,-0.0009717266075313091,0.0012971992837265134,-0.00008877308573573828
1782846171616482000,2.95748193359375,-0.0006217716727405787,0.002736241091042757,-0.0020264489576220512
1782846171626487000,2.967487060546875,-0.00146492850035429,-0.0010427844244986773,0.0022628381848335266
1782846171636492000,2.977491943359375,-0.001495062024332583,-0.0005995414685457945,0.003739443840458989
1782846171646497000,2.9874970703125,-0.0012425943277776241,-0.001658148132264614,0.002373775001615286
1782846171656502000,2.997501953125,-0.00032450491562485695,0.0010646882001310587,-0.001734675606712699
1782846171666507000,3.007507080078125,-0.0006083979969844222,0.0008830605074763298,-0.0012454527895897627
1782846171676512000,3.017511962890625,0.0000850423239171505,-0.002216927707195282,0.0005726894014514983
1782846171686517000,3.02751708984375,-0.0009983316995203495,-0.0012398138642311096,-0.0010047010146081448
1782846171696522000,3.03752197265625,-0.0012852842919528484,-0.0008413654286414385,0.0017192547675222158
1782846171706527000,3.04752685546875,0.0010780049487948418,0.00010512187145650387,0.0029533635824918747
1782846171716532000,3.057531982421875,-0.00040698936209082603,-0.001106797717511654,-0.00004306109622120857
1782846171726537000,3.067536865234375,-0.0006666474509984255,0.0031396127305924892,0.0001465559471398592
1782846171736542000,3.0775419921875,-0.0011962526477873325,-0.0024366741999983788,-0.0008027703734114766
1782846171746547000,3.087546875,-0.000680132070556283,0.001225705025717616,0.0003064361517317593
1782846171756552000,3.097552001953125,0.0015244572423398495,0.0019567760173231363,-0.000031284987926483154
1782846171766557000,3.107556884765625,0.0019801240414381027,0.0021562466863542795,-0.001905085053294897
1782846171776562000,3.11756201171875,-0.0027174209244549274,-0.0012665421236306429,0.0027176823932677507
1782846171786567000,3.12756689453125,-0.00020685908384621143,0.0007318940479308367,-0.0012043549213558435
1782846171796572000,3.137572021484375,0.0004799854941666126,-0.0005877523217350245,0.000059419660829007626
1782846171806577000,3.147576904296875,-0.0018649278208613396,0.0006040120497345924,0.00040669587906450033
1782846171816582000,3.157581787109375,-0.001889835111796856,0.0002261705230921507,-0.00026133423671126366
1782846171826587000,3.1675869140625,-0.0014568051556125283,-0.0010257817339152098,0.00047556241042912006
1782846171836591900,3.177591796875,0.0004096671473234892,0.001037507550790906,-0.0002920749830082059
1782846171846596900,3.187596923828125,0.00003842264413833618,0.002259365748614073,0.0005452228360809386
1782846171856601900,3.197601806640625,0.0011056284420192242,0.001878708484582603,-0.0012610682751983404
1782846171866606800,3.20760693359375,0.001935469452291727,0.000754055567085743,0.0009464258328080177
1782846171876611800,3.21761181640625,-0.0010775307891890407,-0.0011979816481471062,0.00016307411715388298
1782846171886616800,3.227616943359375,-0.00036087422631680965,-0.0012632287107408047,-0.0004601054824888706
1782846171896621800,3.237621826171875,0.0011590062640607357,0.0018606255762279034,-0.003518556011840701
1782846171906626800,3.247626708984375,-0.000859936117194593,-0.001681645167991519,0.00042372115422040224
1782846171916632000,3.257632080078125,0.000650032889097929,0.0004648549947887659,-0.0006011035293340683
1782846171926637000,3.267636962890625,-0.00016729114577174187,-0.0005127915646880865,-0.0006407846231013536
1782846171936642000,3.27764208984375,0.0006047943606972694,-0.002613971009850502,-0.001277650473639369
1782846171946647000,3.28764697265625,0.0006484703626483679,0.0035906617995351553,0.00044701271690428257
1782846171956652000,3.297652099609375,0.001489502377808094,-0.00004930328577756882,0.0011133092921227217
1782846171966657000,3.307656982421875,0.001025846228003502,0.0007280735298991203,-0.00031973759178072214
1782846171976662000,3.317662109375,0.00045937509275972843,-0.0010939340572804213,-0.0009337064111605287
1782846171986668000,3.32766796875,-0.0008591560181230307,-0.0018321622628718615,-0.001896172878332436
1782846171996673000,3.337673095703125,-0.0016088361153379083,-0.0029992738272994757,-0.0003912380198016763
1782846172006678000,3.347677978515625,0.000656182412058115,0.003649307880550623,0.00019199424423277378
1782846172016683000,3.35768310546875,-0.00033152708783745766,-0.0014860671944916248,0.0014461111277341843
1782846172026688000,3.36768798828125,0.0009627691470086575,-0.0015694238245487213,-0.0029257340356707573
1782846172036693000,3.37769287109375,0.0010752908419817686,-0.002266670810058713,-0.0002011074684560299
1782846172046698000,3.387697998046875,-0.001821163110435009,-0.0010645196307450533,0.0013704239390790462
1782846172056703000,3.397702880859375,0.0003820532001554966,-0.0006170088890939951,0.002300454769283533
1782846172066708000,3.4077080078125,0.002266505965963006,0.0008794213645160198,-0.0010972063755616546
1782846172076713000,3.417712890625,0.001983555732294917,0.0008764292579144239,0.0009181972127407789
1782846172086718200,3.42771826171875,0.00018352526240050793,0.0003429981879889965,-0.0017830469878390431
1782846172096723200,3.43772314453125,0.0003213798627257347,0.00013153580948710442,0.001578932162374258
1782846172106728200,3.447728271484375,-0.0011606692569330335,-0.0011928542517125607,-0.0007497359765693545
1782846172116733200,3.457733154296875,0.002241812413558364,-0.00011191330850124359,-0.0023024058900773525
1782846172126738200,3.46773828125,0.001137132989242673,-0.0009241772349923849,0.0013064437080174685
1782846172136743200,3.4777431640625,0.00014541042037308216,0.0016511575086042285,-0.002221017377451062
1782846172146748200,3.487748046875,0.002004829701036215,-0.00034647947177290916,-0.0005818416830152273
1782846172156753200,3.497753173828125,-0.001563908183015883,-0.00005419808439910412,0.0014513698406517506
1782846172166758100,3.507758056640625,0.0008550409693270922,0.0002597884740680456,0.0024950625374913216
1782846172176763100,3.51776318359375,0.0012212102301418781,-0.0016245064325630665,-0.0022903108038008213
1782846172186768100,3.52776806640625,-0.00017694919370114803,-0.0022279787808656693,-0.0009222449734807014
1782846172196773000,3.537773193359375,-0.0005988781340420246,0.000020938925445079803,0.0005560233839787543
1782846172206778000,3.547778076171875,0.0006059359293431044,-0.0007295398972928524,0.0035563407000154257
1782846172216783000,3.557783203125,-0.0012163585051894188,-0.0024271314032375813,0.0026772082783281803
1782846172226788000,3.5677880859375,0.00006781774573028088,-0.0004393479321151972,-0.00038702471647411585
1782846172236793000,3.57779296875,-0.0028010092210024595,0.0004471754655241966,0.00013475434388965368
1782846172246798000,3.587798095703125,0.0009061109740287066,-0.00019890745170414448,0.0012229218846186996
1782846172256803000,3.597802978515625,-0.00028026592917740345,-0.001785527216270566,0.0006317070219665766
1782846172266808000,3.60780810546875,0.00026488304138183594,0.0003247614949941635,0.0006215870380401611
1782846172276813000,3.61781298828125,-0.0006134386640042067,-0.0037242549005895853,-0.0007507625268772244
1782846172286818000,3.627818115234375,0.0008949758484959602,0.0018255066825076938,-0.0006378445541486144
1782846172296823000,3.637822998046875,-0.002678093034774065,-0.000802082009613514,-0.002523630391806364
1782846172306828000,3.647828125,0.000037532299757003784,0.0007489428389817476,0.00257046427577734
1782846172316833000,3.6578330078125,-0.0013645910657942295,-0.0012866943143308163,0.0008804478566162288
1782846172326838000,3.667838134765625,0.000383507926017046,0.0007495589088648558,-0.0009720470989122987
1782846172336843000,3.677843017578125,-0.0005648969672620296,0.0009702725801616907,0.0016271446365863085
1782846172346848000,3.687847900390625,-0.00134520314168185,0.0026989304460585117,-0.0007260245038196445
1782846172356853000,3.69785302734375,0.001720567001029849,0.0018777275690808892,0.00026683014584705234
1782846172366858000,3.70785791015625,0.000633730785921216,0.0016817189753055573,-0.00019496202003210783
1782846172376863000,3.717863037109375,-0.00007438147440552711,0.00032678060233592987,-0.00038500933442264795
1782846172386868000,3.727867919921875,-0.0006046168273314834,-0.00020159059204161167,0.0015433855587616563
1782846172396873000,3.737873046875,0.00029082666151225567,-0.002596692182123661,0.001508881337940693
1782846172406878000,3.7478779296875,-0.0011358287883922458,0.0012489125365391374,0.00024281453806906939
1782846172416883000,3.757883056640625,0.001939407316967845,0.0008608286734670401,-0.0007547319401055574
1782846172426888000,3.767887939453125,0.0006301975809037685,-0.0014348160475492477,0.0007723246235400438
1782846172436893000,3.777892822265625,0.0006725951097905636,-0.001168271992355585,-0.0009305942803621292
1782846172446898000,3.78789794921875,0.00132853165268898,0.00044933194294571877,0.00005504162982106209
1782846172456902400,3.79790234375,-0.0014243850018829107,0.0012662287335842848,0.0007482013897970319
1782846172466907400,3.807907470703125,0.000051272567361593246,-0.0004914575256407261,-0.00017857865896075964
1782846172476912400,3.817912353515625,0.0007621787954121828,-0.00010768556967377663,-0.000340818427503109
1782846172486917400,3.82791748046875,0.00044100149534642696,0.001774103962816298,-0.00023908563889563084
1782846172496922400,3.83792236328125,-0.0008880732348188758,-0.001343725249171257,-0.0008346028625965118
1782846172506927600,3.847927734375,-0.000060362741351127625,0.00002833525650203228,-0.003905493998900056
1782846172516932600,3.8579326171875,0.0008135412354022264,0.0013931563589721918,-0.003642238676548004
1782846172526937600,3.8679375,-0.00005970918573439121,0.002074659336358309,0.0005359948263503611
1782846172536942600,3.877942626953125,-0.0010078337509185076,-0.0005955486558377743,0.00009755452629178762
1782846172546947600,3.887947509765625,0.00036529218778014183,-0.0021423124708235264,0.0011234041303396225
1782846172556952600,3.89795263671875,-0.00016884412616491318,0.001836855779401958,-0.0016801070887595415
1782846172566957600,3.90795751953125,0.0007464843802154064,0.00006212526932358742,-0.0021592096891254187
1782846172576962600,3.917962646484375,0.000915885902941227,-0.0003855065442621708,0.0002879526582546532
1782846172586967600,3.927967529296875,-0.0012623135698959231,0.0005551220383495092,-0.002762165851891041
1782846172596972500,3.93797265625,-0.00017693010158836842,-0.0009255409240722656,-0.004069675225764513
1782846172606977500,3.9479775390625,0.0012188327964395285,0.0020073982886970043,0.00046595430467277765
1782846172616982500,3.957982421875,0.0034418790601193905,0.000553992809727788,-0.0012771997135132551
1782846172626987500,3.967987548828125,0.0008418348152190447,-0.0022223524283617735,-0.0008055539801716805
1782846172636992500,3.977992431640625,0.000320865074172616,0.0004379658494144678,0.0006340596009977162
1782846172646997500,3.98799755859375,-0.0003569093532860279,-0.0006685776170343161,-0.0006690251175314188
1782846172657002500,3.99800244140625,0.00003302120603621006,-0.0008856835775077343,-0.001284594414755702
1782846172667007500,4.008007568359375,-0.0007973524043336511,-0.000925630796700716,-0.00224120169878006
1782846172677012500,4.018012451171875,0.001507060369476676,-0.000847572460770607,-0.000028408714570105076
1782846172687017500,4.028017578125,0.00014804932288825512,0.000493861734867096,-0.0014398840721696615
1782846172697023500,4.0380234375,-0.0007691412465646863,-0.0015425898600369692,-0.000689523876644671
1782846172707028500,4.048028564453125,-0.0007515643956139684,0.0002233521081507206,0.00041116063948720694
1782846172717033500,4.058033447265625,-0.001373801613226533,0.0007799502927809954,0.0011219673324376345
1782846172727038500,4.06803857421875,0.0007806955836713314,0.00015437370166182518,0.00003566395025700331
1782846172737043500,4.07804345703125,-0.00252807536162436,0.0004237049724906683,-0.002911372110247612
1782846172747048400,4.08804833984375,-0.0012457632692530751,0.0024202768690884113,0.0014546141028404236
1782846172757053400,4.098053466796875,0.002417233306914568,0.0009335007052868605,-0.000750366598367691
1782846172767058400,4.108058349609375,0.0011754012666642666,0.0005356243345886469,0.0013218390522524714
1782846172777063400,4.1180634765625,-0.0016117843333631754,-0.00162516999989748,-0.0012901599984616041
1782846172787068400,4.128068359375,-0.0016559928189963102,0.0011479798704385757,-0.0011761768255382776
1782846172797073400,4.138073486328125,0.0007469081319868565,0.001319707720540464,0.002918471582233906
1782846172807078400,4.148078369140625,-0.0015287629794329405,0.0016568639548495412,0.0016609270824119449
1782846172817083400,4.15808349609375,0.0007191079203039408,0.0003360684495419264,0.00011623732279986143
1782846172827088600,4.168088623046875,0.00009752623736858368,0.0016950794961303473,0.001632374944165349
1782846172837093600,4.17809375,-0.0011262595653533936,0.000778326066210866,0.00017063121777027845
1782846172847098600,4.1880986328125,0.0009297009091824293,-0.0005649724043905735,0.0017863709945231676
1782846172857103600,4.198103515625,0.00028845760971307755,0.0017020354280248284,0.00032454502070322633
1782846172867108600,4.208108642578125,-0.00037786527536809444,0.0018807335291057825,-0.00010342500172555447
1782846172877113600,4.218113525390625,0.0001426564995199442,0.0010013584978878498,-0.0018341084942221642
1782846172887118600,4.22811865234375,0.000697925454005599,-0.0025156119372695684,-0.0030325311236083508
1782846172897123600,4.23812353515625,0.0014682686887681484,-0.00030118832364678383,-0.003425094997510314
1782846172907128600,4.248128662109375,0.0006099317688494921,-0.0010226389858871698,-5.360925570130348e-7
1782846172917133600,4.258133544921875,0.001246248371899128,-0.0010559912770986557,-0.0014969909097999334
1782846172927138600,4.268138671875,0.001219084020704031,-0.0013132523745298386,-0.00021574401762336493
1782846172937143600,4.2781435546875,0.00004746299237012863,-0.002322881016880274,0.0008956586243584752
1782846172947148500,4.2881484375,-0.0004228512989357114,-0.00011565303429961205,-0.0015733580803498626
1782846172957153500,4.298153564453125,-0.0005959745030850172,-0.001083265757188201,0.0014777412870898843
1782846172967158500,4.308158447265625,-0.00031581008806824684,0.0014185075415298343,0.0016540426295250654
1782846172977163500,4.31816357421875,-0.00008722534403204918,0.0007174711208790541,-0.001039113849401474
1782846172987168500,4.32816845703125,-0.0015426428290084004,-0.002218663925305009,-0.0022934626322239637
1782846172997173500,4.338173583984375,-0.0017931938637048006,0.00023742811754345894,0.0012871661456301808
1782846173007178500,4.348178466796875,0.0004406657535582781,-0.0004986696876585484,-0.0012247273698449135
1782846173017183500,4.35818359375,-0.000017387326806783676,0.003079561749473214,-0.00031553360167890787
1782846173027188500,4.3681884765625,0.0011573329102247953,0.0004755228292196989,0.0002650354872457683
1782846173037193500,4.378193359375,-0.0003258057404309511,0.0013944415841251612,-0.0012046071933582425
1782846173047198500,4.388198486328125,-0.00018785404972732067,0.0005001521203666925,0.0024915942922234535
1782846173057203500,4.398203369140625,-0.002284037647768855,-0.00207954621873796,-0.002354502445086837
1782846173067208400,4.40820849609375,0.0009897861164063215,0.0024321151431649923,0.0008751130662858486
1782846173077213400,4.41821337890625,-0.00020765187218785286,-0.000345657579600811,0.00019734131637960672
1782846173087218400,4.428218505859375,-0.0002436046488583088,0.001386196119710803,0.0022458448074758053
1782846173097223400,4.438223388671875,-0.0001256931573152542,0.00014742673374712467,0.004291064105927944
1782846173107228400,4.448228515625,0.0016314603853970766,-0.0006877407431602478,0.0040116989985108376
1782846173117233400,4.4582333984375,-0.0017157444963231683,0.0007919101044535637,0.0033004258293658495
1782846173127238400,4.46823828125,-0.00013276166282594204,0.00150776794180274,0.001951002050191164
1782846173137243400,4.478243408203125,0.002755893627181649,0.0001398839522153139,-0.0009732318576425314
1782846173147248400,4.488248291015625,0.001965733477845788,0.0004365602508187294,0.0006840533460490406
1782846173157253400,4.49825341796875,-0.00009442749433219433,0.0002595791593194008,0.0007386509096249938
1782846173167258600,4.508258544921875,0.002188700484111905,-0.0011273953132331371,-0.0006041148444637656
1782846173177263600,4.518263671875,0.00016185734421014786,-0.0006888385396450758,0.0011612583184614778
1782846173187268600,4.5282685546875,-0.0004277664702385664,-0.001459823688492179,-0.0025197628419846296
1782846173197273600,4.538273681640625,0.0005999589338898659,-0.0016410844400525093,-0.0009209710406139493
1782846173207278600,4.548278564453125,0.0008654759731143713,0.0022963990923017263,-0.0013683821307495236
1782846173217283600,4.55828369140625,0.001259674783796072,0.0029017082415521145,-0.0025515758898109198
1782846173227288600,4.56828857421875,-0.0013342441525310278,-0.0020733431447297335,-0.001115066697821021
1782846173237293600,4.57829345703125,0.0008251108229160309,-0.0009851695504039526,0.001448349212296307
1782846173247298600,4.588298583984375,0.0014424314722418785,-0.0009513471741229296,0.002563414629548788
1782846173257303600,4.598303466796875,-0.00034244777634739876,0.0009720332454890013,0.0005977738182991743
1782846173267308500,4.60830859375,-0.0003152834251523018,0.0002346038818359375,0.0002765966346487403
1782846173277313500,4.6183134765625,-0.0003491917159408331,0.0013534745667129755,-0.002852635458111763
1782846173287318500,4.628318603515625,-0.0008155112154781818,0.00015478581190109253,-0.0010938839986920357
1782846173297323500,4.638323486328125,-0.0007551210001111031,-0.0000884663313627243,-0.0005607515340670943
1782846173307328500,4.64832861328125,0.0007458366453647614,-0.0016717156395316124,0.0012901454465463758
1782846173317333500,4.65833349609375,0.0005395689513534307,-0.0014152738731354475,-0.0019460049225017428
1782846173327338500,4.66833837890625,-0.000944610801525414,0.0008990128990262747,0.0009291437454521656
1782846173337343500,4.678343505859375,-0.0025968956761062145,-0.001381564885377884,-0.002315894467756152
1782846173347348500,4.688348388671875,0.00012086005881428719,0.00008636969141662121,-0.0001619297545403242
1782846173357353500,4.698353515625,-0.0018994705751538277,-0.0010953026358038187,-0.001886669429950416
1782846173367358500,4.7083583984375,0.0009399917908012867,0.003508237889036536,0.002679320052266121
1782846173377363500,4.718363525390625,0.00005888822488486767,-0.0005485191941261292,0.0008520835544914007
1782846173387368400,4.728368408203125,-0.0005389915313571692,0.0008283350616693497,0.0022915219888091087
1782846173397373400,4.73837353515625,0.0008541399147361517,0.0007747639901936054,0.00041331880493089557
1782846173407378400,4.74837841796875,-0.00018768850713968277,0.0001941947266459465,-0.0007928268751129508
1782846173417383400,4.758383544921875,-0.0009907783241942525,-0.00007481547072529793,-0.0010861080372706056
1782846173427388400,4.768388427734375,-0.000403817743062973,0.00045435456559062004,0.0005330938147380948
1782846173437393400,4.778393310546875,-0.0018203246872872114,0.00014594965614378452,0.001317535643465817
1782846173447398400,4.7883984375,0.0009605479426681995,0.0014221363235265017,0.003534617368131876
1782846173457403100,4.798403076171875,0.00037090457044541836,0.0012528066290542483,-0.0004349717637524009
1782846173467409400,4.808409423828125,0.0014659962616860867,-0.0022937250323593616,-0.0011737325694411993
1782846173477414400,4.818414306640625,-0.0004134252667427063,-0.0003891636151820421,0.0025462207850068808
1782846173487419400,4.82841943359375,0.001131208147853613,-0.00011698855087161064,0.00031209492590278387
1782846173497424400,4.83842431640625,0.0024014669470489025,0.0008661949541419744,0.0007758029969409108
1782846173507429400,4.848429443359375,-0.0007346717175096273,0.002086987951770425,-0.0007930651772767305
1782846173517434400,4.858434326171875,0.0008325276430696249,-0.0017712770495563745,0.0019265098962932825
1782846173527439400,4.868439453125,-0.0014884171541780233,-0.002258369466289878,0.00061037577688694
1782846173537444400,4.8784443359375,0.0014699164312332869,0.000815707491710782,-0.00006205320823937654
1782846173547449300,4.888449462890625,-0.00013570324517786503,-0.0001845757942646742,0.0000351521885022521
1782846173557454300,4.898454345703125,-0.0006640779320150614,-0.0002927405294030905,-0.0010694470256567001
1782846173567459300,4.908459228515625,-0.0020899344235658646,0.00032777595333755016,-0.0010793006513267756
1782846173577464300,4.91846435546875,0.001345513155683875,-0.0018593932036310434,-0.0007746022893115878
1782846173587469300,4.92846923828125,0.0014677522704005241,0.0009369258768856525,-0.0008182782912626863
1782846173597474300,4.938474365234375,-0.0005015397910028696,0.0017485632561147213,0.0010568652069196105
1782846173607479300,4.948479248046875,0.0017432388849556446,0.0020524300634860992,0.0009071956155821681
1782846173617484300,4.958484375,-0.0019375111442059278,-0.001342908712103963,0.002004059497267008
1782846173627489300,4.9684892578125,-0.00002110050991177559,0.0004097174387425184,0.001594199100509286
1782846173637494300,4.978494384765625,0.0008592202793806791,-0.00018878327682614326,-0.0010614002821967006
1782846173647499300,4.988499267578125,0.0007359159644693136,0.003299158765003085,0.001406817464157939
1782846173657504300,4.998504150390625,-0.0009191540302708745,-0.00019494397565722466,-0.000708306091837585
1782846173667509200,5.00850927734375,0.00028885575011372566,0.0008695214055478573,0.0010299391578882933
1782846173677514200,5.01851416015625,-0.0013308814959600568,-0.0003800408449023962,-0.0008988077752292156
1782846173687519200,5.028519287109375,-0.00101902533788234,0.00014859670773148537,-0.001842099241912365
1782846173697524200,5.038524169921875,-0.00195548078045249,-0.0026267082430422306,-0.0018776636570692062
1782846173707529200,5.048529296875,-0.00044360430911183357,-0.0006104290951043367,-0.0029836746398359537
1782846173717534200,5.0585341796875,-0.0005628484068438411,-0.0014740354381501675,0.0016486792592331767
1782846173727539200,5.068539306640625,-0.0000619078055024147,0.0013968520797789097,-0.0014925191644579172
1782846173737544200,5.078544189453125,-0.00010435795411467552,-0.0002418810036033392,0.0006675712647847831
1782846173747549200,5.088549072265625,0.0000948465894907713,0.0019477700116112828,-0.0002142013981938362
1782846173757554200,5.09855419921875,0.0012775447685271502,0.00044407485984265804,-0.000715388567186892
1782846173767559200,5.10855908203125,-0.001572836423292756,-0.0013237313833087683,0.0036002639681100845
1782846173777564200,5.118564208984375,0.00036176969297230244,-0.00020943093113601208,0.0008471223991364241
1782846173787569400,5.1285693359375,0.0005098413676023483,-0.0007862714119255543,-0.002066375920549035
1782846173797574400,5.138574462890625,-0.0028698518872261047,-0.00020539411343634129,-0.0004665553569793701
1782846173807579400,5.148579345703125,-0.0010727506596595049,-0.0007236453238874674,0.003770533949136734
1782846173817584400,5.15858447265625,0.00129113276489079,0.0019219464156776667,-0.0004954095929861069
1782846173827589400,5.16858935546875,-0.0001011677086353302,0.0003544099163264036,0.0015296580968424678
1782846173837594400,5.178594482421875,0.002221416449174285,0.0003666637931019068,-0.0008756180759519339
1782846173847599400,5.188599365234375,-0.00021830527111887932,-0.000002716667950153351,-0.0010790836531668901
1782846173857604400,5.198604248046875,-0.000662887585349381,-0.0009076485875993967,-0.0021636481396853924
1782846173867609300,5.208609375,0.0009390038903802633,0.00042819324880838394,0.002707273233681917
1782846173877614300,5.2186142578125,0.00026894803158938885,-0.001731103751808405,-0.0003630941500887275
1782846173887619300,5.228619384765625,0.0016537918709218502,0.0012638871558010578,-0.0011607109336182475
1782846173897624300,5.238624267578125,-0.000015913741663098335,0.0003467476926743984,-0.0012905161129310727
1782846173907629300,5.24862939453125,0.0011396317277103662,-0.0008812358137220144,-0.001475605764426291
1782846173917634300,5.25863427734375,0.0004973476752638817,-0.0018373059574514627,-0.0006822044961154461
1782846173927639300,5.268639404296875,0.000305333873257041,0.0007291825022548437,0.0006198149058036506
1782846173937644300,5.278644287109375,-0.0017368015833199024,-0.0013240757398307323,0.0035801255144178867
1782846173947649300,5.288649169921875,0.001617982517927885,0.0010983357205986977,0.001085276366211474
1782846173957654300,5.298654296875,0.0015078550204634666,0.0004567587748169899,0.000036711571738123894
1782846173967659300,5.3086591796875,-0.0008357268525287509,0.0001305213663727045,0.0006329933530651033
1782846173977664300,5.318664306640625,-0.0000026456546038389206,-0.0006142840720713139,-0.0021903375163674355
1782846173987669200,5.328669189453125,0.0008964375592768192,0.0003630958963185549,0.0013284969609230757
1782846173997674200,5.33867431640625,-0.0009669691789895296,0.000285653630271554,0.0030871685594320297
1782846174007679200,5.34867919921875,0.0007859235629439354,0.0003213400486856699,-0.0007110318401828408
1782846174017684200,5.358684326171875,0.0012298603542149067,0.0007141001988202333,0.001722152577713132
1782846174027689200,5.368689208984375,0.00031373300589621067,0.0021016071550548077,0.00038684369064867496
1782846174037694200,5.378694091796875,0.0013638900127261877,0.00028644432313740253,0.0020515304058790207
1782846174047699200,5.38869921875,0.0006538911256939173,-0.0000270097516477108,-0.0019269661279395223
1782846174057704200,5.3987041015625,0.0004899799823760986,-0.00017130817286670208,-0.00022623979020863771
1782846174067709200,5.408709228515625,0.001169618684798479,-0.0011417639907449484,-0.00020786398090422153
1782846174077714200,5.418714111328125,0.0002979093696922064,-0.0016415121499449015,0.001110059441998601
1782846174087719200,5.42871923828125,-0.0007146245334297419,-0.0023792076390236616,-0.0014718752354383469
1782846174097724200,5.43872412109375,-0.0005906077567487955,0.0011634519323706627,-0.001899367431178689
1782846174107729200,5.448729248046875,0.0016230118926614523,0.0021714584436267614,-0.0005640585441142321
1782846174117734100,5.458734130859375,0.0003038595896214247,-0.0014841016381978989,0.0022150916047394276
1782846174127739100,5.4687392578125,0.001039691036567092,-0.0012920876033604145,-0.00022010284010320902
1782846174137744100,5.478744140625,0.0023719752207398415,-0.001288362080231309,0.0008195475675165653
1782846174147749000,5.4887490234375,0.0009604999795556068,-0.0017818461637943983,-0.0005067066522315145
1782846174157754000,5.498754150390625,-0.0000325480941683054,-0.00011136173270642757,-0.0017212552484124899
1782846174167759000,5.508759033203125,0.0008593446109443903,-0.00012041651643812656,0.0014977075625211
1782846174177764000,5.51876416015625,-0.0002874352503567934,-0.0003889945801347494,-0.00007219274993985891
1782846174187769000,5.52876904296875,-0.0003446931950747967,0.0019524566596373916,0.00031050347024574876
1782846174197774000,5.538774169921875,-0.002167816273868084,7.646158337593079e-7,0.0013890505069866776
1782846174207779000,5.548779052734375,-0.0011020193342119455,-0.0020504018757492304,-0.0009614555165171623
1782846174217784000,5.5587841796875,-0.0013520719949156046,0.0009364895522594452,0.0005974174127914011
1782846174227789000,5.5687890625,-0.00139255216345191,-0.00046140351332724094,0.0007316407281905413
1782846174237794000,5.5787939453125,-0.0009400187991559505,-0.001575544709339738,0.0004013731377199292
1782846174247799000,5.588799072265625,0.0007827801164239645,0.0010386144276708364,0.00014997075777500868
1782846174257804000,5.598803955078125,-0.0009759955573827028,0.0003899440634995699,0.0008024117560125887
1782846174267809300,5.608809326171875,0.0003358775284141302,0.0013425566721707582,0.0031457270961254835
1782846174277814300,5.618814208984375,-0.000861578737385571,-0.0013494952581822872,0.00011958053801208735
1782846174287819300,5.6288193359375,-0.0005159004358574748,-0.00021418975666165352,-0.0008354291785508394
1782846174297824300,5.63882421875,0.002396663650870323,-0.0019139505457133055,0.0000719843665137887
1782846174307829500,5.64882958984375,0.0009010322391986847,-0.00008276128210127354,0.0007508241105824709
1782846174317834500,5.65883447265625,0.0004642624408006668,-0.0013105038087815046,0.0008716228185221553
1782846174327839500,5.668839599609375,0.0006940930616110563,-0.0034903010819107294,0.002189088612794876
1782846174337844500,5.678844482421875,0.0008203792385756969,-0.0015356813091784716,-0.00022809230722486973
1782846174347849500,5.688849365234375,-0.001737586921080947,-0.002472048858180642,0.000972993322648108
1782846174357854500,5.6988544921875,0.00027949875220656395,0.0020689968951046467,0.002090267138555646
1782846174367859500,5.708859375,-0.0023527697194367647,0.0011310316622257233,-0.000009102746844291687
1782846174377864400,5.718864501953125,0.0017403331585228443,-0.00018875184468925,-0.002576244994997978
1782846174387870200,5.7288701171875,0.0010175509378314018,0.0001356210559606552,0.001996668754145503
1782846174397875200,5.738875244140625,0.0002436379436403513,0.0009816472884267569,0.0010758426506072283
1782846174407880200,5.748880126953125,0.002070832531899214,-0.0022711376659572124,-0.0013092844747006893
1782846174417885200,5.75888525390625,-0.00034821161534637213,0.00003954186104238033,-0.0011439193040132523
1782846174427890200,5.76889013671875,-0.0016763299936428666,0.0003966719377785921,0.0005471879849210382
1782846174437895400,5.7788955078125,0.0036126449704170227,-0.002779836766421795,0.0014665115159004927
1782846174447900400,5.788900390625,-0.0012974250130355358,-0.0005923162680119276,-0.001150576863437891
1782846174457906000,5.798906005859375,0.0003301415126770735,0.002474210923537612,-0.0022933976724743843
1782846174467911000,5.808910888671875,-0.0014595028478652239,0.0000960079487413168,0.00026669923681765795
1782846174477916000,5.818916015625,0.0002786475233733654,-0.002271451987326145,0.0033197421580553055
1782846174487921000,5.8289208984375,-0.00012269080616533756,-0.0010583819821476936,-0.001206832705065608
1782846174497926000,5.83892578125,0.0032734477426856756,-0.00004327110946178436,-0.0007213067729026079
1782846174507931000,5.848930908203125,-0.0003713546320796013,0.0002792375162243843,-0.00128749490249902
1782846174517935900,5.858935791015625,0.0022171875461935997,0.001304730656556785,-0.0014937720261514187
1782846174527940900,5.86894091796875,0.0013828191440552473,-0.0007104834076017141,0.0021840534172952175
1782846174537946000,5.878946044921875,0.0014792908914387226,0.000595219898968935,-0.00019103277008980513
1782846174547951000,5.888951171875,-0.00157508859410882,-0.0017297195736318827,0.0008278926252387464
1782846174557956000,5.8989560546875,-0.0010074584279209375,0.00029805698432028294,-0.001064714160747826
1782846174567961000,5.908961181640625,0.0007861806079745293,-0.0007456359453499317,-0.0003619060153141618
1782846174577966000,5.918966064453125,-0.0012046919437125325,-0.00038221594877541065,0.0016988175921142101
1782846174587971000,5.92897119140625,0.0018512855749577284,-0.0006602499634027481,-0.00006446125917136669
1782846174597976000,5.93897607421875,-0.00003091711550951004,-0.0008810600265860558,0.00047791091492399573
1782846174607981000,5.94898095703125,0.0010825505014508963,0.002919803373515606,-0.000025692861527204514
1782846174617986000,5.958986083984375,-0.0013717060210183263,0.0037146664690226316,-0.0014258672017604113
1782846174627991000,5.968990966796875,0.0001950315199792385,0.002407320775091648,0.0009467429481446743
1782846174637996000,5.97899609375,0.0004978310316801071,-0.00025885761715471745,-0.0024006287567317486
1782846174648001000,5.9890009765625,0.0003865109756588936,0.00035766419023275375,-0.0022003590129315853
1782846174658006000,5.999006103515625,0.0010048763360828161,-0.0019054971635341644,-0.0015659695491194725
1782846174668011000,6.009010986328125,-0.0008319058688357472,-0.001469803974032402,0.00036215910222381353
1782846174678016000,6.01901611328125,0.002164168283343315,0.0009913919493556023,-0.001929064397700131
1782846174688021000,6.02902099609375,-0.00024199765175580978,-0.0003487106878310442,0.0019967013504356146
1782846174698026000,6.03902587890625,0.00036694156005978584,-0.0006120724137872458,0.0015312944306060672
1782846174708031000,6.049031005859375,0.00036134873516857624,-0.0015556304715573788,0.0014394153840839863
1782846174718036000,6.059035888671875,-0.0003462393069639802,0.000452463049441576,0.00047202128916978836
1782846174728041000,6.069041015625,0.0008359379135072231,-0.0004902961663901806,-0.0025408128276467323
1782846174738046000,6.0790458984375,0.0005322929937392473,0.0010069829877465963,0.0002486374578438699
1782846174748051000,6.089051025390625,0.00036131800152361393,-0.0011752110440284014,0.0014127051690593362
1782846174758056000,6.099055908203125,-0.0014966153539717197,0.0006017403211444616,-0.005074230954051018
1782846174768061000,6.10906103515625,0.00011220015585422516,0.0007340994197875261,-0.0003982525086030364
1782846174778066000,6.11906591796875,0.0017989517655223608,0.0005221008323132992,-0.0012965267524123192
1782846174788071000,6.12907080078125,-0.0003502190811559558,-0.0003402307629585266,-0.0024001405108720064
1782846174798076000,6.139075927734375,-0.0013325884938240051,-0.0014469304587692022,0.0006772355991415679
1782846174808081000,6.149080810546875,-0.0005967570468783379,0.0020636485423892736,0.0022160098887979984
1782846174818086000,6.1590859375,0.002441839314997196,-0.0016150986775755882,-0.004423389211297035
1782846174828091000,6.1690908203125,0.00013447669334709644,-0.0011996454559266567,0.00005498225800693035
1782846174838096000,6.179095947265625,0.0015835172962397337,0.0022842814214527607,0.0013583428226411343
1782846174848100900,6.189100830078125,-0.0009406267199665308,-0.000738140195608139,0.0006036029662936926
1782846174858105900,6.19910595703125,0.0004114082548767328,0.000394011614844203,-0.002464424353092909
1782846174868110800,6.20911083984375,-0.0011278989259153605,-0.0001583280973136425,0.0014703960623592138
1782846174878115800,6.21911572265625,-0.0006348345195874572,0.0013717192923650146,-0.003325661411508918
1782846174888120800,6.229120849609375,-0.0005951534258201718,-0.0004892977885901928,-0.002035626443102956
1782846174898125800,6.239125732421875,-0.0005778922932222486,-0.0006544729694724083,-0.00039915298111736774
1782846174908130800,6.249130859375,0.002274619648233056,0.0008470171596854925,0.0019667993765324354
1782846174918135800,6.2591357421875,0.00003789062611758709,-0.00008893758058547974,0.0020698928274214268
1782846174928140800,6.269140869140625,-0.0002550568897277117,-0.0020756556186825037,0.0010685442248359323
1782846174938145800,6.279145751953125,0.0013521220535039902,0.0005606410559266806,-0.0001474682940170169
1782846174948150800,6.28915087890625,0.0001382532063871622,-0.0007866520900279284,0.0007343043107539415
1782846174958155800,6.29915576171875,-0.00015137111768126488,0.00013135862536728382,0.001158070983365178
1782846174968160800,6.309160888671875,-0.0006509802769869566,0.0005393547471612692,0.0013860375620424747
1782846174978165800,6.319165771484375,0.0012616522144526243,0.0009078518487513065,0.00010696210665628314
1782846174988170800,6.329170654296875,0.0011737679596990347,0.0021459555719047785,0.0003258739598095417
1782846174998175700,6.33917578125,0.0018890290521085262,0.0007353194523602724,-0.0015154534485191107
1782846175008181000,6.349180908203125,-0.00021087354980409145,0.00007458915933966637,-0.0024286513216793537
1782846175018186000,6.35918603515625,0.0005056762602180243,0.001628291793167591,-0.001452091266401112
1782846175028191000,6.36919091796875,-0.0009494749829173088,0.0008589045610278845,0.0014952290803194046
1782846175038196000,6.379196044921875,0.0014531523920595646,0.0004982056561857462,-0.0020521460101008415
1782846175048201000,6.389200927734375,-0.0004645900335162878,-0.0017106200102716684,0.0018397974781692028
1782846175058206200,6.399206298828125,0.000986593309789896,0.00033665914088487625,-0.0009429760975763202
1782846175068211200,6.409211181640625,0.0012411915231496096,0.0006469173822551966,0.0030930442735552788
1782846175078216200,6.41921630859375,0.0011833251919597387,0.0003264406695961952,-0.00036256678868085146
1782846175088221200,6.42922119140625,0.00001712702214717865,0.00122792087495327,-0.0018566001672297716
1782846175098226200,6.43922607421875,-0.00048154417891055346,0.00036083580926060677,0.0003115340368822217
1782846175108231200,6.449231201171875,0.0006194065790623426,-0.0033920910209417343,0.0006652018637396395
1782846175118236200,6.459236083984375,-0.00044181779958307743,-0.0000699495431035757,0.00036358804209157825
1782846175128241200,6.4692412109375,0.002226137090474367,-0.0004726196639239788,0.0022938470356166363
1782846175138246100,6.47924609375,-0.0006109398091211915,0.001968100666999817,0.0007844317005947232
1782846175148251100,6.489251220703125,0.0002202328760176897,-0.0003448545467108488,0.0015026861801743507
1782846175158256000,6.499256103515625,0.0010131271556019783,-0.0004593716003000736,0.0009365709265694022
1782846175168261000,6.50926123046875,-0.0016212717164307833,-0.0016514023300260305,-0.0013460243353620172
1782846175178266000,6.51926611328125,0.0011834569741040468,-0.0023655793629586697,0.0003025506157428026
1782846175188271000,6.52927099609375,-0.0008176423143595457,0.0012720325030386448,0.0025787544436752796
1782846175198276000,6.539276123046875,-0.0006520793540403247,-0.0003208939451724291,-0.0012539112940430641
1782846175208281000,6.549281005859375,-0.00002383952960371971,-0.0002900012768805027,0.0015868826303631067
1782846175218286000,6.5592861328125,-0.0003203490050509572,0.0009970306418836117,-0.0005441728280857205
1782846175228291000,6.569291015625,0.0003430445212870836,0.0007767872884869576,-0.0022818855941295624
1782846175238296000,6.579296142578125,0.002458050847053528,-0.00043553439900279045,0.001349327969364822
1782846175248301000,6.589301025390625,-0.000787277240306139,-0.0013881470076739788,0.0032050185836851597
1782846175258306000,6.59930615234375,-0.0002279819454997778,0.0014199190773069859,-0.00003600213676691055
1782846175268311000,6.60931103515625,-0.00003197323530912399,-0.0009058197028934956,0.0034103947691619396
1782846175278316000,6.61931591796875,-0.0019134655594825745,0.0007642102427780628,0.0022325904574245214
1782846175288321000,6.629321044921875,-0.00152544304728508,-0.0011412817984819412,0.0007883581565693021
1782846175298326000,6.639325927734375,0.0020616089459508657,0.00034917425364255905,-0.0013064797967672348
1782846175308331000,6.6493310546875,0.000009110663086175919,-0.0003552318084985018,0.00108743563760072
1782846175318336000,6.6593359375,0.00010247132740914822,0.0010709883645176888,-0.0013491534627974033
1782846175328341000,6.669341064453125,0.0013128782156854868,0.002339984755963087,-0.0006021368317306042
1782846175338346000,6.679345947265625,0.0008855236228555441,0.0013287881156429648,-0.00006713613402098417
1782846175348351000,6.68935107421875,0.002112708520144224,-0.0006006720941513777,0.0001488461857661605
1782846175358356000,6.69935595703125,0.00037537491880357265,-0.000462864525616169,-0.0022795195691287518
1782846175368361000,6.70936083984375,0.0003247747663408518,-0.0007246530149132013,-0.0007431419799104333
1782846175378366000,6.719365966796875,0.0005556908436119556,-0.0013684104196727276,-0.0008252988336607814
1782846175388371000,6.729370849609375,0.0009738071821630001,0.0004169729072600603,0.00038350996328517795
1782846175398376000,6.7393759765625,-0.0005394697654992342,-0.0011839319486171007,-0.00026190991047769785
1782846175408381000,6.749380859375,0.0011399195063859224,0.0019735118839889765,-0.002161010168492794
1782846175418386000,6.759385986328125,-0.0017629462527111173,-0.0009825685992836952,0.0012406563619151711
1782846175428391000,6.769390869140625,0.0012261855881661177,-0.0006078616715967655,0.0023096492514014244
1782846175438396000,6.77939599609375,0.00018373667262494564,0.000017276732251048088,-0.0007026051171123981
1782846175448401000,6.78940087890625,-0.0011281364131718874,-0.0006112293340265751,-0.001562539953738451
1782846175458405600,6.799405517578125,0.0024327756837010384,0.00010159099474549294,-0.0009080111049115658
1782846175468411000,6.809410888671875,0.002272719983011484,0.0019953646697103977,-0.001982863061130047
1782846175478416000,6.819415771484375,-0.00013822154141962528,0.0004311713855713606,-0.0030438601970672607
1782846175488420900,6.8294208984375,-0.0013036206364631653,0.0014405094552785158,0.00013302499428391457
1782846175498425900,6.83942578125,0.0008325243834406137,0.0008574621751904488,-0.0004606896545737982
1782846175508432000,6.849431884765625,-0.0010484663071110845,-0.001523404149338603,0.0008035129867494106
1782846175518436900,6.859436767578125,0.00019724038429558277,-0.0023533913772553205,-0.0013472767313942313
1782846175528441900,6.86944189453125,-0.001860051415860653,0.0015271005686372519,0.0002527503529563546
1782846175538445800,6.87944580078125,-0.0020174102392047644,-0.0009546226356178522,0.0007094315951690078
1782846175548451800,6.889451904296875,0.0024124919436872005,0.00009466288611292839,0.0003131531993858516
1782846175558456800,6.899456787109375,0.0006165164522826672,0.0006305794231593609,0.0008670073002576828
1782846175568461800,6.9094619140625,0.0012588710524141788,-0.0006663801614195108,-0.0007729673525318503
1782846175578466800,6.919466796875,-0.000263641937635839,-0.0009748090524226427,-0.0003805003361776471
1782846175588471800,6.929471923828125,0.0023513156920671463,-0.0032169243786484003,-0.002340586856007576
1782846175598476800,6.939476806640625,0.0009711990132927895,-0.0008023413829505444,-0.002581838984042406
1782846175608481800,6.949481689453125,0.00010833470150828362,0.0003872925881296396,0.0006901208544149995
1782846175618486800,6.95948681640625,-0.00022724305745214224,0.0016336767002940178,0.0014630916994065046
1782846175628491800,6.96949169921875,0.001407405361533165,0.0017785526579245925,0.000232444959692657
1782846175638496800,6.979496826171875,-0.0005035568028688431,-0.00037256162613630295,0.000009385053999722004
1782846175648501800,6.989501708984375,0.002197687514126301,0.0008724660146981478,0.0009670577710494399
1782846175658506800,6.9995068359375,-0.00044291350059211254,-0.00005475454963743687,-0.0024236803874373436
1782846175668511700,7.00951171875,0.0018804282881319523,-0.000020666047930717468,-0.002011955715715885
1782846175678517000,7.01951708984375,0.0009595970623195171,0.003446471644565463,0.002080220729112625
1782846175688522000,7.02952197265625,0.0008501410484313965,-0.0010532052256166935,0.0011582343140617013
1782846175698527000,7.03952685546875,-0.0006082071922719479,0.0000776355154812336,0.0010249210754409432
1782846175708532000,7.049531982421875,-0.0002678552409633994,0.0015096170827746391,0.0009309115121141076
1782846175718537000,7.059536865234375,0.0005720427725464106,-0.0009306326974183321,0.002347266534343362
1782846175728542000,7.0695419921875,-0.002354238647967577,-0.000010510440915822983,0.0016583066899329424
1782846175738547000,7.079546875,-0.0017498472006991506,-0.0000603280495852232,0.0009043122408911586
1782846175748552000,7.089552001953125,-0.00048085092566907406,-0.0011165379546582699,-0.0008986479369923472
1782846175758557000,7.099556884765625,0.0013005686923861504,0.00332253472879529,-0.0014816544717177749
1782846175768562000,7.10956201171875,0.0003860390279442072,0.0013643124839290977,0.0001742991735227406
1782846175778567000,7.11956689453125,-0.0011398919159546494,-0.0023103749845176935,0.0009498519357293844
1782846175788572000,7.129572021484375,-0.00008847587741911411,0.0011719746980816126,0.0015085831983014941
1782846175798577000,7.139576904296875,0.0004410143010318279,-0.00019196397624909878,0.0018363276030868292
1782846175808582000,7.149581787109375,0.0020487643778324127,0.00022801663726568222,-0.00007901783101260662
1782846175818587000,7.1595869140625,-0.0026492292527109385,0.00044809840619564056,0.0001978296204470098
1782846175828591900,7.169591796875,-0.00021403469145298004,0.0036460221745073795,-0.0005172292003408074
1782846175838596900,7.179596923828125,-0.002393278293311596,0.0008705826476216316,-0.0021126042120158672
1782846175848601900,7.189601806640625,-0.0003543621860444546,0.0020106821320950985,0.0013039651094004512
1782846175858606800,7.19960693359375,-0.0014041316462680697,-0.0021400810219347477,-0.0014567140024155378
1782846175868611800,7.20961181640625,0.000701097073033452,-0.0011421944946050644,-0.003257277188822627
1782846175878616800,7.219616943359375,-0.0004867515526711941,-0.0003150177653878927,-0.0011383184464648366
1782846175888621800,7.229621826171875,-0.00012083328329026699,0.0005004422273486853,-0.000238170032389462
1782846175898626800,7.239626708984375,0.00004998501390218735,-0.0032608346082270145,0.0024853134527802467
1782846175908631800,7.2496318359375,-0.0008634793339297175,0.0007874364964663982,-0.0014761383645236492
1782846175918636800,7.25963671875,0.0009119571186602116,0.0010171313770115376,-0.001144889509305358
1782846175928641800,7.269641845703125,0.00037799333222210407,-0.0009754456114023924,0.000515591527801007
1782846175938646800,7.279646728515625,-0.0008748642867431045,-0.0012767361477017403,0.0001688951742835343
1782846175948651800,7.28965185546875,-0.0008889789460226893,-0.000005076639354228973,-0.0017967838793992996
1782846175958656800,7.29965673828125,0.0005564740858972073,0.00013045012019574642,-0.0008930009789764881
1782846175968661800,7.309661865234375,-0.0004960070364177227,-0.0000011101365089416504,0.001003169803880155
1782846175978666800,7.319666748046875,0.00008484278805553913,-0.0013071889989078045,0.0028081643395125866
1782846175988671700,7.329671630859375,-0.001382559072226286,-0.00036070169880986214,0.0009673874592408538
1782846175998676700,7.3396767578125,-0.0002234714338555932,0.0022480390034615993,0.0010405447101220489
1782846176008681700,7.349681640625,0.002475908724591136,-0.0011184627655893564,0.0010235004592686892
1782846176018686700,7.359686767578125,0.004411879926919937,-0.0021711140871047974,-0.00189250020775944
1782846176028691700,7.369691650390625,0.0032544704154133797,-0.001276292372494936,-0.00016038015019148588
1782846176038696700,7.37969677734375,-0.0018298458307981491,0.0005559772253036499,0.0016345045296475291
1782846176048701700,7.38970166015625,-0.000009042676538228989,0.0015541301108896732,-0.0012235998874530196
1782846176058706700,7.399706787109375,0.00004460965283215046,0.0007037175819277763,0.00259570125490427
1782846176068711700,7.409711669921875,-0.0010113336611539125,-0.0000781866256147623,-0.00037212553434073925
1782846176078716700,7.419716552734375,-0.0009496033890172839,-0.0027470788918435574,0.0019195617642253637
1782846176088721700,7.4297216796875,-0.000991414999589324,0.0026665949262678623,-0.0037399218417704105
1782846176098726700,7.4397265625,-0.0014171910006552935,-0.00004043802618980408,0.000011435477063059807
1782846176108731600,7.449731689453125,-0.003305105958133936,-0.0003626805264502764,-0.0009177413303405046
1782846176118736600,7.459736572265625,-0.0016707368195056915,-0.00007034093141555786,-0.0001935585169121623
1782846176128741600,7.46974169921875,0.001769534545019269,-0.0011601066216826439,-0.0004614725476130843
1782846176138746600,7.47974658203125,0.0002001211978495121,-0.001426003873348236,-0.0006646016845479608
1782846176148751600,7.489751708984375,0.0005500605329871178,0.0016076030442491174,-0.00048696890007704496
1782846176158756600,7.499756591796875,0.00041878712363541126,0.0014677089639008045,0.002294699428603053
1782846176168761900,7.509761962890625,-0.0009338323725387454,0.0000868597999215126,-0.00122466788161546
1782846176178766800,7.519766845703125,-0.00003173714503645897,-0.000391597393900156,-0.0002749802079051733
1782846176188771800,7.529771728515625,-0.00008713104762136936,0.0024145753122866154,0.0019114749738946557
1782846176198777000,7.539777099609375,-0.003532423172146082,-0.002254194812849164,0.004093640483915806
1782846176208782000,7.549781982421875,-0.0008716590236872435,0.0006750158499926329,-0.0025181896053254604
1782846176218787000,7.559787109375,0.0007425176445394754,0.0015389655018225312,-0.0017724158242344856
1782846176228792000,7.5697919921875,0.0012447899207472801,-0.0008738585747778416,0.00047422677744179964
1782846176238797000,7.579797119140625,-0.0005262513877823949,0.0008522081188857555,-0.00017473904881626368
1782846176248802000,7.589802001953125,-0.0025076433084905148,-0.0006237158086150885,0.0020575225353240967
1782846176258807000,7.59980712890625,0.0006302334368228912,-0.0021329238079488277,0.0006572232814505696
1782846176268812000,7.60981201171875,-0.00015646428801119328,0.0018391809426248074,0.0019360731821507215
1782846176278817000,7.619817138671875,0.0022607571445405483,-0.00121342483907938,-0.0016212007030844688
1782846176288822000,7.629822021484375,0.0013563474640250206,0.0008108438923954964,0.0023807312827557325
1782846176298827000,7.639826904296875,-0.00016473187133669853,-0.0006636809557676315,-0.0012813502689823508
1782846176308832000,7.64983203125,-0.001317880698479712,-0.0005057554226368666,0.0006273373728618026
1782846176318837000,7.6598369140625,-0.00024061778094619513,-0.00024039018899202347,-0.002391508314758539
1782846176328842000,7.669842041015625,0.0021897831466048956,0.0002139450516551733,-0.00007216131780296564
1782846176338847000,7.679846923828125,-0.000756222871132195,0.0002339668571949005,0.001614678418263793
1782846176348852000,7.68985205078125,0.0022150659933686256,-0.00013195164501667023,0.0029433295130729675
1782846176358857000,7.69985693359375,-0.002352149924263358,0.00014145392924547195,0.003796706674620509
1782846176368862000,7.709862060546875,-0.0009627789258956909,-0.0002875812351703644,-0.0003032298991456628
1782846176378867000,7.719866943359375,0.00008340179920196533,0.0007169477175921202,-0.00046719086822122335
1782846176388872000,7.729871826171875,-0.00015921215526759624,0.0005955074448138475,0.0004835575819015503
1782846176398877000,7.739876953125,0.0010645247530192137,0.0002934909425675869,0.00037811952643096447
1782846176408882000,7.7498818359375,0.001375848427414894,-0.0014554066583514214,0.0004268553457222879
1782846176418887000,7.759886962890625,-0.0005155378021299839,-0.00022917822934687138,-0.0004153888439759612
1782846176428892000,7.769891845703125,-0.0015973139088600874,0.000340471975505352,0.002456297632306814
1782846176438897000,7.77989697265625,0.00013897637836635113,0.00011467281728982925,0.0007569882436655462
1782846176448902000,7.78990185546875,-0.00010150694288313389,0.000614281976595521,-0.0007373114349320531
1782846176458907100,7.7999072265625,-0.001492269802838564,0.0016242281999439,0.00023011182202026248
1782846176468912000,7.809912109375,-0.0004794696578755975,0.00023325905203819275,0.001504966989159584
1782846176478917000,7.819917236328125,0.0008050256874412298,0.0012022200971841812,-0.002989542670547962
1782846176488922000,7.829922119140625,0.0011214092373847961,0.00047624227590858936,-0.0010427720844745636
1782846176498927000,7.839927001953125,-0.00017247279174625874,-0.00017075915820896626,-0.0004648978356271982
1782846176508932000,7.84993212890625,-0.0005993775557726622,0.0017179546412080526,-0.0006390685448423028
1782846176518937000,7.85993701171875,0.0008443722035735846,-0.002562182955443859,0.002762545831501484
1782846176528942000,7.869942138671875,-0.0025141402147710323,0.0005049796309322119,0.0003443955793045461
1782846176538947000,7.879947021484375,0.0008135982789099216,0.0004639490507543087,-0.000347183202393353
1782846176548952000,7.8899521484375,-0.0009800407569855452,0.0002753972075879574,-0.002516860608011484
1782846176558957000,7.89995703125,-0.00012809387408196926,0.00008439132943749428,0.0008016634965315461
1782846176568962000,7.909962158203125,0.0002527381293475628,-0.00037500401958823204,0.00010471430141478777
1782846176578967000,7.919967041015625,0.0012503666803240776,-0.0011202816385775805,-0.0007087262347340584
1782846176588972000,7.929971923828125,-0.0007818915182724595,-0.0002211984246969223,-0.0007036662427708507
1782846176598977000,7.93997705078125,-0.0009924158221110702,0.005035118665546179,-0.0015078055439516902
1782846176608982000,7.94998193359375,-0.0006395470118150115,0.001233189832419157,0.0016682803397998214
1782846176618987000,7.959987060546875,0.0012206088285893202,0.00007722945883870125,0.002036077668890357
1782846176628992000,7.969991943359375,-0.00020631286315619946,0.0028892613481730223,0.0003276597708463669
1782846176638997000,7.9799970703125,-0.0004885466769337654,-0.0003704570699483156,-0.0014483456034213305
1782846176649002000,7.990001953125,0.0009045528713613749,0.0012186509557068348,-0.0004906730027869344
1782846176659007000,8.000007080078126,0.0006513837724924088,0.0014281352050602436,-0.0013796903658658266
1782846176669012000,8.010011962890625,0.0002343328669667244,0.00037112669087946415,-0.00004917511250823736
1782846176679017000,8.020016845703125,0.0013380665332078934,-0.00005894782952964306,0.00000936130527406931
1782846176689022000,8.03002197265625,-0.0034745316952466965,-0.001796394120901823,0.001233882736414671
1782846176699027000,8.04002685546875,-0.0020882515236735344,0.0001586833968758583,0.0008413483737967908
1782846176709032000,8.050031982421874,0.000018042512238025665,-0.0009193641599267721,0.002067734021693468
1782846176719037000,8.060036865234375,0.0016717493999749422,-0.0014478033408522606,-0.000043612788431346416
1782846176729042200,8.070042236328124,-0.001095274928957224,0.0007327932398766279,0.0005670500686392188
1782846176739047200,8.080047119140625,0.0010551649611443281,-0.00021051731891930103,0.0011521317064762115
1782846176749052200,8.09005224609375,0.0010218755342066288,0.002770891645923257,0.003446977585554123
1782846176759057200,8.10005712890625,-0.0007085317047312856,-0.00010782969184219837,0.001784709864296019
1782846176769062100,8.110062255859376,-0.000011848751455545425,-0.00205886154435575,0.00044860190246254206
1782846176779067100,8.120067138671875,-0.0000757130328565836,0.0002317819744348526,0.0007510356372222304
1782846176789072100,8.130072021484375,-0.0008925044676288962,0.00040994747541844845,0.0014495827490463853
1782846176799077000,8.1400771484375,-0.00015657022595405579,0.0005611984524875879,-0.0005143567686900496
1782846176809082000,8.15008203125,-0.0006378034595400095,0.0031612426973879337,-0.0004746756749227643
1782846176819087000,8.160087158203124,0.0011565994936972857,-0.0023308664094656706,-0.0013613016344606876
1782846176829092000,8.170092041015625,0.0011515396181493998,-0.0015644084196537733,0.004745326936244965
1782846176839097300,8.180097412109374,0.001048133010044694,0.0008547957986593246,0.004683324135839939
1782846176849102300,8.190102294921875,0.0010944718960672617,0.0012952826218679547,-0.00003180245403200388
1782846176859107300,8.200107421875,0.00035977642983198166,0.00042323931120336056,-0.0014111485797911882
1782846176869112300,8.2101123046875,-0.001343581359833479,-0.00003562332130968571,0.0013284452725201845
1782846176879118000,8.2201181640625,-0.0016158735379576683,-0.00157372304238379,0.0035109235905110836
1782846176889122300,8.230122314453125,-0.000981508637778461,0.0017991706263273954,0.00037052418338134885
1782846176899127300,8.240127197265625,0.0014438526704907417,0.0009161718189716339,-0.0022272989153862
1782846176909133300,8.25013330078125,0.0014558369293808937,0.000747061101719737,-0.0005106251919642091
1782846176919138300,8.26013818359375,0.00071353605017066,0.0021466081961989403,-0.0006496243877336383
1782846176929143300,8.270143310546874,-0.00022789137437939644,0.0012403344735503197,0.001758139580488205
1782846176939148300,8.280148193359375,0.0001755214761942625,-0.0006195472087711096,0.0006272784667089581
1782846176949153300,8.2901533203125,0.0014221472665667534,0.0017027291469275951,-0.0009216159814968705
1782846176959158300,8.300158203125,-0.0014323232462629676,0.0007699027191847563,-0.0003247519489377737
1782846176969163300,8.310163330078124,-0.0005438927328214049,0.0013776359846815467,-0.0026917695067822933
1782846176979168300,8.320168212890625,0.0005366848781704903,0.00005597877316176891,0.0033781006932258606
1782846176989173200,8.33017333984375,-0.0009541526669636369,-0.003608264494687319,-0.0010938793420791626
1782846176999178200,8.34017822265625,-0.001850648084655404,0.0020350043196231127,0.0015194570878520608
1782846177009183200,8.350183349609376,0.00021756277419626713,0.0015207479009404778,0.0015508823562413454
1782846177019188200,8.360188232421875,0.0011352694127708673,0.0003342023119330406,0.0007823305786587298
1782846177029193200,8.370193115234375,0.0004212758503854275,0.00009664823301136494,0.0021740985102951527
1782846177039198200,8.3801982421875,-0.0005900742253288627,-0.0011830362491309643,0.0006865462637506425
1782846177049203200,8.390203125,-0.0016662576235830784,-0.0008213785476982594,0.0017033411422744393
1782846177059208200,8.400208251953124,0.00009664986282587051,-0.0008091579657047987,0.0019053202122449875
1782846177069213200,8.410213134765625,0.002158203162252903,0.0037184820976108313,-0.001083545619621873
1782846177079218200,8.42021826171875,0.001585452351719141,-0.000790484482422471,0.0014237482100725174
1782846177089223200,8.43022314453125,-0.0003466710913926363,-0.001966536743566394,0.0005052238702774048
1782846177099228200,8.440228271484376,-0.00007561454549431801,0.00042894529178738594,0.0003634883905760944
1782846177109233200,8.450233154296875,0.00016646669246256351,-0.001177739817649126,0.0002732072025537491
1782846177119238100,8.460238037109375,-0.0011846228735521436,0.00038448325358331203,0.0035844286903738976
1782846177129243100,8.4702431640625,0.0008068890310823917,0.001743760658428073,0.00044083327520638704
1782846177139248000,8.480248046875,0.0012476546689867973,-0.0012004435993731022,0.00008640001760795712
1782846177149253000,8.490253173828124,0.00012539862655103207,-0.00015222327783703804,0.002182574011385441
1782846177159258000,8.500258056640625,0.0011796783655881882,-0.001031577354297042,-0.00028110994026064873
1782846177169263000,8.51026318359375,0.0005642217583954334,0.0009532766416668892,0.0017756493762135506
1782846177179268000,8.52026806640625,-0.0008080806583166122,0.0011689802631735802,0.003340237308293581
1782846177189273000,8.530273193359376,0.0014449534937739372,-0.00011359807103872299,0.00011088838800787926
1782846177199278000,8.540278076171875,0.002529284916818142,0.0009805543813854456,-0.002520832931622863
1782846177209283000,8.550282958984376,-0.000654257950372994,0.00031023682095110416,-0.0008475687354803085
1782846177219288000,8.5602880859375,0.004453320987522602,0.0016221788246184587,0.000054297561291605234
1782846177229293000,8.57029296875,-0.0015688848216086626,-0.00002764933742582798,-0.001832818379625678
1782846177239298000,8.580298095703125,-0.001434118952602148,0.001218919875100255,0.002124934922903776
1782846177249303000,8.590302978515625,0.0006426139734685421,-0.0013635472860187292,0.0008050723699852824
1782846177259308000,8.60030810546875,-0.00019766646437346935,0.0005173510871827602,0.00011524459114298224
1782846177269313000,8.61031298828125,-0.0005673131672665477,0.0014803501544520259,0.0008510759798809886
1782846177279318000,8.620318115234374,-0.006929767318069935,0.10698634386062622,0.0015770577592775226
1782846177289323000,8.630322998046875,0.009031089954078197,-0.039885394275188446,-0.011826098896563053
1782846177299328000,8.640327880859376,-0.003012260887771845,0.02315765619277954,-0.0035134945064783096
1782846177309333000,8.6503330078125,0.000997660681605339,-0.022414889186620712,-0.009300276637077332
1782846177319338000,8.660337890625,0.0020309388637542725,0.004252942278981209,-0.003864389844238758
1782846177329343000,8.670343017578125,0.0015132203698158264,-0.013454947620630264,-0.0009591476409696043
1782846177339348000,8.680347900390625,-0.0011562550207599998,-0.002792232669889927,-0.0009815569501370192
